"success","timeout","failed_images","failed_audio","failed_video","trial_type","trial_index","time_elapsed","internal_node_id","subject_id","study_id","session_id","task","rt","stimulus","response","item","answer","correct","spm_correct","spm_rt","view_history","mouse_click","stim_duration","block_duration","timing_post_trial","current_position","tol_num_moves_made","tol_target","tol_problem_id","tol_rt","key_press","possible_responses","tol_correct","preplanning","tol_rt_per_trial","tol_min_moves","fiar_detect_rt","fiar_detect_correct","total_correct_fiar_detect","post_trial_gap","choices"
"true","false","[]","[]","[]","preload","0","1932","0.0-0.0","545cccd0fdf99b75ad2e325a","E1","batch5","","","","","","","","","","","","","","","","","","","","","","","","","","","","","",""
"true","","","","","fullscreen","1","7095","0.0-1.0-0.0","545cccd0fdf99b75ad2e325a","E1","batch5","","","","","","","","","","","","","","","","","","","","","","","","","","","","","",""
"true","","","","","fullscreen","2","9758","0.0-2.0-0.0","545cccd0fdf99b75ad2e325a","E1","batch5","spm_fullscreen","","","","","","","","","","","","","","","","","","","","","","","","","","","","",""
"","","","","","html-button-response","3","18526","0.0-2.0-1.0","545cccd0fdf99b75ad2e325a","E1","batch5","","8766.90000000596","<p class = block-text><b>Instructions</b> <br>This is a widely used intelligence test in research. <br>In this test, a figure with a missing piece will be presented.<br>Below the figure are alternative pieces to complete the figure, only one of which is correct.<br> Different figures might involve different principles for obtaining the missing piece<br>Your job is to select the most logical piece to complete the figure.</p>","0","","","","","","","","","","","","","","","","","","","","","","","","","",""
"","","","","","html-keyboard-response","4","19327","0.0-2.0-2.0-0.0","545cccd0fdf99b75ad2e325a","E1","batch5","spm_show_trial_num","null","<p class=block-text>Trial 1 out of 60</p>","null","","","","","","","","","","","","","","","","","","","","","","","","","",""
"","","","","","image-button-response","5","28038","0.0-2.0-2.0-1.0","545cccd0fdf99b75ad2e325a","E1","batch5","spm_respsonse","8707","img/question_1_1.jpeg","3","mat_01","4","1","1","8707","","","","","","","","","","","","","","","","","","","","",""
"","","","","","html-keyboard-response","6","29102","0.0-2.0-2.0-0.1","545cccd0fdf99b75ad2e325a","E1","batch5","spm_show_trial_num","null","<p class=block-text>Trial 2 out of 60</p>","null","","","","","","","","","","","","","","","","","","","","","","","","","",""
"","","","","","image-button-response","7","31774","0.0-2.0-2.0-1.1","545cccd0fdf99b75ad2e325a","E1","batch5","spm_respsonse","2670.5","img/question_1_2.jpeg","4","mat_02","5","1","1","2670.5","","","","","","","","","","","","","","","","","","","","",""
"","","","","","html-keyboard-response","8","32852","0.0-2.0-2.0-0.2","545cccd0fdf99b75ad2e325a","E1","batch5","spm_show_trial_num","null","<p class=block-text>Trial 3 out of 60</p>","null","","","","","","","","","","","","","","","","","","","","","","","","","",""
"","","","","","image-button-response","9","35838","0.0-2.0-2.0-1.2","545cccd0fdf99b75ad2e325a","E1","batch5","spm_respsonse","2984.5","img/question_1_3.jpeg","0","mat_03","1","1","1","2984.5","","","","","","","","","","","","","","","","","","","","",""
"","","","","","html-keyboard-response","10","36916","0.0-2.0-2.0-0.3","545cccd0fdf99b75ad2e325a","E1","batch5","spm_show_trial_num","null","<p class=block-text>Trial 4 out of 60</p>","null","","","","","","","","","","","","","","","","","","","","","","","","","",""
"","","","","","image-button-response","11","39606","0.0-2.0-2.0-1.3","545cccd0fdf99b75ad2e325a","E1","batch5","spm_respsonse","2688.7000000178814","img/question_1_4.jpeg","1","mat_04","2","1","1","2688.7000000178814","","","","","","","","","","","","","","","","","","","","",""
"","","","","","html-keyboard-response","12","40672","0.0-2.0-2.0-0.4","545cccd0fdf99b75ad2e325a","E1","batch5","spm_show_trial_num","null","<p class=block-text>Trial 5 out of 60</p>","null","","","","","","","","","","","","","","","","","","","","","","","","","",""
"","","","","","image-button-response","13","42822","0.0-2.0-2.0-1.4","545cccd0fdf99b75ad2e325a","E1","batch5","spm_respsonse","2148.7000000178814","img/question_1_5.jpeg","5","mat_05","6","1","1","2148.7000000178814","","","","","","","","","","","","","","","","","","","","",""
"","","","","","html-keyboard-response","14","43892","0.0-2.0-2.0-0.5","545cccd0fdf99b75ad2e325a","E1","batch5","spm_show_trial_num","null","<p class=block-text>Trial 6 out of 60</p>","null","","","","","","","","","","","","","","","","","","","","","","","","","",""
"","","","","","image-button-response","15","46910","0.0-2.0-2.0-1.5","545cccd0fdf99b75ad2e325a","E1","batch5","spm_respsonse","3016.9000000059605","img/question_1_6.jpeg","2","mat_06","3","1","1","3016.9000000059605","","","","","","","","","","","","","","","","","","","","",""
"","","","","","html-keyboard-response","16","47975","0.0-2.0-2.0-0.6","545cccd0fdf99b75ad2e325a","E1","batch5","spm_show_trial_num","null","<p class=block-text>Trial 7 out of 60</p>","null","","","","","","","","","","","","","","","","","","","","","","","","","",""
"","","","","","image-button-response","17","51950","0.0-2.0-2.0-1.6","545cccd0fdf99b75ad2e325a","E1","batch5","spm_respsonse","3972.5999999940395","img/question_1_7.jpeg","5","mat_07","6","1","1","3972.5999999940395","","","","","","","","","","","","","","","","","","","","",""
"","","","","","html-keyboard-response","18","53012","0.0-2.0-2.0-0.7","545cccd0fdf99b75ad2e325a","E1","batch5","spm_show_trial_num","null","<p class=block-text>Trial 8 out of 60</p>","null","","","","","","","","","","","","","","","","","","","","","","","","","",""
"","","","","","image-button-response","19","62808","0.0-2.0-2.0-1.7","545cccd0fdf99b75ad2e325a","E1","batch5","spm_respsonse","9794.699999988079","img/question_1_8.jpeg","1","mat_08","2","1","1","9794.699999988079","","","","","","","","","","","","","","","","","","","","",""
"","","","","","html-keyboard-response","20","63873","0.0-2.0-2.0-0.8","545cccd0fdf99b75ad2e325a","E1","batch5","spm_show_trial_num","null","<p class=block-text>Trial 9 out of 60</p>","null","","","","","","","","","","","","","","","","","","","","","","","","","",""
"","","","","","image-button-response","21","67806","0.0-2.0-2.0-1.8","545cccd0fdf99b75ad2e325a","E1","batch5","spm_respsonse","3931.7000000178814","img/question_1_9.jpeg","0","mat_09","1","1","1","3931.7000000178814","","","","","","","","","","","","","","","","","","","","",""
"","","","","","html-keyboard-response","22","68867","0.0-2.0-2.0-0.9","545cccd0fdf99b75ad2e325a","E1","batch5","spm_show_trial_num","null","<p class=block-text>Trial 10 out of 60</p>","null","","","","","","","","","","","","","","","","","","","","","","","","","",""
"","","","","","image-button-response","23","75566","0.0-2.0-2.0-1.9","545cccd0fdf99b75ad2e325a","E1","batch5","spm_respsonse","6697","img/question_1_10.jpeg","2","mat_10","3","1","1","6697","","","","","","","","","","","","","","","","","","","","",""
"","","","","","html-keyboard-response","24","76644","0.0-2.0-2.0-0.10","545cccd0fdf99b75ad2e325a","E1","batch5","spm_show_trial_num","null","<p class=block-text>Trial 11 out of 60</p>","null","","","","","","","","","","","","","","","","","","","","","","","","","",""
"","","","","","image-button-response","25","81518","0.0-2.0-2.0-1.10","545cccd0fdf99b75ad2e325a","E1","batch5","spm_respsonse","4871.9000000059605","img/question_1_11.jpeg","3","mat_11","4","1","1","4871.9000000059605","","","","","","","","","","","","","","","","","","","","",""
"","","","","","html-keyboard-response","26","82579","0.0-2.0-2.0-0.11","545cccd0fdf99b75ad2e325a","E1","batch5","spm_show_trial_num","null","<p class=block-text>Trial 12 out of 60</p>","null","","","","","","","","","","","","","","","","","","","","","","","","","",""
"","","","","","image-button-response","27","93183","0.0-2.0-2.0-1.11","545cccd0fdf99b75ad2e325a","E1","batch5","spm_respsonse","10602","img/question_1_12.jpeg","0","mat_12","5","0","0","10602","","","","","","","","","","","","","","","","","","","","",""
"","","","","","html-keyboard-response","28","94254","0.0-2.0-2.0-0.12","545cccd0fdf99b75ad2e325a","E1","batch5","spm_show_trial_num","null","<p class=block-text>Trial 13 out of 60</p>","null","","","","","","","","","","","","","","","","","","","","","","","","","",""
"","","","","","image-button-response","29","97302","0.0-2.0-2.0-1.12","545cccd0fdf99b75ad2e325a","E1","batch5","spm_respsonse","3047.699999988079","img/question_2_1.jpeg","1","mat_13","2","1","1","3047.699999988079","","","","","","","","","","","","","","","","","","","","",""
"","","","","","html-keyboard-response","30","98375","0.0-2.0-2.0-0.13","545cccd0fdf99b75ad2e325a","E1","batch5","spm_show_trial_num","null","<p class=block-text>Trial 14 out of 60</p>","null","","","","","","","","","","","","","","","","","","","","","","","","","",""
"","","","","","image-button-response","31","104344","0.0-2.0-2.0-1.13","545cccd0fdf99b75ad2e325a","E1","batch5","spm_respsonse","5968","img/question_2_2.jpeg","5","mat_14","6","1","1","5968","","","","","","","","","","","","","","","","","","","","",""
"","","","","","html-keyboard-response","32","105410","0.0-2.0-2.0-0.14","545cccd0fdf99b75ad2e325a","E1","batch5","spm_show_trial_num","null","<p class=block-text>Trial 15 out of 60</p>","null","","","","","","","","","","","","","","","","","","","","","","","","","",""
"","","","","","image-button-response","33","108112","0.0-2.0-2.0-1.14","545cccd0fdf99b75ad2e325a","E1","batch5","spm_respsonse","2700","img/question_2_3.jpeg","0","mat_15","1","1","1","2700","","","","","","","","","","","","","","","","","","","","",""
"","","","","","html-keyboard-response","34","109178","0.0-2.0-2.0-0.15","545cccd0fdf99b75ad2e325a","E1","batch5","spm_show_trial_num","null","<p class=block-text>Trial 16 out of 60</p>","null","","","","","","","","","","","","","","","","","","","","","","","","","",""
"","","","","","image-button-response","35","113079","0.0-2.0-2.0-1.15","545cccd0fdf99b75ad2e325a","E1","batch5","spm_respsonse","3899.699999988079","img/question_2_4.jpeg","1","mat_16","2","1","1","3899.699999988079","","","","","","","","","","","","","","","","","","","","",""
"","","","","","html-keyboard-response","36","114145","0.0-2.0-2.0-0.16","545cccd0fdf99b75ad2e325a","E1","batch5","spm_show_trial_num","null","<p class=block-text>Trial 17 out of 60</p>","null","","","","","","","","","","","","","","","","","","","","","","","","","",""
"","","","","","image-button-response","37","122351","0.0-2.0-2.0-1.16","545cccd0fdf99b75ad2e325a","E1","batch5","spm_respsonse","8204.100000023842","img/question_2_5.jpeg","0","mat_17","1","1","1","8204.100000023842","","","","","","","","","","","","","","","","","","","","",""
"","","","","","html-keyboard-response","38","123423","0.0-2.0-2.0-0.17","545cccd0fdf99b75ad2e325a","E1","batch5","spm_show_trial_num","null","<p class=block-text>Trial 18 out of 60</p>","null","","","","","","","","","","","","","","","","","","","","","","","","","",""
"","","","","","image-button-response","39","130511","0.0-2.0-2.0-1.17","545cccd0fdf99b75ad2e325a","E1","batch5","spm_respsonse","7085.800000011921","img/question_2_6.jpeg","2","mat_18","3","1","1","7085.800000011921","","","","","","","","","","","","","","","","","","","","",""
"","","","","","html-keyboard-response","40","131583","0.0-2.0-2.0-0.18","545cccd0fdf99b75ad2e325a","E1","batch5","spm_show_trial_num","null","<p class=block-text>Trial 19 out of 60</p>","null","","","","","","","","","","","","","","","","","","","","","","","","","",""
"","","","","","image-button-response","41","135575","0.0-2.0-2.0-1.18","545cccd0fdf99b75ad2e325a","E1","batch5","spm_respsonse","3990.699999988079","img/question_2_7.jpeg","4","mat_19","5","1","1","3990.699999988079","","","","","","","","","","","","","","","","","","","","",""
"","","","","","html-keyboard-response","42","136651","0.0-2.0-2.0-0.19","545cccd0fdf99b75ad2e325a","E1","batch5","spm_show_trial_num","null","<p class=block-text>Trial 20 out of 60</p>","null","","","","","","","","","","","","","","","","","","","","","","","","","",""
"","","","","","image-button-response","43","140655","0.0-2.0-2.0-1.19","545cccd0fdf99b75ad2e325a","E1","batch5","spm_respsonse","4002.5999999940395","img/question_2_8.jpeg","5","mat_20","6","1","1","4002.5999999940395","","","","","","","","","","","","","","","","","","","","",""
"","","","","","html-keyboard-response","44","141720","0.0-2.0-2.0-0.20","545cccd0fdf99b75ad2e325a","E1","batch5","spm_show_trial_num","null","<p class=block-text>Trial 21 out of 60</p>","null","","","","","","","","","","","","","","","","","","","","","","","","","",""
"","","","","","image-button-response","45","147184","0.0-2.0-2.0-1.20","545cccd0fdf99b75ad2e325a","E1","batch5","spm_respsonse","5461.100000023842","img/question_2_9.jpeg","3","mat_21","4","1","1","5461.100000023842","","","","","","","","","","","","","","","","","","","","",""
"","","","","","html-keyboard-response","46","148240","0.0-2.0-2.0-0.21","545cccd0fdf99b75ad2e325a","E1","batch5","spm_show_trial_num","null","<p class=block-text>Trial 22 out of 60</p>","null","","","","","","","","","","","","","","","","","","","","","","","","","",""
"","","","","","image-button-response","47","152760","0.0-2.0-2.0-1.21","545cccd0fdf99b75ad2e325a","E1","batch5","spm_respsonse","4517.299999982119","img/question_2_10.jpeg","2","mat_22","3","1","1","4517.299999982119","","","","","","","","","","","","","","","","","","","","",""
"","","","","","html-keyboard-response","48","153827","0.0-2.0-2.0-0.22","545cccd0fdf99b75ad2e325a","E1","batch5","spm_show_trial_num","null","<p class=block-text>Trial 23 out of 60</p>","null","","","","","","","","","","","","","","","","","","","","","","","","","",""
"","","","","","image-button-response","49","157936","0.0-2.0-2.0-1.22","545cccd0fdf99b75ad2e325a","E1","batch5","spm_respsonse","4107.5","img/question_2_11.jpeg","3","mat_23","4","1","1","4107.5","","","","","","","","","","","","","","","","","","","","",""
"","","","","","html-keyboard-response","50","159001","0.0-2.0-2.0-0.23","545cccd0fdf99b75ad2e325a","E1","batch5","spm_show_trial_num","null","<p class=block-text>Trial 24 out of 60</p>","null","","","","","","","","","","","","","","","","","","","","","","","","","",""
"","","","","","image-button-response","51","171105","0.0-2.0-2.0-1.23","545cccd0fdf99b75ad2e325a","E1","batch5","spm_respsonse","12101.59999999404","img/question_2_12.jpeg","4","mat_24","5","1","1","12101.59999999404","","","","","","","","","","","","","","","","","","","","",""
"","","","","","html-button-response","52","172928","0.0-2.0-3.0","545cccd0fdf99b75ad2e325a","E1","batch5","attention_check","1558.7000000178814","<p class = block-text>Attention check: Please choose 1<br></p>","0","","","true","","","","","","","","","","","","","","","","","","","","","","",""
"","","","","","html-keyboard-response","53","173729","0.0-2.0-4.0-0.0","545cccd0fdf99b75ad2e325a","E1","batch5","spm_show_trial_num","null","<p class=block-text>Trial 25 out of 60</p>","null","","","","","","","","","","","","","","","","","","","","","","","","","",""
"","","","","","image-button-response","54","186904","0.0-2.0-4.0-1.0","545cccd0fdf99b75ad2e325a","E1","batch5","spm_respsonse","13170.699999988079","img/question_3_1.jpeg","7","mat_25","8","1","1","13170.699999988079","","","","","","","","","","","","","","","","","","","","",""
"","","","","","html-keyboard-response","55","187975","0.0-2.0-4.0-0.1","545cccd0fdf99b75ad2e325a","E1","batch5","spm_show_trial_num","null","<p class=block-text>Trial 26 out of 60</p>","null","","","","","","","","","","","","","","","","","","","","","","","","","",""
"","","","","","image-button-response","56","201799","0.0-2.0-4.0-1.1","545cccd0fdf99b75ad2e325a","E1","batch5","spm_respsonse","13822.899999976158","img/question_3_2.jpeg","1","mat_26","2","1","1","13822.899999976158","","","","","","","","","","","","","","","","","","","","",""
"","","","","","html-keyboard-response","57","202871","0.0-2.0-4.0-0.2","545cccd0fdf99b75ad2e325a","E1","batch5","spm_show_trial_num","null","<p class=block-text>Trial 27 out of 60</p>","null","","","","","","","","","","","","","","","","","","","","","","","","","",""
"","","","","","image-button-response","58","247328","0.0-2.0-4.0-1.2","545cccd0fdf99b75ad2e325a","E1","batch5","spm_respsonse","44453.5","img/question_3_3.jpeg","2","mat_27","3","1","1","44453.5","","","","","","","","","","","","","","","","","","","","",""
"","","","","","html-keyboard-response","59","248406","0.0-2.0-4.0-0.3","545cccd0fdf99b75ad2e325a","E1","batch5","spm_show_trial_num","null","<p class=block-text>Trial 28 out of 60</p>","null","","","","","","","","","","","","","","","","","","","","","","","","","",""
"","","","","","image-button-response","60","270448","0.0-2.0-4.0-1.3","545cccd0fdf99b75ad2e325a","E1","batch5","spm_respsonse","22039.90000000596","img/question_3_4.jpeg","7","mat_28","8","1","1","22039.90000000596","","","","","","","","","","","","","","","","","","","","",""
"","","","","","html-keyboard-response","61","271512","0.0-2.0-4.0-0.4","545cccd0fdf99b75ad2e325a","E1","batch5","spm_show_trial_num","null","<p class=block-text>Trial 29 out of 60</p>","null","","","","","","","","","","","","","","","","","","","","","","","","","",""
"","","","","","image-button-response","62","279545","0.0-2.0-4.0-1.4","545cccd0fdf99b75ad2e325a","E1","batch5","spm_respsonse","8031.4000000059605","img/question_3_5.jpeg","6","mat_29","7","1","1","8031.4000000059605","","","","","","","","","","","","","","","","","","","","",""
"","","","","","html-keyboard-response","63","280614","0.0-2.0-4.0-0.5","545cccd0fdf99b75ad2e325a","E1","batch5","spm_show_trial_num","null","<p class=block-text>Trial 30 out of 60</p>","null","","","","","","","","","","","","","","","","","","","","","","","","","",""
"","","","","","image-button-response","64","283505","0.0-2.0-4.0-1.5","545cccd0fdf99b75ad2e325a","E1","batch5","spm_respsonse","2889","img/question_3_6.jpeg","3","mat_30","4","1","1","2889","","","","","","","","","","","","","","","","","","","","",""
"","","","","","html-keyboard-response","65","284563","0.0-2.0-4.0-0.6","545cccd0fdf99b75ad2e325a","E1","batch5","spm_show_trial_num","null","<p class=block-text>Trial 31 out of 60</p>","null","","","","","","","","","","","","","","","","","","","","","","","","","",""
"","","","","","image-button-response","66","289225","0.0-2.0-4.0-1.6","545cccd0fdf99b75ad2e325a","E1","batch5","spm_respsonse","4660.9000000059605","img/question_3_7.jpeg","4","mat_31","5","1","1","4660.9000000059605","","","","","","","","","","","","","","","","","","","","",""
"","","","","","html-keyboard-response","67","290300","0.0-2.0-4.0-0.7","545cccd0fdf99b75ad2e325a","E1","batch5","spm_show_trial_num","null","<p class=block-text>Trial 32 out of 60</p>","null","","","","","","","","","","","","","","","","","","","","","","","","","",""
"","","","","","image-button-response","68","302648","0.0-2.0-4.0-1.7","545cccd0fdf99b75ad2e325a","E1","batch5","spm_respsonse","12346.299999982119","img/question_3_8.jpeg","0","mat_32","1","1","1","12346.299999982119","","","","","","","","","","","","","","","","","","","","",""
"","","","","","html-keyboard-response","69","303701","0.0-2.0-4.0-0.8","545cccd0fdf99b75ad2e325a","E1","batch5","spm_show_trial_num","null","<p class=block-text>Trial 33 out of 60</p>","null","","","","","","","","","","","","","","","","","","","","","","","","","",""
"","","","","","image-button-response","70","311833","0.0-2.0-4.0-1.8","545cccd0fdf99b75ad2e325a","E1","batch5","spm_respsonse","8130.0999999940395","img/question_3_9.jpeg","6","mat_33","7","1","1","8130.0999999940395","","","","","","","","","","","","","","","","","","","","",""
"","","","","","html-keyboard-response","71","312910","0.0-2.0-4.0-0.9","545cccd0fdf99b75ad2e325a","E1","batch5","spm_show_trial_num","null","<p class=block-text>Trial 34 out of 60</p>","null","","","","","","","","","","","","","","","","","","","","","","","","","",""
"","","","","","image-button-response","72","324233","0.0-2.0-4.0-1.9","545cccd0fdf99b75ad2e325a","E1","batch5","spm_respsonse","11321.5","img/question_3_10.jpeg","3","mat_34","6","0","0","11321.5","","","","","","","","","","","","","","","","","","","","",""
"","","","","","html-keyboard-response","73","325301","0.0-2.0-4.0-0.10","545cccd0fdf99b75ad2e325a","E1","batch5","spm_show_trial_num","null","<p class=block-text>Trial 35 out of 60</p>","null","","","","","","","","","","","","","","","","","","","","","","","","","",""
"","","","","","image-button-response","74","337400","0.0-2.0-4.0-1.10","545cccd0fdf99b75ad2e325a","E1","batch5","spm_respsonse","12097.300000011921","img/question_3_11.jpeg","4","mat_35","1","0","0","12097.300000011921","","","","","","","","","","","","","","","","","","","","",""
"","","","","","html-keyboard-response","75","338466","0.0-2.0-4.0-0.11","545cccd0fdf99b75ad2e325a","E1","batch5","spm_show_trial_num","null","<p class=block-text>Trial 36 out of 60</p>","null","","","","","","","","","","","","","","","","","","","","","","","","","",""
"","","","","","image-button-response","76","360504","0.0-2.0-4.0-1.11","545cccd0fdf99b75ad2e325a","E1","batch5","spm_respsonse","22037.19999998808","img/question_3_12.jpeg","2","mat_36","2","0","0","22037.19999998808","","","","","","","","","","","","","","","","","","","","",""
"","","","","","html-keyboard-response","77","361557","0.0-2.0-4.0-0.12","545cccd0fdf99b75ad2e325a","E1","batch5","spm_show_trial_num","null","<p class=block-text>Trial 37 out of 60</p>","null","","","","","","","","","","","","","","","","","","","","","","","","","",""
"","","","","","image-button-response","78","365336","0.0-2.0-4.0-1.12","545cccd0fdf99b75ad2e325a","E1","batch5","spm_respsonse","3777.5999999940395","img/question_4_1.jpeg","2","mat_37","3","1","1","3777.5999999940395","","","","","","","","","","","","","","","","","","","","",""
"","","","","","html-keyboard-response","79","366388","0.0-2.0-4.0-0.13","545cccd0fdf99b75ad2e325a","E1","batch5","spm_show_trial_num","null","<p class=block-text>Trial 38 out of 60</p>","null","","","","","","","","","","","","","","","","","","","","","","","","","",""
"","","","","","image-button-response","80","370304","0.0-2.0-4.0-1.13","545cccd0fdf99b75ad2e325a","E1","batch5","spm_respsonse","3914.9000000059605","img/question_4_2.jpeg","3","mat_38","4","1","1","3914.9000000059605","","","","","","","","","","","","","","","","","","","","",""
"","","","","","html-keyboard-response","81","371373","0.0-2.0-4.0-0.14","545cccd0fdf99b75ad2e325a","E1","batch5","spm_show_trial_num","null","<p class=block-text>Trial 39 out of 60</p>","null","","","","","","","","","","","","","","","","","","","","","","","","","",""
"","","","","","image-button-response","82","377585","0.0-2.0-4.0-1.14","545cccd0fdf99b75ad2e325a","E1","batch5","spm_respsonse","6209.799999982119","img/question_4_3.jpeg","2","mat_39","3","1","1","6209.799999982119","","","","","","","","","","","","","","","","","","","","",""
"","","","","","html-keyboard-response","83","378659","0.0-2.0-4.0-0.15","545cccd0fdf99b75ad2e325a","E1","batch5","spm_show_trial_num","null","<p class=block-text>Trial 40 out of 60</p>","null","","","","","","","","","","","","","","","","","","","","","","","","","",""
"","","","","","image-button-response","84","384448","0.0-2.0-4.0-1.15","545cccd0fdf99b75ad2e325a","E1","batch5","spm_respsonse","5787.9000000059605","img/question_4_4.jpeg","6","mat_40","7","1","1","5787.9000000059605","","","","","","","","","","","","","","","","","","","","",""
"","","","","","html-keyboard-response","85","385515","0.0-2.0-4.0-0.16","545cccd0fdf99b75ad2e325a","E1","batch5","spm_show_trial_num","null","<p class=block-text>Trial 41 out of 60</p>","null","","","","","","","","","","","","","","","","","","","","","","","","","",""
"","","","","","image-button-response","86","391384","0.0-2.0-4.0-1.16","545cccd0fdf99b75ad2e325a","E1","batch5","spm_respsonse","5867.199999988079","img/question_4_5.jpeg","7","mat_41","8","1","1","5867.199999988079","","","","","","","","","","","","","","","","","","","","",""
"","","","","","html-keyboard-response","87","392460","0.0-2.0-4.0-0.17","545cccd0fdf99b75ad2e325a","E1","batch5","spm_show_trial_num","null","<p class=block-text>Trial 42 out of 60</p>","null","","","","","","","","","","","","","","","","","","","","","","","","","",""
"","","","","","image-button-response","88","397914","0.0-2.0-4.0-1.17","545cccd0fdf99b75ad2e325a","E1","batch5","spm_respsonse","5449.200000017881","img/question_4_6.jpeg","5","mat_42","6","1","1","5449.200000017881","","","","","","","","","","","","","","","","","","","","",""
"","","","","","html-keyboard-response","89","398986","0.0-2.0-4.0-0.18","545cccd0fdf99b75ad2e325a","E1","batch5","spm_show_trial_num","null","<p class=block-text>Trial 43 out of 60</p>","null","","","","","","","","","","","","","","","","","","","","","","","","","",""
"","","","","","image-button-response","90","413873","0.0-2.0-4.0-1.18","545cccd0fdf99b75ad2e325a","E1","batch5","spm_respsonse","14886.399999976158","img/question_4_7.jpeg","4","mat_43","5","1","1","14886.399999976158","","","","","","","","","","","","","","","","","","","","",""
"","","","","","html-keyboard-response","91","414948","0.0-2.0-4.0-0.19","545cccd0fdf99b75ad2e325a","E1","batch5","spm_show_trial_num","null","<p class=block-text>Trial 44 out of 60</p>","null","","","","","","","","","","","","","","","","","","","","","","","","","",""
"","","","","","image-button-response","92","421497","0.0-2.0-4.0-1.19","545cccd0fdf99b75ad2e325a","E1","batch5","spm_respsonse","6547.399999976158","img/question_4_8.jpeg","3","mat_44","4","1","1","6547.399999976158","","","","","","","","","","","","","","","","","","","","",""
"","","","","","html-keyboard-response","93","422562","0.0-2.0-4.0-0.20","545cccd0fdf99b75ad2e325a","E1","batch5","spm_show_trial_num","null","<p class=block-text>Trial 45 out of 60</p>","null","","","","","","","","","","","","","","","","","","","","","","","","","",""
"","","","","","image-button-response","94","432746","0.0-2.0-4.0-1.20","545cccd0fdf99b75ad2e325a","E1","batch5","spm_respsonse","10182","img/question_4_9.jpeg","0","mat_45","1","1","1","10182","","","","","","","","","","","","","","","","","","","","",""
"","","","","","html-keyboard-response","95","433799","0.0-2.0-4.0-0.21","545cccd0fdf99b75ad2e325a","E1","batch5","spm_show_trial_num","null","<p class=block-text>Trial 46 out of 60</p>","null","","","","","","","","","","","","","","","","","","","","","","","","","",""
"","","","","","image-button-response","96","442138","0.0-2.0-4.0-1.21","545cccd0fdf99b75ad2e325a","E1","batch5","spm_respsonse","8337.09999999404","img/question_4_10.jpeg","1","mat_46","2","1","1","8337.09999999404","","","","","","","","","","","","","","","","","","","","",""
"","","","","","html-keyboard-response","97","443206","0.0-2.0-4.0-0.22","545cccd0fdf99b75ad2e325a","E1","batch5","spm_show_trial_num","null","<p class=block-text>Trial 47 out of 60</p>","null","","","","","","","","","","","","","","","","","","","","","","","","","",""
"","","","","","image-button-response","98","505738","0.0-2.0-4.0-1.22","545cccd0fdf99b75ad2e325a","E1","batch5","spm_respsonse","62529.39999997616","img/question_4_11.jpeg","5","mat_47","5","0","0","62529.39999997616","","","","","","","","","","","","","","","","","","","","",""
"","","","","","html-keyboard-response","99","506813","0.0-2.0-4.0-0.23","545cccd0fdf99b75ad2e325a","E1","batch5","spm_show_trial_num","null","<p class=block-text>Trial 48 out of 60</p>","null","","","","","","","","","","","","","","","","","","","","","","","","","",""
"","","","","","image-button-response","100","513577","0.0-2.0-4.0-1.23","545cccd0fdf99b75ad2e325a","E1","batch5","spm_respsonse","6762.5","img/question_4_12.jpeg","6","mat_48","6","0","0","6762.5","","","","","","","","","","","","","","","","","","","","",""
"","","","","","html-keyboard-response","101","514629","0.0-2.0-4.0-0.24","545cccd0fdf99b75ad2e325a","E1","batch5","spm_show_trial_num","null","<p class=block-text>Trial 49 out of 60</p>","null","","","","","","","","","","","","","","","","","","","","","","","","","",""
"","","","","","image-button-response","102","522554","0.0-2.0-4.0-1.24","545cccd0fdf99b75ad2e325a","E1","batch5","spm_respsonse","7923.0999999940395","img/question_5_1.jpeg","6","mat_49","7","1","1","7923.0999999940395","","","","","","","","","","","","","","","","","","","","",""
"","","","","","html-keyboard-response","103","523616","0.0-2.0-4.0-0.25","545cccd0fdf99b75ad2e325a","E1","batch5","spm_show_trial_num","null","<p class=block-text>Trial 50 out of 60</p>","null","","","","","","","","","","","","","","","","","","","","","","","","","",""
"","","","","","image-button-response","104","557530","0.0-2.0-4.0-1.25","545cccd0fdf99b75ad2e325a","E1","batch5","spm_respsonse","33911.79999998212","img/question_5_2.jpeg","5","mat_50","6","1","1","33911.79999998212","","","","","","","","","","","","","","","","","","","","",""
"","","","","","html-keyboard-response","105","558594","0.0-2.0-4.0-0.26","545cccd0fdf99b75ad2e325a","E1","batch5","spm_show_trial_num","null","<p class=block-text>Trial 51 out of 60</p>","null","","","","","","","","","","","","","","","","","","","","","","","","","",""
"","","","","","image-button-response","106","584579","0.0-2.0-4.0-1.26","545cccd0fdf99b75ad2e325a","E1","batch5","spm_respsonse","25982","img/question_5_3.jpeg","7","mat_51","8","1","1","25982","","","","","","","","","","","","","","","","","","","","",""
"","","","","","html-keyboard-response","107","585635","0.0-2.0-4.0-0.27","545cccd0fdf99b75ad2e325a","E1","batch5","spm_show_trial_num","null","<p class=block-text>Trial 52 out of 60</p>","null","","","","","","","","","","","","","","","","","","","","","","","","","",""
"","","","","","image-button-response","108","592763","0.0-2.0-4.0-1.27","545cccd0fdf99b75ad2e325a","E1","batch5","spm_respsonse","7127.0999999940395","img/question_5_4.jpeg","1","mat_52","2","1","1","7127.0999999940395","","","","","","","","","","","","","","","","","","","","",""
"","","","","","html-keyboard-response","109","593827","0.0-2.0-4.0-0.28","545cccd0fdf99b75ad2e325a","E1","batch5","spm_show_trial_num","null","<p class=block-text>Trial 53 out of 60</p>","null","","","","","","","","","","","","","","","","","","","","","","","","","",""
"","","","","","image-button-response","110","602235","0.0-2.0-4.0-1.28","545cccd0fdf99b75ad2e325a","E1","batch5","spm_respsonse","8406.299999982119","img/question_5_5.jpeg","0","mat_53","1","1","1","8406.299999982119","","","","","","","","","","","","","","","","","","","","",""
"","","","","","html-keyboard-response","111","603301","0.0-2.0-4.0-0.29","545cccd0fdf99b75ad2e325a","E1","batch5","spm_show_trial_num","null","<p class=block-text>Trial 54 out of 60</p>","null","","","","","","","","","","","","","","","","","","","","","","","","","",""
"","","","","","image-button-response","112","611675","0.0-2.0-4.0-1.29","545cccd0fdf99b75ad2e325a","E1","batch5","spm_respsonse","8372.5","img/question_5_6.jpeg","4","mat_54","5","1","1","8372.5","","","","","","","","","","","","","","","","","","","","",""
"","","","","","html-keyboard-response","113","612746","0.0-2.0-4.0-0.30","545cccd0fdf99b75ad2e325a","E1","batch5","spm_show_trial_num","null","<p class=block-text>Trial 55 out of 60</p>","null","","","","","","","","","","","","","","","","","","","","","","","","","",""
"","","","","","image-button-response","114","628691","0.0-2.0-4.0-1.30","545cccd0fdf99b75ad2e325a","E1","batch5","spm_respsonse","15943.90000000596","img/question_5_7.jpeg","0","mat_55","1","1","1","15943.90000000596","","","","","","","","","","","","","","","","","","","","",""
"","","","","","html-keyboard-response","115","629752","0.0-2.0-4.0-0.31","545cccd0fdf99b75ad2e325a","E1","batch5","spm_show_trial_num","null","<p class=block-text>Trial 56 out of 60</p>","null","","","","","","","","","","","","","","","","","","","","","","","","","",""
"","","","","","image-button-response","116","645107","0.0-2.0-4.0-1.31","545cccd0fdf99b75ad2e325a","E1","batch5","spm_respsonse","15352.90000000596","img/question_5_8.jpeg","5","mat_56","6","1","1","15352.90000000596","","","","","","","","","","","","","","","","","","","","",""
"","","","","","html-keyboard-response","117","646171","0.0-2.0-4.0-0.32","545cccd0fdf99b75ad2e325a","E1","batch5","spm_show_trial_num","null","<p class=block-text>Trial 57 out of 60</p>","null","","","","","","","","","","","","","","","","","","","","","","","","","",""
"","","","","","image-button-response","118","677243","0.0-2.0-4.0-1.32","545cccd0fdf99b75ad2e325a","E1","batch5","spm_respsonse","31070.69999998808","img/question_5_9.jpeg","4","mat_57","3","0","0","31070.69999998808","","","","","","","","","","","","","","","","","","","","",""
"","","","","","html-keyboard-response","119","678320","0.0-2.0-4.0-0.33","545cccd0fdf99b75ad2e325a","E1","batch5","spm_show_trial_num","null","<p class=block-text>Trial 58 out of 60</p>","null","","","","","","","","","","","","","","","","","","","","","","","","","",""
"","","","","","image-button-response","120","734900","0.0-2.0-4.0-1.33","545cccd0fdf99b75ad2e325a","E1","batch5","spm_respsonse","56578.19999998808","img/question_5_10.jpeg","5","mat_58","2","0","0","56578.19999998808","","","","","","","","","","","","","","","","","","","","",""
"","","","","","html-keyboard-response","121","735974","0.0-2.0-4.0-0.34","545cccd0fdf99b75ad2e325a","E1","batch5","spm_show_trial_num","null","<p class=block-text>Trial 59 out of 60</p>","null","","","","","","","","","","","","","","","","","","","","","","","","","",""
"","","","","","image-button-response","122","748659","0.0-2.0-4.0-1.34","545cccd0fdf99b75ad2e325a","E1","batch5","spm_respsonse","12684.200000017881","img/question_5_11.jpeg","6","mat_59","4","0","0","12684.200000017881","","","","","","","","","","","","","","","","","","","","",""
"","","","","","html-keyboard-response","123","749711","0.0-2.0-4.0-0.35","545cccd0fdf99b75ad2e325a","E1","batch5","spm_show_trial_num","null","<p class=block-text>Trial 60 out of 60</p>","null","","","","","","","","","","","","","","","","","","","","","","","","","",""
"","","","","","image-button-response","124","779908","0.0-2.0-4.0-1.35","545cccd0fdf99b75ad2e325a","E1","batch5","spm_respsonse","30194.5","img/question_5_12.jpeg","1","mat_60","5","0","0","30194.5","","","","","","","","","","","","","","","","","","","","",""
"","","","","","html-button-response","125","1010095","0.0-2.0-5.0","545cccd0fdf99b75ad2e325a","E1","batch5","spm_goodbye","229933.09999999404","<p class= block-text>This concludes the Standard Progressive Matrix game. Thank you for your responses!<br> When you are ready, click the button continue</p>","0","","","","","","","","","","","","","","","","","","","","","","","","","",""
"true","","","","","fullscreen","126","1012270","0.0-3.0-0.0","545cccd0fdf99b75ad2e325a","E1","batch5","","","","","","","","","","","","","","","","","","","","","","","","","","","","","",""
"","","","","","instructions","127","1039853","0.0-3.0-1.0-0.0-0.0","545cccd0fdf99b75ad2e325a","E1","batch5","tol-instructions","27583.5","","","","","","","","[{""page_index"":0,""viewing_time"":7447.300000011921},{""page_index"":1,""viewing_time"":3104},{""page_index"":2,""viewing_time"":3128},{""page_index"":3,""viewing_time"":5344.5},{""page_index"":4,""viewing_time"":3087.199999988079},{""page_index"":5,""viewing_time"":3312.2000000178814},{""page_index"":6,""viewing_time"":2160}]","","","","","","","","","","","","","","","","","","","",""
"","","","","","html-button-response","128","1040573","0.0-3.0-1.0-1.0-0.0","545cccd0fdf99b75ad2e325a","E1","batch5","tol_enter_quiz","719.1999999880791","<p class=block-text> Let's answer a few questions <br>","0","","","","","","","","","","","","","","","","","","","","","","","","","",""
"","","","","","html-button-response","129","1043141","0.0-3.0-1.0-1.0-1.0","545cccd0fdf99b75ad2e325a","E1","batch5","tol_quiz","2567.399999976158","<p class = block-text>True or False: You can only move the ball on top of a peg. <br></p>","1","","","false","","","","","","","","","","","","","","","","","","","","","","",""
"","","","","","html-button-response","130","1044237","0.0-3.0-1.0-1.0-2.0","545cccd0fdf99b75ad2e325a","E1","batch5","tol_quiz_feedback","1094.800000011921","<p class = block-text>Incorrect. Remember, you can only move the ball on top of a peg.</p>","0","","","","","","","","","","","","","","","","","","","","","","","","","",""
"","","","","","html-button-response","131","1046813","0.0-3.0-1.0-1.0-3.0","545cccd0fdf99b75ad2e325a","E1","batch5","tol_quiz","2575","<p class = block-text>True or False: You should try to match your board with the target board with fewest moves possible. <br></p>","0","","","true","","","","","","","","","","","","","","","","","","","","","","",""
"","","","","","html-button-response","132","1047389","0.0-3.0-1.0-1.0-4.0","545cccd0fdf99b75ad2e325a","E1","batch5","tol_quiz_feedback","575.5","<p class = block-text>Correct! </p>","0","","","","","","","","","","","","","","","","","","","","","","","","","",""
"","","","","","html-button-response","133","1048949","0.0-3.0-1.0-2.0-0.0","545cccd0fdf99b75ad2e325a","E1","batch5","","1559","<p class = block-text>You made too many incorrect choices.</p><p class = block-text>You will now repeat the instructions and quiz</p>","0","","","","","","","","","","","","","","","","","","","","","","","","","",""
"","","","","","instructions","134","1054669","0.0-3.0-1.1-0.1-0.1","545cccd0fdf99b75ad2e325a","E1","batch5","tol-instructions","5719.4000000059605","","","","","","","","[{""page_index"":0,""viewing_time"":1375.6000000238419},{""page_index"":1,""viewing_time"":600},{""page_index"":2,""viewing_time"":520.1999999880791},{""page_index"":3,""viewing_time"":887.4000000059605},{""page_index"":4,""viewing_time"":704.5},{""page_index"":5,""viewing_time"":535.5},{""page_index"":6,""viewing_time"":1096}]","","","","","","","","","","","","","","","","","","","",""
"","","","","","html-button-response","135","1055278","0.0-3.0-1.1-1.1-0.1","545cccd0fdf99b75ad2e325a","E1","batch5","tol_enter_quiz","608.5999999940395","<p class=block-text> Let's answer a few questions <br>","0","","","","","","","","","","","","","","","","","","","","","","","","","",""
"","","","","","html-button-response","136","1058077","0.0-3.0-1.1-1.1-1.1","545cccd0fdf99b75ad2e325a","E1","batch5","tol_quiz","2798.4000000059605","<p class = block-text>True or False: You can only move the ball on top of a peg. <br></p>","0","","","true","","","","","","","","","","","","","","","","","","","","","","",""
"","","","","","html-button-response","137","1058925","0.0-3.0-1.1-1.1-2.1","545cccd0fdf99b75ad2e325a","E1","batch5","tol_quiz_feedback","847.5999999940395","<p class = block-text>Correct! You can only move the ball on top of a peg.</p>","0","","","","","","","","","","","","","","","","","","","","","","","","","",""
"","","","","","html-button-response","138","1060301","0.0-3.0-1.1-1.1-3.1","545cccd0fdf99b75ad2e325a","E1","batch5","tol_quiz","1375.2999999821186","<p class = block-text>True or False: You should try to match your board with the target board with fewest moves possible. <br></p>","0","","","true","","","","","","","","","","","","","","","","","","","","","","",""
"","","","","","html-button-response","139","1060725","0.0-3.0-1.1-1.1-4.1","545cccd0fdf99b75ad2e325a","E1","batch5","tol_quiz_feedback","423","<p class = block-text>Correct! </p>","0","","","","","","","","","","","","","","","","","","","","","","","","","",""
"","","","","","html-button-response","140","1062173","0.0-3.0-2.0","545cccd0fdf99b75ad2e325a","E1","batch5","","1447.7000000178814","<p class=block-text> Now that you've understood the game, let's practice a few easier examples before we start!<br> <br>","0","","","","","","","","","","","","","","","","","","","","","","","","","",""
"","","","","","single-stim-button","141","1064103","0.0-3.0-3.0-0.0","545cccd0fdf99b75ad2e325a","E1","batch5","tol_practice","1928","","","","","","","","","tol_peg_2","1928","1928","0","[[1,2,0],[0,0],[0]]","1","[[1,2,0],[0,0],[3]]","practice","1928","","","","","","","","","","",""
"","","","","","single-stim-button","142","1064973","0.0-3.0-3.0-1.0","545cccd0fdf99b75ad2e325a","E1","batch5","tol_practice","870","","","","","","","","","tol_peg_3","870","870","0","[[1,2,0],[0,0],[3]]","1","[[1,2,0],[0,0],[3]]","practice","870","","","","","","","","","","",""
"","","","","","poldrack-single-stim","143","1065974","0.0-3.0-4.0","545cccd0fdf99b75ad2e325a","E1","batch5","tol_feedback","-1","","","","","true","","","","","1000","1000","500","","","","","","-1","none","true","","0","","","","","",""
"","","","","","single-stim-button","144","1068702","0.0-3.0-5.0-0.0","545cccd0fdf99b75ad2e325a","E1","batch5","tol_practice","2726","","","","","","","","","tol_peg_1","2726","2726","0","[[1,0,0],[3,0],[0]]","2","[[0,0,0],[3,1],[2]]","practice","2726","","","","","","","","","","",""
"","","","","","single-stim-button","145","1069406","0.0-3.0-5.0-1.0","545cccd0fdf99b75ad2e325a","E1","batch5","tol_practice","703","","","","","","","","","tol_peg_3","703","703","0","[[1,0,0],[3,0],[2]]","2","[[0,0,0],[3,1],[2]]","practice","703","","","","","","","","","","",""
"","","","","","single-stim-button","146","1070222","0.0-3.0-5.1-0.1","545cccd0fdf99b75ad2e325a","E1","batch5","tol_practice","815","","","","","","","","","tol_peg_1","815","815","0","[[0,0,0],[3,0],[2]]","3","[[0,0,0],[3,1],[2]]","practice","815","","","","","","","","","","",""
"","","","","","single-stim-button","147","1070606","0.0-3.0-5.1-1.1","545cccd0fdf99b75ad2e325a","E1","batch5","tol_practice","383","","","","","","","","","tol_peg_2","383","383","0","[[0,0,0],[3,1],[2]]","3","[[0,0,0],[3,1],[2]]","practice","383","","","","","","","","","","",""
"","","","","","poldrack-single-stim","148","1071622","0.0-3.0-6.0","545cccd0fdf99b75ad2e325a","E1","batch5","tol_feedback","-1","","","","","true","","","","","1000","1000","500","","","","","","-1","none","true","","0","","","","","",""
"","","","","","single-stim-button","149","1074222","0.0-3.0-7.0-0.0","545cccd0fdf99b75ad2e325a","E1","batch5","tol_practice","2599","","","","","","","","","tol_peg_2","2599","2599","0","[[1,2,0],[0,0],[0]]","4","[[1,0,0],[2,0],[3]]","practice","2599","","","","","","","","","","",""
"","","","","","single-stim-button","150","1074710","0.0-3.0-7.0-1.0","545cccd0fdf99b75ad2e325a","E1","batch5","tol_practice","488","","","","","","","","","tol_peg_3","488","488","0","[[1,2,0],[0,0],[3]]","4","[[1,0,0],[2,0],[3]]","practice","488","","","","","","","","","","",""
"","","","","","single-stim-button","151","1075373","0.0-3.0-7.1-0.1","545cccd0fdf99b75ad2e325a","E1","batch5","tol_practice","663","","","","","","","","","tol_peg_1","663","663","0","[[1,0,0],[0,0],[3]]","5","[[1,0,0],[2,0],[3]]","practice","663","","","","","","","","","","",""
"","","","","","single-stim-button","152","1075966","0.0-3.0-7.1-1.1","545cccd0fdf99b75ad2e325a","E1","batch5","tol_practice","593","","","","","","","","","tol_peg_2","593","593","0","[[1,0,0],[2,0],[3]]","5","[[1,0,0],[2,0],[3]]","practice","593","","","","","","","","","","",""
"","","","","","poldrack-single-stim","153","1076975","0.0-3.0-8.0","545cccd0fdf99b75ad2e325a","E1","batch5","tol_feedback","-1","","","","","true","","","","","1000","1000","500","","","","","","-1","none","true","","0","","","","","",""
"","","","","","html-button-response","154","1079037","0.0-3.0-9.0","545cccd0fdf99b75ad2e325a","E1","batch5","tol_instruction","2061.199999988079","<div class = centerbox><p class = center-block-text>Great job! You are done with practice trials<br>You are about to start official trials.<br> <br> Problem <strong>1</strong> out of 25 problems</p></div>","0","","","","","","","","","","","","","","","","","","","","","","","","","",""
"","","","","","single-stim-button","155","1085085","0.0-3.0-10.0-0.0","545cccd0fdf99b75ad2e325a","E1","batch5","tol_tohand","5046","","","","","","","","","tol_peg_1","5046","5046","0","[[1,0,0],[3,0],[0]]","1","[[1,3,0],[2,0],[0]]","0","0","","","","","","3","","","","",""
"","","","","","single-stim-button","156","1085966","0.0-3.0-10.0-1.0","545cccd0fdf99b75ad2e325a","E1","batch5","tol_toboard","880","","","","","","","","","tol_peg_3","880","880","0","[[1,0,0],[3,0],[2]]","1","[[1,3,0],[2,0],[0]]","0","0","","","","","","3","","","","",""
"","","","","","single-stim-button","157","1086605","0.0-3.0-10.1-0.1","545cccd0fdf99b75ad2e325a","E1","batch5","tol_tohand","638","","","","","","","","","tol_peg_2","638","638","0","[[1,0,0],[0,0],[2]]","2","[[1,3,0],[2,0],[0]]","0","0","","","","","","3","","","","",""
"","","","","","single-stim-button","158","1087301","0.0-3.0-10.1-1.1","545cccd0fdf99b75ad2e325a","E1","batch5","tol_toboard","695","","","","","","","","","tol_peg_1","695","695","0","[[1,3,0],[0,0],[2]]","2","[[1,3,0],[2,0],[0]]","0","0","","","","","","3","","","","",""
"","","","","","single-stim-button","159","1087815","0.0-3.0-10.2-0.2","545cccd0fdf99b75ad2e325a","E1","batch5","tol_tohand","512","","","","","","","","","tol_peg_3","512","512","0","[[1,3,0],[0,0],[0]]","3","[[1,3,0],[2,0],[0]]","0","0","","","","","","3","","","","",""
"","","","","","single-stim-button","160","1088390","0.0-3.0-10.2-1.2","545cccd0fdf99b75ad2e325a","E1","batch5","tol_toboard","574","","","","","","","","","tol_peg_2","574","574","0","[[1,3,0],[2,0],[0]]","3","[[1,3,0],[2,0],[0]]","0","0","","","","","","3","","","","",""
"","","","","","poldrack-single-stim","161","1089391","0.0-3.0-11.0","545cccd0fdf99b75ad2e325a","E1","batch5","tol_feedback","-1","","","","","true","","","","","1000","1000","500","","","","","","-1","none","true","5046","6196","","","","","",""
"","","","","","html-button-response","162","1090093","0.0-3.0-12.0","545cccd0fdf99b75ad2e325a","E1","batch5","tol_trial_num","702.1999999880791","<div class = centerbox><p class = center-block-text>problem <strong>2</strong> out of 25 problems</p></div>","0","","","","","","","","","","","","","","","","","","","","","","","","","",""
"","","","","","single-stim-button","163","1096238","0.0-3.0-13.0-0.0","545cccd0fdf99b75ad2e325a","E1","batch5","tol_tohand","6144","","","","","","","","","tol_peg_1","6144","6144","0","[[1,0,0],[3,0],[0]]","1","[[2,1,3],[0,0],[0]]","1","0","","","","","","5","","","","",""
"","","","","","single-stim-button","164","1098006","0.0-3.0-13.0-1.0","545cccd0fdf99b75ad2e325a","E1","batch5","tol_toboard","1768","","","","","","","","","tol_peg_2","1768","1768","0","[[1,0,0],[3,2],[0]]","1","[[2,1,3],[0,0],[0]]","1","0","","","","","","5","","","","",""
"","","","","","single-stim-button","165","1099302","0.0-3.0-13.1-0.1","545cccd0fdf99b75ad2e325a","E1","batch5","tol_tohand","1295","","","","","","","","","tol_peg_1","1295","1295","0","[[0,0,0],[3,2],[0]]","2","[[2,1,3],[0,0],[0]]","1","0","","","","","","5","","","","",""
"","","","","","single-stim-button","166","1100006","0.0-3.0-13.1-1.1","545cccd0fdf99b75ad2e325a","E1","batch5","tol_toboard","703","","","","","","","","","tol_peg_3","703","703","0","[[0,0,0],[3,2],[1]]","2","[[2,1,3],[0,0],[0]]","1","0","","","","","","5","","","","",""
"","","","","","single-stim-button","167","1100669","0.0-3.0-13.2-0.2","545cccd0fdf99b75ad2e325a","E1","batch5","tol_tohand","663","","","","","","","","","tol_peg_2","663","663","0","[[0,0,0],[3,0],[1]]","3","[[2,1,3],[0,0],[0]]","1","0","","","","","","5","","","","",""
"","","","","","single-stim-button","168","1101405","0.0-3.0-13.2-1.2","545cccd0fdf99b75ad2e325a","E1","batch5","tol_toboard","735","","","","","","","","","tol_peg_1","735","735","0","[[2,0,0],[3,0],[1]]","3","[[2,1,3],[0,0],[0]]","1","0","","","","","","5","","","","",""
"","","","","","single-stim-button","169","1101981","0.0-3.0-13.3-0.3","545cccd0fdf99b75ad2e325a","E1","batch5","tol_tohand","575","","","","","","","","","tol_peg_3","575","575","0","[[2,0,0],[3,0],[0]]","4","[[2,1,3],[0,0],[0]]","1","0","","","","","","5","","","","",""
"","","","","","single-stim-button","170","1102774","0.0-3.0-13.3-1.3","545cccd0fdf99b75ad2e325a","E1","batch5","tol_toboard","792","","","","","","","","","tol_peg_1","792","792","0","[[2,1,0],[3,0],[0]]","4","[[2,1,3],[0,0],[0]]","1","0","","","","","","5","","","","",""
"","","","","","single-stim-button","171","1103158","0.0-3.0-13.4-0.4","545cccd0fdf99b75ad2e325a","E1","batch5","tol_tohand","383","","","","","","","","","tol_peg_2","383","383","0","[[2,1,0],[0,0],[0]]","5","[[2,1,3],[0,0],[0]]","1","0","","","","","","5","","","","",""
"","","","","","single-stim-button","172","1103574","0.0-3.0-13.4-1.4","545cccd0fdf99b75ad2e325a","E1","batch5","tol_toboard","415","","","","","","","","","tol_peg_1","415","415","0","[[2,1,3],[0,0],[0]]","5","[[2,1,3],[0,0],[0]]","1","0","","","","","","5","","","","",""
"","","","","","poldrack-single-stim","173","1104575","0.0-3.0-14.0","545cccd0fdf99b75ad2e325a","E1","batch5","tol_feedback","-1","","","","","true","","","","","1000","1000","500","","","","","","-1","none","true","6144","9060","","","","","",""
"","","","","","html-button-response","174","1105237","0.0-3.0-15.0","545cccd0fdf99b75ad2e325a","E1","batch5","tol_trial_num","661.5999999940395","<div class = centerbox><p class = center-block-text>problem <strong>3</strong> out of 25 problems</p></div>","0","","","","","","","","","","","","","","","","","","","","","","","","","",""
"","","","","","single-stim-button","175","1108879","0.0-3.0-16.0-0.0","545cccd0fdf99b75ad2e325a","E1","batch5","tol_tohand","3641","","","","","","","","","tol_peg_1","3641","3641","0","[[2,0,0],[0,0],[1]]","1","[[1,2,0],[3,0],[0]]","2","0","","","","","","4","","","","",""
"","","","","","single-stim-button","176","1110334","0.0-3.0-16.0-1.0","545cccd0fdf99b75ad2e325a","E1","batch5","tol_toboard","1454","","","","","","","","","tol_peg_2","1454","1454","0","[[2,0,0],[3,0],[1]]","1","[[1,2,0],[3,0],[0]]","2","0","","","","","","4","","","","",""
"","","","","","single-stim-button","177","1111101","0.0-3.0-16.1-0.1","545cccd0fdf99b75ad2e325a","E1","batch5","tol_tohand","767","","","","","","","","","tol_peg_1","767","767","0","[[0,0,0],[3,0],[1]]","2","[[1,2,0],[3,0],[0]]","2","0","","","","","","4","","","","",""
"","","","","","single-stim-button","178","1111742","0.0-3.0-16.1-1.1","545cccd0fdf99b75ad2e325a","E1","batch5","tol_toboard","639","","","","","","","","","tol_peg_2","639","639","0","[[0,0,0],[3,2],[1]]","2","[[1,2,0],[3,0],[0]]","2","0","","","","","","4","","","","",""
"","","","","","single-stim-button","179","1112462","0.0-3.0-16.2-0.2","545cccd0fdf99b75ad2e325a","E1","batch5","tol_tohand","719","","","","","","","","","tol_peg_3","719","719","0","[[0,0,0],[3,2],[0]]","3","[[1,2,0],[3,0],[0]]","2","0","","","","","","4","","","","",""
"","","","","","single-stim-button","180","1113253","0.0-3.0-16.2-1.2","545cccd0fdf99b75ad2e325a","E1","batch5","tol_toboard","791","","","","","","","","","tol_peg_1","791","791","0","[[1,0,0],[3,2],[0]]","3","[[1,2,0],[3,0],[0]]","2","0","","","","","","4","","","","",""
"","","","","","single-stim-button","181","1113702","0.0-3.0-16.3-0.3","545cccd0fdf99b75ad2e325a","E1","batch5","tol_tohand","447","","","","","","","","","tol_peg_2","447","447","0","[[1,0,0],[3,0],[0]]","4","[[1,2,0],[3,0],[0]]","2","0","","","","","","4","","","","",""
"","","","","","single-stim-button","182","1114165","0.0-3.0-16.3-1.3","545cccd0fdf99b75ad2e325a","E1","batch5","tol_toboard","463","","","","","","","","","tol_peg_1","463","463","0","[[1,2,0],[3,0],[0]]","4","[[1,2,0],[3,0],[0]]","2","0","","","","","","4","","","","",""
"","","","","","poldrack-single-stim","183","1115166","0.0-3.0-17.0","545cccd0fdf99b75ad2e325a","E1","batch5","tol_feedback","-1","","","","","true","","","","","1000","1000","500","","","","","","-1","none","true","3641","5574","","","","","",""
"","","","","","html-button-response","184","1116029","0.0-3.0-18.0","545cccd0fdf99b75ad2e325a","E1","batch5","tol_trial_num","862.5","<div class = centerbox><p class = center-block-text>problem <strong>4</strong> out of 25 problems</p></div>","0","","","","","","","","","","","","","","","","","","","","","","","","","",""
"","","","","","single-stim-button","185","1118950","0.0-3.0-19.0-0.0","545cccd0fdf99b75ad2e325a","E1","batch5","tol_tohand","2919","","","","","","","","","tol_peg_2","2919","2919","0","[[3,0,0],[2,0],[0]]","1","[[3,0,0],[1,0],[2]]","3","0","","","","","","3","","","","",""
"","","","","","single-stim-button","186","1119469","0.0-3.0-19.0-1.0","545cccd0fdf99b75ad2e325a","E1","batch5","tol_toboard","518","","","","","","","","","tol_peg_1","518","518","0","[[3,1,0],[2,0],[0]]","1","[[3,0,0],[1,0],[2]]","3","0","","","","","","3","","","","",""
"","","","","","single-stim-button","187","1119910","0.0-3.0-19.1-0.1","545cccd0fdf99b75ad2e325a","E1","batch5","tol_tohand","439","","","","","","","","","tol_peg_2","439","439","0","[[3,1,0],[0,0],[0]]","2","[[3,0,0],[1,0],[2]]","3","0","","","","","","3","","","","",""
"","","","","","single-stim-button","188","1120533","0.0-3.0-19.1-1.1","545cccd0fdf99b75ad2e325a","E1","batch5","tol_toboard","623","","","","","","","","","tol_peg_3","623","623","0","[[3,1,0],[0,0],[2]]","2","[[3,0,0],[1,0],[2]]","3","0","","","","","","3","","","","",""
"","","","","","single-stim-button","189","1121269","0.0-3.0-19.2-0.2","545cccd0fdf99b75ad2e325a","E1","batch5","tol_tohand","735","","","","","","","","","tol_peg_1","735","735","0","[[3,0,0],[0,0],[2]]","3","[[3,0,0],[1,0],[2]]","3","0","","","","","","3","","","","",""
"","","","","","single-stim-button","190","1121901","0.0-3.0-19.2-1.2","545cccd0fdf99b75ad2e325a","E1","batch5","tol_toboard","631","","","","","","","","","tol_peg_2","631","631","0","[[3,0,0],[1,0],[2]]","3","[[3,0,0],[1,0],[2]]","3","0","","","","","","3","","","","",""
"","","","","","poldrack-single-stim","191","1122902","0.0-3.0-20.0","545cccd0fdf99b75ad2e325a","E1","batch5","tol_feedback","-1","","","","","true","","","","","1000","1000","500","","","","","","-1","none","true","2919","4093","","","","","",""
"","","","","","html-button-response","192","1123733","0.0-3.0-21.0","545cccd0fdf99b75ad2e325a","E1","batch5","tol_trial_num","830.2000000178814","<div class = centerbox><p class = center-block-text>problem <strong>5</strong> out of 25 problems</p></div>","0","","","","","","","","","","","","","","","","","","","","","","","","","",""
"","","","","","single-stim-button","193","1129462","0.0-3.0-22.0-0.0","545cccd0fdf99b75ad2e325a","E1","batch5","tol_tohand","5729","","","","","","","","","tol_peg_2","5729","5729","0","[[1,0,0],[0,0],[3]]","1","[[0,0,0],[1,2],[3]]","4","0","","","","","","7","","","","",""
"","","","","","single-stim-button","194","1134918","0.0-3.0-22.0-1.0","545cccd0fdf99b75ad2e325a","E1","batch5","tol_toboard","5455","","","","","","","","","tol_peg_1","5455","5455","0","[[1,2,0],[0,0],[3]]","1","[[0,0,0],[1,2],[3]]","4","0","","","","","","7","","","","",""
"","","","","","single-stim-button","195","1136686","0.0-3.0-22.1-0.1","545cccd0fdf99b75ad2e325a","E1","batch5","tol_tohand","1768","","","","","","","","","tol_peg_3","1768","1768","0","[[1,2,0],[0,0],[0]]","2","[[0,0,0],[1,2],[3]]","4","0","","","","","","7","","","","",""
"","","","","","single-stim-button","196","1137959","0.0-3.0-22.1-1.1","545cccd0fdf99b75ad2e325a","E1","batch5","tol_toboard","1271","","","","","","","","","tol_peg_2","1271","1271","0","[[1,2,0],[3,0],[0]]","2","[[0,0,0],[1,2],[3]]","4","0","","","","","","7","","","","",""
"","","","","","single-stim-button","197","1138543","0.0-3.0-22.2-0.2","545cccd0fdf99b75ad2e325a","E1","batch5","tol_tohand","583","","","","","","","","","tol_peg_1","583","583","0","[[1,0,0],[3,0],[0]]","3","[[0,0,0],[1,2],[3]]","4","0","","","","","","7","","","","",""
"","","","","","single-stim-button","198","1139423","0.0-3.0-22.2-1.2","545cccd0fdf99b75ad2e325a","E1","batch5","tol_toboard","880","","","","","","","","","tol_peg_3","880","880","0","[[1,0,0],[3,0],[2]]","3","[[0,0,0],[1,2],[3]]","4","0","","","","","","7","","","","",""
"","","","","","single-stim-button","199","1146790","0.0-3.0-22.3-0.3","545cccd0fdf99b75ad2e325a","E1","batch5","tol_tohand","7366","","","","","","","","","tol_peg_2","7366","7366","0","[[1,0,0],[0,0],[2]]","4","[[0,0,0],[1,2],[3]]","4","0","","","","","","7","","","","",""
"","","","","","single-stim-button","200","1147232","0.0-3.0-22.3-1.3","545cccd0fdf99b75ad2e325a","E1","batch5","tol_toboard","441","","","","","","","","","tol_peg_1","441","441","0","[[1,3,0],[0,0],[2]]","4","[[0,0,0],[1,2],[3]]","4","0","","","","","","7","","","","",""
"","","","","","single-stim-button","201","1147694","0.0-3.0-22.4-0.4","545cccd0fdf99b75ad2e325a","E1","batch5","tol_tohand","462","","","","","","","","","tol_peg_3","462","462","0","[[1,3,0],[0,0],[0]]","5","[[0,0,0],[1,2],[3]]","4","0","","","","","","7","","","","",""
"","","","","","single-stim-button","202","1148246","0.0-3.0-22.4-1.4","545cccd0fdf99b75ad2e325a","E1","batch5","tol_toboard","551","","","","","","","","","tol_peg_2","551","551","0","[[1,3,0],[2,0],[0]]","5","[[0,0,0],[1,2],[3]]","4","0","","","","","","7","","","","",""
"","","","","","single-stim-button","203","1148815","0.0-3.0-22.5-0.5","545cccd0fdf99b75ad2e325a","E1","batch5","tol_tohand","567","","","","","","","","","tol_peg_1","567","567","0","[[1,0,0],[2,0],[0]]","6","[[0,0,0],[1,2],[3]]","4","0","","","","","","7","","","","",""
"","","","","","single-stim-button","204","1149470","0.0-3.0-22.5-1.5","545cccd0fdf99b75ad2e325a","E1","batch5","tol_toboard","655","","","","","","","","","tol_peg_3","655","655","0","[[1,0,0],[2,0],[3]]","6","[[0,0,0],[1,2],[3]]","4","0","","","","","","7","","","","",""
"","","","","","single-stim-button","205","1150111","0.0-3.0-22.6-0.6","545cccd0fdf99b75ad2e325a","E1","batch5","tol_tohand","641","","","","","","","","","tol_peg_1","641","641","0","[[0,0,0],[2,0],[3]]","7","[[0,0,0],[1,2],[3]]","4","0","","","","","","7","","","","",""
"","","","","","single-stim-button","206","1150870","0.0-3.0-22.6-1.6","545cccd0fdf99b75ad2e325a","E1","batch5","tol_toboard","759","","","","","","","","","tol_peg_2","759","759","0","[[0,0,0],[2,1],[3]]","7","[[0,0,0],[1,2],[3]]","4","0","","","","","","7","","","","",""
"","","","","","single-stim-button","207","1151326","0.0-3.0-22.7-0.7","545cccd0fdf99b75ad2e325a","E1","batch5","tol_tohand","455","","","","","","","","","tol_peg_2","455","455","0","[[0,0,0],[2,0],[3]]","8","[[0,0,0],[1,2],[3]]","4","0","","","","","","7","","","","",""
"","","","","","single-stim-button","208","1151926","0.0-3.0-22.7-1.7","545cccd0fdf99b75ad2e325a","E1","batch5","tol_toboard","600","","","","","","","","","tol_peg_1","600","600","0","[[1,0,0],[2,0],[3]]","8","[[0,0,0],[1,2],[3]]","4","0","","","","","","7","","","","",""
"","","","","","single-stim-button","209","1154335","0.0-3.0-22.8-0.8","545cccd0fdf99b75ad2e325a","E1","batch5","tol_tohand","2408","","","","","","","","","tol_peg_3","2408","2408","0","[[1,0,0],[2,0],[0]]","9","[[0,0,0],[1,2],[3]]","4","0","","","","","","7","","","","",""
"","","","","","single-stim-button","210","1155998","0.0-3.0-22.8-1.8","545cccd0fdf99b75ad2e325a","E1","batch5","tol_toboard","1663","","","","","","","","","tol_peg_1","1663","1663","0","[[1,3,0],[2,0],[0]]","9","[[0,0,0],[1,2],[3]]","4","0","","","","","","7","","","","",""
"","","","","","single-stim-button","211","1156374","0.0-3.0-22.9-0.9","545cccd0fdf99b75ad2e325a","E1","batch5","tol_tohand","375","","","","","","","","","tol_peg_2","375","375","0","[[1,3,0],[0,0],[0]]","10","[[0,0,0],[1,2],[3]]","4","0","","","","","","7","","","","",""
"","","","","","single-stim-button","212","1156703","0.0-3.0-22.9-1.9","545cccd0fdf99b75ad2e325a","E1","batch5","tol_toboard","329","","","","","","","","","tol_peg_3","329","329","0","[[1,3,0],[0,0],[2]]","10","[[0,0,0],[1,2],[3]]","4","0","","","","","","7","","","","",""
"","","","","","single-stim-button","213","1159159","0.0-3.0-22.10-0.10","545cccd0fdf99b75ad2e325a","E1","batch5","tol_tohand","2455","","","","","","","","","tol_peg_1","2455","2455","0","[[1,0,0],[0,0],[2]]","11","[[0,0,0],[1,2],[3]]","4","0","","","","","","7","","","","",""
"","","","","","single-stim-button","214","1160134","0.0-3.0-22.10-1.10","545cccd0fdf99b75ad2e325a","E1","batch5","tol_toboard","975","","","","","","","","","tol_peg_2","975","975","0","[[1,0,0],[3,0],[2]]","11","[[0,0,0],[1,2],[3]]","4","0","","","","","","7","","","","",""
"","","","","","single-stim-button","215","1161247","0.0-3.0-22.11-0.11","545cccd0fdf99b75ad2e325a","E1","batch5","tol_tohand","1113","","","","","","","","","tol_peg_1","1113","1113","0","[[0,0,0],[3,0],[2]]","12","[[0,0,0],[1,2],[3]]","4","0","","","","","","7","","","","",""
"","","","","","single-stim-button","216","1161670","0.0-3.0-22.11-1.11","545cccd0fdf99b75ad2e325a","E1","batch5","tol_toboard","422","","","","","","","","","tol_peg_2","422","422","0","[[0,0,0],[3,1],[2]]","12","[[0,0,0],[1,2],[3]]","4","0","","","","","","7","","","","",""
"","","","","","single-stim-button","217","1162198","0.0-3.0-22.12-0.12","545cccd0fdf99b75ad2e325a","E1","batch5","tol_tohand","528","","","","","","","","","tol_peg_3","528","528","0","[[0,0,0],[3,1],[0]]","13","[[0,0,0],[1,2],[3]]","4","0","","","","","","7","","","","",""
"","","","","","single-stim-button","218","1162702","0.0-3.0-22.12-1.12","545cccd0fdf99b75ad2e325a","E1","batch5","tol_toboard","504","","","","","","","","","tol_peg_1","504","504","0","[[2,0,0],[3,1],[0]]","13","[[0,0,0],[1,2],[3]]","4","0","","","","","","7","","","","",""
"","","","","","single-stim-button","219","1163486","0.0-3.0-22.13-0.13","545cccd0fdf99b75ad2e325a","E1","batch5","tol_tohand","784","","","","","","","","","tol_peg_2","784","784","0","[[2,0,0],[3,0],[0]]","14","[[0,0,0],[1,2],[3]]","4","0","","","","","","7","","","","",""
"","","","","","single-stim-button","220","1165030","0.0-3.0-22.13-1.13","545cccd0fdf99b75ad2e325a","E1","batch5","tol_toboard","1544","","","","","","","","","tol_peg_3","1544","1544","0","[[2,0,0],[3,0],[1]]","14","[[0,0,0],[1,2],[3]]","4","0","","","","","","7","","","","",""
"","","","","","single-stim-button","221","1165638","0.0-3.0-22.14-0.14","545cccd0fdf99b75ad2e325a","E1","batch5","tol_tohand","608","","","","","","","","","tol_peg_2","608","608","0","[[2,0,0],[0,0],[1]]","15","[[0,0,0],[1,2],[3]]","4","0","","","","","","7","","","","",""
"","","","","","single-stim-button","222","1166080","0.0-3.0-22.14-1.14","545cccd0fdf99b75ad2e325a","E1","batch5","tol_toboard","441","","","","","","","","","tol_peg_1","441","441","0","[[2,3,0],[0,0],[1]]","15","[[0,0,0],[1,2],[3]]","4","0","","","","","","7","","","","",""
"","","","","","single-stim-button","223","1166399","0.0-3.0-22.15-0.15","545cccd0fdf99b75ad2e325a","E1","batch5","tol_tohand","319","","","","","","","","","tol_peg_3","319","319","0","[[2,3,0],[0,0],[0]]","16","[[0,0,0],[1,2],[3]]","4","0","","","","","","7","","","","",""
"","","","","","single-stim-button","224","1166807","0.0-3.0-22.15-1.15","545cccd0fdf99b75ad2e325a","E1","batch5","tol_toboard","407","","","","","","","","","tol_peg_2","407","407","0","[[2,3,0],[1,0],[0]]","16","[[0,0,0],[1,2],[3]]","4","0","","","","","","7","","","","",""
"","","","","","single-stim-button","225","1167233","0.0-3.0-22.16-0.16","545cccd0fdf99b75ad2e325a","E1","batch5","tol_tohand","426","","","","","","","","","tol_peg_1","426","426","0","[[2,0,0],[1,0],[0]]","17","[[0,0,0],[1,2],[3]]","4","0","","","","","","7","","","","",""
"","","","","","single-stim-button","226","1167558","0.0-3.0-22.16-1.16","545cccd0fdf99b75ad2e325a","E1","batch5","tol_toboard","325","","","","","","","","","tol_peg_3","325","325","0","[[2,0,0],[1,0],[3]]","17","[[0,0,0],[1,2],[3]]","4","0","","","","","","7","","","","",""
"","","","","","single-stim-button","227","1168023","0.0-3.0-22.17-0.17","545cccd0fdf99b75ad2e325a","E1","batch5","tol_tohand","464","","","","","","","","","tol_peg_1","464","464","0","[[0,0,0],[1,0],[3]]","18","[[0,0,0],[1,2],[3]]","4","0","","","","","","7","","","","",""
"","","","","","single-stim-button","228","1168278","0.0-3.0-22.17-1.17","545cccd0fdf99b75ad2e325a","E1","batch5","tol_toboard","255","","","","","","","","","tol_peg_2","255","255","0","[[0,0,0],[1,2],[3]]","18","[[0,0,0],[1,2],[3]]","4","0","","","","","","7","","","","",""
"","","","","","poldrack-single-stim","229","1169280","0.0-3.0-23.0","545cccd0fdf99b75ad2e325a","E1","batch5","tol_feedback","-1","","","","","true","","","","","1000","1000","500","","","","","","-1","none","true","5729","27051","","","","","",""
"","","","","","html-button-response","230","1169990","0.0-3.0-24.0","545cccd0fdf99b75ad2e325a","E1","batch5","tol_trial_num","709.3000000119209","<div class = centerbox><p class = center-block-text>problem <strong>6</strong> out of 25 problems</p></div>","0","","","","","","","","","","","","","","","","","","","","","","","","","",""
"","","","","","single-stim-button","231","1176950","0.0-3.0-25.0-0.0","545cccd0fdf99b75ad2e325a","E1","batch5","tol_tohand","6960","","","","","","","","","tol_peg_3","6960","6960","0","[[0,0,0],[1,2],[0]]","1","[[1,0,0],[2,3],[0]]","5","0","","","","","","6","","","","",""
"","","","","","single-stim-button","232","1177670","0.0-3.0-25.0-1.0","545cccd0fdf99b75ad2e325a","E1","batch5","tol_toboard","719","","","","","","","","","tol_peg_1","719","719","0","[[3,0,0],[1,2],[0]]","1","[[1,0,0],[2,3],[0]]","5","0","","","","","","6","","","","",""
"","","","","","single-stim-button","233","1178182","0.0-3.0-25.1-0.1","545cccd0fdf99b75ad2e325a","E1","batch5","tol_tohand","512","","","","","","","","","tol_peg_2","512","512","0","[[3,0,0],[1,0],[0]]","2","[[1,0,0],[2,3],[0]]","5","0","","","","","","6","","","","",""
"","","","","","single-stim-button","234","1180774","0.0-3.0-25.1-1.1","545cccd0fdf99b75ad2e325a","E1","batch5","tol_toboard","2592","","","","","","","","","tol_peg_3","2592","2592","0","[[3,0,0],[1,0],[2]]","2","[[1,0,0],[2,3],[0]]","5","0","","","","","","6","","","","",""
"","","","","","single-stim-button","235","1181239","0.0-3.0-25.2-0.2","545cccd0fdf99b75ad2e325a","E1","batch5","tol_tohand","465","","","","","","","","","tol_peg_2","465","465","0","[[3,0,0],[0,0],[2]]","3","[[1,0,0],[2,3],[0]]","5","0","","","","","","6","","","","",""
"","","","","","single-stim-button","236","1181550","0.0-3.0-25.2-1.2","545cccd0fdf99b75ad2e325a","E1","batch5","tol_toboard","311","","","","","","","","","tol_peg_1","311","311","0","[[3,1,0],[0,0],[2]]","3","[[1,0,0],[2,3],[0]]","5","0","","","","","","6","","","","",""
"","","","","","single-stim-button","237","1182039","0.0-3.0-25.3-0.3","545cccd0fdf99b75ad2e325a","E1","batch5","tol_tohand","489","","","","","","","","","tol_peg_3","489","489","0","[[3,1,0],[0,0],[0]]","4","[[1,0,0],[2,3],[0]]","5","0","","","","","","6","","","","",""
"","","","","","single-stim-button","238","1182918","0.0-3.0-25.3-1.3","545cccd0fdf99b75ad2e325a","E1","batch5","tol_toboard","879","","","","","","","","","tol_peg_2","879","879","0","[[3,1,0],[2,0],[0]]","4","[[1,0,0],[2,3],[0]]","5","0","","","","","","6","","","","",""
"","","","","","single-stim-button","239","1183807","0.0-3.0-25.4-0.4","545cccd0fdf99b75ad2e325a","E1","batch5","tol_tohand","889","","","","","","","","","tol_peg_1","889","889","0","[[3,0,0],[2,0],[0]]","5","[[1,0,0],[2,3],[0]]","5","0","","","","","","6","","","","",""
"","","","","","single-stim-button","240","1184534","0.0-3.0-25.4-1.4","545cccd0fdf99b75ad2e325a","E1","batch5","tol_toboard","727","","","","","","","","","tol_peg_3","727","727","0","[[3,0,0],[2,0],[1]]","5","[[1,0,0],[2,3],[0]]","5","0","","","","","","6","","","","",""
"","","","","","single-stim-button","241","1184967","0.0-3.0-25.5-0.5","545cccd0fdf99b75ad2e325a","E1","batch5","tol_tohand","432","","","","","","","","","tol_peg_1","432","432","0","[[0,0,0],[2,0],[1]]","6","[[1,0,0],[2,3],[0]]","5","0","","","","","","6","","","","",""
"","","","","","single-stim-button","242","1185262","0.0-3.0-25.5-1.5","545cccd0fdf99b75ad2e325a","E1","batch5","tol_toboard","295","","","","","","","","","tol_peg_2","295","295","0","[[0,0,0],[2,3],[1]]","6","[[1,0,0],[2,3],[0]]","5","0","","","","","","6","","","","",""
"","","","","","single-stim-button","243","1185527","0.0-3.0-25.6-0.6","545cccd0fdf99b75ad2e325a","E1","batch5","tol_tohand","264","","","","","","","","","tol_peg_3","264","264","0","[[0,0,0],[2,3],[0]]","7","[[1,0,0],[2,3],[0]]","5","0","","","","","","6","","","","",""
"","","","","","single-stim-button","244","1185967","0.0-3.0-25.6-1.6","545cccd0fdf99b75ad2e325a","E1","batch5","tol_toboard","439","","","","","","","","","tol_peg_1","439","439","0","[[1,0,0],[2,3],[0]]","7","[[1,0,0],[2,3],[0]]","5","0","","","","","","6","","","","",""
"","","","","","poldrack-single-stim","245","1186981","0.0-3.0-26.0","545cccd0fdf99b75ad2e325a","E1","batch5","tol_feedback","-1","","","","","true","","","","","1000","1000","500","","","","","","-1","none","true","6960","10011","","","","","",""
"","","","","","html-button-response","246","1188398","0.0-3.0-27.0","545cccd0fdf99b75ad2e325a","E1","batch5","tol_trial_num","1416.7000000178814","<div class = centerbox><p class = center-block-text>problem <strong>7</strong> out of 25 problems</p></div>","0","","","","","","","","","","","","","","","","","","","","","","","","","",""
"","","","","","single-stim-button","247","1202928","0.0-3.0-28.0-0.0","545cccd0fdf99b75ad2e325a","E1","batch5","tol_tohand","14528","","","","","","","","","tol_peg_1","14528","14528","0","[[2,0,0],[0,0],[3]]","1","[[1,2,0],[3,0],[0]]","6","0","","","","","","5","","","","",""
"","","","","","single-stim-button","248","1205823","0.0-3.0-28.0-1.0","545cccd0fdf99b75ad2e325a","E1","batch5","tol_toboard","2895","","","","","","","","","tol_peg_2","2895","2895","0","[[2,0,0],[1,0],[3]]","1","[[1,2,0],[3,0],[0]]","6","0","","","","","","5","","","","",""
"","","","","","single-stim-button","249","1207032","0.0-3.0-28.1-0.1","545cccd0fdf99b75ad2e325a","E1","batch5","tol_tohand","1209","","","","","","","","","tol_peg_3","1209","1209","0","[[2,0,0],[1,0],[0]]","2","[[1,2,0],[3,0],[0]]","6","0","","","","","","5","","","","",""
"","","","","","single-stim-button","250","1207423","0.0-3.0-28.1-1.1","545cccd0fdf99b75ad2e325a","E1","batch5","tol_toboard","391","","","","","","","","","tol_peg_2","391","391","0","[[2,0,0],[1,3],[0]]","2","[[1,2,0],[3,0],[0]]","6","0","","","","","","5","","","","",""
"","","","","","single-stim-button","251","1207871","0.0-3.0-28.2-0.2","545cccd0fdf99b75ad2e325a","E1","batch5","tol_tohand","448","","","","","","","","","tol_peg_1","448","448","0","[[0,0,0],[1,3],[0]]","3","[[1,2,0],[3,0],[0]]","6","0","","","","","","5","","","","",""
"","","","","","single-stim-button","252","1208647","0.0-3.0-28.2-1.2","545cccd0fdf99b75ad2e325a","E1","batch5","tol_toboard","776","","","","","","","","","tol_peg_3","776","776","0","[[0,0,0],[1,3],[2]]","3","[[1,2,0],[3,0],[0]]","6","0","","","","","","5","","","","",""
"","","","","","single-stim-button","253","1213951","0.0-3.0-28.3-0.3","545cccd0fdf99b75ad2e325a","E1","batch5","tol_tohand","5304","","","","","","","","","tol_peg_2","5304","5304","0","[[0,0,0],[1,0],[2]]","4","[[1,2,0],[3,0],[0]]","6","0","","","","","","5","","","","",""
"","","","","","single-stim-button","254","1215863","0.0-3.0-28.3-1.3","545cccd0fdf99b75ad2e325a","E1","batch5","tol_toboard","1912","","","","","","","","","tol_peg_1","1912","1912","0","[[3,0,0],[1,0],[2]]","4","[[1,2,0],[3,0],[0]]","6","0","","","","","","5","","","","",""
"","","","","","single-stim-button","255","1216719","0.0-3.0-28.4-0.4","545cccd0fdf99b75ad2e325a","E1","batch5","tol_tohand","856","","","","","","","","","tol_peg_3","856","856","0","[[3,0,0],[1,0],[0]]","5","[[1,2,0],[3,0],[0]]","6","0","","","","","","5","","","","",""
"","","","","","single-stim-button","256","1217135","0.0-3.0-28.4-1.4","545cccd0fdf99b75ad2e325a","E1","batch5","tol_toboard","416","","","","","","","","","tol_peg_2","416","416","0","[[3,0,0],[1,2],[0]]","5","[[1,2,0],[3,0],[0]]","6","0","","","","","","5","","","","",""
"","","","","","single-stim-button","257","1217504","0.0-3.0-28.5-0.5","545cccd0fdf99b75ad2e325a","E1","batch5","tol_tohand","369","","","","","","","","","tol_peg_1","369","369","0","[[0,0,0],[1,2],[0]]","6","[[1,2,0],[3,0],[0]]","6","0","","","","","","5","","","","",""
"","","","","","single-stim-button","258","1218199","0.0-3.0-28.5-1.5","545cccd0fdf99b75ad2e325a","E1","batch5","tol_toboard","695","","","","","","","","","tol_peg_3","695","695","0","[[0,0,0],[1,2],[3]]","6","[[1,2,0],[3,0],[0]]","6","0","","","","","","5","","","","",""
"","","","","","single-stim-button","259","1218895","0.0-3.0-28.6-0.6","545cccd0fdf99b75ad2e325a","E1","batch5","tol_tohand","695","","","","","","","","","tol_peg_2","695","695","0","[[0,0,0],[1,0],[3]]","7","[[1,2,0],[3,0],[0]]","6","0","","","","","","5","","","","",""
"","","","","","single-stim-button","260","1221751","0.0-3.0-28.6-1.6","545cccd0fdf99b75ad2e325a","E1","batch5","tol_toboard","2856","","","","","","","","","tol_peg_1","2856","2856","0","[[2,0,0],[1,0],[3]]","7","[[1,2,0],[3,0],[0]]","6","0","","","","","","5","","","","",""
"","","","","","single-stim-button","261","1222217","0.0-3.0-28.7-0.7","545cccd0fdf99b75ad2e325a","E1","batch5","tol_tohand","465","","","","","","","","","tol_peg_2","465","465","0","[[2,0,0],[0,0],[3]]","8","[[1,2,0],[3,0],[0]]","6","0","","","","","","5","","","","",""
"","","","","","single-stim-button","262","1222615","0.0-3.0-28.7-1.7","545cccd0fdf99b75ad2e325a","E1","batch5","tol_toboard","398","","","","","","","","","tol_peg_1","398","398","0","[[2,1,0],[0,0],[3]]","8","[[1,2,0],[3,0],[0]]","6","0","","","","","","5","","","","",""
"","","","","","single-stim-button","263","1227256","0.0-3.0-28.8-0.8","545cccd0fdf99b75ad2e325a","E1","batch5","tol_tohand","4640","","","","","","","","","tol_peg_3","4640","4640","0","[[2,1,0],[0,0],[0]]","9","[[1,2,0],[3,0],[0]]","6","0","","","","","","5","","","","",""
"","","","","","single-stim-button","264","1227911","0.0-3.0-28.8-1.8","545cccd0fdf99b75ad2e325a","E1","batch5","tol_toboard","654","","","","","","","","","tol_peg_2","654","654","0","[[2,1,0],[3,0],[0]]","9","[[1,2,0],[3,0],[0]]","6","0","","","","","","5","","","","",""
"","","","","","single-stim-button","265","1229159","0.0-3.0-28.9-0.9","545cccd0fdf99b75ad2e325a","E1","batch5","tol_tohand","1247","","","","","","","","","tol_peg_1","1247","1247","0","[[2,0,0],[3,0],[0]]","10","[[1,2,0],[3,0],[0]]","6","0","","","","","","5","","","","",""
"","","","","","single-stim-button","266","1229687","0.0-3.0-28.9-1.9","545cccd0fdf99b75ad2e325a","E1","batch5","tol_toboard","528","","","","","","","","","tol_peg_2","528","528","0","[[2,0,0],[3,1],[0]]","10","[[1,2,0],[3,0],[0]]","6","0","","","","","","5","","","","",""
"","","","","","single-stim-button","267","1230407","0.0-3.0-28.10-0.10","545cccd0fdf99b75ad2e325a","E1","batch5","tol_tohand","719","","","","","","","","","tol_peg_1","719","719","0","[[0,0,0],[3,1],[0]]","11","[[1,2,0],[3,0],[0]]","6","0","","","","","","5","","","","",""
"","","","","","single-stim-button","268","1230839","0.0-3.0-28.10-1.10","545cccd0fdf99b75ad2e325a","E1","batch5","tol_toboard","431","","","","","","","","","tol_peg_3","431","431","0","[[0,0,0],[3,1],[2]]","11","[[1,2,0],[3,0],[0]]","6","0","","","","","","5","","","","",""
"","","","","","single-stim-button","269","1231600","0.0-3.0-28.11-0.11","545cccd0fdf99b75ad2e325a","E1","batch5","tol_tohand","761","","","","","","","","","tol_peg_2","761","761","0","[[0,0,0],[3,0],[2]]","12","[[1,2,0],[3,0],[0]]","6","0","","","","","","5","","","","",""
"","","","","","single-stim-button","270","1232255","0.0-3.0-28.11-1.11","545cccd0fdf99b75ad2e325a","E1","batch5","tol_toboard","655","","","","","","","","","tol_peg_1","655","655","0","[[1,0,0],[3,0],[2]]","12","[[1,2,0],[3,0],[0]]","6","0","","","","","","5","","","","",""
"","","","","","single-stim-button","271","1232848","0.0-3.0-28.12-0.12","545cccd0fdf99b75ad2e325a","E1","batch5","tol_tohand","593","","","","","","","","","tol_peg_3","593","593","0","[[1,0,0],[3,0],[0]]","13","[[1,2,0],[3,0],[0]]","6","0","","","","","","5","","","","",""
"","","","","","single-stim-button","272","1233303","0.0-3.0-28.12-1.12","545cccd0fdf99b75ad2e325a","E1","batch5","tol_toboard","455","","","","","","","","","tol_peg_1","455","455","0","[[1,2,0],[3,0],[0]]","13","[[1,2,0],[3,0],[0]]","6","0","","","","","","5","","","","",""
"","","","","","poldrack-single-stim","273","1234306","0.0-3.0-29.0","545cccd0fdf99b75ad2e325a","E1","batch5","tol_feedback","-1","","","","","true","","","","","1000","1000","500","","","","","","-1","none","true","14528","31834","","","","","",""
"","","","","","html-button-response","274","1235007","0.0-3.0-30.0","545cccd0fdf99b75ad2e325a","E1","batch5","tol_trial_num","700","<div class = centerbox><p class = center-block-text>problem <strong>8</strong> out of 25 problems</p></div>","0","","","","","","","","","","","","","","","","","","","","","","","","","",""
"","","","","","single-stim-button","275","1240711","0.0-3.0-31.0-0.0","545cccd0fdf99b75ad2e325a","E1","batch5","tol_tohand","5704","","","","","","","","","tol_peg_3","5704","5704","0","[[0,0,0],[2,3],[0]]","1","[[1,2,0],[3,0],[0]]","7","0","","","","","","4","","","","",""
"","","","","","single-stim-button","276","1241327","0.0-3.0-31.0-1.0","545cccd0fdf99b75ad2e325a","E1","batch5","tol_toboard","615","","","","","","","","","tol_peg_1","615","615","0","[[1,0,0],[2,3],[0]]","1","[[1,2,0],[3,0],[0]]","7","0","","","","","","4","","","","",""
"","","","","","single-stim-button","277","1241759","0.0-3.0-31.1-0.1","545cccd0fdf99b75ad2e325a","E1","batch5","tol_tohand","431","","","","","","","","","tol_peg_2","431","431","0","[[1,0,0],[2,0],[0]]","2","[[1,2,0],[3,0],[0]]","7","0","","","","","","4","","","","",""
"","","","","","single-stim-button","278","1242391","0.0-3.0-31.1-1.1","545cccd0fdf99b75ad2e325a","E1","batch5","tol_toboard","632","","","","","","","","","tol_peg_3","632","632","0","[[1,0,0],[2,0],[3]]","2","[[1,2,0],[3,0],[0]]","7","0","","","","","","4","","","","",""
"","","","","","single-stim-button","279","1242775","0.0-3.0-31.2-0.2","545cccd0fdf99b75ad2e325a","E1","batch5","tol_tohand","384","","","","","","","","","tol_peg_2","384","384","0","[[1,0,0],[0,0],[3]]","3","[[1,2,0],[3,0],[0]]","7","0","","","","","","4","","","","",""
"","","","","","single-stim-button","280","1243183","0.0-3.0-31.2-1.2","545cccd0fdf99b75ad2e325a","E1","batch5","tol_toboard","408","","","","","","","","","tol_peg_1","408","408","0","[[1,2,0],[0,0],[3]]","3","[[1,2,0],[3,0],[0]]","7","0","","","","","","4","","","","",""
"","","","","","single-stim-button","281","1243544","0.0-3.0-31.3-0.3","545cccd0fdf99b75ad2e325a","E1","batch5","tol_tohand","360","","","","","","","","","tol_peg_3","360","360","0","[[1,2,0],[0,0],[0]]","4","[[1,2,0],[3,0],[0]]","7","0","","","","","","4","","","","",""
"","","","","","single-stim-button","282","1243959","0.0-3.0-31.3-1.3","545cccd0fdf99b75ad2e325a","E1","batch5","tol_toboard","415","","","","","","","","","tol_peg_2","415","415","0","[[1,2,0],[3,0],[0]]","4","[[1,2,0],[3,0],[0]]","7","0","","","","","","4","","","","",""
"","","","","","poldrack-single-stim","283","1244960","0.0-3.0-32.0","545cccd0fdf99b75ad2e325a","E1","batch5","tol_feedback","-1","","","","","true","","","","","1000","1000","500","","","","","","-1","none","true","5704","6879","","","","","",""
"","","","","","html-button-response","284","1245463","0.0-3.0-33.0","545cccd0fdf99b75ad2e325a","E1","batch5","tol_trial_num","502.59999999403954","<div class = centerbox><p class = center-block-text>problem <strong>9</strong> out of 25 problems</p></div>","0","","","","","","","","","","","","","","","","","","","","","","","","","",""
"","","","","","single-stim-button","285","1252047","0.0-3.0-34.0-0.0","545cccd0fdf99b75ad2e325a","E1","batch5","tol_tohand","6583","","","","","","","","","tol_peg_3","6583","6583","0","[[3,2,0],[0,0],[0]]","1","[[2,1,0],[3,0],[0]]","8","0","","","","","","6","","","","",""
"","","","","","single-stim-button","286","1252623","0.0-3.0-34.0-1.0","545cccd0fdf99b75ad2e325a","E1","batch5","tol_toboard","575","","","","","","","","","tol_peg_2","575","575","0","[[3,2,0],[1,0],[0]]","1","[[2,1,0],[3,0],[0]]","8","0","","","","","","6","","","","",""
"","","","","","single-stim-button","287","1253631","0.0-3.0-34.1-0.1","545cccd0fdf99b75ad2e325a","E1","batch5","tol_tohand","1007","","","","","","","","","tol_peg_1","1007","1007","0","[[3,0,0],[1,0],[0]]","2","[[2,1,0],[3,0],[0]]","8","0","","","","","","6","","","","",""
"","","","","","single-stim-button","288","1254311","0.0-3.0-34.1-1.1","545cccd0fdf99b75ad2e325a","E1","batch5","tol_toboard","679","","","","","","","","","tol_peg_3","679","679","0","[[3,0,0],[1,0],[2]]","2","[[2,1,0],[3,0],[0]]","8","0","","","","","","6","","","","",""
"","","","","","single-stim-button","289","1258503","0.0-3.0-34.2-0.2","545cccd0fdf99b75ad2e325a","E1","batch5","tol_tohand","4191","","","","","","","","","tol_peg_1","4191","4191","0","[[0,0,0],[1,0],[2]]","3","[[2,1,0],[3,0],[0]]","8","0","","","","","","6","","","","",""
"","","","","","single-stim-button","290","1259240","0.0-3.0-34.2-1.2","545cccd0fdf99b75ad2e325a","E1","batch5","tol_toboard","735","","","","","","","","","tol_peg_2","735","735","0","[[0,0,0],[1,3],[2]]","3","[[2,1,0],[3,0],[0]]","8","0","","","","","","6","","","","",""
"","","","","","single-stim-button","291","1259719","0.0-3.0-34.3-0.3","545cccd0fdf99b75ad2e325a","E1","batch5","tol_tohand","479","","","","","","","","","tol_peg_3","479","479","0","[[0,0,0],[1,3],[0]]","4","[[2,1,0],[3,0],[0]]","8","0","","","","","","6","","","","",""
"","","","","","single-stim-button","292","1260543","0.0-3.0-34.3-1.3","545cccd0fdf99b75ad2e325a","E1","batch5","tol_toboard","823","","","","","","","","","tol_peg_1","823","823","0","[[2,0,0],[1,3],[0]]","4","[[2,1,0],[3,0],[0]]","8","0","","","","","","6","","","","",""
"","","","","","single-stim-button","293","1260999","0.0-3.0-34.4-0.4","545cccd0fdf99b75ad2e325a","E1","batch5","tol_tohand","456","","","","","","","","","tol_peg_2","456","456","0","[[2,0,0],[1,0],[0]]","5","[[2,1,0],[3,0],[0]]","8","0","","","","","","6","","","","",""
"","","","","","single-stim-button","294","1261575","0.0-3.0-34.4-1.4","545cccd0fdf99b75ad2e325a","E1","batch5","tol_toboard","575","","","","","","","","","tol_peg_3","575","575","0","[[2,0,0],[1,0],[3]]","5","[[2,1,0],[3,0],[0]]","8","0","","","","","","6","","","","",""
"","","","","","single-stim-button","295","1261999","0.0-3.0-34.5-0.5","545cccd0fdf99b75ad2e325a","E1","batch5","tol_tohand","424","","","","","","","","","tol_peg_2","424","424","0","[[2,0,0],[0,0],[3]]","6","[[2,1,0],[3,0],[0]]","8","0","","","","","","6","","","","",""
"","","","","","single-stim-button","296","1262320","0.0-3.0-34.5-1.5","545cccd0fdf99b75ad2e325a","E1","batch5","tol_toboard","321","","","","","","","","","tol_peg_1","321","321","0","[[2,1,0],[0,0],[3]]","6","[[2,1,0],[3,0],[0]]","8","0","","","","","","6","","","","",""
"","","","","","single-stim-button","297","1262799","0.0-3.0-34.6-0.6","545cccd0fdf99b75ad2e325a","E1","batch5","tol_tohand","479","","","","","","","","","tol_peg_3","479","479","0","[[2,1,0],[0,0],[0]]","7","[[2,1,0],[3,0],[0]]","8","0","","","","","","6","","","","",""
"","","","","","single-stim-button","298","1263095","0.0-3.0-34.6-1.6","545cccd0fdf99b75ad2e325a","E1","batch5","tol_toboard","296","","","","","","","","","tol_peg_2","296","296","0","[[2,1,0],[3,0],[0]]","7","[[2,1,0],[3,0],[0]]","8","0","","","","","","6","","","","",""
"","","","","","poldrack-single-stim","299","1264096","0.0-3.0-35.0","545cccd0fdf99b75ad2e325a","E1","batch5","tol_feedback","-1","","","","","true","","","","","1000","1000","500","","","","","","-1","none","true","6583","13619","","","","","",""
"","","","","","html-button-response","300","1265703","0.0-3.0-36.0","545cccd0fdf99b75ad2e325a","E1","batch5","tol_trial_num","1606.0999999940395","<div class = centerbox><p class = center-block-text>problem <strong>10</strong> out of 25 problems</p></div>","0","","","","","","","","","","","","","","","","","","","","","","","","","",""
"","","","","","single-stim-button","301","1268328","0.0-3.0-37.0-0.0","545cccd0fdf99b75ad2e325a","E1","batch5","tol_tohand","2625","","","","","","","","","tol_peg_2","2625","2625","0","[[3,0,0],[0,0],[2]]","1","[[3,0,0],[2,1],[0]]","9","0","","","","","","3","","","","",""
"","","","","","single-stim-button","302","1268944","0.0-3.0-37.0-1.0","545cccd0fdf99b75ad2e325a","E1","batch5","tol_toboard","615","","","","","","","","","tol_peg_1","615","615","0","[[3,1,0],[0,0],[2]]","1","[[3,0,0],[2,1],[0]]","9","0","","","","","","3","","","","",""
"","","","","","single-stim-button","303","1269399","0.0-3.0-37.1-0.1","545cccd0fdf99b75ad2e325a","E1","batch5","tol_tohand","455","","","","","","","","","tol_peg_3","455","455","0","[[3,1,0],[0,0],[0]]","2","[[3,0,0],[2,1],[0]]","9","0","","","","","","3","","","","",""
"","","","","","single-stim-button","304","1269904","0.0-3.0-37.1-1.1","545cccd0fdf99b75ad2e325a","E1","batch5","tol_toboard","503","","","","","","","","","tol_peg_2","503","503","0","[[3,1,0],[2,0],[0]]","2","[[3,0,0],[2,1],[0]]","9","0","","","","","","3","","","","",""
"","","","","","single-stim-button","305","1270368","0.0-3.0-37.2-0.2","545cccd0fdf99b75ad2e325a","E1","batch5","tol_tohand","464","","","","","","","","","tol_peg_1","464","464","0","[[3,0,0],[2,0],[0]]","3","[[3,0,0],[2,1],[0]]","9","0","","","","","","3","","","","",""
"","","","","","single-stim-button","306","1270831","0.0-3.0-37.2-1.2","545cccd0fdf99b75ad2e325a","E1","batch5","tol_toboard","463","","","","","","","","","tol_peg_2","463","463","0","[[3,0,0],[2,1],[0]]","3","[[3,0,0],[2,1],[0]]","9","0","","","","","","3","","","","",""
"","","","","","poldrack-single-stim","307","1271843","0.0-3.0-38.0","545cccd0fdf99b75ad2e325a","E1","batch5","tol_feedback","-1","","","","","true","","","","","1000","1000","500","","","","","","-1","none","true","2625","3544","","","","","",""
"","","","","","html-button-response","308","1272496","0.0-3.0-39.0","545cccd0fdf99b75ad2e325a","E1","batch5","tol_trial_num","651.7000000178814","<div class = centerbox><p class = center-block-text>problem <strong>11</strong> out of 25 problems</p></div>","0","","","","","","","","","","","","","","","","","","","","","","","","","",""
"","","","","","single-stim-button","309","1276776","0.0-3.0-40.0-0.0","545cccd0fdf99b75ad2e325a","E1","batch5","tol_tohand","4279","","","","","","","","","tol_peg_1","4279","4279","0","[[1,0,0],[3,0],[0]]","1","[[2,0,0],[1,3],[0]]","10","0","","","","","","6","","","","",""
"","","","","","single-stim-button","310","1277447","0.0-3.0-40.0-1.0","545cccd0fdf99b75ad2e325a","E1","batch5","tol_toboard","671","","","","","","","","","tol_peg_3","671","671","0","[[1,0,0],[3,0],[2]]","1","[[2,0,0],[1,3],[0]]","10","0","","","","","","6","","","","",""
"","","","","","single-stim-button","311","1281327","0.0-3.0-40.1-0.1","545cccd0fdf99b75ad2e325a","E1","batch5","tol_tohand","3880","","","","","","","","","tol_peg_2","3880","3880","0","[[1,0,0],[0,0],[2]]","2","[[2,0,0],[1,3],[0]]","10","0","","","","","","6","","","","",""
"","","","","","single-stim-button","312","1281935","0.0-3.0-40.1-1.1","545cccd0fdf99b75ad2e325a","E1","batch5","tol_toboard","607","","","","","","","","","tol_peg_1","607","607","0","[[1,3,0],[0,0],[2]]","2","[[2,0,0],[1,3],[0]]","10","0","","","","","","6","","","","",""
"","","","","","single-stim-button","313","1289375","0.0-3.0-40.2-0.2","545cccd0fdf99b75ad2e325a","E1","batch5","tol_tohand","7439","","","","","","","","","tol_peg_1","7439","7439","0","[[1,0,0],[0,0],[2]]","3","[[2,0,0],[1,3],[0]]","10","0","","","","","","6","","","","",""
"","","","","","single-stim-button","314","1289935","0.0-3.0-40.2-1.2","545cccd0fdf99b75ad2e325a","E1","batch5","tol_toboard","559","","","","","","","","","tol_peg_2","559","559","0","[[1,0,0],[3,0],[2]]","3","[[2,0,0],[1,3],[0]]","10","0","","","","","","6","","","","",""
"","","","","","single-stim-button","315","1290400","0.0-3.0-40.3-0.3","545cccd0fdf99b75ad2e325a","E1","batch5","tol_tohand","464","","","","","","","","","tol_peg_1","464","464","0","[[0,0,0],[3,0],[2]]","4","[[2,0,0],[1,3],[0]]","10","0","","","","","","6","","","","",""
"","","","","","single-stim-button","316","1290712","0.0-3.0-40.3-1.3","545cccd0fdf99b75ad2e325a","E1","batch5","tol_toboard","311","","","","","","","","","tol_peg_2","311","311","0","[[0,0,0],[3,1],[2]]","4","[[2,0,0],[1,3],[0]]","10","0","","","","","","6","","","","",""
"","","","","","single-stim-button","317","1291103","0.0-3.0-40.4-0.4","545cccd0fdf99b75ad2e325a","E1","batch5","tol_tohand","391","","","","","","","","","tol_peg_3","391","391","0","[[0,0,0],[3,1],[0]]","5","[[2,0,0],[1,3],[0]]","10","0","","","","","","6","","","","",""
"","","","","","single-stim-button","318","1291671","0.0-3.0-40.4-1.4","545cccd0fdf99b75ad2e325a","E1","batch5","tol_toboard","568","","","","","","","","","tol_peg_1","568","568","0","[[2,0,0],[3,1],[0]]","5","[[2,0,0],[1,3],[0]]","10","0","","","","","","6","","","","",""
"","","","","","single-stim-button","319","1294455","0.0-3.0-40.5-0.5","545cccd0fdf99b75ad2e325a","E1","batch5","tol_tohand","2783","","","","","","","","","tol_peg_2","2783","2783","0","[[2,0,0],[3,0],[0]]","6","[[2,0,0],[1,3],[0]]","10","0","","","","","","6","","","","",""
"","","","","","single-stim-button","320","1295312","0.0-3.0-40.5-1.5","545cccd0fdf99b75ad2e325a","E1","batch5","tol_toboard","857","","","","","","","","","tol_peg_3","857","857","0","[[2,0,0],[3,0],[1]]","6","[[2,0,0],[1,3],[0]]","10","0","","","","","","6","","","","",""
"","","","","","single-stim-button","321","1295663","0.0-3.0-40.6-0.6","545cccd0fdf99b75ad2e325a","E1","batch5","tol_tohand","351","","","","","","","","","tol_peg_2","351","351","0","[[2,0,0],[0,0],[1]]","7","[[2,0,0],[1,3],[0]]","10","0","","","","","","6","","","","",""
"","","","","","single-stim-button","322","1296688","0.0-3.0-40.6-1.6","545cccd0fdf99b75ad2e325a","E1","batch5","tol_toboard","1023","","","","","","","","","tol_peg_1","1023","1023","0","[[2,3,0],[0,0],[1]]","7","[[2,0,0],[1,3],[0]]","10","0","","","","","","6","","","","",""
"","","","","","single-stim-button","323","1297336","0.0-3.0-40.7-0.7","545cccd0fdf99b75ad2e325a","E1","batch5","tol_tohand","648","","","","","","","","","tol_peg_3","648","648","0","[[2,3,0],[0,0],[0]]","8","[[2,0,0],[1,3],[0]]","10","0","","","","","","6","","","","",""
"","","","","","single-stim-button","324","1297824","0.0-3.0-40.7-1.7","545cccd0fdf99b75ad2e325a","E1","batch5","tol_toboard","487","","","","","","","","","tol_peg_2","487","487","0","[[2,3,0],[1,0],[0]]","8","[[2,0,0],[1,3],[0]]","10","0","","","","","","6","","","","",""
"","","","","","single-stim-button","325","1298151","0.0-3.0-40.8-0.8","545cccd0fdf99b75ad2e325a","E1","batch5","tol_tohand","327","","","","","","","","","tol_peg_1","327","327","0","[[2,0,0],[1,0],[0]]","9","[[2,0,0],[1,3],[0]]","10","0","","","","","","6","","","","",""
"","","","","","single-stim-button","326","1298431","0.0-3.0-40.8-1.8","545cccd0fdf99b75ad2e325a","E1","batch5","tol_toboard","280","","","","","","","","","tol_peg_2","280","280","0","[[2,0,0],[1,3],[0]]","9","[[2,0,0],[1,3],[0]]","10","0","","","","","","6","","","","",""
"","","","","","poldrack-single-stim","327","1299447","0.0-3.0-41.0","545cccd0fdf99b75ad2e325a","E1","batch5","tol_feedback","-1","","","","","true","","","","","1000","1000","500","","","","","","-1","none","true","4279","20562","","","","","",""
"","","","","","html-button-response","328","1300400","0.0-3.0-42.0","545cccd0fdf99b75ad2e325a","E1","batch5","tol_trial_num","951.9000000059605","<div class = centerbox><p class = center-block-text>problem <strong>12</strong> out of 25 problems</p></div>","0","","","","","","","","","","","","","","","","","","","","","","","","","",""
"","","","","","single-stim-button","329","1304168","0.0-3.0-43.0-0.0","545cccd0fdf99b75ad2e325a","E1","batch5","tol_tohand","3767","","","","","","","","","tol_peg_1","3767","3767","0","[[1,0,0],[3,0],[0]]","1","[[2,3,0],[0,0],[1]]","11","0","","","","","","4","","","","",""
"","","","","","single-stim-button","330","1304600","0.0-3.0-43.0-1.0","545cccd0fdf99b75ad2e325a","E1","batch5","tol_toboard","432","","","","","","","","","tol_peg_2","432","432","0","[[1,0,0],[3,2],[0]]","1","[[2,3,0],[0,0],[1]]","11","0","","","","","","4","","","","",""
"","","","","","single-stim-button","331","1305111","0.0-3.0-43.1-0.1","545cccd0fdf99b75ad2e325a","E1","batch5","tol_tohand","511","","","","","","","","","tol_peg_1","511","511","0","[[0,0,0],[3,2],[0]]","2","[[2,3,0],[0,0],[1]]","11","0","","","","","","4","","","","",""
"","","","","","single-stim-button","332","1305752","0.0-3.0-43.1-1.1","545cccd0fdf99b75ad2e325a","E1","batch5","tol_toboard","639","","","","","","","","","tol_peg_3","639","639","0","[[0,0,0],[3,2],[1]]","2","[[2,3,0],[0,0],[1]]","11","0","","","","","","4","","","","",""
"","","","","","single-stim-button","333","1306495","0.0-3.0-43.2-0.2","545cccd0fdf99b75ad2e325a","E1","batch5","tol_tohand","743","","","","","","","","","tol_peg_2","743","743","0","[[0,0,0],[3,0],[1]]","3","[[2,3,0],[0,0],[1]]","11","0","","","","","","4","","","","",""
"","","","","","single-stim-button","334","1307184","0.0-3.0-43.2-1.2","545cccd0fdf99b75ad2e325a","E1","batch5","tol_toboard","687","","","","","","","","","tol_peg_1","687","687","0","[[2,0,0],[3,0],[1]]","3","[[2,3,0],[0,0],[1]]","11","0","","","","","","4","","","","",""
"","","","","","single-stim-button","335","1307504","0.0-3.0-43.3-0.3","545cccd0fdf99b75ad2e325a","E1","batch5","tol_tohand","320","","","","","","","","","tol_peg_2","320","320","0","[[2,0,0],[0,0],[1]]","4","[[2,3,0],[0,0],[1]]","11","0","","","","","","4","","","","",""
"","","","","","single-stim-button","336","1307815","0.0-3.0-43.3-1.3","545cccd0fdf99b75ad2e325a","E1","batch5","tol_toboard","311","","","","","","","","","tol_peg_1","311","311","0","[[2,3,0],[0,0],[1]]","4","[[2,3,0],[0,0],[1]]","11","0","","","","","","4","","","","",""
"","","","","","poldrack-single-stim","337","1308818","0.0-3.0-44.0","545cccd0fdf99b75ad2e325a","E1","batch5","tol_feedback","-1","","","","","true","","","","","1000","1000","500","","","","","","-1","none","true","3767","5341","","","","","",""
"","","","","","html-button-response","338","1309448","0.0-3.0-45.0","545cccd0fdf99b75ad2e325a","E1","batch5","tol_trial_num","629.3000000119209","<div class = centerbox><p class = center-block-text>problem <strong>13</strong> out of 25 problems</p></div>","0","","","","","","","","","","","","","","","","","","","","","","","","","",""
"","","","","","single-stim-button","339","1314656","0.0-3.0-46.0-0.0","545cccd0fdf99b75ad2e325a","E1","batch5","tol_tohand","5208","","","","","","","","","tol_peg_2","5208","5208","0","[[1,2,0],[0,0],[0]]","1","[[0,0,0],[2,3],[1]]","12","0","","","","","","4","","","","",""
"","","","","","single-stim-button","340","1315224","0.0-3.0-46.0-1.0","545cccd0fdf99b75ad2e325a","E1","batch5","tol_toboard","567","","","","","","","","","tol_peg_3","567","567","0","[[1,2,0],[0,0],[3]]","1","[[0,0,0],[2,3],[1]]","12","0","","","","","","4","","","","",""
"","","","","","single-stim-button","341","1315680","0.0-3.0-46.1-0.1","545cccd0fdf99b75ad2e325a","E1","batch5","tol_tohand","456","","","","","","","","","tol_peg_1","456","456","0","[[1,0,0],[0,0],[3]]","2","[[0,0,0],[2,3],[1]]","12","0","","","","","","4","","","","",""
"","","","","","single-stim-button","342","1316168","0.0-3.0-46.1-1.1","545cccd0fdf99b75ad2e325a","E1","batch5","tol_toboard","486","","","","","","","","","tol_peg_2","486","486","0","[[1,0,0],[2,0],[3]]","2","[[0,0,0],[2,3],[1]]","12","0","","","","","","4","","","","",""
"","","","","","single-stim-button","343","1316649","0.0-3.0-46.2-0.2","545cccd0fdf99b75ad2e325a","E1","batch5","tol_tohand","480","","","","","","","","","tol_peg_3","480","480","0","[[1,0,0],[2,0],[0]]","3","[[0,0,0],[2,3],[1]]","12","0","","","","","","4","","","","",""
"","","","","","single-stim-button","344","1316961","0.0-3.0-46.2-1.2","545cccd0fdf99b75ad2e325a","E1","batch5","tol_toboard","311","","","","","","","","","tol_peg_2","311","311","0","[[1,0,0],[2,3],[0]]","3","[[0,0,0],[2,3],[1]]","12","0","","","","","","4","","","","",""
"","","","","","single-stim-button","345","1317240","0.0-3.0-46.3-0.3","545cccd0fdf99b75ad2e325a","E1","batch5","tol_tohand","279","","","","","","","","","tol_peg_1","279","279","0","[[0,0,0],[2,3],[0]]","4","[[0,0,0],[2,3],[1]]","12","0","","","","","","4","","","","",""
"","","","","","single-stim-button","346","1317736","0.0-3.0-46.3-1.3","545cccd0fdf99b75ad2e325a","E1","batch5","tol_toboard","496","","","","","","","","","tol_peg_3","496","496","0","[[0,0,0],[2,3],[1]]","4","[[0,0,0],[2,3],[1]]","12","0","","","","","","4","","","","",""
"","","","","","poldrack-single-stim","347","1318739","0.0-3.0-47.0","545cccd0fdf99b75ad2e325a","E1","batch5","tol_feedback","-1","","","","","true","","","","","1000","1000","500","","","","","","-1","none","true","5208","6423","","","","","",""
"","","","","","html-button-response","348","1320647","0.0-3.0-48.0","545cccd0fdf99b75ad2e325a","E1","batch5","attention_check","1908","<p class = block-text>How many balls are in your board<br></p>","1","","","true","","","","","","","","","","","","","","","","","","","","","","",""
"","","","","","html-button-response","349","1321512","0.0-3.0-49.0","545cccd0fdf99b75ad2e325a","E1","batch5","tol_trial_num","863.6999999880791","<div class = centerbox><p class = center-block-text>problem <strong>14</strong> out of 25 problems</p></div>","0","","","","","","","","","","","","","","","","","","","","","","","","","",""
"","","","","","single-stim-button","350","1325920","0.0-3.0-50.0-0.0","545cccd0fdf99b75ad2e325a","E1","batch5","tol_tohand","4408","","","","","","","","","tol_peg_1","4408","4408","0","[[2,0,0],[3,0],[0]]","1","[[1,2,0],[3,0],[0]]","13","0","","","","","","4","","","","",""
"","","","","","single-stim-button","351","1326272","0.0-3.0-50.0-1.0","545cccd0fdf99b75ad2e325a","E1","batch5","tol_toboard","352","","","","","","","","","tol_peg_2","352","352","0","[[2,0,0],[3,1],[0]]","1","[[1,2,0],[3,0],[0]]","13","0","","","","","","4","","","","",""
"","","","","","single-stim-button","352","1327528","0.0-3.0-50.1-0.1","545cccd0fdf99b75ad2e325a","E1","batch5","tol_tohand","1256","","","","","","","","","tol_peg_1","1256","1256","0","[[0,0,0],[3,1],[0]]","2","[[1,2,0],[3,0],[0]]","13","0","","","","","","4","","","","",""
"","","","","","single-stim-button","353","1328272","0.0-3.0-50.1-1.1","545cccd0fdf99b75ad2e325a","E1","batch5","tol_toboard","744","","","","","","","","","tol_peg_3","744","744","0","[[0,0,0],[3,1],[2]]","2","[[1,2,0],[3,0],[0]]","13","0","","","","","","4","","","","",""
