"success","timeout","failed_images","failed_audio","failed_video","trial_type","trial_index","time_elapsed","internal_node_id","subject_id","study_id","session_id","view_history","rt","stimulus","response","task","correct","answer","item","fiar_detect_rt","fiar_detect_correct","total_correct_fiar_detect","post_trial_gap","choices","spm_correct","spm_rt","mouse_click","stim_duration","block_duration","timing_post_trial","current_position","tol_num_moves_made","tol_target","tol_problem_id","tol_rt","key_press","possible_responses","tol_correct","preplanning","tol_rt_per_trial","tol_min_moves"
"true","false","[]","[]","[]","preload","0","4426","0.0-0.0","546e7e16fdf99b2b8df9842e","E1","batch5","","","","","","","","","","","","","","","","","","","","","","","","","","","","","",""
"true","","","","","fullscreen","1","15689","0.0-1.0-0.0","546e7e16fdf99b2b8df9842e","E1","batch5","","","","","","","","","","","","","","","","","","","","","","","","","","","","","",""
"true","","","","","fullscreen","2","18961","0.0-2.0-0.0","546e7e16fdf99b2b8df9842e","E1","batch5","","","","","","","","","","","","","","","","","","","","","","","","","","","","","",""
"","","","","","instructions","3","40152","0.0-2.0-1.0-0.0","546e7e16fdf99b2b8df9842e","E1","batch5","[{""page_index"":0,""viewing_time"":11880.099999964237},{""page_index"":1,""viewing_time"":9308.800000011921}]","21189.099999964237","","","","","","","","","","","","","","","","","","","","","","","","","","","",""
"","","","","","html-button-response","4","41273","0.0-2.0-1.0-1.0-0.0","546e7e16fdf99b2b8df9842e","E1","batch5","","1120.199999988079","<p class=block-text> Let's answer a few questions <br>","0","pattern_enter_quiz","","","","","","","","","","","","","","","","","","","","","","","","",""
"","","","","","html-button-response","5","43749","0.0-2.0-1.0-1.0-1.0","546e7e16fdf99b2b8df9842e","E1","batch5","","2475.099999964237","<p class = block-text>True or False: You will have as much time as you want to make each choice. <br></p>","1","pattern_quiz","true","","","","","","","","","","","","","","","","","","","","","","","",""
"","","","","","html-button-response","6","45125","0.0-2.0-1.0-1.0-2.0","546e7e16fdf99b2b8df9842e","E1","batch5","","1375","<p class = block-text>Correct! You should make your choice <strong> as fast as you can</strong>.</p>","0","pattern_quiz_feedback","","","","","","","","","","","","","","","","","","","","","","","","",""
"","","","","","html-button-response","7","52105","0.0-2.0-1.0-1.0-3.0","546e7e16fdf99b2b8df9842e","E1","batch5","","6979.300000011921","<p class = block-text>True or False: You will look for 4 pieces in black or white color connected in a row either horizontally, vertically or diagonally. <br></p>","0","pattern_quiz","true","","","","","","","","","","","","","","","","","","","","","","","",""
"","","","","","html-button-response","8","53111","0.0-2.0-1.0-1.0-4.0","546e7e16fdf99b2b8df9842e","E1","batch5","","1005.3000000119209","<p class = block-text>Correct! </p>","0","pattern_quiz_feedback","","","","","","","","","","","","","","","","","","","","","","","","",""
"","","","","","html-button-response","9","54599","0.0-2.0-2.0","546e7e16fdf99b2b8df9842e","E1","batch5","","1487.0999999642372","<p class=block-text> Now that you've understood the game, let's do a few practice trials before we start!<br> <br>","0","pattern_enter_practice","","","","","","","","","","","","","","","","","","","","","","","","",""
"","","","","","image-keyboard-response","10","56093","0.0-2.0-3.0-0.0","546e7e16fdf99b2b8df9842e","E1","batch5","","1490.6000000238419","stim/prac_no_18_1.png","j","pattern_practice","true","j","","","","","","","","","","","","","","","","","","","","","","",""
"","","","","","html-keyboard-response","11","57125","0.0-2.0-3.0-1.0","546e7e16fdf99b2b8df9842e","E1","batch5","","null","<p style=""font-size:30px;color:green;"">Correct!</p>","null","pattern_feedback","","","","","","","","","","","","","","","","","","","","","","","","",""
"","","","","","image-keyboard-response","12","58163","0.0-2.0-3.0-0.1","546e7e16fdf99b2b8df9842e","E1","batch5","","1036.4000000357628","stim/prac_yes_20_dia_b1.png","f","pattern_practice","true","f","","","","","","","","","","","","","","","","","","","","","","",""
"","","","","","html-keyboard-response","13","59181","0.0-2.0-3.0-1.1","546e7e16fdf99b2b8df9842e","E1","batch5","","null","<p style=""font-size:30px;color:green;"">Correct!</p>","null","pattern_feedback","","","","","","","","","","","","","","","","","","","","","","","","",""
"","","","","","image-keyboard-response","14","60124","0.0-2.0-3.0-0.2","546e7e16fdf99b2b8df9842e","E1","batch5","","941","stim/prac_yes_16_ver_w1.png","f","pattern_practice","true","f","","","","","","","","","","","","","","","","","","","","","","",""
"","","","","","html-keyboard-response","15","61131","0.0-2.0-3.0-1.2","546e7e16fdf99b2b8df9842e","E1","batch5","","null","<p style=""font-size:30px;color:green;"">Correct!</p>","null","pattern_feedback","","","","","","","","","","","","","","","","","","","","","","","","",""
"","","","","","image-keyboard-response","16","62309","0.0-2.0-3.0-0.3","546e7e16fdf99b2b8df9842e","E1","batch5","","1175.5999999642372","stim/prac_no_16_1.png","j","pattern_practice","true","j","","","","","","","","","","","","","","","","","","","","","","",""
"","","","","","html-keyboard-response","17","63321","0.0-2.0-3.0-1.3","546e7e16fdf99b2b8df9842e","E1","batch5","","null","<p style=""font-size:30px;color:green;"">Correct!</p>","null","pattern_feedback","","","","","","","","","","","","","","","","","","","","","","","","",""
"","","","","","image-keyboard-response","18","64228","0.0-2.0-3.0-0.4","546e7e16fdf99b2b8df9842e","E1","batch5","","904","stim/prac_yes_18_hor_w1.png","f","pattern_practice","true","f","","","","","","","","","","","","","","","","","","","","","","",""
"","","","","","html-keyboard-response","19","65247","0.0-2.0-3.0-1.4","546e7e16fdf99b2b8df9842e","E1","batch5","","null","<p style=""font-size:30px;color:green;"">Correct!</p>","null","pattern_feedback","","","","","","","","","","","","","","","","","","","","","","","","",""
"","","","","","html-button-response","20","73665","0.0-2.0-4.0","546e7e16fdf99b2b8df9842e","E1","batch5","","8416.599999964237","<p class=block-text> Good job! You are done with practice trials!<br>
        You responded correctly on 100% of the trials.<br>
        Press the button below to start official trials. Now you won't see any feedback about your response</p>","0","pattern_enter_official_trials","","","","","","","","","","","","","","","","","","","","","","","","",""
"","","","","","html-keyboard-response","21","74478","0.0-2.0-5.0-0.0","546e7e16fdf99b2b8df9842e","E1","batch5","","null","<p class=block-text>Trial 1 out of 78</p>","null","pattern_show_trial_num","","","","","","","","","","","","","","","","","","","","","","","","",""
"","","","","","image-keyboard-response","22","75884","0.0-2.0-5.0-1.0","546e7e16fdf99b2b8df9842e","E1","batch5","","1401.7999999523163","stim/yes_51_dia_b1.png","f","pattern_response","true","f","pattern_72","1401.7999999523163","true","1","","","","","","","","","","","","","","","","","","",""
"","","","","","html-keyboard-response","23","77207","0.0-2.0-5.0-0.1","546e7e16fdf99b2b8df9842e","E1","batch5","","null","<p class=block-text>Trial 2 out of 78</p>","null","pattern_show_trial_num","","","","","","","","","","","","","","","","","","","","","","","","",""
"","","","","","image-keyboard-response","24","78308","0.0-2.0-5.0-1.1","546e7e16fdf99b2b8df9842e","E1","batch5","","1098.5","stim/no_22_1_b.png","j","pattern_response","true","j","pattern_07","1098.5","true","2","","","","","","","","","","","","","","","","","","",""
"","","","","","html-keyboard-response","25","79626","0.0-2.0-5.0-0.2","546e7e16fdf99b2b8df9842e","E1","batch5","","null","<p class=block-text>Trial 3 out of 78</p>","null","pattern_show_trial_num","","","","","","","","","","","","","","","","","","","","","","","","",""
"","","","","","image-keyboard-response","26","80595","0.0-2.0-5.0-1.2","546e7e16fdf99b2b8df9842e","E1","batch5","","966.6999999880791","stim/yes_30_ver_b1_b.png","f","pattern_response","true","f","pattern_54","966.6999999880791","true","3","","","","","","","","","","","","","","","","","","",""
"","","","","","html-keyboard-response","27","81902","0.0-2.0-5.0-0.3","546e7e16fdf99b2b8df9842e","E1","batch5","","null","<p class=block-text>Trial 4 out of 78</p>","null","pattern_show_trial_num","","","","","","","","","","","","","","","","","","","","","","","","",""
"","","","","","image-keyboard-response","28","82852","0.0-2.0-5.0-1.3","546e7e16fdf99b2b8df9842e","E1","batch5","","947.0999999642372","stim/no_18_1_b.png","j","pattern_response","true","j","pattern_05","947.0999999642372","true","4","","","","","","","","","","","","","","","","","","",""
"","","","","","html-keyboard-response","29","84172","0.0-2.0-5.0-0.4","546e7e16fdf99b2b8df9842e","E1","batch5","","null","<p class=block-text>Trial 5 out of 78</p>","null","pattern_show_trial_num","","","","","","","","","","","","","","","","","","","","","","","","",""
"","","","","","image-keyboard-response","30","85310","0.0-2.0-5.0-1.4","546e7e16fdf99b2b8df9842e","E1","batch5","","1134.6000000238419","stim/no_15_1_w.png","j","pattern_response","true","j","pattern_03","1134.6000000238419","true","5","","","","","","","","","","","","","","","","","","",""
"","","","","","html-keyboard-response","31","86631","0.0-2.0-5.0-0.5","546e7e16fdf99b2b8df9842e","E1","batch5","","null","<p class=block-text>Trial 6 out of 78</p>","null","pattern_show_trial_num","","","","","","","","","","","","","","","","","","","","","","","","",""
"","","","","","image-keyboard-response","32","88708","0.0-2.0-5.0-1.5","546e7e16fdf99b2b8df9842e","E1","batch5","","2075.300000011921","stim/no_30_1_b.png","j","pattern_response","true","j","pattern_13","2075.300000011921","true","6","","","","","","","","","","","","","","","","","","",""
"","","","","","html-keyboard-response","33","90021","0.0-2.0-5.0-0.6","546e7e16fdf99b2b8df9842e","E1","batch5","","null","<p class=block-text>Trial 7 out of 78</p>","null","pattern_show_trial_num","","","","","","","","","","","","","","","","","","","","","","","","",""
"","","","","","image-keyboard-response","34","91091","0.0-2.0-5.0-1.6","546e7e16fdf99b2b8df9842e","E1","batch5","","1067.6000000238419","stim/yes_33_dia_w1_w.png","f","pattern_response","true","f","pattern_56","1067.6000000238419","true","7","","","","","","","","","","","","","","","","","","",""
"","","","","","html-keyboard-response","35","92403","0.0-2.0-5.0-0.7","546e7e16fdf99b2b8df9842e","E1","batch5","","null","<p class=block-text>Trial 8 out of 78</p>","null","pattern_show_trial_num","","","","","","","","","","","","","","","","","","","","","","","","",""
"","","","","","image-keyboard-response","36","93877","0.0-2.0-5.0-1.7","546e7e16fdf99b2b8df9842e","E1","batch5","","1472.4000000357628","stim/no_33_1_b.png","j","pattern_response","true","j","pattern_15","1472.4000000357628","true","8","","","","","","","","","","","","","","","","","","",""
"","","","","","html-keyboard-response","37","95190","0.0-2.0-5.0-0.8","546e7e16fdf99b2b8df9842e","E1","batch5","","null","<p class=block-text>Trial 9 out of 78</p>","null","pattern_show_trial_num","","","","","","","","","","","","","","","","","","","","","","","","",""
"","","","","","image-keyboard-response","38","96349","0.0-2.0-5.0-1.8","546e7e16fdf99b2b8df9842e","E1","batch5","","1157.300000011921","stim/no_67_1.png","f","pattern_response","false","j","pattern_39","1157.300000011921","false","8","","","","","","","","","","","","","","","","","","",""
"","","","","","html-keyboard-response","39","97666","0.0-2.0-5.0-0.9","546e7e16fdf99b2b8df9842e","E1","batch5","","null","<p class=block-text>Trial 10 out of 78</p>","null","pattern_show_trial_num","","","","","","","","","","","","","","","","","","","","","","","","",""
"","","","","","image-keyboard-response","40","98621","0.0-2.0-5.0-1.9","546e7e16fdf99b2b8df9842e","E1","batch5","","952.8000000119209","stim/yes_12_hor_w1_w.png","f","pattern_response","true","f","pattern_42","952.8000000119209","true","9","","","","","","","","","","","","","","","","","","",""
"","","","","","html-keyboard-response","41","99943","0.0-2.0-5.0-0.10","546e7e16fdf99b2b8df9842e","E1","batch5","","null","<p class=block-text>Trial 11 out of 78</p>","null","pattern_show_trial_num","","","","","","","","","","","","","","","","","","","","","","","","",""
"","","","","","image-keyboard-response","42","101860","0.0-2.0-5.0-1.10","546e7e16fdf99b2b8df9842e","E1","batch5","","1914.8999999761581","stim/no_45_1_w.png","j","pattern_response","true","j","pattern_25","1914.8999999761581","true","10","","","","","","","","","","","","","","","","","","",""
"","","","","","html-keyboard-response","43","103180","0.0-2.0-5.0-0.11","546e7e16fdf99b2b8df9842e","E1","batch5","","null","<p class=block-text>Trial 12 out of 78</p>","null","pattern_show_trial_num","","","","","","","","","","","","","","","","","","","","","","","","",""
"","","","","","image-keyboard-response","44","104060","0.0-2.0-5.0-1.11","546e7e16fdf99b2b8df9842e","E1","batch5","","876.8000000119209","stim/yes_17_ver_b1_b.png","f","pattern_response","true","f","pattern_46","876.8000000119209","true","11","","","","","","","","","","","","","","","","","","",""
"","","","","","html-keyboard-response","45","105376","0.0-2.0-5.0-0.12","546e7e16fdf99b2b8df9842e","E1","batch5","","null","<p class=block-text>Trial 13 out of 78</p>","null","pattern_show_trial_num","","","","","","","","","","","","","","","","","","","","","","","","",""
"","","","","","image-keyboard-response","46","106637","0.0-2.0-5.0-1.12","546e7e16fdf99b2b8df9842e","E1","batch5","","1259.699999988079","stim/yes_46_ver_b1_b.png","f","pattern_response","true","f","pattern_68","1259.699999988079","true","12","","","","","","","","","","","","","","","","","","",""
"","","","","","html-keyboard-response","47","107962","0.0-2.0-5.0-0.13","546e7e16fdf99b2b8df9842e","E1","batch5","","null","<p class=block-text>Trial 14 out of 78</p>","null","pattern_show_trial_num","","","","","","","","","","","","","","","","","","","","","","","","",""
"","","","","","image-keyboard-response","48","108908","0.0-2.0-5.0-1.13","546e7e16fdf99b2b8df9842e","E1","batch5","","944.5","stim/yes_15_dia_b1u_b.png","f","pattern_response","true","f","pattern_44","944.5","true","13","","","","","","","","","","","","","","","","","","",""
"","","","","","html-keyboard-response","49","110233","0.0-2.0-5.0-0.14","546e7e16fdf99b2b8df9842e","E1","batch5","","null","<p class=block-text>Trial 15 out of 78</p>","null","pattern_show_trial_num","","","","","","","","","","","","","","","","","","","","","","","","",""
"","","","","","image-keyboard-response","50","112132","0.0-2.0-5.0-1.14","546e7e16fdf99b2b8df9842e","E1","batch5","","1896.7999999523163","stim/no_53_1_b.png","j","pattern_response","true","j","pattern_33","1896.7999999523163","true","14","","","","","","","","","","","","","","","","","","",""
"","","","","","html-keyboard-response","51","113454","0.0-2.0-5.0-0.15","546e7e16fdf99b2b8df9842e","E1","batch5","","null","<p class=block-text>Trial 16 out of 78</p>","null","pattern_show_trial_num","","","","","","","","","","","","","","","","","","","","","","","","",""
"","","","","","image-keyboard-response","52","114292","0.0-2.0-5.0-1.15","546e7e16fdf99b2b8df9842e","E1","batch5","","836.1999999880791","stim/yes_39_hor_w1_w.png","f","pattern_response","true","f","pattern_62","836.1999999880791","true","15","","","","","","","","","","","","","","","","","","",""
"","","","","","html-keyboard-response","53","115617","0.0-2.0-5.0-0.16","546e7e16fdf99b2b8df9842e","E1","batch5","","null","<p class=block-text>Trial 17 out of 78</p>","null","pattern_show_trial_num","","","","","","","","","","","","","","","","","","","","","","","","",""
"","","","","","image-keyboard-response","54","116925","0.0-2.0-5.0-1.16","546e7e16fdf99b2b8df9842e","E1","batch5","","1306.199999988079","stim/no_43_2_b.png","j","pattern_response","true","j","pattern_23","1306.199999988079","true","16","","","","","","","","","","","","","","","","","","",""
"","","","","","html-keyboard-response","55","118248","0.0-2.0-5.0-0.17","546e7e16fdf99b2b8df9842e","E1","batch5","","null","<p class=block-text>Trial 18 out of 78</p>","null","pattern_show_trial_num","","","","","","","","","","","","","","","","","","","","","","","","",""
"","","","","","image-keyboard-response","56","119214","0.0-2.0-5.0-1.17","546e7e16fdf99b2b8df9842e","E1","batch5","","962.1999999880791","stim/no_12_1.png","j","pattern_response","true","j","pattern_01","962.1999999880791","true","17","","","","","","","","","","","","","","","","","","",""
"","","","","","html-keyboard-response","57","120535","0.0-2.0-5.0-0.18","546e7e16fdf99b2b8df9842e","E1","batch5","","null","<p class=block-text>Trial 19 out of 78</p>","null","pattern_show_trial_num","","","","","","","","","","","","","","","","","","","","","","","","",""
"","","","","","image-keyboard-response","58","121899","0.0-2.0-5.0-1.18","546e7e16fdf99b2b8df9842e","E1","batch5","","1361.8999999761581","stim/yes_44_ver_w1_w.png","j","pattern_response","false","f","pattern_66","1361.8999999761581","false","17","","","","","","","","","","","","","","","","","","",""
"","","","","","html-keyboard-response","59","123223","0.0-2.0-5.0-0.19","546e7e16fdf99b2b8df9842e","E1","batch5","","null","<p class=block-text>Trial 20 out of 78</p>","null","pattern_show_trial_num","","","","","","","","","","","","","","","","","","","","","","","","",""
"","","","","","image-keyboard-response","60","124172","0.0-2.0-5.0-1.19","546e7e16fdf99b2b8df9842e","E1","batch5","","946.9000000357628","stim/yes_36_ver_w1_w.png","f","pattern_response","true","f","pattern_58","946.9000000357628","true","18","","","","","","","","","","","","","","","","","","",""
"","","","","","html-keyboard-response","61","125484","0.0-2.0-5.0-0.20","546e7e16fdf99b2b8df9842e","E1","batch5","","null","<p class=block-text>Trial 21 out of 78</p>","null","pattern_show_trial_num","","","","","","","","","","","","","","","","","","","","","","","","",""
"","","","","","image-keyboard-response","62","127053","0.0-2.0-5.0-1.20","546e7e16fdf99b2b8df9842e","E1","batch5","","1567.5","stim/no_37_2_w.png","j","pattern_response","true","j","pattern_19","1567.5","true","19","","","","","","","","","","","","","","","","","","",""
"","","","","","html-keyboard-response","63","128376","0.0-2.0-5.0-0.21","546e7e16fdf99b2b8df9842e","E1","batch5","","null","<p class=block-text>Trial 22 out of 78</p>","null","pattern_show_trial_num","","","","","","","","","","","","","","","","","","","","","","","","",""
"","","","","","image-keyboard-response","64","130140","0.0-2.0-5.0-1.21","546e7e16fdf99b2b8df9842e","E1","batch5","","1762","stim/yes_58_dia_w1_w.png","j","pattern_response","false","f","pattern_76","1762","false","19","","","","","","","","","","","","","","","","","","",""
"","","","","","html-keyboard-response","65","131453","0.0-2.0-5.0-0.22","546e7e16fdf99b2b8df9842e","E1","batch5","","null","<p class=block-text>Trial 23 out of 78</p>","null","pattern_show_trial_num","","","","","","","","","","","","","","","","","","","","","","","","",""
"","","","","","image-keyboard-response","66","132412","0.0-2.0-5.0-1.22","546e7e16fdf99b2b8df9842e","E1","batch5","","956.8000000119209","stim/no_47_1_b.png","j","pattern_response","true","j","pattern_27","956.8000000119209","true","20","","","","","","","","","","","","","","","","","","",""
"","","","","","html-keyboard-response","67","133720","0.0-2.0-5.0-0.23","546e7e16fdf99b2b8df9842e","E1","batch5","","null","<p class=block-text>Trial 24 out of 78</p>","null","pattern_show_trial_num","","","","","","","","","","","","","","","","","","","","","","","","",""
"","","","","","image-keyboard-response","68","134804","0.0-2.0-5.0-1.23","546e7e16fdf99b2b8df9842e","E1","batch5","","1082.4000000357628","stim/no_51_1.png","j","pattern_response","true","j","pattern_31","1082.4000000357628","true","21","","","","","","","","","","","","","","","","","","",""
"","","","","","html-keyboard-response","69","136121","0.0-2.0-5.0-0.24","546e7e16fdf99b2b8df9842e","E1","batch5","","null","<p class=block-text>Trial 25 out of 78</p>","null","pattern_show_trial_num","","","","","","","","","","","","","","","","","","","","","","","","",""
"","","","","","image-keyboard-response","70","136972","0.0-2.0-5.0-1.24","546e7e16fdf99b2b8df9842e","E1","batch5","","848.0999999642372","stim/yes_29_hor_b1_b.png","f","pattern_response","true","f","pattern_52","848.0999999642372","true","22","","","","","","","","","","","","","","","","","","",""
"","","","","","html-keyboard-response","71","138282","0.0-2.0-5.0-0.25","546e7e16fdf99b2b8df9842e","E1","batch5","","null","<p class=block-text>Trial 26 out of 78</p>","null","pattern_show_trial_num","","","","","","","","","","","","","","","","","","","","","","","","",""
"","","","","","image-keyboard-response","72","139508","0.0-2.0-5.0-1.25","546e7e16fdf99b2b8df9842e","E1","batch5","","1223.0999999642372","stim/no_39_1_w.png","j","pattern_response","true","j","pattern_21","1223.0999999642372","true","23","","","","","","","","","","","","","","","","","","",""
"","","","","","html-keyboard-response","73","140820","0.0-2.0-5.0-0.26","546e7e16fdf99b2b8df9842e","E1","batch5","","null","<p class=block-text>Trial 27 out of 78</p>","null","pattern_show_trial_num","","","","","","","","","","","","","","","","","","","","","","","","",""
"","","","","","image-keyboard-response","74","141828","0.0-2.0-5.0-1.26","546e7e16fdf99b2b8df9842e","E1","batch5","","1006.5999999642372","stim/yes_37_hor_w1_w.png","f","pattern_response","true","f","pattern_60","1006.5999999642372","true","24","","","","","","","","","","","","","","","","","","",""
"","","","","","html-keyboard-response","75","143151","0.0-2.0-5.0-0.27","546e7e16fdf99b2b8df9842e","E1","batch5","","null","<p class=block-text>Trial 28 out of 78</p>","null","pattern_show_trial_num","","","","","","","","","","","","","","","","","","","","","","","","",""
"","","","","","image-keyboard-response","76","144692","0.0-2.0-5.0-1.27","546e7e16fdf99b2b8df9842e","E1","batch5","","1539.5","stim/no_28_2.png","j","pattern_response","true","j","pattern_11","1539.5","true","25","","","","","","","","","","","","","","","","","","",""
"","","","","","html-keyboard-response","77","146015","0.0-2.0-5.0-0.28","546e7e16fdf99b2b8df9842e","E1","batch5","","null","<p class=block-text>Trial 29 out of 78</p>","null","pattern_show_trial_num","","","","","","","","","","","","","","","","","","","","","","","","",""
"","","","","","image-keyboard-response","78","146948","0.0-2.0-5.0-1.28","546e7e16fdf99b2b8df9842e","E1","batch5","","931","stim/no_36_1_b.png","j","pattern_response","true","j","pattern_17","931","true","26","","","","","","","","","","","","","","","","","","",""
"","","","","","html-keyboard-response","79","148266","0.0-2.0-5.0-0.29","546e7e16fdf99b2b8df9842e","E1","batch5","","null","<p class=block-text>Trial 30 out of 78</p>","null","pattern_show_trial_num","","","","","","","","","","","","","","","","","","","","","","","","",""
"","","","","","image-keyboard-response","80","149661","0.0-2.0-5.0-1.29","546e7e16fdf99b2b8df9842e","E1","batch5","","1392.800000011921","stim/no_58_1_w.png","j","pattern_response","true","j","pattern_35","1392.800000011921","true","27","","","","","","","","","","","","","","","","","","",""
"","","","","","html-keyboard-response","81","150985","0.0-2.0-5.0-0.30","546e7e16fdf99b2b8df9842e","E1","batch5","","null","<p class=block-text>Trial 31 out of 78</p>","null","pattern_show_trial_num","","","","","","","","","","","","","","","","","","","","","","","","",""
"","","","","","image-keyboard-response","82","152068","0.0-2.0-5.0-1.30","546e7e16fdf99b2b8df9842e","E1","batch5","","1081.300000011921","stim/no_25_1_b.png","j","pattern_response","true","j","pattern_09","1081.300000011921","true","28","","","","","","","","","","","","","","","","","","",""
"","","","","","html-keyboard-response","83","153386","0.0-2.0-5.0-0.31","546e7e16fdf99b2b8df9842e","E1","batch5","","null","<p class=block-text>Trial 32 out of 78</p>","null","pattern_show_trial_num","","","","","","","","","","","","","","","","","","","","","","","","",""
"","","","","","image-keyboard-response","84","154644","0.0-2.0-5.0-1.31","546e7e16fdf99b2b8df9842e","E1","batch5","","1256.1000000238419","stim/yes_26_dia_w2_w.png","f","pattern_response","true","f","pattern_50","1256.1000000238419","true","29","","","","","","","","","","","","","","","","","","",""
"","","","","","html-keyboard-response","85","155954","0.0-2.0-5.0-0.32","546e7e16fdf99b2b8df9842e","E1","batch5","","null","<p class=block-text>Trial 33 out of 78</p>","null","pattern_show_trial_num","","","","","","","","","","","","","","","","","","","","","","","","",""
"","","","","","image-keyboard-response","86","157220","0.0-2.0-5.0-1.32","546e7e16fdf99b2b8df9842e","E1","batch5","","1264","stim/yes_63_dia_b1.png","f","pattern_response","true","f","pattern_78","1264","true","30","","","","","","","","","","","","","","","","","","",""
"","","","","","html-keyboard-response","87","158539","0.0-2.0-5.0-0.33","546e7e16fdf99b2b8df9842e","E1","batch5","","null","<p class=block-text>Trial 34 out of 78</p>","null","pattern_show_trial_num","","","","","","","","","","","","","","","","","","","","","","","","",""
"","","","","","image-keyboard-response","88","160109","0.0-2.0-5.0-1.33","546e7e16fdf99b2b8df9842e","E1","batch5","","1567.3999999761581","stim/no_49_2_b.png","j","pattern_response","true","j","pattern_29","1567.3999999761581","true","31","","","","","","","","","","","","","","","","","","",""
"","","","","","html-keyboard-response","89","161427","0.0-2.0-5.0-0.34","546e7e16fdf99b2b8df9842e","E1","batch5","","null","<p class=block-text>Trial 35 out of 78</p>","null","pattern_show_trial_num","","","","","","","","","","","","","","","","","","","","","","","","",""
"","","","","","image-keyboard-response","90","163134","0.0-2.0-5.0-1.34","546e7e16fdf99b2b8df9842e","E1","batch5","","1704.300000011921","stim/yes_53_ver_b1_b.png","f","pattern_response","true","f","pattern_74","1704.300000011921","true","32","","","","","","","","","","","","","","","","","","",""
"","","","","","html-keyboard-response","91","164460","0.0-2.0-5.0-0.35","546e7e16fdf99b2b8df9842e","E1","batch5","","null","<p class=block-text>Trial 36 out of 78</p>","null","pattern_show_trial_num","","","","","","","","","","","","","","","","","","","","","","","","",""
"","","","","","image-keyboard-response","92","165396","0.0-2.0-5.0-1.35","546e7e16fdf99b2b8df9842e","E1","batch5","","933.2000000476837","stim/yes_49_hor_w1_b.png","f","pattern_response","true","f","pattern_70","933.2000000476837","true","33","","","","","","","","","","","","","","","","","","",""
"","","","","","html-keyboard-response","93","166706","0.0-2.0-5.0-0.36","546e7e16fdf99b2b8df9842e","E1","batch5","","null","<p class=block-text>Trial 37 out of 78</p>","null","pattern_show_trial_num","","","","","","","","","","","","","","","","","","","","","","","","",""
"","","","","","image-keyboard-response","94","167732","0.0-2.0-5.0-1.36","546e7e16fdf99b2b8df9842e","E1","batch5","","1023.3000000119209","stim/yes_70_ver_b1.png","f","pattern_response","true","f","pattern_80","1023.3000000119209","true","34","","","","","","","","","","","","","","","","","","",""
"","","","","","html-keyboard-response","95","169048","0.0-2.0-5.0-0.37","546e7e16fdf99b2b8df9842e","E1","batch5","","null","<p class=block-text>Trial 38 out of 78</p>","null","pattern_show_trial_num","","","","","","","","","","","","","","","","","","","","","","","","",""
"","","","","","image-keyboard-response","96","170469","0.0-2.0-5.0-1.37","546e7e16fdf99b2b8df9842e","E1","batch5","","1418.699999988079","stim/yes_42_dia_w1_w.png","j","pattern_response","false","f","pattern_64","1418.699999988079","false","34","","","","","","","","","","","","","","","","","","",""
"","","","","","html-keyboard-response","97","171789","0.0-2.0-5.0-0.38","546e7e16fdf99b2b8df9842e","E1","batch5","","null","<p class=block-text>Trial 39 out of 78</p>","null","pattern_show_trial_num","","","","","","","","","","","","","","","","","","","","","","","","",""
"","","","","","image-keyboard-response","98","172964","0.0-2.0-5.0-1.38","546e7e16fdf99b2b8df9842e","E1","batch5","","1172.5999999642372","stim/yes_23_ver_b1.png","f","pattern_response","true","f","pattern_48","1172.5999999642372","true","35","","","","","","","","","","","","","","","","","","",""
"","","","","","image-keyboard-response","99","175156","0.0-2.0-6.0","546e7e16fdf99b2b8df9842e","E1","batch5","","1683.8999999761581","stim/empty_board.png","j","attention_check","true","j","","","","","500","[""f"",""j""]","","","","","","","","","","","","","","","","",""
"","","","","","html-keyboard-response","100","175959","0.0-2.0-7.0-0.0","546e7e16fdf99b2b8df9842e","E1","batch5","","null","<p class=block-text>Trial 40 out of 78</p>","null","pattern_show_trial_num","","","","","","","","","","","","","","","","","","","","","","","","",""
"","","","","","image-keyboard-response","101","177742","0.0-2.0-7.0-1.0","546e7e16fdf99b2b8df9842e","E1","batch5","","1779.5","stim/no_65_1_b.png","j","pattern_response","true","j","pattern_38","1779.5","true","36","","","","","","","","","","","","","","","","","","",""
"","","","","","html-keyboard-response","102","179067","0.0-2.0-7.0-0.1","546e7e16fdf99b2b8df9842e","E1","batch5","","null","<p class=block-text>Trial 41 out of 78</p>","null","pattern_show_trial_num","","","","","","","","","","","","","","","","","","","","","","","","",""
"","","","","","image-keyboard-response","103","180269","0.0-2.0-7.0-1.1","546e7e16fdf99b2b8df9842e","E1","batch5","","1198.300000011921","stim/yes_40_dia_b1_b.png","j","pattern_response","false","f","pattern_63","1198.300000011921","false","36","","","","","","","","","","","","","","","","","","",""
"","","","","","html-keyboard-response","104","181586","0.0-2.0-7.0-0.2","546e7e16fdf99b2b8df9842e","E1","batch5","","null","<p class=block-text>Trial 42 out of 78</p>","null","pattern_show_trial_num","","","","","","","","","","","","","","","","","","","","","","","","",""
"","","","","","image-keyboard-response","105","182732","0.0-2.0-7.0-1.2","546e7e16fdf99b2b8df9842e","E1","batch5","","1144.699999988079","stim/yes_45_hor_b2_b.png","f","pattern_response","true","f","pattern_67","1144.699999988079","true","37","","","","","","","","","","","","","","","","","","",""
"","","","","","html-keyboard-response","106","184042","0.0-2.0-7.0-0.3","546e7e16fdf99b2b8df9842e","E1","batch5","","null","<p class=block-text>Trial 43 out of 78</p>","null","pattern_show_trial_num","","","","","","","","","","","","","","","","","","","","","","","","",""
"","","","","","image-keyboard-response","107","184982","0.0-2.0-7.0-1.3","546e7e16fdf99b2b8df9842e","E1","batch5","","937.6999999880791","stim/yes_55_hor_w1_w.png","f","pattern_response","true","f","pattern_75","937.6999999880791","true","38","","","","","","","","","","","","","","","","","","",""
"","","","","","html-keyboard-response","108","186295","0.0-2.0-7.0-0.4","546e7e16fdf99b2b8df9842e","E1","batch5","","null","<p class=block-text>Trial 44 out of 78</p>","null","pattern_show_trial_num","","","","","","","","","","","","","","","","","","","","","","","","",""
"","","","","","image-keyboard-response","109","187452","0.0-2.0-7.0-1.4","546e7e16fdf99b2b8df9842e","E1","batch5","","1154.2999999523163","stim/no_20_1_w.png","j","pattern_response","true","j","pattern_06","1154.2999999523163","true","39","","","","","","","","","","","","","","","","","","",""
"","","","","","html-keyboard-response","110","188774","0.0-2.0-7.0-0.5","546e7e16fdf99b2b8df9842e","E1","batch5","","null","<p class=block-text>Trial 45 out of 78</p>","null","pattern_show_trial_num","","","","","","","","","","","","","","","","","","","","","","","","",""
"","","","","","image-keyboard-response","111","190388","0.0-2.0-7.0-1.5","546e7e16fdf99b2b8df9842e","E1","batch5","","1611.9000000357628","stim/no_44_1.png","j","pattern_response","true","j","pattern_24","1611.9000000357628","true","40","","","","","","","","","","","","","","","","","","",""
"","","","","","html-keyboard-response","112","191695","0.0-2.0-7.0-0.6","546e7e16fdf99b2b8df9842e","E1","batch5","","null","<p class=block-text>Trial 46 out of 78</p>","null","pattern_show_trial_num","","","","","","","","","","","","","","","","","","","","","","","","",""
"","","","","","image-keyboard-response","113","193413","0.0-2.0-7.0-1.6","546e7e16fdf99b2b8df9842e","E1","batch5","","1716.4000000357628","stim/no_50_1.png","j","pattern_response","true","j","pattern_30","1716.4000000357628","true","41","","","","","","","","","","","","","","","","","","",""
"","","","","","html-keyboard-response","114","194731","0.0-2.0-7.0-0.7","546e7e16fdf99b2b8df9842e","E1","batch5","","null","<p class=block-text>Trial 47 out of 78</p>","null","pattern_show_trial_num","","","","","","","","","","","","","","","","","","","","","","","","",""
"","","","","","image-keyboard-response","115","195931","0.0-2.0-7.0-1.7","546e7e16fdf99b2b8df9842e","E1","batch5","","1197.0999999642372","stim/no_48_1_w.png","j","pattern_response","true","j","pattern_28","1197.0999999642372","true","42","","","","","","","","","","","","","","","","","","",""
"","","","","","html-keyboard-response","116","197252","0.0-2.0-7.0-0.8","546e7e16fdf99b2b8df9842e","E1","batch5","","null","<p class=block-text>Trial 48 out of 78</p>","null","pattern_show_trial_num","","","","","","","","","","","","","","","","","","","","","","","","",""
"","","","","","image-keyboard-response","117","198875","0.0-2.0-7.0-1.8","546e7e16fdf99b2b8df9842e","E1","batch5","","1621.300000011921","stim/yes_37_dia_w1.png","j","pattern_response","false","f","pattern_59","1621.300000011921","false","42","","","","","","","","","","","","","","","","","","",""
"","","","","","html-keyboard-response","118","200188","0.0-2.0-7.0-0.9","546e7e16fdf99b2b8df9842e","E1","batch5","","null","<p class=block-text>Trial 49 out of 78</p>","null","pattern_show_trial_num","","","","","","","","","","","","","","","","","","","","","","","","",""
"","","","","","image-keyboard-response","119","201828","0.0-2.0-7.0-1.9","546e7e16fdf99b2b8df9842e","E1","batch5","","1638.5","stim/yes_31_hor_b1.png","f","pattern_response","true","f","pattern_55","1638.5","true","43","","","","","","","","","","","","","","","","","","",""
"","","","","","html-keyboard-response","120","203151","0.0-2.0-7.0-0.10","546e7e16fdf99b2b8df9842e","E1","batch5","","null","<p class=block-text>Trial 50 out of 78</p>","null","pattern_show_trial_num","","","","","","","","","","","","","","","","","","","","","","","","",""
"","","","","","image-keyboard-response","121","204717","0.0-2.0-7.0-1.10","546e7e16fdf99b2b8df9842e","E1","batch5","","1563","stim/no_26_1_w.png","j","pattern_response","true","j","pattern_10","1563","true","44","","","","","","","","","","","","","","","","","","",""
"","","","","","html-keyboard-response","122","206025","0.0-2.0-7.0-0.11","546e7e16fdf99b2b8df9842e","E1","batch5","","null","<p class=block-text>Trial 51 out of 78</p>","null","pattern_show_trial_num","","","","","","","","","","","","","","","","","","","","","","","","",""
"","","","","","image-keyboard-response","123","207436","0.0-2.0-7.0-1.11","546e7e16fdf99b2b8df9842e","E1","batch5","","1408.3999999761581","stim/yes_35_dia_b1.png","f","pattern_response","true","f","pattern_57","1408.3999999761581","true","45","","","","","","","","","","","","","","","","","","",""
"","","","","","html-keyboard-response","124","208754","0.0-2.0-7.0-0.12","546e7e16fdf99b2b8df9842e","E1","batch5","","null","<p class=block-text>Trial 52 out of 78</p>","null","pattern_show_trial_num","","","","","","","","","","","","","","","","","","","","","","","","",""
"","","","","","image-keyboard-response","125","210412","0.0-2.0-7.0-1.12","546e7e16fdf99b2b8df9842e","E1","batch5","","1655.9000000357628","stim/no_55_1_w.png","j","pattern_response","true","j","pattern_34","1655.9000000357628","true","46","","","","","","","","","","","","","","","","","","",""
"","","","","","html-keyboard-response","126","211721","0.0-2.0-7.0-0.13","546e7e16fdf99b2b8df9842e","E1","batch5","","null","<p class=block-text>Trial 53 out of 78</p>","null","pattern_show_trial_num","","","","","","","","","","","","","","","","","","","","","","","","",""
"","","","","","image-keyboard-response","127","212636","0.0-2.0-7.0-1.13","546e7e16fdf99b2b8df9842e","E1","batch5","","912.6999999880791","stim/no_32_1_w.png","j","pattern_response","true","j","pattern_14","912.6999999880791","true","47","","","","","","","","","","","","","","","","","","",""
"","","","","","html-keyboard-response","128","213954","0.0-2.0-7.0-0.14","546e7e16fdf99b2b8df9842e","E1","batch5","","null","<p class=block-text>Trial 54 out of 78</p>","null","pattern_show_trial_num","","","","","","","","","","","","","","","","","","","","","","","","",""
"","","","","","image-keyboard-response","129","216461","0.0-2.0-7.0-1.14","546e7e16fdf99b2b8df9842e","E1","batch5","","2504.900000035763","stim/no_46_1_b.png","j","pattern_response","true","j","pattern_26","2504.900000035763","true","48","","","","","","","","","","","","","","","","","","",""
"","","","","","html-keyboard-response","130","217786","0.0-2.0-7.0-0.15","546e7e16fdf99b2b8df9842e","E1","batch5","","null","<p class=block-text>Trial 55 out of 78</p>","null","pattern_show_trial_num","","","","","","","","","","","","","","","","","","","","","","","","",""
"","","","","","image-keyboard-response","131","219972","0.0-2.0-7.0-1.15","546e7e16fdf99b2b8df9842e","E1","batch5","","2182.400000035763","stim/yes_50_dia_w1.png","j","pattern_response","false","f","pattern_71","2182.400000035763","false","48","","","","","","","","","","","","","","","","","","",""
"","","","","","html-keyboard-response","132","221291","0.0-2.0-7.0-0.16","546e7e16fdf99b2b8df9842e","E1","batch5","","null","<p class=block-text>Trial 56 out of 78</p>","null","pattern_show_trial_num","","","","","","","","","","","","","","","","","","","","","","","","",""
"","","","","","image-keyboard-response","133","222167","0.0-2.0-7.0-1.16","546e7e16fdf99b2b8df9842e","E1","batch5","","874.9000000357628","stim/yes_25_hor_b1_b.png","f","pattern_response","true","f","pattern_49","874.9000000357628","true","49","","","","","","","","","","","","","","","","","","",""
"","","","","","html-keyboard-response","134","223489","0.0-2.0-7.0-0.17","546e7e16fdf99b2b8df9842e","E1","batch5","","null","<p class=block-text>Trial 57 out of 78</p>","null","pattern_show_trial_num","","","","","","","","","","","","","","","","","","","","","","","","",""
"","","","","","image-keyboard-response","135","224364","0.0-2.0-7.0-1.17","546e7e16fdf99b2b8df9842e","E1","batch5","","873.1999999880791","stim/yes_28_ver_b1.png","f","pattern_response","true","f","pattern_51","873.1999999880791","true","50","","","","","","","","","","","","","","","","","","",""
"","","","","","html-keyboard-response","136","225685","0.0-2.0-7.0-0.18","546e7e16fdf99b2b8df9842e","E1","batch5","","null","<p class=block-text>Trial 58 out of 78</p>","null","pattern_show_trial_num","","","","","","","","","","","","","","","","","","","","","","","","",""
"","","","","","image-keyboard-response","137","227263","0.0-2.0-7.0-1.18","546e7e16fdf99b2b8df9842e","E1","batch5","","1576.1000000238419","stim/yes_52_ver_w1.png","j","pattern_response","false","f","pattern_73","1576.1000000238419","false","50","","","","","","","","","","","","","","","","","","",""
"","","","","","html-keyboard-response","138","228579","0.0-2.0-7.0-0.19","546e7e16fdf99b2b8df9842e","E1","batch5","","null","<p class=block-text>Trial 59 out of 78</p>","null","pattern_show_trial_num","","","","","","","","","","","","","","","","","","","","","","","","",""
"","","","","","image-keyboard-response","139","229732","0.0-2.0-7.0-1.19","546e7e16fdf99b2b8df9842e","E1","batch5","","1149.5","stim/no_42_1_w.png","j","pattern_response","true","j","pattern_22","1149.5","true","51","","","","","","","","","","","","","","","","","","",""
"","","","","","html-keyboard-response","140","231043","0.0-2.0-7.0-0.20","546e7e16fdf99b2b8df9842e","E1","batch5","","null","<p class=block-text>Trial 60 out of 78</p>","null","pattern_show_trial_num","","","","","","","","","","","","","","","","","","","","","","","","",""
"","","","","","image-keyboard-response","141","232236","0.0-2.0-7.0-1.20","546e7e16fdf99b2b8df9842e","E1","batch5","","1190.3999999761581","stim/no_17_1_w.png","j","pattern_response","true","j","pattern_04","1190.3999999761581","true","52","","","","","","","","","","","","","","","","","","",""
"","","","","","html-keyboard-response","142","233545","0.0-2.0-7.0-0.21","546e7e16fdf99b2b8df9842e","E1","batch5","","null","<p class=block-text>Trial 61 out of 78</p>","null","pattern_show_trial_num","","","","","","","","","","","","","","","","","","","","","","","","",""
"","","","","","image-keyboard-response","143","234932","0.0-2.0-7.0-1.21","546e7e16fdf99b2b8df9842e","E1","batch5","","1385.9000000357628","stim/no_23_1.png","j","pattern_response","true","j","pattern_08","1385.9000000357628","true","53","","","","","","","","","","","","","","","","","","",""
"","","","","","html-keyboard-response","144","236247","0.0-2.0-7.0-0.22","546e7e16fdf99b2b8df9842e","E1","batch5","","null","<p class=block-text>Trial 62 out of 78</p>","null","pattern_show_trial_num","","","","","","","","","","","","","","","","","","","","","","","","",""
"","","","","","image-keyboard-response","145","237173","0.0-2.0-7.0-1.22","546e7e16fdf99b2b8df9842e","E1","batch5","","923.6999999880791","stim/yes_29_ver_w1.png","f","pattern_response","true","f","pattern_53","923.6999999880791","true","54","","","","","","","","","","","","","","","","","","",""
"","","","","","html-keyboard-response","146","238489","0.0-2.0-7.0-0.23","546e7e16fdf99b2b8df9842e","E1","batch5","","null","<p class=block-text>Trial 63 out of 78</p>","null","pattern_show_trial_num","","","","","","","","","","","","","","","","","","","","","","","","",""
"","","","","","image-keyboard-response","147","239597","0.0-2.0-7.0-1.23","546e7e16fdf99b2b8df9842e","E1","batch5","","1104.8999999761581","stim/yes_22_ver_w1.png","f","pattern_response","true","f","pattern_47","1104.8999999761581","true","55","","","","","","","","","","","","","","","","","","",""
"","","","","","html-keyboard-response","148","240920","0.0-2.0-7.0-0.24","546e7e16fdf99b2b8df9842e","E1","batch5","","null","<p class=block-text>Trial 64 out of 78</p>","null","pattern_show_trial_num","","","","","","","","","","","","","","","","","","","","","","","","",""
"","","","","","image-keyboard-response","149","243020","0.0-2.0-7.0-1.24","546e7e16fdf99b2b8df9842e","E1","batch5","","2097.899999976158","stim/yes_60_ver_b1_b.png","j","pattern_response","false","f","pattern_77","2097.899999976158","false","55","","","","","","","","","","","","","","","","","","",""
"","","","","","html-keyboard-response","150","244341","0.0-2.0-7.0-0.25","546e7e16fdf99b2b8df9842e","E1","batch5","","null","<p class=block-text>Trial 65 out of 78</p>","null","pattern_show_trial_num","","","","","","","","","","","","","","","","","","","","","","","","",""
"","","","","","image-keyboard-response","151","245748","0.0-2.0-7.0-1.25","546e7e16fdf99b2b8df9842e","E1","batch5","","1405","stim/yes_17_dia_w1.png","f","pattern_response","true","f","pattern_45","1405","true","56","","","","","","","","","","","","","","","","","","",""
"","","","","","html-keyboard-response","152","247073","0.0-2.0-7.0-0.26","546e7e16fdf99b2b8df9842e","E1","batch5","","null","<p class=block-text>Trial 66 out of 78</p>","null","pattern_show_trial_num","","","","","","","","","","","","","","","","","","","","","","","","",""
"","","","","","image-keyboard-response","153","247908","0.0-2.0-7.0-1.26","546e7e16fdf99b2b8df9842e","E1","batch5","","832.1999999880791","stim/yes_14_hor_b1_w.png","f","pattern_response","true","f","pattern_43","832.1999999880791","true","57","","","","","","","","","","","","","","","","","","",""
"","","","","","html-keyboard-response","154","249223","0.0-2.0-7.0-0.27","546e7e16fdf99b2b8df9842e","E1","batch5","","null","<p class=block-text>Trial 67 out of 78</p>","null","pattern_show_trial_num","","","","","","","","","","","","","","","","","","","","","","","","",""
"","","","","","image-keyboard-response","155","250692","0.0-2.0-7.0-1.27","546e7e16fdf99b2b8df9842e","E1","batch5","","1468.0999999642372","stim/no_52_1.png","j","pattern_response","true","j","pattern_32","1468.0999999642372","true","58","","","","","","","","","","","","","","","","","","",""
"","","","","","html-keyboard-response","156","251994","0.0-2.0-7.0-0.28","546e7e16fdf99b2b8df9842e","E1","batch5","","null","<p class=block-text>Trial 68 out of 78</p>","null","pattern_show_trial_num","","","","","","","","","","","","","","","","","","","","","","","","",""
"","","","","","image-keyboard-response","157","254804","0.0-2.0-7.0-1.28","546e7e16fdf99b2b8df9842e","E1","batch5","","2807.5","stim/no_36_2_w.png","j","pattern_response","true","j","pattern_18","2807.5","true","59","","","","","","","","","","","","","","","","","","",""
"","","","","","html-keyboard-response","158","256119","0.0-2.0-7.0-0.29","546e7e16fdf99b2b8df9842e","E1","batch5","","null","<p class=block-text>Trial 69 out of 78</p>","null","pattern_show_trial_num","","","","","","","","","","","","","","","","","","","","","","","","",""
"","","","","","image-keyboard-response","159","257556","0.0-2.0-7.0-1.29","546e7e16fdf99b2b8df9842e","E1","batch5","","1433.3999999761581","stim/yes_43_ver_w1_w.png","f","pattern_response","true","f","pattern_65","1433.3999999761581","true","60","","","","","","","","","","","","","","","","","","",""
"","","","","","html-keyboard-response","160","258868","0.0-2.0-7.0-0.30","546e7e16fdf99b2b8df9842e","E1","batch5","","null","<p class=block-text>Trial 70 out of 78</p>","null","pattern_show_trial_num","","","","","","","","","","","","","","","","","","","","","","","","",""
"","","","","","image-keyboard-response","161","259884","0.0-2.0-7.0-1.30","546e7e16fdf99b2b8df9842e","E1","batch5","","1012.6999999880791","stim/no_29_1_b.png","j","pattern_response","true","j","pattern_12","1012.6999999880791","true","61","","","","","","","","","","","","","","","","","","",""
"","","","","","html-keyboard-response","162","261202","0.0-2.0-7.0-0.31","546e7e16fdf99b2b8df9842e","E1","batch5","","null","<p class=block-text>Trial 71 out of 78</p>","null","pattern_show_trial_num","","","","","","","","","","","","","","","","","","","","","","","","",""
"","","","","","image-keyboard-response","163","262989","0.0-2.0-7.0-1.31","546e7e16fdf99b2b8df9842e","E1","batch5","","1785","stim/no_38_1_b.png","j","pattern_response","true","j","pattern_20","1785","true","62","","","","","","","","","","","","","","","","","","",""
"","","","","","html-keyboard-response","164","264303","0.0-2.0-7.0-0.32","546e7e16fdf99b2b8df9842e","E1","batch5","","null","<p class=block-text>Trial 72 out of 78</p>","null","pattern_show_trial_num","","","","","","","","","","","","","","","","","","","","","","","","",""
"","","","","","image-keyboard-response","165","265236","0.0-2.0-7.0-1.32","546e7e16fdf99b2b8df9842e","E1","batch5","","930.1000000238419","stim/no_34_1_b.png","j","pattern_response","true","j","pattern_16","930.1000000238419","true","63","","","","","","","","","","","","","","","","","","",""
"","","","","","html-keyboard-response","166","266558","0.0-2.0-7.0-0.33","546e7e16fdf99b2b8df9842e","E1","batch5","","null","<p class=block-text>Trial 73 out of 78</p>","null","pattern_show_trial_num","","","","","","","","","","","","","","","","","","","","","","","","",""
"","","","","","image-keyboard-response","167","268035","0.0-2.0-7.0-1.33","546e7e16fdf99b2b8df9842e","E1","batch5","","1475.5999999642372","stim/no_62_1_w.png","j","pattern_response","true","j","pattern_36","1475.5999999642372","true","64","","","","","","","","","","","","","","","","","","",""
"","","","","","html-keyboard-response","168","269355","0.0-2.0-7.0-0.34","546e7e16fdf99b2b8df9842e","E1","batch5","","null","<p class=block-text>Trial 74 out of 78</p>","null","pattern_show_trial_num","","","","","","","","","","","","","","","","","","","","","","","","",""
"","","","","","image-keyboard-response","169","272140","0.0-2.0-7.0-1.34","546e7e16fdf99b2b8df9842e","E1","batch5","","2782.5","stim/no_70_2.png","j","pattern_response","true","j","pattern_40","2782.5","true","65","","","","","","","","","","","","","","","","","","",""
"","","","","","html-keyboard-response","170","273456","0.0-2.0-7.0-0.35","546e7e16fdf99b2b8df9842e","E1","batch5","","null","<p class=block-text>Trial 75 out of 78</p>","null","pattern_show_trial_num","","","","","","","","","","","","","","","","","","","","","","","","",""
"","","","","","image-keyboard-response","171","275421","0.0-2.0-7.0-1.35","546e7e16fdf99b2b8df9842e","E1","batch5","","1961.7999999523163","stim/yes_48_dia_w1_w.png","f","pattern_response","true","f","pattern_69","1961.7999999523163","true","66","","","","","","","","","","","","","","","","","","",""
"","","","","","html-keyboard-response","172","276740","0.0-2.0-7.0-0.36","546e7e16fdf99b2b8df9842e","E1","batch5","","null","<p class=block-text>Trial 76 out of 78</p>","null","pattern_show_trial_num","","","","","","","","","","","","","","","","","","","","","","","","",""
"","","","","","image-keyboard-response","173","278227","0.0-2.0-7.0-1.36","546e7e16fdf99b2b8df9842e","E1","batch5","","1484.1000000238419","stim/yes_38_hor_b1_b.png","f","pattern_response","true","f","pattern_61","1484.1000000238419","true","67","","","","","","","","","","","","","","","","","","",""
"","","","","","html-keyboard-response","174","279553","0.0-2.0-7.0-0.37","546e7e16fdf99b2b8df9842e","E1","batch5","","null","<p class=block-text>Trial 77 out of 78</p>","null","pattern_show_trial_num","","","","","","","","","","","","","","","","","","","","","","","","",""
"","","","","","image-keyboard-response","175","280411","0.0-2.0-7.0-1.37","546e7e16fdf99b2b8df9842e","E1","batch5","","856.5","stim/no_13_2_b.png","j","pattern_response","true","j","pattern_02","856.5","true","68","","","","","","","","","","","","","","","","","","",""
"","","","","","html-keyboard-response","176","281727","0.0-2.0-7.0-0.38","546e7e16fdf99b2b8df9842e","E1","batch5","","null","<p class=block-text>Trial 78 out of 78</p>","null","pattern_show_trial_num","","","","","","","","","","","","","","","","","","","","","","","","",""
"","","","","","image-keyboard-response","177","283747","0.0-2.0-7.0-1.38","546e7e16fdf99b2b8df9842e","E1","batch5","","2019","stim/yes_67_hor_b1.png","f","pattern_response","true","f","pattern_79","2019","true","69","","","","","","","","","","","","","","","","","","",""
"","","","","","html-button-response","178","300031","0.0-2.0-8.0","546e7e16fdf99b2b8df9842e","E1","batch5","","15767.199999988079","<p class = block-text>This concludes the 4-in-a-row detection game.Thank you for your responses!<br>
            You responded correctly on 88% of the trials.<br>
            When you are ready, press ""Continue"" button to continue </p>","0","","","","","","","","","","","","","","","","","","","","","","","","","",""
"true","","","","","fullscreen","179","303017","0.0-3.0-0.0","546e7e16fdf99b2b8df9842e","E1","batch5","","","","","spm_fullscreen","","","","","","","","","","","","","","","","","","","","","","","","",""
"","","","","","html-button-response","180","330421","0.0-3.0-1.0","546e7e16fdf99b2b8df9842e","E1","batch5","","27402.100000023842","<p class = block-text><b>Instructions</b> <br>This is a widely used intelligence test in research. <br>In this test, a figure with a missing piece will be presented.<br>Below the figure are alternative pieces to complete the figure, only one of which is correct.<br> Different figures might involve different principles for obtaining the missing piece<br>Your job is to select the most logical piece to complete the figure.</p>","0","","","","","","","","","","","","","","","","","","","","","","","","","",""
"","","","","","html-keyboard-response","181","331230","0.0-3.0-2.0-0.0","546e7e16fdf99b2b8df9842e","E1","batch5","","null","<p class=block-text>Trial 1 out of 60</p>","null","spm_show_trial_num","","","","","","","","","","","","","","","","","","","","","","","","",""
"","","","","","image-button-response","182","335686","0.0-3.0-2.0-1.0","546e7e16fdf99b2b8df9842e","E1","batch5","","4453.899999976158","img/question_1_1.jpeg","3","spm_respsonse","1","4","mat_01","","","","","","1","4453.899999976158","","","","","","","","","","","","","","",""
"","","","","","html-keyboard-response","183","336738","0.0-3.0-2.0-0.1","546e7e16fdf99b2b8df9842e","E1","batch5","","null","<p class=block-text>Trial 2 out of 60</p>","null","spm_show_trial_num","","","","","","","","","","","","","","","","","","","","","","","","",""
"","","","","","image-button-response","184","339536","0.0-3.0-2.0-1.1","546e7e16fdf99b2b8df9842e","E1","batch5","","2793.699999988079","img/question_1_2.jpeg","4","spm_respsonse","1","5","mat_02","","","","","","1","2793.699999988079","","","","","","","","","","","","","","",""
"","","","","","html-keyboard-response","185","340604","0.0-3.0-2.0-0.2","546e7e16fdf99b2b8df9842e","E1","batch5","","null","<p class=block-text>Trial 3 out of 60</p>","null","spm_show_trial_num","","","","","","","","","","","","","","","","","","","","","","","","",""
"","","","","","image-button-response","186","343055","0.0-3.0-2.0-1.2","546e7e16fdf99b2b8df9842e","E1","batch5","","2448.300000011921","img/question_1_3.jpeg","0","spm_respsonse","1","1","mat_03","","","","","","1","2448.300000011921","","","","","","","","","","","","","","",""
"","","","","","html-keyboard-response","187","344125","0.0-3.0-2.0-0.3","546e7e16fdf99b2b8df9842e","E1","batch5","","null","<p class=block-text>Trial 4 out of 60</p>","null","spm_show_trial_num","","","","","","","","","","","","","","","","","","","","","","","","",""
"","","","","","image-button-response","188","346252","0.0-3.0-2.0-1.3","546e7e16fdf99b2b8df9842e","E1","batch5","","2123.599999964237","img/question_1_4.jpeg","1","spm_respsonse","1","2","mat_04","","","","","","1","2123.599999964237","","","","","","","","","","","","","","",""
"","","","","","html-keyboard-response","189","347317","0.0-3.0-2.0-0.4","546e7e16fdf99b2b8df9842e","E1","batch5","","null","<p class=block-text>Trial 5 out of 60</p>","null","spm_show_trial_num","","","","","","","","","","","","","","","","","","","","","","","","",""
"","","","","","image-button-response","190","350140","0.0-3.0-2.0-1.4","546e7e16fdf99b2b8df9842e","E1","batch5","","2818.800000011921","img/question_1_5.jpeg","5","spm_respsonse","1","6","mat_05","","","","","","1","2818.800000011921","","","","","","","","","","","","","","",""
"","","","","","html-keyboard-response","191","351193","0.0-3.0-2.0-0.5","546e7e16fdf99b2b8df9842e","E1","batch5","","null","<p class=block-text>Trial 6 out of 60</p>","null","spm_show_trial_num","","","","","","","","","","","","","","","","","","","","","","","","",""
"","","","","","image-button-response","192","354015","0.0-3.0-2.0-1.5","546e7e16fdf99b2b8df9842e","E1","batch5","","2819.400000035763","img/question_1_6.jpeg","2","spm_respsonse","1","3","mat_06","","","","","","1","2819.400000035763","","","","","","","","","","","","","","",""
"","","","","","html-keyboard-response","193","355071","0.0-3.0-2.0-0.6","546e7e16fdf99b2b8df9842e","E1","batch5","","null","<p class=block-text>Trial 7 out of 60</p>","null","spm_show_trial_num","","","","","","","","","","","","","","","","","","","","","","","","",""
"","","","","","image-button-response","194","358684","0.0-3.0-2.0-1.6","546e7e16fdf99b2b8df9842e","E1","batch5","","3608.699999988079","img/question_1_7.jpeg","5","spm_respsonse","1","6","mat_07","","","","","","1","3608.699999988079","","","","","","","","","","","","","","",""
"","","","","","html-keyboard-response","195","359740","0.0-3.0-2.0-0.7","546e7e16fdf99b2b8df9842e","E1","batch5","","null","<p class=block-text>Trial 8 out of 60</p>","null","spm_show_trial_num","","","","","","","","","","","","","","","","","","","","","","","","",""
"","","","","","image-button-response","196","364847","0.0-3.0-2.0-1.7","546e7e16fdf99b2b8df9842e","E1","batch5","","5105.5","img/question_1_8.jpeg","1","spm_respsonse","1","2","mat_08","","","","","","1","5105.5","","","","","","","","","","","","","","",""
"","","","","","html-keyboard-response","197","365902","0.0-3.0-2.0-0.8","546e7e16fdf99b2b8df9842e","E1","batch5","","null","<p class=block-text>Trial 9 out of 60</p>","null","spm_show_trial_num","","","","","","","","","","","","","","","","","","","","","","","","",""
"","","","","","image-button-response","198","368740","0.0-3.0-2.0-1.8","546e7e16fdf99b2b8df9842e","E1","batch5","","2833.800000011921","img/question_1_9.jpeg","0","spm_respsonse","1","1","mat_09","","","","","","1","2833.800000011921","","","","","","","","","","","","","","",""
"","","","","","html-keyboard-response","199","369800","0.0-3.0-2.0-0.9","546e7e16fdf99b2b8df9842e","E1","batch5","","null","<p class=block-text>Trial 10 out of 60</p>","null","spm_show_trial_num","","","","","","","","","","","","","","","","","","","","","","","","",""
"","","","","","image-button-response","200","373232","0.0-3.0-2.0-1.9","546e7e16fdf99b2b8df9842e","E1","batch5","","3428.300000011921","img/question_1_10.jpeg","2","spm_respsonse","1","3","mat_10","","","","","","1","3428.300000011921","","","","","","","","","","","","","","",""
"","","","","","html-keyboard-response","201","374294","0.0-3.0-2.0-0.10","546e7e16fdf99b2b8df9842e","E1","batch5","","null","<p class=block-text>Trial 11 out of 60</p>","null","spm_show_trial_num","","","","","","","","","","","","","","","","","","","","","","","","",""
"","","","","","image-button-response","202","379689","0.0-3.0-2.0-1.10","546e7e16fdf99b2b8df9842e","E1","batch5","","5392.599999964237","img/question_1_11.jpeg","3","spm_respsonse","1","4","mat_11","","","","","","1","5392.599999964237","","","","","","","","","","","","","","",""
"","","","","","html-keyboard-response","203","380743","0.0-3.0-2.0-0.11","546e7e16fdf99b2b8df9842e","E1","batch5","","null","<p class=block-text>Trial 12 out of 60</p>","null","spm_show_trial_num","","","","","","","","","","","","","","","","","","","","","","","","",""
"","","","","","image-button-response","204","389601","0.0-3.0-2.0-1.11","546e7e16fdf99b2b8df9842e","E1","batch5","","8854.5","img/question_1_12.jpeg","4","spm_respsonse","1","5","mat_12","","","","","","1","8854.5","","","","","","","","","","","","","","",""
"","","","","","html-keyboard-response","205","390668","0.0-3.0-2.0-0.12","546e7e16fdf99b2b8df9842e","E1","batch5","","null","<p class=block-text>Trial 13 out of 60</p>","null","spm_show_trial_num","","","","","","","","","","","","","","","","","","","","","","","","",""
"","","","","","image-button-response","206","392809","0.0-3.0-2.0-1.12","546e7e16fdf99b2b8df9842e","E1","batch5","","2135.899999976158","img/question_2_1.jpeg","1","spm_respsonse","1","2","mat_13","","","","","","1","2135.899999976158","","","","","","","","","","","","","","",""
"","","","","","html-keyboard-response","207","393872","0.0-3.0-2.0-0.13","546e7e16fdf99b2b8df9842e","E1","batch5","","null","<p class=block-text>Trial 14 out of 60</p>","null","spm_show_trial_num","","","","","","","","","","","","","","","","","","","","","","","","",""
"","","","","","image-button-response","208","399527","0.0-3.0-2.0-1.13","546e7e16fdf99b2b8df9842e","E1","batch5","","5651.899999976158","img/question_2_2.jpeg","5","spm_respsonse","1","6","mat_14","","","","","","1","5651.899999976158","","","","","","","","","","","","","","",""
"","","","","","html-keyboard-response","209","400590","0.0-3.0-2.0-0.14","546e7e16fdf99b2b8df9842e","E1","batch5","","null","<p class=block-text>Trial 15 out of 60</p>","null","spm_show_trial_num","","","","","","","","","","","","","","","","","","","","","","","","",""
"","","","","","image-button-response","210","402903","0.0-3.0-2.0-1.14","546e7e16fdf99b2b8df9842e","E1","batch5","","2309","img/question_2_3.jpeg","0","spm_respsonse","1","1","mat_15","","","","","","1","2309","","","","","","","","","","","","","","",""
"","","","","","html-keyboard-response","211","403954","0.0-3.0-2.0-0.15","546e7e16fdf99b2b8df9842e","E1","batch5","","null","<p class=block-text>Trial 16 out of 60</p>","null","spm_show_trial_num","","","","","","","","","","","","","","","","","","","","","","","","",""
"","","","","","image-button-response","212","408116","0.0-3.0-2.0-1.15","546e7e16fdf99b2b8df9842e","E1","batch5","","4159.899999976158","img/question_2_4.jpeg","1","spm_respsonse","1","2","mat_16","","","","","","1","4159.899999976158","","","","","","","","","","","","","","",""
"","","","","","html-keyboard-response","213","409192","0.0-3.0-2.0-0.16","546e7e16fdf99b2b8df9842e","E1","batch5","","null","<p class=block-text>Trial 17 out of 60</p>","null","spm_show_trial_num","","","","","","","","","","","","","","","","","","","","","","","","",""
"","","","","","image-button-response","214","413537","0.0-3.0-2.0-1.16","546e7e16fdf99b2b8df9842e","E1","batch5","","4341.5","img/question_2_5.jpeg","0","spm_respsonse","1","1","mat_17","","","","","","1","4341.5","","","","","","","","","","","","","","",""
"","","","","","html-keyboard-response","215","414597","0.0-3.0-2.0-0.17","546e7e16fdf99b2b8df9842e","E1","batch5","","null","<p class=block-text>Trial 18 out of 60</p>","null","spm_show_trial_num","","","","","","","","","","","","","","","","","","","","","","","","",""
"","","","","","image-button-response","216","424410","0.0-3.0-2.0-1.17","546e7e16fdf99b2b8df9842e","E1","batch5","","9810.800000011921","img/question_2_6.jpeg","4","spm_respsonse","0","3","mat_18","","","","","","0","9810.800000011921","","","","","","","","","","","","","","",""
"","","","","","html-keyboard-response","217","425462","0.0-3.0-2.0-0.18","546e7e16fdf99b2b8df9842e","E1","batch5","","null","<p class=block-text>Trial 19 out of 60</p>","null","spm_show_trial_num","","","","","","","","","","","","","","","","","","","","","","","","",""
"","","","","","image-button-response","218","428891","0.0-3.0-2.0-1.18","546e7e16fdf99b2b8df9842e","E1","batch5","","3424.899999976158","img/question_2_7.jpeg","4","spm_respsonse","1","5","mat_19","","","","","","1","3424.899999976158","","","","","","","","","","","","","","",""
"","","","","","html-keyboard-response","219","429944","0.0-3.0-2.0-0.19","546e7e16fdf99b2b8df9842e","E1","batch5","","null","<p class=block-text>Trial 20 out of 60</p>","null","spm_show_trial_num","","","","","","","","","","","","","","","","","","","","","","","","",""
"","","","","","image-button-response","220","433331","0.0-3.0-2.0-1.19","546e7e16fdf99b2b8df9842e","E1","batch5","","3383.900000035763","img/question_2_8.jpeg","2","spm_respsonse","0","6","mat_20","","","","","","0","3383.900000035763","","","","","","","","","","","","","","",""
"","","","","","html-keyboard-response","221","434407","0.0-3.0-2.0-0.20","546e7e16fdf99b2b8df9842e","E1","batch5","","null","<p class=block-text>Trial 21 out of 60</p>","null","spm_show_trial_num","","","","","","","","","","","","","","","","","","","","","","","","",""
"","","","","","image-button-response","222","438689","0.0-3.0-2.0-1.20","546e7e16fdf99b2b8df9842e","E1","batch5","","4278.900000035763","img/question_2_9.jpeg","3","spm_respsonse","1","4","mat_21","","","","","","1","4278.900000035763","","","","","","","","","","","","","","",""
"","","","","","html-keyboard-response","223","439756","0.0-3.0-2.0-0.21","546e7e16fdf99b2b8df9842e","E1","batch5","","null","<p class=block-text>Trial 22 out of 60</p>","null","spm_show_trial_num","","","","","","","","","","","","","","","","","","","","","","","","",""
"","","","","","image-button-response","224","443691","0.0-3.0-2.0-1.21","546e7e16fdf99b2b8df9842e","E1","batch5","","3931.2000000476837","img/question_2_10.jpeg","2","spm_respsonse","1","3","mat_22","","","","","","1","3931.2000000476837","","","","","","","","","","","","","","",""
"","","","","","html-keyboard-response","225","444763","0.0-3.0-2.0-0.22","546e7e16fdf99b2b8df9842e","E1","batch5","","null","<p class=block-text>Trial 23 out of 60</p>","null","spm_show_trial_num","","","","","","","","","","","","","","","","","","","","","","","","",""
"","","","","","image-button-response","226","450423","0.0-3.0-2.0-1.22","546e7e16fdf99b2b8df9842e","E1","batch5","","5656","img/question_2_11.jpeg","3","spm_respsonse","1","4","mat_23","","","","","","1","5656","","","","","","","","","","","","","","",""
"","","","","","html-keyboard-response","227","451486","0.0-3.0-2.0-0.23","546e7e16fdf99b2b8df9842e","E1","batch5","","null","<p class=block-text>Trial 24 out of 60</p>","null","spm_show_trial_num","","","","","","","","","","","","","","","","","","","","","","","","",""
"","","","","","image-button-response","228","457215","0.0-3.0-2.0-1.23","546e7e16fdf99b2b8df9842e","E1","batch5","","5725","img/question_2_12.jpeg","5","spm_respsonse","0","5","mat_24","","","","","","0","5725","","","","","","","","","","","","","","",""
"","","","","","html-button-response","229","458865","0.0-3.0-3.0","546e7e16fdf99b2b8df9842e","E1","batch5","","1397.5999999642372","<p class = block-text>Attention check: Please choose 1<br></p>","0","attention_check","true","","","","","","","","","","","","","","","","","","","","","","","",""
"","","","","","html-keyboard-response","230","459667","0.0-3.0-4.0-0.0","546e7e16fdf99b2b8df9842e","E1","batch5","","null","<p class=block-text>Trial 25 out of 60</p>","null","spm_show_trial_num","","","","","","","","","","","","","","","","","","","","","","","","",""
"","","","","","image-button-response","231","463705","0.0-3.0-4.0-1.0","546e7e16fdf99b2b8df9842e","E1","batch5","","4034.300000011921","img/question_3_1.jpeg","7","spm_respsonse","1","8","mat_25","","","","","","1","4034.300000011921","","","","","","","","","","","","","","",""
"","","","","","html-keyboard-response","232","464757","0.0-3.0-4.0-0.1","546e7e16fdf99b2b8df9842e","E1","batch5","","null","<p class=block-text>Trial 26 out of 60</p>","null","spm_show_trial_num","","","","","","","","","","","","","","","","","","","","","","","","",""
"","","","","","image-button-response","233","467451","0.0-3.0-4.0-1.1","546e7e16fdf99b2b8df9842e","E1","batch5","","2690.5","img/question_3_2.jpeg","1","spm_respsonse","1","2","mat_26","","","","","","1","2690.5","","","","","","","","","","","","","","",""
"","","","","","html-keyboard-response","234","468504","0.0-3.0-4.0-0.2","546e7e16fdf99b2b8df9842e","E1","batch5","","null","<p class=block-text>Trial 27 out of 60</p>","null","spm_show_trial_num","","","","","","","","","","","","","","","","","","","","","","","","",""
"","","","","","image-button-response","235","477161","0.0-3.0-4.0-1.2","546e7e16fdf99b2b8df9842e","E1","batch5","","8655.300000011921","img/question_3_3.jpeg","2","spm_respsonse","1","3","mat_27","","","","","","1","8655.300000011921","","","","","","","","","","","","","","",""
"","","","","","html-keyboard-response","236","478235","0.0-3.0-4.0-0.3","546e7e16fdf99b2b8df9842e","E1","batch5","","null","<p class=block-text>Trial 28 out of 60</p>","null","spm_show_trial_num","","","","","","","","","","","","","","","","","","","","","","","","",""
"","","","","","image-button-response","237","484501","0.0-3.0-4.0-1.3","546e7e16fdf99b2b8df9842e","E1","batch5","","6261.800000011921","img/question_3_4.jpeg","7","spm_respsonse","1","8","mat_28","","","","","","1","6261.800000011921","","","","","","","","","","","","","","",""
"","","","","","html-keyboard-response","238","485561","0.0-3.0-4.0-0.4","546e7e16fdf99b2b8df9842e","E1","batch5","","null","<p class=block-text>Trial 29 out of 60</p>","null","spm_show_trial_num","","","","","","","","","","","","","","","","","","","","","","","","",""
"","","","","","image-button-response","239","491127","0.0-3.0-4.0-1.4","546e7e16fdf99b2b8df9842e","E1","batch5","","5562.099999964237","img/question_3_5.jpeg","6","spm_respsonse","1","7","mat_29","","","","","","1","5562.099999964237","","","","","","","","","","","","","","",""
"","","","","","html-keyboard-response","240","492189","0.0-3.0-4.0-0.5","546e7e16fdf99b2b8df9842e","E1","batch5","","null","<p class=block-text>Trial 30 out of 60</p>","null","spm_show_trial_num","","","","","","","","","","","","","","","","","","","","","","","","",""
"","","","","","image-button-response","241","497582","0.0-3.0-4.0-1.5","546e7e16fdf99b2b8df9842e","E1","batch5","","5389.800000011921","img/question_3_6.jpeg","3","spm_respsonse","1","4","mat_30","","","","","","1","5389.800000011921","","","","","","","","","","","","","","",""
"","","","","","html-keyboard-response","242","498645","0.0-3.0-4.0-0.6","546e7e16fdf99b2b8df9842e","E1","batch5","","null","<p class=block-text>Trial 31 out of 60</p>","null","spm_show_trial_num","","","","","","","","","","","","","","","","","","","","","","","","",""
"","","","","","image-button-response","243","503835","0.0-3.0-4.0-1.6","546e7e16fdf99b2b8df9842e","E1","batch5","","5186.5","img/question_3_7.jpeg","3","spm_respsonse","0","5","mat_31","","","","","","0","5186.5","","","","","","","","","","","","","","",""
"","","","","","html-keyboard-response","244","504902","0.0-3.0-4.0-0.7","546e7e16fdf99b2b8df9842e","E1","batch5","","null","<p class=block-text>Trial 32 out of 60</p>","null","spm_show_trial_num","","","","","","","","","","","","","","","","","","","","","","","","",""
"","","","","","image-button-response","245","527715","0.0-3.0-4.0-1.7","546e7e16fdf99b2b8df9842e","E1","batch5","","22810.19999998808","img/question_3_8.jpeg","3","spm_respsonse","0","1","mat_32","","","","","","0","22810.19999998808","","","","","","","","","","","","","","",""
"","","","","","html-keyboard-response","246","528790","0.0-3.0-4.0-0.8","546e7e16fdf99b2b8df9842e","E1","batch5","","null","<p class=block-text>Trial 33 out of 60</p>","null","spm_show_trial_num","","","","","","","","","","","","","","","","","","","","","","","","",""
"","","","","","image-button-response","247","536231","0.0-3.0-4.0-1.8","546e7e16fdf99b2b8df9842e","E1","batch5","","7439.300000011921","img/question_3_9.jpeg","6","spm_respsonse","1","7","mat_33","","","","","","1","7439.300000011921","","","","","","","","","","","","","","",""
"","","","","","html-keyboard-response","248","537297","0.0-3.0-4.0-0.9","546e7e16fdf99b2b8df9842e","E1","batch5","","null","<p class=block-text>Trial 34 out of 60</p>","null","spm_show_trial_num","","","","","","","","","","","","","","","","","","","","","","","","",""
"","","","","","image-button-response","249","542717","0.0-3.0-4.0-1.9","546e7e16fdf99b2b8df9842e","E1","batch5","","5416.200000047684","img/question_3_10.jpeg","7","spm_respsonse","0","6","mat_34","","","","","","0","5416.200000047684","","","","","","","","","","","","","","",""
"","","","","","html-keyboard-response","250","543779","0.0-3.0-4.0-0.10","546e7e16fdf99b2b8df9842e","E1","batch5","","null","<p class=block-text>Trial 35 out of 60</p>","null","spm_show_trial_num","","","","","","","","","","","","","","","","","","","","","","","","",""
"","","","","","image-button-response","251","550329","0.0-3.0-4.0-1.10","546e7e16fdf99b2b8df9842e","E1","batch5","","6545.699999988079","img/question_3_11.jpeg","4","spm_respsonse","0","1","mat_35","","","","","","0","6545.699999988079","","","","","","","","","","","","","","",""
"","","","","","html-keyboard-response","252","551382","0.0-3.0-4.0-0.11","546e7e16fdf99b2b8df9842e","E1","batch5","","null","<p class=block-text>Trial 36 out of 60</p>","null","spm_show_trial_num","","","","","","","","","","","","","","","","","","","","","","","","",""
"","","","","","image-button-response","253","568665","0.0-3.0-4.0-1.11","546e7e16fdf99b2b8df9842e","E1","batch5","","17279.100000023842","img/question_3_12.jpeg","2","spm_respsonse","0","2","mat_36","","","","","","0","17279.100000023842","","","","","","","","","","","","","","",""
"","","","","","html-keyboard-response","254","569727","0.0-3.0-4.0-0.12","546e7e16fdf99b2b8df9842e","E1","batch5","","null","<p class=block-text>Trial 37 out of 60</p>","null","spm_show_trial_num","","","","","","","","","","","","","","","","","","","","","","","","",""
"","","","","","image-button-response","255","573897","0.0-3.0-4.0-1.12","546e7e16fdf99b2b8df9842e","E1","batch5","","4166.400000035763","img/question_4_1.jpeg","2","spm_respsonse","1","3","mat_37","","","","","","1","4166.400000035763","","","","","","","","","","","","","","",""
"","","","","","html-keyboard-response","256","574964","0.0-3.0-4.0-0.13","546e7e16fdf99b2b8df9842e","E1","batch5","","null","<p class=block-text>Trial 38 out of 60</p>","null","spm_show_trial_num","","","","","","","","","","","","","","","","","","","","","","","","",""
"","","","","","image-button-response","257","580617","0.0-3.0-4.0-1.13","546e7e16fdf99b2b8df9842e","E1","batch5","","5649","img/question_4_2.jpeg","3","spm_respsonse","1","4","mat_38","","","","","","1","5649","","","","","","","","","","","","","","",""
"","","","","","html-keyboard-response","258","581673","0.0-3.0-4.0-0.14","546e7e16fdf99b2b8df9842e","E1","batch5","","null","<p class=block-text>Trial 39 out of 60</p>","null","spm_show_trial_num","","","","","","","","","","","","","","","","","","","","","","","","",""
"","","","","","image-button-response","259","589633","0.0-3.0-4.0-1.14","546e7e16fdf99b2b8df9842e","E1","batch5","","7955.600000023842","img/question_4_3.jpeg","2","spm_respsonse","1","3","mat_39","","","","","","1","7955.600000023842","","","","","","","","","","","","","","",""
"","","","","","html-keyboard-response","260","590689","0.0-3.0-4.0-0.15","546e7e16fdf99b2b8df9842e","E1","batch5","","null","<p class=block-text>Trial 40 out of 60</p>","null","spm_show_trial_num","","","","","","","","","","","","","","","","","","","","","","","","",""
"","","","","","image-button-response","261","601229","0.0-3.0-4.0-1.15","546e7e16fdf99b2b8df9842e","E1","batch5","","10537","img/question_4_4.jpeg","6","spm_respsonse","1","7","mat_40","","","","","","1","10537","","","","","","","","","","","","","","",""
"","","","","","html-keyboard-response","262","602283","0.0-3.0-4.0-0.16","546e7e16fdf99b2b8df9842e","E1","batch5","","null","<p class=block-text>Trial 41 out of 60</p>","null","spm_show_trial_num","","","","","","","","","","","","","","","","","","","","","","","","",""
"","","","","","image-button-response","263","613141","0.0-3.0-4.0-1.16","546e7e16fdf99b2b8df9842e","E1","batch5","","10852.699999988079","img/question_4_5.jpeg","7","spm_respsonse","1","8","mat_41","","","","","","1","10852.699999988079","","","","","","","","","","","","","","",""
"","","","","","html-keyboard-response","264","614205","0.0-3.0-4.0-0.17","546e7e16fdf99b2b8df9842e","E1","batch5","","null","<p class=block-text>Trial 42 out of 60</p>","null","spm_show_trial_num","","","","","","","","","","","","","","","","","","","","","","","","",""
"","","","","","image-button-response","265","619905","0.0-3.0-4.0-1.17","546e7e16fdf99b2b8df9842e","E1","batch5","","5695.899999976158","img/question_4_6.jpeg","5","spm_respsonse","1","6","mat_42","","","","","","1","5695.899999976158","","","","","","","","","","","","","","",""
"","","","","","html-keyboard-response","266","620963","0.0-3.0-4.0-0.18","546e7e16fdf99b2b8df9842e","E1","batch5","","null","<p class=block-text>Trial 43 out of 60</p>","null","spm_show_trial_num","","","","","","","","","","","","","","","","","","","","","","","","",""
"","","","","","image-button-response","267","644697","0.0-3.0-4.0-1.18","546e7e16fdf99b2b8df9842e","E1","batch5","","23730.80000001192","img/question_4_7.jpeg","4","spm_respsonse","1","5","mat_43","","","","","","1","23730.80000001192","","","","","","","","","","","","","","",""
"","","","","","html-keyboard-response","268","645751","0.0-3.0-4.0-0.19","546e7e16fdf99b2b8df9842e","E1","batch5","","null","<p class=block-text>Trial 44 out of 60</p>","null","spm_show_trial_num","","","","","","","","","","","","","","","","","","","","","","","","",""
"","","","","","image-button-response","269","660613","0.0-3.0-4.0-1.19","546e7e16fdf99b2b8df9842e","E1","batch5","","14858.700000047684","img/question_4_8.jpeg","5","spm_respsonse","0","4","mat_44","","","","","","0","14858.700000047684","","","","","","","","","","","","","","",""
"","","","","","html-keyboard-response","270","661672","0.0-3.0-4.0-0.20","546e7e16fdf99b2b8df9842e","E1","batch5","","null","<p class=block-text>Trial 45 out of 60</p>","null","spm_show_trial_num","","","","","","","","","","","","","","","","","","","","","","","","",""
"","","","","","image-button-response","271","666299","0.0-3.0-4.0-1.20","546e7e16fdf99b2b8df9842e","E1","batch5","","4623.800000011921","img/question_4_9.jpeg","5","spm_respsonse","0","1","mat_45","","","","","","0","4623.800000011921","","","","","","","","","","","","","","",""
"","","","","","html-keyboard-response","272","667365","0.0-3.0-4.0-0.21","546e7e16fdf99b2b8df9842e","E1","batch5","","null","<p class=block-text>Trial 46 out of 60</p>","null","spm_show_trial_num","","","","","","","","","","","","","","","","","","","","","","","","",""
"","","","","","image-button-response","273","682999","0.0-3.0-4.0-1.21","546e7e16fdf99b2b8df9842e","E1","batch5","","15631.200000047684","img/question_4_10.jpeg","1","spm_respsonse","1","2","mat_46","","","","","","1","15631.200000047684","","","","","","","","","","","","","","",""
"","","","","","html-keyboard-response","274","684069","0.0-3.0-4.0-0.22","546e7e16fdf99b2b8df9842e","E1","batch5","","null","<p class=block-text>Trial 47 out of 60</p>","null","spm_show_trial_num","","","","","","","","","","","","","","","","","","","","","","","","",""
"","","","","","image-button-response","275","696683","0.0-3.0-4.0-1.22","546e7e16fdf99b2b8df9842e","E1","batch5","","12611","img/question_4_11.jpeg","2","spm_respsonse","0","5","mat_47","","","","","","0","12611","","","","","","","","","","","","","","",""
"","","","","","html-keyboard-response","276","697749","0.0-3.0-4.0-0.23","546e7e16fdf99b2b8df9842e","E1","batch5","","null","<p class=block-text>Trial 48 out of 60</p>","null","spm_show_trial_num","","","","","","","","","","","","","","","","","","","","","","","","",""
"","","","","","image-button-response","277","709245","0.0-3.0-4.0-1.23","546e7e16fdf99b2b8df9842e","E1","batch5","","11491.700000047684","img/question_4_12.jpeg","6","spm_respsonse","0","6","mat_48","","","","","","0","11491.700000047684","","","","","","","","","","","","","","",""
"","","","","","html-keyboard-response","278","710297","0.0-3.0-4.0-0.24","546e7e16fdf99b2b8df9842e","E1","batch5","","null","<p class=block-text>Trial 49 out of 60</p>","null","spm_show_trial_num","","","","","","","","","","","","","","","","","","","","","","","","",""
"","","","","","image-button-response","279","721577","0.0-3.0-4.0-1.24","546e7e16fdf99b2b8df9842e","E1","batch5","","11275.699999988079","img/question_5_1.jpeg","2","spm_respsonse","0","7","mat_49","","","","","","0","11275.699999988079","","","","","","","","","","","","","","",""
"","","","","","html-keyboard-response","280","722628","0.0-3.0-4.0-0.25","546e7e16fdf99b2b8df9842e","E1","batch5","","null","<p class=block-text>Trial 50 out of 60</p>","null","spm_show_trial_num","","","","","","","","","","","","","","","","","","","","","","","","",""
"","","","","","image-button-response","281","728403","0.0-3.0-4.0-1.25","546e7e16fdf99b2b8df9842e","E1","batch5","","5770.699999988079","img/question_5_2.jpeg","5","spm_respsonse","1","6","mat_50","","","","","","1","5770.699999988079","","","","","","","","","","","","","","",""
"","","","","","html-keyboard-response","282","729462","0.0-3.0-4.0-0.26","546e7e16fdf99b2b8df9842e","E1","batch5","","null","<p class=block-text>Trial 51 out of 60</p>","null","spm_show_trial_num","","","","","","","","","","","","","","","","","","","","","","","","",""
"","","","","","image-button-response","283","743644","0.0-3.0-4.0-1.26","546e7e16fdf99b2b8df9842e","E1","batch5","","14178","img/question_5_3.jpeg","7","spm_respsonse","1","8","mat_51","","","","","","1","14178","","","","","","","","","","","","","","",""
"","","","","","html-keyboard-response","284","744696","0.0-3.0-4.0-0.27","546e7e16fdf99b2b8df9842e","E1","batch5","","null","<p class=block-text>Trial 52 out of 60</p>","null","spm_show_trial_num","","","","","","","","","","","","","","","","","","","","","","","","",""
"","","","","","image-button-response","285","765700","0.0-3.0-4.0-1.27","546e7e16fdf99b2b8df9842e","E1","batch5","","21000.700000047684","img/question_5_4.jpeg","1","spm_respsonse","1","2","mat_52","","","","","","1","21000.700000047684","","","","","","","","","","","","","","",""
"","","","","","html-keyboard-response","286","766761","0.0-3.0-4.0-0.28","546e7e16fdf99b2b8df9842e","E1","batch5","","null","<p class=block-text>Trial 53 out of 60</p>","null","spm_show_trial_num","","","","","","","","","","","","","","","","","","","","","","","","",""
"","","","","","image-button-response","287","774863","0.0-3.0-4.0-1.28","546e7e16fdf99b2b8df9842e","E1","batch5","","8097.600000023842","img/question_5_5.jpeg","5","spm_respsonse","0","1","mat_53","","","","","","0","8097.600000023842","","","","","","","","","","","","","","",""
"","","","","","html-keyboard-response","288","775916","0.0-3.0-4.0-0.29","546e7e16fdf99b2b8df9842e","E1","batch5","","null","<p class=block-text>Trial 54 out of 60</p>","null","spm_show_trial_num","","","","","","","","","","","","","","","","","","","","","","","","",""
"","","","","","image-button-response","289","794100","0.0-3.0-4.0-1.29","546e7e16fdf99b2b8df9842e","E1","batch5","","18181.19999998808","img/question_5_6.jpeg","5","spm_respsonse","0","5","mat_54","","","","","","0","18181.19999998808","","","","","","","","","","","","","","",""
"","","","","","html-keyboard-response","290","795153","0.0-3.0-4.0-0.30","546e7e16fdf99b2b8df9842e","E1","batch5","","null","<p class=block-text>Trial 55 out of 60</p>","null","spm_show_trial_num","","","","","","","","","","","","","","","","","","","","","","","","",""
"","","","","","image-button-response","291","801043","0.0-3.0-4.0-1.30","546e7e16fdf99b2b8df9842e","E1","batch5","","5885.899999976158","img/question_5_7.jpeg","2","spm_respsonse","0","1","mat_55","","","","","","0","5885.899999976158","","","","","","","","","","","","","","",""
"","","","","","html-keyboard-response","292","802094","0.0-3.0-4.0-0.31","546e7e16fdf99b2b8df9842e","E1","batch5","","null","<p class=block-text>Trial 56 out of 60</p>","null","spm_show_trial_num","","","","","","","","","","","","","","","","","","","","","","","","",""
"","","","","","image-button-response","293","818021","0.0-3.0-4.0-1.31","546e7e16fdf99b2b8df9842e","E1","batch5","","15922.699999988079","img/question_5_8.jpeg","0","spm_respsonse","0","6","mat_56","","","","","","0","15922.699999988079","","","","","","","","","","","","","","",""
"","","","","","html-keyboard-response","294","819079","0.0-3.0-4.0-0.32","546e7e16fdf99b2b8df9842e","E1","batch5","","null","<p class=block-text>Trial 57 out of 60</p>","null","spm_show_trial_num","","","","","","","","","","","","","","","","","","","","","","","","",""
"","","","","","image-button-response","295","830207","0.0-3.0-4.0-1.32","546e7e16fdf99b2b8df9842e","E1","batch5","","11123.800000011921","img/question_5_9.jpeg","4","spm_respsonse","0","3","mat_57","","","","","","0","11123.800000011921","","","","","","","","","","","","","","",""
"","","","","","html-keyboard-response","296","831267","0.0-3.0-4.0-0.33","546e7e16fdf99b2b8df9842e","E1","batch5","","null","<p class=block-text>Trial 58 out of 60</p>","null","spm_show_trial_num","","","","","","","","","","","","","","","","","","","","","","","","",""
"","","","","","image-button-response","297","843795","0.0-3.0-4.0-1.33","546e7e16fdf99b2b8df9842e","E1","batch5","","12523.699999988079","img/question_5_10.jpeg","5","spm_respsonse","0","2","mat_58","","","","","","0","12523.699999988079","","","","","","","","","","","","","","",""
"","","","","","html-keyboard-response","298","844847","0.0-3.0-4.0-0.34","546e7e16fdf99b2b8df9842e","E1","batch5","","null","<p class=block-text>Trial 59 out of 60</p>","null","spm_show_trial_num","","","","","","","","","","","","","","","","","","","","","","","","",""
"","","","","","image-button-response","299","856749","0.0-3.0-4.0-1.34","546e7e16fdf99b2b8df9842e","E1","batch5","","11897.700000047684","img/question_5_11.jpeg","1","spm_respsonse","0","4","mat_59","","","","","","0","11897.700000047684","","","","","","","","","","","","","","",""
"","","","","","html-keyboard-response","300","857814","0.0-3.0-4.0-0.35","546e7e16fdf99b2b8df9842e","E1","batch5","","null","<p class=block-text>Trial 60 out of 60</p>","null","spm_show_trial_num","","","","","","","","","","","","","","","","","","","","","","","","",""
"","","","","","image-button-response","301","863589","0.0-3.0-4.0-1.35","546e7e16fdf99b2b8df9842e","E1","batch5","","5770.699999988079","img/question_5_12.jpeg","6","spm_respsonse","0","5","mat_60","","","","","","0","5770.699999988079","","","","","","","","","","","","","","",""
"","","","","","html-button-response","302","911322","0.0-3.0-5.0","546e7e16fdf99b2b8df9842e","E1","batch5","","47479.69999998808","<p class= block-text>This concludes the Standard Progressive Matrix game. Thank you for your responses!<br> When you are ready, click the button continue</p>","0","spm_goodbye","","","","","","","","","","","","","","","","","","","","","","","","",""
"true","","","","","fullscreen","303","914778","0.0-4.0-0.0","546e7e16fdf99b2b8df9842e","E1","batch5","","","","","","","","","","","","","","","","","","","","","","","","","","","","","",""
"","","","","","instructions","304","956615","0.0-4.0-1.0-0.0-0.0","546e7e16fdf99b2b8df9842e","E1","batch5","[{""page_index"":0,""viewing_time"":10773.599999964237},{""page_index"":1,""viewing_time"":8491.800000011921},{""page_index"":2,""viewing_time"":4087.899999976158},{""page_index"":3,""viewing_time"":8732.100000023842},{""page_index"":4,""viewing_time"":2534},{""page_index"":5,""viewing_time"":4535.899999976158},{""page_index"":6,""viewing_time"":2680}]","41835.5","","","tol-instructions","","","","","","","","","","","","","","","","","","","","","","","","",""
"","","","","","html-button-response","305","957555","0.0-4.0-1.0-1.0-0.0","546e7e16fdf99b2b8df9842e","E1","batch5","","939.5","<p class=block-text> Let's answer a few questions <br>","0","tol_enter_quiz","","","","","","","","","","","","","","","","","","","","","","","","",""
"","","","","","html-button-response","306","963953","0.0-4.0-1.0-1.0-1.0","546e7e16fdf99b2b8df9842e","E1","batch5","","6397.199999988079","<p class = block-text>True or False: You can only move the ball on top of a peg. <br></p>","0","tol_quiz","true","","","","","","","","","","","","","","","","","","","","","","","",""
"","","","","","html-button-response","307","964981","0.0-4.0-1.0-1.0-2.0","546e7e16fdf99b2b8df9842e","E1","batch5","","1026.800000011921","<p class = block-text>Correct! You can only move the ball on top of a peg.</p>","0","tol_quiz_feedback","","","","","","","","","","","","","","","","","","","","","","","","",""
"","","","","","html-button-response","308","967655","0.0-4.0-1.0-1.0-3.0","546e7e16fdf99b2b8df9842e","E1","batch5","","2673.300000011921","<p class = block-text>True or False: You should try to match your board with the target board with fewest moves possible. <br></p>","0","tol_quiz","true","","","","","","","","","","","","","","","","","","","","","","","",""
"","","","","","html-button-response","309","968353","0.0-4.0-1.0-1.0-4.0","546e7e16fdf99b2b8df9842e","E1","batch5","","697.3999999761581","<p class = block-text>Correct! </p>","0","tol_quiz_feedback","","","","","","","","","","","","","","","","","","","","","","","","",""
"","","","","","html-button-response","310","969313","0.0-4.0-2.0","546e7e16fdf99b2b8df9842e","E1","batch5","","958.8000000119209","<p class=block-text> Now that you've understood the game, let's practice a few easier examples before we start!<br> <br>","0","","","","","","","","","","","","","","","","","","","","","","","","","",""
"","","","","","single-stim-button","311","971368","0.0-4.0-3.0-0.0","546e7e16fdf99b2b8df9842e","E1","batch5","","2053","","","tol_practice","","","","","","","","","","","tol_peg_2","2053","2053","0","[[1,2,0],[0,0],[0]]","1","[[1,2,0],[0,0],[3]]","practice","2053","","","","","",""
"","","","","","single-stim-button","312","972911","0.0-4.0-3.0-1.0","546e7e16fdf99b2b8df9842e","E1","batch5","","1543","","","tol_practice","","","","","","","","","","","tol_peg_3","1543","1543","0","[[1,2,0],[0,0],[3]]","1","[[1,2,0],[0,0],[3]]","practice","1543","","","","","",""
"","","","","","poldrack-single-stim","313","973913","0.0-4.0-4.0","546e7e16fdf99b2b8df9842e","E1","batch5","","-1","","","tol_feedback","true","","","","","","","","","","","1000","1000","500","","","","","","-1","none","true","","0",""
"","","","","","single-stim-button","314","978613","0.0-4.0-5.0-0.0","546e7e16fdf99b2b8df9842e","E1","batch5","","4699","","","tol_practice","","","","","","","","","","","tol_peg_1","4699","4699","0","[[1,0,0],[3,0],[0]]","2","[[0,0,0],[3,1],[2]]","practice","4699","","","","","",""
"","","","","","single-stim-button","315","979899","0.0-4.0-5.0-1.0","546e7e16fdf99b2b8df9842e","E1","batch5","","1286","","","tol_practice","","","","","","","","","","","tol_peg_3","1286","1286","0","[[1,0,0],[3,0],[2]]","2","[[0,0,0],[3,1],[2]]","practice","1286","","","","","",""
"","","","","","single-stim-button","316","980797","0.0-4.0-5.1-0.1","546e7e16fdf99b2b8df9842e","E1","batch5","","898","","","tol_practice","","","","","","","","","","","tol_peg_1","898","898","0","[[0,0,0],[3,0],[2]]","3","[[0,0,0],[3,1],[2]]","practice","898","","","","","",""
"","","","","","single-stim-button","317","981435","0.0-4.0-5.1-1.1","546e7e16fdf99b2b8df9842e","E1","batch5","","638","","","tol_practice","","","","","","","","","","","tol_peg_2","638","638","0","[[0,0,0],[3,1],[2]]","3","[[0,0,0],[3,1],[2]]","practice","638","","","","","",""
"","","","","","poldrack-single-stim","318","982442","0.0-4.0-6.0","546e7e16fdf99b2b8df9842e","E1","batch5","","-1","","","tol_feedback","true","","","","","","","","","","","1000","1000","500","","","","","","-1","none","true","","0",""
"","","","","","single-stim-button","319","984431","0.0-4.0-7.0-0.0","546e7e16fdf99b2b8df9842e","E1","batch5","","1988","","","tol_practice","","","","","","","","","","","tol_peg_2","1988","1988","0","[[1,2,0],[0,0],[0]]","4","[[1,0,0],[2,0],[3]]","practice","1988","","","","","",""
"","","","","","single-stim-button","320","985405","0.0-4.0-7.0-1.0","546e7e16fdf99b2b8df9842e","E1","batch5","","974","","","tol_practice","","","","","","","","","","","tol_peg_3","974","974","0","[[1,2,0],[0,0],[3]]","4","[[1,0,0],[2,0],[3]]","practice","974","","","","","",""
"","","","","","single-stim-button","321","986312","0.0-4.0-7.1-0.1","546e7e16fdf99b2b8df9842e","E1","batch5","","907","","","tol_practice","","","","","","","","","","","tol_peg_1","907","907","0","[[1,0,0],[0,0],[3]]","5","[[1,0,0],[2,0],[3]]","practice","907","","","","","",""
"","","","","","single-stim-button","322","987273","0.0-4.0-7.1-1.1","546e7e16fdf99b2b8df9842e","E1","batch5","","961","","","tol_practice","","","","","","","","","","","tol_peg_2","961","961","0","[[1,0,0],[2,0],[3]]","5","[[1,0,0],[2,0],[3]]","practice","961","","","","","",""
"","","","","","poldrack-single-stim","323","988286","0.0-4.0-8.0","546e7e16fdf99b2b8df9842e","E1","batch5","","-1","","","tol_feedback","true","","","","","","","","","","","1000","1000","500","","","","","","-1","none","true","","0",""
"","","","","","html-button-response","324","989949","0.0-4.0-9.0","546e7e16fdf99b2b8df9842e","E1","batch5","","1661.4000000357628","<div class = centerbox><p class = center-block-text>Great job! You are done with practice trials<br>You are about to start official trials.<br> <br> Problem <strong>1</strong> out of 25 problems</p></div>","0","tol_instruction","","","","","","","","","","","","","","","","","","","","","","","","",""
"","","","","","single-stim-button","325","998977","0.0-4.0-10.0-0.0","546e7e16fdf99b2b8df9842e","E1","batch5","","8025","","","tol_tohand","","","","","","","","","","","tol_peg_1","8025","8025","0","[[1,0,0],[3,0],[0]]","1","[[1,3,0],[2,0],[0]]","0","0","","","","","","3"
"","","","","","single-stim-button","326","1004155","0.0-4.0-10.0-1.0","546e7e16fdf99b2b8df9842e","E1","batch5","","5178","","","tol_toboard","","","","","","","","","","","tol_peg_3","5178","5178","0","[[1,0,0],[3,0],[2]]","1","[[1,3,0],[2,0],[0]]","0","0","","","","","","3"
"","","","","","single-stim-button","327","1004981","0.0-4.0-10.1-0.1","546e7e16fdf99b2b8df9842e","E1","batch5","","826","","","tol_tohand","","","","","","","","","","","tol_peg_2","826","826","0","[[1,0,0],[0,0],[2]]","2","[[1,3,0],[2,0],[0]]","0","0","","","","","","3"
"","","","","","single-stim-button","328","1005843","0.0-4.0-10.1-1.1","546e7e16fdf99b2b8df9842e","E1","batch5","","862","","","tol_toboard","","","","","","","","","","","tol_peg_1","862","862","0","[[1,3,0],[0,0],[2]]","2","[[1,3,0],[2,0],[0]]","0","0","","","","","","3"
"","","","","","single-stim-button","329","1006969","0.0-4.0-10.2-0.2","546e7e16fdf99b2b8df9842e","E1","batch5","","1126","","","tol_tohand","","","","","","","","","","","tol_peg_3","1126","1126","0","[[1,3,0],[0,0],[0]]","3","[[1,3,0],[2,0],[0]]","0","0","","","","","","3"
"","","","","","single-stim-button","330","1007553","0.0-4.0-10.2-1.2","546e7e16fdf99b2b8df9842e","E1","batch5","","584","","","tol_toboard","","","","","","","","","","","tol_peg_2","584","584","0","[[1,3,0],[2,0],[0]]","3","[[1,3,0],[2,0],[0]]","0","0","","","","","","3"
"","","","","","poldrack-single-stim","331","1008555","0.0-4.0-11.0","546e7e16fdf99b2b8df9842e","E1","batch5","","-1","","","tol_feedback","true","","","","","","","","","","","1000","1000","500","","","","","","-1","none","true","8025","9977",""
"","","","","","html-button-response","332","1009877","0.0-4.0-12.0","546e7e16fdf99b2b8df9842e","E1","batch5","","1320.2000000476837","<div class = centerbox><p class = center-block-text>problem <strong>2</strong> out of 25 problems</p></div>","0","tol_trial_num","","","","","","","","","","","","","","","","","","","","","","","","",""
"","","","","","single-stim-button","333","1019217","0.0-4.0-13.0-0.0","546e7e16fdf99b2b8df9842e","E1","batch5","","9340","","","tol_tohand","","","","","","","","","","","tol_peg_1","9340","9340","0","[[1,0,0],[3,0],[0]]","1","[[2,1,3],[0,0],[0]]","1","0","","","","","","5"
"","","","","","single-stim-button","334","1020513","0.0-4.0-13.0-1.0","546e7e16fdf99b2b8df9842e","E1","batch5","","1296","","","tol_toboard","","","","","","","","","","","tol_peg_3","1296","1296","0","[[1,0,0],[3,0],[2]]","1","[[2,1,3],[0,0],[0]]","1","0","","","","","","5"
"","","","","","single-stim-button","335","1024547","0.0-4.0-13.1-0.1","546e7e16fdf99b2b8df9842e","E1","batch5","","4033","","","tol_tohand","","","","","","","","","","","tol_peg_1","4033","4033","0","[[0,0,0],[3,0],[2]]","2","[[2,1,3],[0,0],[0]]","1","0","","","","","","5"
"","","","","","single-stim-button","336","1025295","0.0-4.0-13.1-1.1","546e7e16fdf99b2b8df9842e","E1","batch5","","747","","","tol_toboard","","","","","","","","","","","tol_peg_2","747","747","0","[[0,0,0],[3,1],[2]]","2","[[2,1,3],[0,0],[0]]","1","0","","","","","","5"
"","","","","","single-stim-button","337","1025909","0.0-4.0-13.2-0.2","546e7e16fdf99b2b8df9842e","E1","batch5","","614","","","tol_tohand","","","","","","","","","","","tol_peg_3","614","614","0","[[0,0,0],[3,1],[0]]","3","[[2,1,3],[0,0],[0]]","1","0","","","","","","5"
"","","","","","single-stim-button","338","1026685","0.0-4.0-13.2-1.2","546e7e16fdf99b2b8df9842e","E1","batch5","","776","","","tol_toboard","","","","","","","","","","","tol_peg_1","776","776","0","[[2,0,0],[3,1],[0]]","3","[[2,1,3],[0,0],[0]]","1","0","","","","","","5"
"","","","","","single-stim-button","339","1027603","0.0-4.0-13.3-0.3","546e7e16fdf99b2b8df9842e","E1","batch5","","918","","","tol_tohand","","","","","","","","","","","tol_peg_2","918","918","0","[[2,0,0],[3,0],[0]]","4","[[2,1,3],[0,0],[0]]","1","0","","","","","","5"
"","","","","","single-stim-button","340","1028257","0.0-4.0-13.3-1.3","546e7e16fdf99b2b8df9842e","E1","batch5","","654","","","tol_toboard","","","","","","","","","","","tol_peg_1","654","654","0","[[2,1,0],[3,0],[0]]","4","[[2,1,3],[0,0],[0]]","1","0","","","","","","5"
"","","","","","single-stim-button","341","1028853","0.0-4.0-13.4-0.4","546e7e16fdf99b2b8df9842e","E1","batch5","","596","","","tol_tohand","","","","","","","","","","","tol_peg_2","596","596","0","[[2,1,0],[0,0],[0]]","5","[[2,1,3],[0,0],[0]]","1","0","","","","","","5"
"","","","","","single-stim-button","342","1029359","0.0-4.0-13.4-1.4","546e7e16fdf99b2b8df9842e","E1","batch5","","506","","","tol_toboard","","","","","","","","","","","tol_peg_1","506","506","0","[[2,1,3],[0,0],[0]]","5","[[2,1,3],[0,0],[0]]","1","0","","","","","","5"
"","","","","","poldrack-single-stim","343","1030361","0.0-4.0-14.0","546e7e16fdf99b2b8df9842e","E1","batch5","","-1","","","tol_feedback","true","","","","","","","","","","","1000","1000","500","","","","","","-1","none","true","9340","15501",""
"","","","","","html-button-response","344","1031045","0.0-4.0-15.0","546e7e16fdf99b2b8df9842e","E1","batch5","","682.2999999523163","<div class = centerbox><p class = center-block-text>problem <strong>3</strong> out of 25 problems</p></div>","0","tol_trial_num","","","","","","","","","","","","","","","","","","","","","","","","",""
"","","","","","single-stim-button","345","1035659","0.0-4.0-16.0-0.0","546e7e16fdf99b2b8df9842e","E1","batch5","","4614","","","tol_tohand","","","","","","","","","","","tol_peg_1","4614","4614","0","[[2,0,0],[0,0],[1]]","1","[[1,2,0],[3,0],[0]]","2","0","","","","","","4"
"","","","","","single-stim-button","346","1036897","0.0-4.0-16.0-1.0","546e7e16fdf99b2b8df9842e","E1","batch5","","1237","","","tol_toboard","","","","","","","","","","","tol_peg_2","1237","1237","0","[[2,0,0],[3,0],[1]]","1","[[1,2,0],[3,0],[0]]","2","0","","","","","","4"
"","","","","","single-stim-button","347","1038226","0.0-4.0-16.1-0.1","546e7e16fdf99b2b8df9842e","E1","batch5","","1328","","","tol_tohand","","","","","","","","","","","tol_peg_1","1328","1328","0","[[0,0,0],[3,0],[1]]","2","[[1,2,0],[3,0],[0]]","2","0","","","","","","4"
"","","","","","single-stim-button","348","1038850","0.0-4.0-16.1-1.1","546e7e16fdf99b2b8df9842e","E1","batch5","","623","","","tol_toboard","","","","","","","","","","","tol_peg_2","623","623","0","[[0,0,0],[3,2],[1]]","2","[[1,2,0],[3,0],[0]]","2","0","","","","","","4"
