"success","timeout","failed_images","failed_audio","failed_video","trial_type","trial_index","time_elapsed","internal_node_id","subject_id","study_id","session_id","view_history","rt","stimulus","response","task","correct","answer","item","fiar_detect_rt","fiar_detect_correct","total_correct_fiar_detect","post_trial_gap","choices","mouse_click","stim_duration","block_duration","timing_post_trial","current_position","tol_num_moves_made","tol_target","tol_problem_id","tol_rt","key_press","possible_responses","tol_correct","preplanning","tol_rt_per_trial","tol_min_moves","spm_correct","spm_rt"
"true","false","[]","[]","[]","preload","0","750","0.0-0.0","55595b70fdf99b387ae30d2b","D2","batch4","","","","","","","","","","","","","","","","","","","","","","","","","","","","","",""
"true","","","","","fullscreen","1","11016","0.0-1.0-0.0","55595b70fdf99b387ae30d2b","D2","batch4","","","","","","","","","","","","","","","","","","","","","","","","","","","","","",""
"true","","","","","fullscreen","2","13916","0.0-2.0-0.0","55595b70fdf99b387ae30d2b","D2","batch4","","","","","","","","","","","","","","","","","","","","","","","","","","","","","",""
"","","","","","instructions","3","27413","0.0-2.0-1.0-0.0","55595b70fdf99b387ae30d2b","D2","batch4","[{""page_index"":0,""viewing_time"":10123},{""page_index"":1,""viewing_time"":3372}]","13495","","","","","","","","","","","","","","","","","","","","","","","","","","","",""
"","","","","","html-button-response","4","28454","0.0-2.0-1.0-1.0-0.0","55595b70fdf99b387ae30d2b","D2","batch4","","1040","<p class=block-text> Let's answer a few questions <br>","0","pattern_enter_quiz","","","","","","","","","","","","","","","","","","","","","","","","",""
"","","","","","html-button-response","5","30197","0.0-2.0-1.0-1.0-1.0","55595b70fdf99b387ae30d2b","D2","batch4","","1742","<p class = block-text>True or False: You will have as much time as you want to make each choice. <br></p>","1","pattern_quiz","true","","","","","","","","","","","","","","","","","","","","","","","",""
"","","","","","html-button-response","6","31109","0.0-2.0-1.0-1.0-2.0","55595b70fdf99b387ae30d2b","D2","batch4","","911","<p class = block-text>Correct! You should make your choice <strong> as fast as you can</strong>.</p>","0","pattern_quiz_feedback","","","","","","","","","","","","","","","","","","","","","","","","",""
"","","","","","html-button-response","7","33541","0.0-2.0-1.0-1.0-3.0","55595b70fdf99b387ae30d2b","D2","batch4","","2432","<p class = block-text>True or False: You will look for 4 pieces in black or white color connected in a row either horizontally, vertically or diagonally. <br></p>","0","pattern_quiz","true","","","","","","","","","","","","","","","","","","","","","","","",""
"","","","","","html-button-response","8","34353","0.0-2.0-1.0-1.0-4.0","55595b70fdf99b387ae30d2b","D2","batch4","","811","<p class = block-text>Correct! </p>","0","pattern_quiz_feedback","","","","","","","","","","","","","","","","","","","","","","","","",""
"","","","","","html-button-response","9","35816","0.0-2.0-2.0","55595b70fdf99b387ae30d2b","D2","batch4","","1462","<p class=block-text> Now that you've understood the game, let's do a few practice trials before we start!<br> <br>","0","pattern_enter_practice","","","","","","","","","","","","","","","","","","","","","","","","",""
"","","","","","image-keyboard-response","10","39821","0.0-2.0-3.0-0.0","55595b70fdf99b387ae30d2b","D2","batch4","","3998","stim/prac_yes_18_hor_w1.png","f","pattern_practice","true","f","","","","","","","","","","","","","","","","","","","","","","",""
"","","","","","html-keyboard-response","11","40846","0.0-2.0-3.0-1.0","55595b70fdf99b387ae30d2b","D2","batch4","","null","<p style=""font-size:30px;color:green;"">Correct!</p>","null","pattern_feedback","","","","","","","","","","","","","","","","","","","","","","","","",""
"","","","","","image-keyboard-response","12","42047","0.0-2.0-3.0-0.1","55595b70fdf99b387ae30d2b","D2","batch4","","1194","stim/prac_yes_20_dia_b1.png","j","pattern_practice","false","f","","","","","","","","","","","","","","","","","","","","","","",""
"","","","","","html-keyboard-response","13","43061","0.0-2.0-3.0-1.1","55595b70fdf99b387ae30d2b","D2","batch4","","null","<p style=""font-size:30px;color:red;"">Wrong.</p>","null","pattern_feedback","","","","","","","","","","","","","","","","","","","","","","","","",""
"","","","","","image-keyboard-response","14","45139","0.0-2.0-3.0-0.2","55595b70fdf99b387ae30d2b","D2","batch4","","2072","stim/prac_no_18_1.png","j","pattern_practice","true","j","","","","","","","","","","","","","","","","","","","","","","",""
"","","","","","html-keyboard-response","15","46150","0.0-2.0-3.0-1.2","55595b70fdf99b387ae30d2b","D2","batch4","","null","<p style=""font-size:30px;color:green;"">Correct!</p>","null","pattern_feedback","","","","","","","","","","","","","","","","","","","","","","","","",""
"","","","","","image-keyboard-response","16","48017","0.0-2.0-3.0-0.3","55595b70fdf99b387ae30d2b","D2","batch4","","1860","stim/prac_no_16_1.png","j","pattern_practice","true","j","","","","","","","","","","","","","","","","","","","","","","",""
"","","","","","html-keyboard-response","17","49027","0.0-2.0-3.0-1.3","55595b70fdf99b387ae30d2b","D2","batch4","","null","<p style=""font-size:30px;color:green;"">Correct!</p>","null","pattern_feedback","","","","","","","","","","","","","","","","","","","","","","","","",""
"","","","","","image-keyboard-response","18","49735","0.0-2.0-3.0-0.4","55595b70fdf99b387ae30d2b","D2","batch4","","701","stim/prac_yes_16_ver_w1.png","f","pattern_practice","true","f","","","","","","","","","","","","","","","","","","","","","","",""
"","","","","","html-keyboard-response","19","50757","0.0-2.0-3.0-1.4","55595b70fdf99b387ae30d2b","D2","batch4","","null","<p style=""font-size:30px;color:green;"">Correct!</p>","null","pattern_feedback","","","","","","","","","","","","","","","","","","","","","","","","",""
"","","","","","html-button-response","20","54119","0.0-2.0-4.0","55595b70fdf99b387ae30d2b","D2","batch4","","3364","<p class=block-text> Good job! You are done with practice trials!<br>
        You responded correctly on 80% of the trials.<br>
        Press the button below to start official trials. Now you won't see any feedback about your response</p>","0","pattern_enter_official_trials","","","","","","","","","","","","","","","","","","","","","","","","",""
"","","","","","html-keyboard-response","21","54934","0.0-2.0-5.0-0.0","55595b70fdf99b387ae30d2b","D2","batch4","","null","<p class=block-text>Trial 1 out of 78</p>","null","pattern_show_trial_num","","","","","","","","","","","","","","","","","","","","","","","","",""
"","","","","","image-keyboard-response","22","57990","0.0-2.0-5.0-1.0","55595b70fdf99b387ae30d2b","D2","batch4","","3049","stim/no_53_1_b.png","j","pattern_response","true","j","pattern_33","3049","true","1","","","","","","","","","","","","","","","","","","",""
"","","","","","html-keyboard-response","23","59297","0.0-2.0-5.0-0.1","55595b70fdf99b387ae30d2b","D2","batch4","","null","<p class=block-text>Trial 2 out of 78</p>","null","pattern_show_trial_num","","","","","","","","","","","","","","","","","","","","","","","","",""
"","","","","","image-keyboard-response","24","61774","0.0-2.0-5.0-1.1","55595b70fdf99b387ae30d2b","D2","batch4","","2471","stim/no_51_1.png","j","pattern_response","true","j","pattern_31","2471","true","2","","","","","","","","","","","","","","","","","","",""
"","","","","","html-keyboard-response","25","63090","0.0-2.0-5.0-0.2","55595b70fdf99b387ae30d2b","D2","batch4","","null","<p class=block-text>Trial 3 out of 78</p>","null","pattern_show_trial_num","","","","","","","","","","","","","","","","","","","","","","","","",""
"","","","","","image-keyboard-response","26","65434","0.0-2.0-5.0-1.2","55595b70fdf99b387ae30d2b","D2","batch4","","2336","stim/no_15_1_w.png","j","pattern_response","true","j","pattern_03","2336","true","3","","","","","","","","","","","","","","","","","","",""
"","","","","","html-keyboard-response","27","66740","0.0-2.0-5.0-0.3","55595b70fdf99b387ae30d2b","D2","batch4","","null","<p class=block-text>Trial 4 out of 78</p>","null","pattern_show_trial_num","","","","","","","","","","","","","","","","","","","","","","","","",""
"","","","","","image-keyboard-response","28","68695","0.0-2.0-5.0-1.3","55595b70fdf99b387ae30d2b","D2","batch4","","1948","stim/yes_33_dia_w1_w.png","j","pattern_response","false","f","pattern_56","1948","false","3","","","","","","","","","","","","","","","","","","",""
"","","","","","html-keyboard-response","29","70006","0.0-2.0-5.0-0.4","55595b70fdf99b387ae30d2b","D2","batch4","","null","<p class=block-text>Trial 5 out of 78</p>","null","pattern_show_trial_num","","","","","","","","","","","","","","","","","","","","","","","","",""
"","","","","","image-keyboard-response","30","70926","0.0-2.0-5.0-1.4","55595b70fdf99b387ae30d2b","D2","batch4","","914","stim/yes_70_ver_b1.png","f","pattern_response","true","f","pattern_80","914","true","4","","","","","","","","","","","","","","","","","","",""
"","","","","","html-keyboard-response","31","72235","0.0-2.0-5.0-0.5","55595b70fdf99b387ae30d2b","D2","batch4","","null","<p class=block-text>Trial 6 out of 78</p>","null","pattern_show_trial_num","","","","","","","","","","","","","","","","","","","","","","","","",""
"","","","","","image-keyboard-response","32","75733","0.0-2.0-5.0-1.5","55595b70fdf99b387ae30d2b","D2","batch4","","3488","stim/no_49_2_b.png","j","pattern_response","true","j","pattern_29","3488","true","5","","","","","","","","","","","","","","","","","","",""
"","","","","","html-keyboard-response","33","77048","0.0-2.0-5.0-0.6","55595b70fdf99b387ae30d2b","D2","batch4","","null","<p class=block-text>Trial 7 out of 78</p>","null","pattern_show_trial_num","","","","","","","","","","","","","","","","","","","","","","","","",""
"","","","","","image-keyboard-response","34","78841","0.0-2.0-5.0-1.6","55595b70fdf99b387ae30d2b","D2","batch4","","1784","stim/no_25_1_b.png","j","pattern_response","true","j","pattern_09","1784","true","6","","","","","","","","","","","","","","","","","","",""
"","","","","","html-keyboard-response","35","80159","0.0-2.0-5.0-0.7","55595b70fdf99b387ae30d2b","D2","batch4","","null","<p class=block-text>Trial 8 out of 78</p>","null","pattern_show_trial_num","","","","","","","","","","","","","","","","","","","","","","","","",""
"","","","","","image-keyboard-response","36","81712","0.0-2.0-5.0-1.7","55595b70fdf99b387ae30d2b","D2","batch4","","1547","stim/no_18_1_b.png","j","pattern_response","true","j","pattern_05","1547","true","7","","","","","","","","","","","","","","","","","","",""
"","","","","","html-keyboard-response","37","83016","0.0-2.0-5.0-0.8","55595b70fdf99b387ae30d2b","D2","batch4","","null","<p class=block-text>Trial 9 out of 78</p>","null","pattern_show_trial_num","","","","","","","","","","","","","","","","","","","","","","","","",""
"","","","","","image-keyboard-response","38","88554","0.0-2.0-5.0-1.8","55595b70fdf99b387ae30d2b","D2","batch4","","5530","stim/no_67_1.png","j","pattern_response","true","j","pattern_39","5530","true","8","","","","","","","","","","","","","","","","","","",""
"","","","","","html-keyboard-response","39","89872","0.0-2.0-5.0-0.9","55595b70fdf99b387ae30d2b","D2","batch4","","null","<p class=block-text>Trial 10 out of 78</p>","null","pattern_show_trial_num","","","","","","","","","","","","","","","","","","","","","","","","",""
"","","","","","image-keyboard-response","40","91976","0.0-2.0-5.0-1.9","55595b70fdf99b387ae30d2b","D2","batch4","","2097","stim/yes_44_ver_w1_w.png","j","pattern_response","false","f","pattern_66","2097","false","8","","","","","","","","","","","","","","","","","","",""
"","","","","","html-keyboard-response","41","93292","0.0-2.0-5.0-0.10","55595b70fdf99b387ae30d2b","D2","batch4","","null","<p class=block-text>Trial 11 out of 78</p>","null","pattern_show_trial_num","","","","","","","","","","","","","","","","","","","","","","","","",""
"","","","","","image-keyboard-response","42","94428","0.0-2.0-5.0-1.10","55595b70fdf99b387ae30d2b","D2","batch4","","1128","stim/yes_42_dia_w1_w.png","f","pattern_response","true","f","pattern_64","1128","true","9","","","","","","","","","","","","","","","","","","",""
"","","","","","html-keyboard-response","43","95736","0.0-2.0-5.0-0.11","55595b70fdf99b387ae30d2b","D2","batch4","","null","<p class=block-text>Trial 12 out of 78</p>","null","pattern_show_trial_num","","","","","","","","","","","","","","","","","","","","","","","","",""
"","","","","","image-keyboard-response","44","97942","0.0-2.0-5.0-1.11","55595b70fdf99b387ae30d2b","D2","batch4","","2199","stim/no_39_1_w.png","j","pattern_response","true","j","pattern_21","2199","true","10","","","","","","","","","","","","","","","","","","",""
"","","","","","html-keyboard-response","45","99246","0.0-2.0-5.0-0.12","55595b70fdf99b387ae30d2b","D2","batch4","","null","<p class=block-text>Trial 13 out of 78</p>","null","pattern_show_trial_num","","","","","","","","","","","","","","","","","","","","","","","","",""
"","","","","","image-keyboard-response","46","100872","0.0-2.0-5.0-1.12","55595b70fdf99b387ae30d2b","D2","batch4","","1619","stim/no_33_1_b.png","j","pattern_response","true","j","pattern_15","1619","true","11","","","","","","","","","","","","","","","","","","",""
"","","","","","html-keyboard-response","47","102185","0.0-2.0-5.0-0.13","55595b70fdf99b387ae30d2b","D2","batch4","","null","<p class=block-text>Trial 14 out of 78</p>","null","pattern_show_trial_num","","","","","","","","","","","","","","","","","","","","","","","","",""
"","","","","","image-keyboard-response","48","102912","0.0-2.0-5.0-1.13","55595b70fdf99b387ae30d2b","D2","batch4","","720","stim/yes_12_hor_w1_w.png","f","pattern_response","true","f","pattern_42","720","true","12","","","","","","","","","","","","","","","","","","",""
"","","","","","html-keyboard-response","49","104227","0.0-2.0-5.0-0.14","55595b70fdf99b387ae30d2b","D2","batch4","","null","<p class=block-text>Trial 15 out of 78</p>","null","pattern_show_trial_num","","","","","","","","","","","","","","","","","","","","","","","","",""
"","","","","","image-keyboard-response","50","108682","0.0-2.0-5.0-1.14","55595b70fdf99b387ae30d2b","D2","batch4","","4448","stim/no_37_2_w.png","j","pattern_response","true","j","pattern_19","4448","true","13","","","","","","","","","","","","","","","","","","",""
"","","","","","html-keyboard-response","51","109998","0.0-2.0-5.0-0.15","55595b70fdf99b387ae30d2b","D2","batch4","","null","<p class=block-text>Trial 16 out of 78</p>","null","pattern_show_trial_num","","","","","","","","","","","","","","","","","","","","","","","","",""
"","","","","","image-keyboard-response","52","111673","0.0-2.0-5.0-1.15","55595b70fdf99b387ae30d2b","D2","batch4","","1669","stim/yes_36_ver_w1_w.png","f","pattern_response","true","f","pattern_58","1669","true","14","","","","","","","","","","","","","","","","","","",""
"","","","","","html-keyboard-response","53","112987","0.0-2.0-5.0-0.16","55595b70fdf99b387ae30d2b","D2","batch4","","null","<p class=block-text>Trial 17 out of 78</p>","null","pattern_show_trial_num","","","","","","","","","","","","","","","","","","","","","","","","",""
"","","","","","image-keyboard-response","54","115592","0.0-2.0-5.0-1.16","55595b70fdf99b387ae30d2b","D2","batch4","","2599","stim/no_28_2.png","j","pattern_response","true","j","pattern_11","2599","true","15","","","","","","","","","","","","","","","","","","",""
"","","","","","html-keyboard-response","55","116898","0.0-2.0-5.0-0.17","55595b70fdf99b387ae30d2b","D2","batch4","","null","<p class=block-text>Trial 18 out of 78</p>","null","pattern_show_trial_num","","","","","","","","","","","","","","","","","","","","","","","","",""
"","","","","","image-keyboard-response","56","118435","0.0-2.0-5.0-1.17","55595b70fdf99b387ae30d2b","D2","batch4","","1530","stim/yes_30_ver_b1_b.png","f","pattern_response","true","f","pattern_54","1530","true","16","","","","","","","","","","","","","","","","","","",""
"","","","","","html-keyboard-response","57","119745","0.0-2.0-5.0-0.18","55595b70fdf99b387ae30d2b","D2","batch4","","null","<p class=block-text>Trial 19 out of 78</p>","null","pattern_show_trial_num","","","","","","","","","","","","","","","","","","","","","","","","",""
"","","","","","image-keyboard-response","58","120815","0.0-2.0-5.0-1.18","55595b70fdf99b387ae30d2b","D2","batch4","","1064","stim/yes_46_ver_b1_b.png","f","pattern_response","true","f","pattern_68","1064","true","17","","","","","","","","","","","","","","","","","","",""
"","","","","","html-keyboard-response","59","122125","0.0-2.0-5.0-0.19","55595b70fdf99b387ae30d2b","D2","batch4","","null","<p class=block-text>Trial 20 out of 78</p>","null","pattern_show_trial_num","","","","","","","","","","","","","","","","","","","","","","","","",""
"","","","","","image-keyboard-response","60","122740","0.0-2.0-5.0-1.19","55595b70fdf99b387ae30d2b","D2","batch4","","608","stim/yes_17_ver_b1_b.png","f","pattern_response","true","f","pattern_46","608","true","18","","","","","","","","","","","","","","","","","","",""
"","","","","","html-keyboard-response","61","124043","0.0-2.0-5.0-0.20","55595b70fdf99b387ae30d2b","D2","batch4","","null","<p class=block-text>Trial 21 out of 78</p>","null","pattern_show_trial_num","","","","","","","","","","","","","","","","","","","","","","","","",""
"","","","","","image-keyboard-response","62","125145","0.0-2.0-5.0-1.20","55595b70fdf99b387ae30d2b","D2","batch4","","1095","stim/no_22_1_b.png","j","pattern_response","true","j","pattern_07","1095","true","19","","","","","","","","","","","","","","","","","","",""
"","","","","","html-keyboard-response","63","126456","0.0-2.0-5.0-0.21","55595b70fdf99b387ae30d2b","D2","batch4","","null","<p class=block-text>Trial 22 out of 78</p>","null","pattern_show_trial_num","","","","","","","","","","","","","","","","","","","","","","","","",""
"","","","","","image-keyboard-response","64","127596","0.0-2.0-5.0-1.21","55595b70fdf99b387ae30d2b","D2","batch4","","1133","stim/yes_37_hor_w1_w.png","f","pattern_response","true","f","pattern_60","1133","true","20","","","","","","","","","","","","","","","","","","",""
"","","","","","html-keyboard-response","65","128903","0.0-2.0-5.0-0.22","55595b70fdf99b387ae30d2b","D2","batch4","","null","<p class=block-text>Trial 23 out of 78</p>","null","pattern_show_trial_num","","","","","","","","","","","","","","","","","","","","","","","","",""
"","","","","","image-keyboard-response","66","129531","0.0-2.0-5.0-1.22","55595b70fdf99b387ae30d2b","D2","batch4","","622","stim/yes_29_hor_b1_b.png","f","pattern_response","true","f","pattern_52","622","true","21","","","","","","","","","","","","","","","","","","",""
"","","","","","html-keyboard-response","67","130836","0.0-2.0-5.0-0.23","55595b70fdf99b387ae30d2b","D2","batch4","","null","<p class=block-text>Trial 24 out of 78</p>","null","pattern_show_trial_num","","","","","","","","","","","","","","","","","","","","","","","","",""
"","","","","","image-keyboard-response","68","132668","0.0-2.0-5.0-1.23","55595b70fdf99b387ae30d2b","D2","batch4","","1825","stim/yes_58_dia_w1_w.png","f","pattern_response","true","f","pattern_76","1825","true","22","","","","","","","","","","","","","","","","","","",""
"","","","","","html-keyboard-response","69","133977","0.0-2.0-5.0-0.24","55595b70fdf99b387ae30d2b","D2","batch4","","null","<p class=block-text>Trial 25 out of 78</p>","null","pattern_show_trial_num","","","","","","","","","","","","","","","","","","","","","","","","",""
"","","","","","image-keyboard-response","70","135460","0.0-2.0-5.0-1.24","55595b70fdf99b387ae30d2b","D2","batch4","","1478","stim/no_47_1_b.png","j","pattern_response","true","j","pattern_27","1478","true","23","","","","","","","","","","","","","","","","","","",""
"","","","","","html-keyboard-response","71","136772","0.0-2.0-5.0-0.25","55595b70fdf99b387ae30d2b","D2","batch4","","null","<p class=block-text>Trial 26 out of 78</p>","null","pattern_show_trial_num","","","","","","","","","","","","","","","","","","","","","","","","",""
"","","","","","image-keyboard-response","72","138388","0.0-2.0-5.0-1.25","55595b70fdf99b387ae30d2b","D2","batch4","","1607","stim/yes_15_dia_b1u_b.png","f","pattern_response","true","f","pattern_44","1607","true","24","","","","","","","","","","","","","","","","","","",""
"","","","","","html-keyboard-response","73","139692","0.0-2.0-5.0-0.26","55595b70fdf99b387ae30d2b","D2","batch4","","null","<p class=block-text>Trial 27 out of 78</p>","null","pattern_show_trial_num","","","","","","","","","","","","","","","","","","","","","","","","",""
"","","","","","image-keyboard-response","74","141534","0.0-2.0-5.0-1.26","55595b70fdf99b387ae30d2b","D2","batch4","","1835","stim/no_45_1_w.png","j","pattern_response","true","j","pattern_25","1835","true","25","","","","","","","","","","","","","","","","","","",""
"","","","","","html-keyboard-response","75","142849","0.0-2.0-5.0-0.27","55595b70fdf99b387ae30d2b","D2","batch4","","null","<p class=block-text>Trial 28 out of 78</p>","null","pattern_show_trial_num","","","","","","","","","","","","","","","","","","","","","","","","",""
"","","","","","image-keyboard-response","76","144246","0.0-2.0-5.0-1.27","55595b70fdf99b387ae30d2b","D2","batch4","","1390","stim/no_43_2_b.png","j","pattern_response","true","j","pattern_23","1390","true","26","","","","","","","","","","","","","","","","","","",""
"","","","","","html-keyboard-response","77","145556","0.0-2.0-5.0-0.28","55595b70fdf99b387ae30d2b","D2","batch4","","null","<p class=block-text>Trial 29 out of 78</p>","null","pattern_show_trial_num","","","","","","","","","","","","","","","","","","","","","","","","",""
"","","","","","image-keyboard-response","78","146576","0.0-2.0-5.0-1.28","55595b70fdf99b387ae30d2b","D2","batch4","","1013","stim/yes_23_ver_b1.png","f","pattern_response","true","f","pattern_48","1013","true","27","","","","","","","","","","","","","","","","","","",""
"","","","","","html-keyboard-response","79","147894","0.0-2.0-5.0-0.29","55595b70fdf99b387ae30d2b","D2","batch4","","null","<p class=block-text>Trial 30 out of 78</p>","null","pattern_show_trial_num","","","","","","","","","","","","","","","","","","","","","","","","",""
"","","","","","image-keyboard-response","80","148718","0.0-2.0-5.0-1.29","55595b70fdf99b387ae30d2b","D2","batch4","","816","stim/yes_39_hor_w1_w.png","f","pattern_response","true","f","pattern_62","816","true","28","","","","","","","","","","","","","","","","","","",""
"","","","","","html-keyboard-response","81","150030","0.0-2.0-5.0-0.30","55595b70fdf99b387ae30d2b","D2","batch4","","null","<p class=block-text>Trial 31 out of 78</p>","null","pattern_show_trial_num","","","","","","","","","","","","","","","","","","","","","","","","",""
"","","","","","image-keyboard-response","82","151684","0.0-2.0-5.0-1.30","55595b70fdf99b387ae30d2b","D2","batch4","","1648","stim/yes_51_dia_b1.png","j","pattern_response","false","f","pattern_72","1648","false","28","","","","","","","","","","","","","","","","","","",""
"","","","","","html-keyboard-response","83","153000","0.0-2.0-5.0-0.31","55595b70fdf99b387ae30d2b","D2","batch4","","null","<p class=block-text>Trial 32 out of 78</p>","null","pattern_show_trial_num","","","","","","","","","","","","","","","","","","","","","","","","",""
"","","","","","image-keyboard-response","84","156741","0.0-2.0-5.0-1.31","55595b70fdf99b387ae30d2b","D2","batch4","","3735","stim/no_58_1_w.png","j","pattern_response","true","j","pattern_35","3735","true","29","","","","","","","","","","","","","","","","","","",""
"","","","","","html-keyboard-response","85","158060","0.0-2.0-5.0-0.32","55595b70fdf99b387ae30d2b","D2","batch4","","null","<p class=block-text>Trial 33 out of 78</p>","null","pattern_show_trial_num","","","","","","","","","","","","","","","","","","","","","","","","",""
"","","","","","image-keyboard-response","86","160044","0.0-2.0-5.0-1.32","55595b70fdf99b387ae30d2b","D2","batch4","","1977","stim/yes_49_hor_w1_b.png","f","pattern_response","true","f","pattern_70","1977","true","30","","","","","","","","","","","","","","","","","","",""
"","","","","","html-keyboard-response","87","161358","0.0-2.0-5.0-0.33","55595b70fdf99b387ae30d2b","D2","batch4","","null","<p class=block-text>Trial 34 out of 78</p>","null","pattern_show_trial_num","","","","","","","","","","","","","","","","","","","","","","","","",""
"","","","","","image-keyboard-response","88","162931","0.0-2.0-5.0-1.33","55595b70fdf99b387ae30d2b","D2","batch4","","1567","stim/no_30_1_b.png","j","pattern_response","true","j","pattern_13","1567","true","31","","","","","","","","","","","","","","","","","","",""
"","","","","","html-keyboard-response","89","164251","0.0-2.0-5.0-0.34","55595b70fdf99b387ae30d2b","D2","batch4","","null","<p class=block-text>Trial 35 out of 78</p>","null","pattern_show_trial_num","","","","","","","","","","","","","","","","","","","","","","","","",""
"","","","","","image-keyboard-response","90","165757","0.0-2.0-5.0-1.34","55595b70fdf99b387ae30d2b","D2","batch4","","1499","stim/yes_53_ver_b1_b.png","j","pattern_response","false","f","pattern_74","1499","false","31","","","","","","","","","","","","","","","","","","",""
"","","","","","html-keyboard-response","91","167069","0.0-2.0-5.0-0.35","55595b70fdf99b387ae30d2b","D2","batch4","","null","<p class=block-text>Trial 36 out of 78</p>","null","pattern_show_trial_num","","","","","","","","","","","","","","","","","","","","","","","","",""
"","","","","","image-keyboard-response","92","170159","0.0-2.0-5.0-1.35","55595b70fdf99b387ae30d2b","D2","batch4","","3082","stim/yes_63_dia_b1.png","j","pattern_response","false","f","pattern_78","3082","false","31","","","","","","","","","","","","","","","","","","",""
"","","","","","html-keyboard-response","93","171464","0.0-2.0-5.0-0.36","55595b70fdf99b387ae30d2b","D2","batch4","","null","<p class=block-text>Trial 37 out of 78</p>","null","pattern_show_trial_num","","","","","","","","","","","","","","","","","","","","","","","","",""
"","","","","","image-keyboard-response","94","172975","0.0-2.0-5.0-1.36","55595b70fdf99b387ae30d2b","D2","batch4","","1505","stim/yes_26_dia_w2_w.png","j","pattern_response","false","f","pattern_50","1505","false","31","","","","","","","","","","","","","","","","","","",""
"","","","","","html-keyboard-response","95","174292","0.0-2.0-5.0-0.37","55595b70fdf99b387ae30d2b","D2","batch4","","null","<p class=block-text>Trial 38 out of 78</p>","null","pattern_show_trial_num","","","","","","","","","","","","","","","","","","","","","","","","",""
"","","","","","image-keyboard-response","96","176603","0.0-2.0-5.0-1.37","55595b70fdf99b387ae30d2b","D2","batch4","","2304","stim/no_36_1_b.png","j","pattern_response","true","j","pattern_17","2304","true","32","","","","","","","","","","","","","","","","","","",""
"","","","","","html-keyboard-response","97","177916","0.0-2.0-5.0-0.38","55595b70fdf99b387ae30d2b","D2","batch4","","null","<p class=block-text>Trial 39 out of 78</p>","null","pattern_show_trial_num","","","","","","","","","","","","","","","","","","","","","","","","",""
"","","","","","image-keyboard-response","98","178824","0.0-2.0-5.0-1.38","55595b70fdf99b387ae30d2b","D2","batch4","","900","stim/no_12_1.png","j","pattern_response","true","j","pattern_01","900","true","33","","","","","","","","","","","","","","","","","","",""
"","","","","","image-keyboard-response","99","182614","0.0-2.0-6.0","55595b70fdf99b387ae30d2b","D2","batch4","","3282","stim/empty_board.png","j","attention_check","true","j","","","","","500","[""f"",""j""]","","","","","","","","","","","","","","","","",""
"","","","","","html-keyboard-response","100","183425","0.0-2.0-7.0-0.0","55595b70fdf99b387ae30d2b","D2","batch4","","null","<p class=block-text>Trial 40 out of 78</p>","null","pattern_show_trial_num","","","","","","","","","","","","","","","","","","","","","","","","",""
"","","","","","image-keyboard-response","101","189324","0.0-2.0-7.0-1.0","55595b70fdf99b387ae30d2b","D2","batch4","","5893","stim/no_62_1_w.png","j","pattern_response","true","j","pattern_36","5893","true","34","","","","","","","","","","","","","","","","","","",""
"","","","","","html-keyboard-response","102","190638","0.0-2.0-7.0-0.1","55595b70fdf99b387ae30d2b","D2","batch4","","null","<p class=block-text>Trial 41 out of 78</p>","null","pattern_show_trial_num","","","","","","","","","","","","","","","","","","","","","","","","",""
"","","","","","image-keyboard-response","103","192652","0.0-2.0-7.0-1.1","55595b70fdf99b387ae30d2b","D2","batch4","","2007","stim/no_17_1_w.png","j","pattern_response","true","j","pattern_04","2007","true","35","","","","","","","","","","","","","","","","","","",""
"","","","","","html-keyboard-response","104","193964","0.0-2.0-7.0-0.2","55595b70fdf99b387ae30d2b","D2","batch4","","null","<p class=block-text>Trial 42 out of 78</p>","null","pattern_show_trial_num","","","","","","","","","","","","","","","","","","","","","","","","",""
"","","","","","image-keyboard-response","105","195558","0.0-2.0-7.0-1.2","55595b70fdf99b387ae30d2b","D2","batch4","","1588","stim/yes_37_dia_w1.png","j","pattern_response","false","f","pattern_59","1588","false","35","","","","","","","","","","","","","","","","","","",""
"","","","","","html-keyboard-response","106","196867","0.0-2.0-7.0-0.3","55595b70fdf99b387ae30d2b","D2","batch4","","null","<p class=block-text>Trial 43 out of 78</p>","null","pattern_show_trial_num","","","","","","","","","","","","","","","","","","","","","","","","",""
"","","","","","image-keyboard-response","107","199047","0.0-2.0-7.0-1.3","55595b70fdf99b387ae30d2b","D2","batch4","","2173","stim/no_32_1_w.png","j","pattern_response","true","j","pattern_14","2173","true","36","","","","","","","","","","","","","","","","","","",""
"","","","","","html-keyboard-response","108","200364","0.0-2.0-7.0-0.4","55595b70fdf99b387ae30d2b","D2","batch4","","null","<p class=block-text>Trial 44 out of 78</p>","null","pattern_show_trial_num","","","","","","","","","","","","","","","","","","","","","","","","",""
"","","","","","image-keyboard-response","109","201028","0.0-2.0-7.0-1.4","55595b70fdf99b387ae30d2b","D2","batch4","","656","stim/yes_22_ver_w1.png","f","pattern_response","true","f","pattern_47","656","true","37","","","","","","","","","","","","","","","","","","",""
"","","","","","html-keyboard-response","110","202345","0.0-2.0-7.0-0.5","55595b70fdf99b387ae30d2b","D2","batch4","","null","<p class=block-text>Trial 45 out of 78</p>","null","pattern_show_trial_num","","","","","","","","","","","","","","","","","","","","","","","","",""
"","","","","","image-keyboard-response","111","206359","0.0-2.0-7.0-1.5","55595b70fdf99b387ae30d2b","D2","batch4","","4007","stim/yes_48_dia_w1_w.png","f","pattern_response","true","f","pattern_69","4007","true","38","","","","","","","","","","","","","","","","","","",""
"","","","","","html-keyboard-response","112","207667","0.0-2.0-7.0-0.6","55595b70fdf99b387ae30d2b","D2","batch4","","null","<p class=block-text>Trial 46 out of 78</p>","null","pattern_show_trial_num","","","","","","","","","","","","","","","","","","","","","","","","",""
"","","","","","image-keyboard-response","113","208621","0.0-2.0-7.0-1.6","55595b70fdf99b387ae30d2b","D2","batch4","","945","stim/yes_28_ver_b1.png","f","pattern_response","true","f","pattern_51","945","true","39","","","","","","","","","","","","","","","","","","",""
"","","","","","html-keyboard-response","114","209926","0.0-2.0-7.0-0.7","55595b70fdf99b387ae30d2b","D2","batch4","","null","<p class=block-text>Trial 47 out of 78</p>","null","pattern_show_trial_num","","","","","","","","","","","","","","","","","","","","","","","","",""
"","","","","","image-keyboard-response","115","211126","0.0-2.0-7.0-1.7","55595b70fdf99b387ae30d2b","D2","batch4","","1193","stim/yes_45_hor_b2_b.png","f","pattern_response","true","f","pattern_67","1193","true","40","","","","","","","","","","","","","","","","","","",""
"","","","","","html-keyboard-response","116","212432","0.0-2.0-7.0-0.8","55595b70fdf99b387ae30d2b","D2","batch4","","null","<p class=block-text>Trial 48 out of 78</p>","null","pattern_show_trial_num","","","","","","","","","","","","","","","","","","","","","","","","",""
"","","","","","image-keyboard-response","117","213251","0.0-2.0-7.0-1.8","55595b70fdf99b387ae30d2b","D2","batch4","","812","stim/yes_55_hor_w1_w.png","f","pattern_response","true","f","pattern_75","812","true","41","","","","","","","","","","","","","","","","","","",""
"","","","","","html-keyboard-response","118","214567","0.0-2.0-7.0-0.9","55595b70fdf99b387ae30d2b","D2","batch4","","null","<p class=block-text>Trial 49 out of 78</p>","null","pattern_show_trial_num","","","","","","","","","","","","","","","","","","","","","","","","",""
"","","","","","image-keyboard-response","119","216929","0.0-2.0-7.0-1.9","55595b70fdf99b387ae30d2b","D2","batch4","","2356","stim/no_55_1_w.png","j","pattern_response","true","j","pattern_34","2356","true","42","","","","","","","","","","","","","","","","","","",""
"","","","","","html-keyboard-response","120","218246","0.0-2.0-7.0-0.10","55595b70fdf99b387ae30d2b","D2","batch4","","null","<p class=block-text>Trial 50 out of 78</p>","null","pattern_show_trial_num","","","","","","","","","","","","","","","","","","","","","","","","",""
"","","","","","image-keyboard-response","121","220964","0.0-2.0-7.0-1.10","55595b70fdf99b387ae30d2b","D2","batch4","","2711","stim/no_38_1_b.png","j","pattern_response","true","j","pattern_20","2711","true","43","","","","","","","","","","","","","","","","","","",""
"","","","","","html-keyboard-response","122","222282","0.0-2.0-7.0-0.11","55595b70fdf99b387ae30d2b","D2","batch4","","null","<p class=block-text>Trial 51 out of 78</p>","null","pattern_show_trial_num","","","","","","","","","","","","","","","","","","","","","","","","",""
"","","","","","image-keyboard-response","123","223266","0.0-2.0-7.0-1.11","55595b70fdf99b387ae30d2b","D2","batch4","","976","stim/yes_38_hor_b1_b.png","f","pattern_response","true","f","pattern_61","976","true","44","","","","","","","","","","","","","","","","","","",""
"","","","","","html-keyboard-response","124","224572","0.0-2.0-7.0-0.12","55595b70fdf99b387ae30d2b","D2","batch4","","null","<p class=block-text>Trial 52 out of 78</p>","null","pattern_show_trial_num","","","","","","","","","","","","","","","","","","","","","","","","",""
"","","","","","image-keyboard-response","125","226091","0.0-2.0-7.0-1.12","55595b70fdf99b387ae30d2b","D2","batch4","","1512","stim/no_20_1_w.png","j","pattern_response","true","j","pattern_06","1512","true","45","","","","","","","","","","","","","","","","","","",""
"","","","","","html-keyboard-response","126","227405","0.0-2.0-7.0-0.13","55595b70fdf99b387ae30d2b","D2","batch4","","null","<p class=block-text>Trial 53 out of 78</p>","null","pattern_show_trial_num","","","","","","","","","","","","","","","","","","","","","","","","",""
"","","","","","image-keyboard-response","127","229865","0.0-2.0-7.0-1.13","55595b70fdf99b387ae30d2b","D2","batch4","","2454","stim/no_50_1.png","j","pattern_response","true","j","pattern_30","2454","true","46","","","","","","","","","","","","","","","","","","",""
"","","","","","html-keyboard-response","128","231181","0.0-2.0-7.0-0.14","55595b70fdf99b387ae30d2b","D2","batch4","","null","<p class=block-text>Trial 54 out of 78</p>","null","pattern_show_trial_num","","","","","","","","","","","","","","","","","","","","","","","","",""
"","","","","","image-keyboard-response","129","233655","0.0-2.0-7.0-1.14","55595b70fdf99b387ae30d2b","D2","batch4","","2467","stim/yes_40_dia_b1_b.png","f","pattern_response","true","f","pattern_63","2467","true","47","","","","","","","","","","","","","","","","","","",""
"","","","","","html-keyboard-response","130","234971","0.0-2.0-7.0-0.15","55595b70fdf99b387ae30d2b","D2","batch4","","null","<p class=block-text>Trial 55 out of 78</p>","null","pattern_show_trial_num","","","","","","","","","","","","","","","","","","","","","","","","",""
"","","","","","image-keyboard-response","131","236391","0.0-2.0-7.0-1.15","55595b70fdf99b387ae30d2b","D2","batch4","","1413","stim/no_23_1.png","j","pattern_response","true","j","pattern_08","1413","true","48","","","","","","","","","","","","","","","","","","",""
"","","","","","html-keyboard-response","132","237697","0.0-2.0-7.0-0.16","55595b70fdf99b387ae30d2b","D2","batch4","","null","<p class=block-text>Trial 56 out of 78</p>","null","pattern_show_trial_num","","","","","","","","","","","","","","","","","","","","","","","","",""
"","","","","","image-keyboard-response","133","239704","0.0-2.0-7.0-1.16","55595b70fdf99b387ae30d2b","D2","batch4","","2001","stim/no_34_1_b.png","j","pattern_response","true","j","pattern_16","2001","true","49","","","","","","","","","","","","","","","","","","",""
"","","","","","html-keyboard-response","134","241022","0.0-2.0-7.0-0.17","55595b70fdf99b387ae30d2b","D2","batch4","","null","<p class=block-text>Trial 57 out of 78</p>","null","pattern_show_trial_num","","","","","","","","","","","","","","","","","","","","","","","","",""
"","","","","","image-keyboard-response","135","243227","0.0-2.0-7.0-1.17","55595b70fdf99b387ae30d2b","D2","batch4","","2198","stim/yes_29_ver_w1.png","f","pattern_response","true","f","pattern_53","2198","true","50","","","","","","","","","","","","","","","","","","",""
"","","","","","html-keyboard-response","136","244536","0.0-2.0-7.0-0.18","55595b70fdf99b387ae30d2b","D2","batch4","","null","<p class=block-text>Trial 58 out of 78</p>","null","pattern_show_trial_num","","","","","","","","","","","","","","","","","","","","","","","","",""
"","","","","","image-keyboard-response","137","246270","0.0-2.0-7.0-1.18","55595b70fdf99b387ae30d2b","D2","batch4","","1726","stim/yes_31_hor_b1.png","f","pattern_response","true","f","pattern_55","1726","true","51","","","","","","","","","","","","","","","","","","",""
"","","","","","html-keyboard-response","138","247585","0.0-2.0-7.0-0.19","55595b70fdf99b387ae30d2b","D2","batch4","","null","<p class=block-text>Trial 59 out of 78</p>","null","pattern_show_trial_num","","","","","","","","","","","","","","","","","","","","","","","","",""
"","","","","","image-keyboard-response","139","249056","0.0-2.0-7.0-1.19","55595b70fdf99b387ae30d2b","D2","batch4","","1464","stim/no_36_2_w.png","j","pattern_response","true","j","pattern_18","1464","true","52","","","","","","","","","","","","","","","","","","",""
"","","","","","html-keyboard-response","140","250371","0.0-2.0-7.0-0.20","55595b70fdf99b387ae30d2b","D2","batch4","","null","<p class=block-text>Trial 60 out of 78</p>","null","pattern_show_trial_num","","","","","","","","","","","","","","","","","","","","","","","","",""
"","","","","","image-keyboard-response","141","254158","0.0-2.0-7.0-1.20","55595b70fdf99b387ae30d2b","D2","batch4","","3780","stim/no_48_1_w.png","j","pattern_response","true","j","pattern_28","3780","true","53","","","","","","","","","","","","","","","","","","",""
"","","","","","html-keyboard-response","142","255479","0.0-2.0-7.0-0.21","55595b70fdf99b387ae30d2b","D2","batch4","","null","<p class=block-text>Trial 61 out of 78</p>","null","pattern_show_trial_num","","","","","","","","","","","","","","","","","","","","","","","","",""
"","","","","","image-keyboard-response","143","256995","0.0-2.0-7.0-1.21","55595b70fdf99b387ae30d2b","D2","batch4","","1510","stim/no_13_2_b.png","j","pattern_response","true","j","pattern_02","1510","true","54","","","","","","","","","","","","","","","","","","",""
"","","","","","html-keyboard-response","144","258309","0.0-2.0-7.0-0.22","55595b70fdf99b387ae30d2b","D2","batch4","","null","<p class=block-text>Trial 62 out of 78</p>","null","pattern_show_trial_num","","","","","","","","","","","","","","","","","","","","","","","","",""
"","","","","","image-keyboard-response","145","261080","0.0-2.0-7.0-1.22","55595b70fdf99b387ae30d2b","D2","batch4","","2765","stim/no_46_1_b.png","j","pattern_response","true","j","pattern_26","2765","true","55","","","","","","","","","","","","","","","","","","",""
"","","","","","html-keyboard-response","146","262394","0.0-2.0-7.0-0.23","55595b70fdf99b387ae30d2b","D2","batch4","","null","<p class=block-text>Trial 63 out of 78</p>","null","pattern_show_trial_num","","","","","","","","","","","","","","","","","","","","","","","","",""
"","","","","","image-keyboard-response","147","263491","0.0-2.0-7.0-1.23","55595b70fdf99b387ae30d2b","D2","batch4","","1091","stim/yes_52_ver_w1.png","f","pattern_response","true","f","pattern_73","1091","true","56","","","","","","","","","","","","","","","","","","",""
"","","","","","html-keyboard-response","148","264809","0.0-2.0-7.0-0.24","55595b70fdf99b387ae30d2b","D2","batch4","","null","<p class=block-text>Trial 64 out of 78</p>","null","pattern_show_trial_num","","","","","","","","","","","","","","","","","","","","","","","","",""
"","","","","","image-keyboard-response","149","267761","0.0-2.0-7.0-1.24","55595b70fdf99b387ae30d2b","D2","batch4","","2946","stim/no_44_1.png","j","pattern_response","true","j","pattern_24","2946","true","57","","","","","","","","","","","","","","","","","","",""
"","","","","","html-keyboard-response","150","269081","0.0-2.0-7.0-0.25","55595b70fdf99b387ae30d2b","D2","batch4","","null","<p class=block-text>Trial 65 out of 78</p>","null","pattern_show_trial_num","","","","","","","","","","","","","","","","","","","","","","","","",""
"","","","","","image-keyboard-response","151","269776","0.0-2.0-7.0-1.25","55595b70fdf99b387ae30d2b","D2","batch4","","687","stim/yes_67_hor_b1.png","f","pattern_response","true","f","pattern_79","687","true","58","","","","","","","","","","","","","","","","","","",""
"","","","","","html-keyboard-response","152","271094","0.0-2.0-7.0-0.26","55595b70fdf99b387ae30d2b","D2","batch4","","null","<p class=block-text>Trial 66 out of 78</p>","null","pattern_show_trial_num","","","","","","","","","","","","","","","","","","","","","","","","",""
"","","","","","image-keyboard-response","153","272383","0.0-2.0-7.0-1.26","55595b70fdf99b387ae30d2b","D2","batch4","","1282","stim/no_42_1_w.png","j","pattern_response","true","j","pattern_22","1282","true","59","","","","","","","","","","","","","","","","","","",""
"","","","","","html-keyboard-response","154","273691","0.0-2.0-7.0-0.27","55595b70fdf99b387ae30d2b","D2","batch4","","null","<p class=block-text>Trial 67 out of 78</p>","null","pattern_show_trial_num","","","","","","","","","","","","","","","","","","","","","","","","",""
"","","","","","image-keyboard-response","155","274918","0.0-2.0-7.0-1.27","55595b70fdf99b387ae30d2b","D2","batch4","","1220","stim/no_26_1_w.png","j","pattern_response","true","j","pattern_10","1220","true","60","","","","","","","","","","","","","","","","","","",""
"","","","","","html-keyboard-response","156","276226","0.0-2.0-7.0-0.28","55595b70fdf99b387ae30d2b","D2","batch4","","null","<p class=block-text>Trial 68 out of 78</p>","null","pattern_show_trial_num","","","","","","","","","","","","","","","","","","","","","","","","",""
"","","","","","image-keyboard-response","157","277855","0.0-2.0-7.0-1.28","55595b70fdf99b387ae30d2b","D2","batch4","","1622","stim/yes_35_dia_b1.png","j","pattern_response","false","f","pattern_57","1622","false","60","","","","","","","","","","","","","","","","","","",""
"","","","","","html-keyboard-response","158","279168","0.0-2.0-7.0-0.29","55595b70fdf99b387ae30d2b","D2","batch4","","null","<p class=block-text>Trial 69 out of 78</p>","null","pattern_show_trial_num","","","","","","","","","","","","","","","","","","","","","","","","",""
"","","","","","image-keyboard-response","159","280623","0.0-2.0-7.0-1.29","55595b70fdf99b387ae30d2b","D2","batch4","","1447","stim/yes_43_ver_w1_w.png","f","pattern_response","true","f","pattern_65","1447","true","61","","","","","","","","","","","","","","","","","","",""
"","","","","","html-keyboard-response","160","281941","0.0-2.0-7.0-0.30","55595b70fdf99b387ae30d2b","D2","batch4","","null","<p class=block-text>Trial 70 out of 78</p>","null","pattern_show_trial_num","","","","","","","","","","","","","","","","","","","","","","","","",""
"","","","","","image-keyboard-response","161","282687","0.0-2.0-7.0-1.30","55595b70fdf99b387ae30d2b","D2","batch4","","739","stim/yes_14_hor_b1_w.png","f","pattern_response","true","f","pattern_43","739","true","62","","","","","","","","","","","","","","","","","","",""
"","","","","","html-keyboard-response","162","283998","0.0-2.0-7.0-0.31","55595b70fdf99b387ae30d2b","D2","batch4","","null","<p class=block-text>Trial 71 out of 78</p>","null","pattern_show_trial_num","","","","","","","","","","","","","","","","","","","","","","","","",""
"","","","","","image-keyboard-response","163","288420","0.0-2.0-7.0-1.31","55595b70fdf99b387ae30d2b","D2","batch4","","4416","stim/no_70_2.png","j","pattern_response","true","j","pattern_40","4416","true","63","","","","","","","","","","","","","","","","","","",""
"","","","","","html-keyboard-response","164","289726","0.0-2.0-7.0-0.32","55595b70fdf99b387ae30d2b","D2","batch4","","null","<p class=block-text>Trial 72 out of 78</p>","null","pattern_show_trial_num","","","","","","","","","","","","","","","","","","","","","","","","",""
"","","","","","image-keyboard-response","165","293403","0.0-2.0-7.0-1.32","55595b70fdf99b387ae30d2b","D2","batch4","","3670","stim/no_52_1.png","j","pattern_response","true","j","pattern_32","3670","true","64","","","","","","","","","","","","","","","","","","",""
"","","","","","html-keyboard-response","166","294708","0.0-2.0-7.0-0.33","55595b70fdf99b387ae30d2b","D2","batch4","","null","<p class=block-text>Trial 73 out of 78</p>","null","pattern_show_trial_num","","","","","","","","","","","","","","","","","","","","","","","","",""
"","","","","","image-keyboard-response","167","298605","0.0-2.0-7.0-1.33","55595b70fdf99b387ae30d2b","D2","batch4","","3891","stim/no_65_1_b.png","j","pattern_response","true","j","pattern_38","3891","true","65","","","","","","","","","","","","","","","","","","",""
"","","","","","html-keyboard-response","168","299919","0.0-2.0-7.0-0.34","55595b70fdf99b387ae30d2b","D2","batch4","","null","<p class=block-text>Trial 74 out of 78</p>","null","pattern_show_trial_num","","","","","","","","","","","","","","","","","","","","","","","","",""
"","","","","","image-keyboard-response","169","301366","0.0-2.0-7.0-1.34","55595b70fdf99b387ae30d2b","D2","batch4","","1441","stim/yes_60_ver_b1_b.png","f","pattern_response","true","f","pattern_77","1441","true","66","","","","","","","","","","","","","","","","","","",""
"","","","","","html-keyboard-response","170","302685","0.0-2.0-7.0-0.35","55595b70fdf99b387ae30d2b","D2","batch4","","null","<p class=block-text>Trial 75 out of 78</p>","null","pattern_show_trial_num","","","","","","","","","","","","","","","","","","","","","","","","",""
"","","","","","image-keyboard-response","171","306604","0.0-2.0-7.0-1.35","55595b70fdf99b387ae30d2b","D2","batch4","","3913","stim/yes_50_dia_w1.png","j","pattern_response","false","f","pattern_71","3913","false","66","","","","","","","","","","","","","","","","","","",""
"","","","","","html-keyboard-response","172","307917","0.0-2.0-7.0-0.36","55595b70fdf99b387ae30d2b","D2","batch4","","null","<p class=block-text>Trial 76 out of 78</p>","null","pattern_show_trial_num","","","","","","","","","","","","","","","","","","","","","","","","",""
"","","","","","image-keyboard-response","173","309351","0.0-2.0-7.0-1.36","55595b70fdf99b387ae30d2b","D2","batch4","","1426","stim/no_29_1_b.png","j","pattern_response","true","j","pattern_12","1426","true","67","","","","","","","","","","","","","","","","","","",""
"","","","","","html-keyboard-response","174","310657","0.0-2.0-7.0-0.37","55595b70fdf99b387ae30d2b","D2","batch4","","null","<p class=block-text>Trial 77 out of 78</p>","null","pattern_show_trial_num","","","","","","","","","","","","","","","","","","","","","","","","",""
"","","","","","image-keyboard-response","175","311701","0.0-2.0-7.0-1.37","55595b70fdf99b387ae30d2b","D2","batch4","","1038","stim/yes_17_dia_w1.png","f","pattern_response","true","f","pattern_45","1038","true","68","","","","","","","","","","","","","","","","","","",""
"","","","","","html-keyboard-response","176","313009","0.0-2.0-7.0-0.38","55595b70fdf99b387ae30d2b","D2","batch4","","null","<p class=block-text>Trial 78 out of 78</p>","null","pattern_show_trial_num","","","","","","","","","","","","","","","","","","","","","","","","",""
"","","","","","image-keyboard-response","177","314337","0.0-2.0-7.0-1.38","55595b70fdf99b387ae30d2b","D2","batch4","","1320","stim/yes_25_hor_b1_b.png","f","pattern_response","true","f","pattern_49","1320","true","69","","","","","","","","","","","","","","","","","","",""
"","","","","","html-button-response","178","318073","0.0-2.0-8.0","55595b70fdf99b387ae30d2b","D2","batch4","","3223","<p class = block-text>This concludes the 4-in-a-row detection game.Thank you for your responses!<br>
            You responded correctly on 88% of the trials.<br>
            When you are ready, press ""Continue"" button to continue </p>","0","","","","","","","","","","","","","","","","","","","","","","","","","",""
"true","","","","","fullscreen","179","320438","0.0-3.0-0.0","55595b70fdf99b387ae30d2b","D2","batch4","","","","","","","","","","","","","","","","","","","","","","","","","","","","","",""
"","","","","","instructions","180","375737","0.0-3.0-1.0-0.0-0.0","55595b70fdf99b387ae30d2b","D2","batch4","[{""page_index"":0,""viewing_time"":6879},{""page_index"":1,""viewing_time"":6553},{""page_index"":2,""viewing_time"":12854},{""page_index"":3,""viewing_time"":17833},{""page_index"":4,""viewing_time"":6403},{""page_index"":5,""viewing_time"":2723},{""page_index"":6,""viewing_time"":2052}]","55297","","","tol-instructions","","","","","","","","","","","","","","","","","","","","","","","","",""
"","","","","","html-button-response","181","376599","0.0-3.0-1.0-1.0-0.0","55595b70fdf99b387ae30d2b","D2","batch4","","859","<p class=block-text> Let's answer a few questions <br>","0","tol_enter_quiz","","","","","","","","","","","","","","","","","","","","","","","","",""
"","","","","","html-button-response","182","381451","0.0-3.0-1.0-1.0-1.0","55595b70fdf99b387ae30d2b","D2","batch4","","4850","<p class = block-text>True or False: You can only move the ball on top of a peg. <br></p>","0","tol_quiz","true","","","","","","","","","","","","","","","","","","","","","","","",""
"","","","","","html-button-response","183","384383","0.0-3.0-1.0-1.0-2.0","55595b70fdf99b387ae30d2b","D2","batch4","","2931","<p class = block-text>Correct! You can only move the ball on top of a peg.</p>","0","tol_quiz_feedback","","","","","","","","","","","","","","","","","","","","","","","","",""
"","","","","","html-button-response","184","388116","0.0-3.0-1.0-1.0-3.0","55595b70fdf99b387ae30d2b","D2","batch4","","3731","<p class = block-text>True or False: You should try to match your board with the target board with fewest moves possible. <br></p>","0","tol_quiz","true","","","","","","","","","","","","","","","","","","","","","","","",""
"","","","","","html-button-response","185","388828","0.0-3.0-1.0-1.0-4.0","55595b70fdf99b387ae30d2b","D2","batch4","","710","<p class = block-text>Correct! </p>","0","tol_quiz_feedback","","","","","","","","","","","","","","","","","","","","","","","","",""
"","","","","","html-button-response","186","389940","0.0-3.0-2.0","55595b70fdf99b387ae30d2b","D2","batch4","","1112","<p class=block-text> Now that you've understood the game, let's practice a few easier examples before we start!<br> <br>","0","","","","","","","","","","","","","","","","","","","","","","","","","",""
"","","","","","single-stim-button","187","393343","0.0-3.0-3.0-0.0","55595b70fdf99b387ae30d2b","D2","batch4","","3402","","","tol_practice","","","","","","","","","tol_peg_2","3402","3402","0","[[1,2,0],[0,0],[0]]","1","[[1,2,0],[0,0],[3]]","practice","3402","","","","","","","",""
"","","","","","single-stim-button","188","395115","0.0-3.0-3.0-1.0","55595b70fdf99b387ae30d2b","D2","batch4","","1770","","","tol_practice","","","","","","","","","tol_peg_3","1770","1770","0","[[1,2,0],[0,0],[3]]","1","[[1,2,0],[0,0],[3]]","practice","1770","","","","","","","",""
"","","","","","poldrack-single-stim","189","396122","0.0-3.0-4.0","55595b70fdf99b387ae30d2b","D2","batch4","","-1","","","tol_feedback","true","","","","","","","","","1000","1000","500","","","","","","-1","none","true","","0","","",""
"","","","","","single-stim-button","190","399987","0.0-3.0-5.0-0.0","55595b70fdf99b387ae30d2b","D2","batch4","","3865","","","tol_practice","","","","","","","","","tol_peg_1","3865","3865","0","[[1,0,0],[3,0],[0]]","2","[[0,0,0],[3,1],[2]]","practice","3865","","","","","","","",""
"","","","","","single-stim-button","191","401030","0.0-3.0-5.0-1.0","55595b70fdf99b387ae30d2b","D2","batch4","","1041","","","tol_practice","","","","","","","","","tol_peg_3","1041","1041","0","[[1,0,0],[3,0],[2]]","2","[[0,0,0],[3,1],[2]]","practice","1041","","","","","","","",""
"","","","","","single-stim-button","192","401982","0.0-3.0-5.1-0.1","55595b70fdf99b387ae30d2b","D2","batch4","","952","","","tol_practice","","","","","","","","","tol_peg_1","952","952","0","[[0,0,0],[3,0],[2]]","3","[[0,0,0],[3,1],[2]]","practice","952","","","","","","","",""
"","","","","","single-stim-button","193","402764","0.0-3.0-5.1-1.1","55595b70fdf99b387ae30d2b","D2","batch4","","782","","","tol_practice","","","","","","","","","tol_peg_2","782","782","0","[[0,0,0],[3,1],[2]]","3","[[0,0,0],[3,1],[2]]","practice","782","","","","","","","",""
"","","","","","poldrack-single-stim","194","403779","0.0-3.0-6.0","55595b70fdf99b387ae30d2b","D2","batch4","","-1","","","tol_feedback","true","","","","","","","","","1000","1000","500","","","","","","-1","none","true","","0","","",""
"","","","","","single-stim-button","195","406756","0.0-3.0-7.0-0.0","55595b70fdf99b387ae30d2b","D2","batch4","","2977","","","tol_practice","","","","","","","","","tol_peg_2","2977","2977","0","[[1,2,0],[0,0],[0]]","4","[[1,0,0],[2,0],[3]]","practice","2977","","","","","","","",""
"","","","","","single-stim-button","196","407838","0.0-3.0-7.0-1.0","55595b70fdf99b387ae30d2b","D2","batch4","","1081","","","tol_practice","","","","","","","","","tol_peg_3","1081","1081","0","[[1,2,0],[0,0],[3]]","4","[[1,0,0],[2,0],[3]]","practice","1081","","","","","","","",""
"","","","","","single-stim-button","197","408840","0.0-3.0-7.1-0.1","55595b70fdf99b387ae30d2b","D2","batch4","","1002","","","tol_practice","","","","","","","","","tol_peg_1","1002","1002","0","[[1,0,0],[0,0],[3]]","5","[[1,0,0],[2,0],[3]]","practice","1002","","","","","","","",""
"","","","","","single-stim-button","198","409562","0.0-3.0-7.1-1.1","55595b70fdf99b387ae30d2b","D2","batch4","","722","","","tol_practice","","","","","","","","","tol_peg_2","722","722","0","[[1,0,0],[2,0],[3]]","5","[[1,0,0],[2,0],[3]]","practice","722","","","","","","","",""
"","","","","","poldrack-single-stim","199","410571","0.0-3.0-8.0","55595b70fdf99b387ae30d2b","D2","batch4","","-1","","","tol_feedback","true","","","","","","","","","1000","1000","500","","","","","","-1","none","true","","0","","",""
"","","","","","html-button-response","200","412154","0.0-3.0-9.0","55595b70fdf99b387ae30d2b","D2","batch4","","1583","<div class = centerbox><p class = center-block-text>Great job! You are done with practice trials<br>You are about to start official trials.<br> <br> Problem <strong>1</strong> out of 25 problems</p></div>","0","tol_instruction","","","","","","","","","","","","","","","","","","","","","","","","",""
"","","","","","single-stim-button","201","423588","0.0-3.0-10.0-0.0","55595b70fdf99b387ae30d2b","D2","batch4","","10429","","","tol_tohand","","","","","","","","","tol_peg_1","10429","10429","0","[[1,0,0],[3,0],[0]]","1","[[1,3,0],[2,0],[0]]","0","0","","","","","","3","",""
"","","","","","single-stim-button","202","424310","0.0-3.0-10.0-1.0","55595b70fdf99b387ae30d2b","D2","batch4","","722","","","tol_toboard","","","","","","","","","tol_peg_3","722","722","0","[[1,0,0],[3,0],[2]]","1","[[1,3,0],[2,0],[0]]","0","0","","","","","","3","",""
"","","","","","single-stim-button","203","424952","0.0-3.0-10.1-0.1","55595b70fdf99b387ae30d2b","D2","batch4","","641","","","tol_tohand","","","","","","","","","tol_peg_2","641","641","0","[[1,0,0],[0,0],[2]]","2","[[1,3,0],[2,0],[0]]","0","0","","","","","","3","",""
"","","","","","single-stim-button","204","425624","0.0-3.0-10.1-1.1","55595b70fdf99b387ae30d2b","D2","batch4","","671","","","tol_toboard","","","","","","","","","tol_peg_1","671","671","0","[[1,3,0],[0,0],[2]]","2","[[1,3,0],[2,0],[0]]","0","0","","","","","","3","",""
"","","","","","single-stim-button","205","426386","0.0-3.0-10.2-0.2","55595b70fdf99b387ae30d2b","D2","batch4","","761","","","tol_tohand","","","","","","","","","tol_peg_3","761","761","0","[[1,3,0],[0,0],[0]]","3","[[1,3,0],[2,0],[0]]","0","0","","","","","","3","",""
"","","","","","single-stim-button","206","427069","0.0-3.0-10.2-1.2","55595b70fdf99b387ae30d2b","D2","batch4","","682","","","tol_toboard","","","","","","","","","tol_peg_2","682","682","0","[[1,3,0],[2,0],[0]]","3","[[1,3,0],[2,0],[0]]","0","0","","","","","","3","",""
"","","","","","poldrack-single-stim","207","428072","0.0-3.0-11.0","55595b70fdf99b387ae30d2b","D2","batch4","","-1","","","tol_feedback","true","","","","","","","","","1000","1000","500","","","","","","-1","none","true","10429","11831","","",""
"","","","","","html-button-response","208","429071","0.0-3.0-12.0","55595b70fdf99b387ae30d2b","D2","batch4","","997","<div class = centerbox><p class = center-block-text>problem <strong>2</strong> out of 25 problems</p></div>","0","tol_trial_num","","","","","","","","","","","","","","","","","","","","","","","","",""
"","","","","","single-stim-button","209","437214","0.0-3.0-13.0-0.0","55595b70fdf99b387ae30d2b","D2","batch4","","8142","","","tol_tohand","","","","","","","","","tol_peg_1","8142","8142","0","[[1,0,0],[3,0],[0]]","1","[[2,1,3],[0,0],[0]]","1","0","","","","","","5","",""
"","","","","","single-stim-button","210","438206","0.0-3.0-13.0-1.0","55595b70fdf99b387ae30d2b","D2","batch4","","991","","","tol_toboard","","","","","","","","","tol_peg_2","991","991","0","[[1,0,0],[3,2],[0]]","1","[[2,1,3],[0,0],[0]]","1","0","","","","","","5","",""
"","","","","","single-stim-button","211","438958","0.0-3.0-13.1-0.1","55595b70fdf99b387ae30d2b","D2","batch4","","751","","","tol_tohand","","","","","","","","","tol_peg_1","751","751","0","[[0,0,0],[3,2],[0]]","2","[[2,1,3],[0,0],[0]]","1","0","","","","","","5","",""
"","","","","","single-stim-button","212","439850","0.0-3.0-13.1-1.1","55595b70fdf99b387ae30d2b","D2","batch4","","892","","","tol_toboard","","","","","","","","","tol_peg_3","892","892","0","[[0,0,0],[3,2],[1]]","2","[[2,1,3],[0,0],[0]]","1","0","","","","","","5","",""
"","","","","","single-stim-button","213","440452","0.0-3.0-13.2-0.2","55595b70fdf99b387ae30d2b","D2","batch4","","601","","","tol_tohand","","","","","","","","","tol_peg_2","601","601","0","[[0,0,0],[3,0],[1]]","3","[[2,1,3],[0,0],[0]]","1","0","","","","","","5","",""
"","","","","","single-stim-button","214","440954","0.0-3.0-13.2-1.2","55595b70fdf99b387ae30d2b","D2","batch4","","502","","","tol_toboard","","","","","","","","","tol_peg_1","502","502","0","[[2,0,0],[3,0],[1]]","3","[[2,1,3],[0,0],[0]]","1","0","","","","","","5","",""
"","","","","","single-stim-button","215","441476","0.0-3.0-13.3-0.3","55595b70fdf99b387ae30d2b","D2","batch4","","521","","","tol_tohand","","","","","","","","","tol_peg_3","521","521","0","[[2,0,0],[3,0],[0]]","4","[[2,1,3],[0,0],[0]]","1","0","","","","","","5","",""
"","","","","","single-stim-button","216","442178","0.0-3.0-13.3-1.3","55595b70fdf99b387ae30d2b","D2","batch4","","702","","","tol_toboard","","","","","","","","","tol_peg_1","702","702","0","[[2,1,0],[3,0],[0]]","4","[[2,1,3],[0,0],[0]]","1","0","","","","","","5","",""
"","","","","","single-stim-button","217","442710","0.0-3.0-13.4-0.4","55595b70fdf99b387ae30d2b","D2","batch4","","532","","","tol_tohand","","","","","","","","","tol_peg_2","532","532","0","[[2,1,0],[0,0],[0]]","5","[[2,1,3],[0,0],[0]]","1","0","","","","","","5","",""
"","","","","","single-stim-button","218","443422","0.0-3.0-13.4-1.4","55595b70fdf99b387ae30d2b","D2","batch4","","712","","","tol_toboard","","","","","","","","","tol_peg_1","712","712","0","[[2,1,3],[0,0],[0]]","5","[[2,1,3],[0,0],[0]]","1","0","","","","","","5","",""
"","","","","","poldrack-single-stim","219","444436","0.0-3.0-14.0","55595b70fdf99b387ae30d2b","D2","batch4","","-1","","","tol_feedback","true","","","","","","","","","1000","1000","500","","","","","","-1","none","true","8142","10547","","",""
"","","","","","html-button-response","220","445354","0.0-3.0-15.0","55595b70fdf99b387ae30d2b","D2","batch4","","918","<div class = centerbox><p class = center-block-text>problem <strong>3</strong> out of 25 problems</p></div>","0","tol_trial_num","","","","","","","","","","","","","","","","","","","","","","","","",""
"","","","","","single-stim-button","221","449537","0.0-3.0-16.0-0.0","55595b70fdf99b387ae30d2b","D2","batch4","","4182","","","tol_tohand","","","","","","","","","tol_peg_1","4182","4182","0","[[2,0,0],[0,0],[1]]","1","[[1,2,0],[3,0],[0]]","2","0","","","","","","4","",""
"","","","","","single-stim-button","222","450719","0.0-3.0-16.0-1.0","55595b70fdf99b387ae30d2b","D2","batch4","","1182","","","tol_toboard","","","","","","","","","tol_peg_2","1182","1182","0","[[2,0,0],[3,0],[1]]","1","[[1,2,0],[3,0],[0]]","2","0","","","","","","4","",""
"","","","","","single-stim-button","223","451382","0.0-3.0-16.1-0.1","55595b70fdf99b387ae30d2b","D2","batch4","","662","","","tol_tohand","","","","","","","","","tol_peg_1","662","662","0","[[0,0,0],[3,0],[1]]","2","[[1,2,0],[3,0],[0]]","2","0","","","","","","4","",""
"","","","","","single-stim-button","224","451814","0.0-3.0-16.1-1.1","55595b70fdf99b387ae30d2b","D2","batch4","","431","","","tol_toboard","","","","","","","","","tol_peg_2","431","431","0","[[0,0,0],[3,2],[1]]","2","[[1,2,0],[3,0],[0]]","2","0","","","","","","4","",""
"","","","","","single-stim-button","225","452455","0.0-3.0-16.2-0.2","55595b70fdf99b387ae30d2b","D2","batch4","","641","","","tol_tohand","","","","","","","","","tol_peg_3","641","641","0","[[0,0,0],[3,2],[0]]","3","[[1,2,0],[3,0],[0]]","2","0","","","","","","4","",""
"","","","","","single-stim-button","226","453108","0.0-3.0-16.2-1.2","55595b70fdf99b387ae30d2b","D2","batch4","","652","","","tol_toboard","","","","","","","","","tol_peg_1","652","652","0","[[1,0,0],[3,2],[0]]","3","[[1,2,0],[3,0],[0]]","2","0","","","","","","4","",""
"","","","","","single-stim-button","227","453550","0.0-3.0-16.3-0.3","55595b70fdf99b387ae30d2b","D2","batch4","","441","","","tol_tohand","","","","","","","","","tol_peg_2","441","441","0","[[1,0,0],[3,0],[0]]","4","[[1,2,0],[3,0],[0]]","2","0","","","","","","4","",""
"","","","","","single-stim-button","228","454001","0.0-3.0-16.3-1.3","55595b70fdf99b387ae30d2b","D2","batch4","","451","","","tol_toboard","","","","","","","","","tol_peg_1","451","451","0","[[1,2,0],[3,0],[0]]","4","[[1,2,0],[3,0],[0]]","2","0","","","","","","4","",""
"","","","","","poldrack-single-stim","229","455014","0.0-3.0-17.0","55595b70fdf99b387ae30d2b","D2","batch4","","-1","","","tol_feedback","true","","","","","","","","","1000","1000","500","","","","","","-1","none","true","4182","5926","","",""
"","","","","","html-button-response","230","455883","0.0-3.0-18.0","55595b70fdf99b387ae30d2b","D2","batch4","","869","<div class = centerbox><p class = center-block-text>problem <strong>4</strong> out of 25 problems</p></div>","0","tol_trial_num","","","","","","","","","","","","","","","","","","","","","","","","",""
"","","","","","single-stim-button","231","459406","0.0-3.0-19.0-0.0","55595b70fdf99b387ae30d2b","D2","batch4","","3522","","","tol_tohand","","","","","","","","","tol_peg_2","3522","3522","0","[[3,0,0],[2,0],[0]]","1","[[3,0,0],[1,0],[2]]","3","0","","","","","","3","",""
"","","","","","single-stim-button","232","460528","0.0-3.0-19.0-1.0","55595b70fdf99b387ae30d2b","D2","batch4","","1122","","","tol_toboard","","","","","","","","","tol_peg_1","1122","1122","0","[[3,1,0],[2,0],[0]]","1","[[3,0,0],[1,0],[2]]","3","0","","","","","","3","",""
"","","","","","single-stim-button","233","461041","0.0-3.0-19.1-0.1","55595b70fdf99b387ae30d2b","D2","batch4","","513","","","tol_tohand","","","","","","","","","tol_peg_2","513","513","0","[[3,1,0],[0,0],[0]]","2","[[3,0,0],[1,0],[2]]","3","0","","","","","","3","",""
"","","","","","single-stim-button","234","461663","0.0-3.0-19.1-1.1","55595b70fdf99b387ae30d2b","D2","batch4","","622","","","tol_toboard","","","","","","","","","tol_peg_3","622","622","0","[[3,1,0],[0,0],[2]]","2","[[3,0,0],[1,0],[2]]","3","0","","","","","","3","",""
"","","","","","single-stim-button","235","462244","0.0-3.0-19.2-0.2","55595b70fdf99b387ae30d2b","D2","batch4","","581","","","tol_tohand","","","","","","","","","tol_peg_1","581","581","0","[[3,0,0],[0,0],[2]]","3","[[3,0,0],[1,0],[2]]","3","0","","","","","","3","",""
"","","","","","single-stim-button","236","462676","0.0-3.0-19.2-1.2","55595b70fdf99b387ae30d2b","D2","batch4","","432","","","tol_toboard","","","","","","","","","tol_peg_2","432","432","0","[[3,0,0],[1,0],[2]]","3","[[3,0,0],[1,0],[2]]","3","0","","","","","","3","",""
"","","","","","poldrack-single-stim","237","463687","0.0-3.0-20.0","55595b70fdf99b387ae30d2b","D2","batch4","","-1","","","tol_feedback","true","","","","","","","","","1000","1000","500","","","","","","-1","none","true","3522","4616","","",""
"","","","","","html-button-response","238","464509","0.0-3.0-21.0","55595b70fdf99b387ae30d2b","D2","batch4","","822","<div class = centerbox><p class = center-block-text>problem <strong>5</strong> out of 25 problems</p></div>","0","tol_trial_num","","","","","","","","","","","","","","","","","","","","","","","","",""
"","","","","","single-stim-button","239","474242","0.0-3.0-22.0-0.0","55595b70fdf99b387ae30d2b","D2","batch4","","9733","","","tol_tohand","","","","","","","","","tol_peg_3","9733","9733","0","[[1,0,0],[2,0],[0]]","1","[[0,0,0],[1,2],[3]]","4","0","","","","","","7","",""
"","","","","","single-stim-button","240","474934","0.0-3.0-22.0-1.0","55595b70fdf99b387ae30d2b","D2","batch4","","692","","","tol_toboard","","","","","","","","","tol_peg_1","692","692","0","[[1,3,0],[2,0],[0]]","1","[[0,0,0],[1,2],[3]]","4","0","","","","","","7","",""
"","","","","","single-stim-button","241","475456","0.0-3.0-22.1-0.1","55595b70fdf99b387ae30d2b","D2","batch4","","522","","","tol_tohand","","","","","","","","","tol_peg_2","522","522","0","[[1,3,0],[0,0],[0]]","2","[[0,0,0],[1,2],[3]]","4","0","","","","","","7","",""
"","","","","","single-stim-button","242","475928","0.0-3.0-22.1-1.1","55595b70fdf99b387ae30d2b","D2","batch4","","472","","","tol_toboard","","","","","","","","","tol_peg_3","472","472","0","[[1,3,0],[0,0],[2]]","2","[[0,0,0],[1,2],[3]]","4","0","","","","","","7","",""
"","","","","","single-stim-button","243","476670","0.0-3.0-22.2-0.2","55595b70fdf99b387ae30d2b","D2","batch4","","741","","","tol_tohand","","","","","","","","","tol_peg_1","741","741","0","[[1,0,0],[0,0],[2]]","3","[[0,0,0],[1,2],[3]]","4","0","","","","","","7","",""
"","","","","","single-stim-button","244","478233","0.0-3.0-22.2-1.2","55595b70fdf99b387ae30d2b","D2","batch4","","1563","","","tol_toboard","","","","","","","","","tol_peg_2","1563","1563","0","[[1,0,0],[3,0],[2]]","3","[[0,0,0],[1,2],[3]]","4","0","","","","","","7","",""
"","","","","","single-stim-button","245","481085","0.0-3.0-22.3-0.3","55595b70fdf99b387ae30d2b","D2","batch4","","2851","","","tol_tohand","","","","","","","","","tol_peg_1","2851","2851","0","[[0,0,0],[3,0],[2]]","4","[[0,0,0],[1,2],[3]]","4","0","","","","","","7","",""
"","","","","","single-stim-button","246","481787","0.0-3.0-22.3-1.3","55595b70fdf99b387ae30d2b","D2","batch4","","702","","","tol_toboard","","","","","","","","","tol_peg_2","702","702","0","[[0,0,0],[3,1],[2]]","4","[[0,0,0],[1,2],[3]]","4","0","","","","","","7","",""
"","","","","","single-stim-button","247","483309","0.0-3.0-22.4-0.4","55595b70fdf99b387ae30d2b","D2","batch4","","1521","","","tol_tohand","","","","","","","","","tol_peg_3","1521","1521","0","[[0,0,0],[3,1],[0]]","5","[[0,0,0],[1,2],[3]]","4","0","","","","","","7","",""
"","","","","","single-stim-button","248","484924","0.0-3.0-22.4-1.4","55595b70fdf99b387ae30d2b","D2","batch4","","1615","","","tol_toboard","","","","","","","","","tol_peg_1","1615","1615","0","[[2,0,0],[3,1],[0]]","5","[[0,0,0],[1,2],[3]]","4","0","","","","","","7","",""
"","","","","","single-stim-button","249","485425","0.0-3.0-22.5-0.5","55595b70fdf99b387ae30d2b","D2","batch4","","501","","","tol_tohand","","","","","","","","","tol_peg_2","501","501","0","[[2,0,0],[3,0],[0]]","6","[[0,0,0],[1,2],[3]]","4","0","","","","","","7","",""
"","","","","","single-stim-button","250","486888","0.0-3.0-22.5-1.5","55595b70fdf99b387ae30d2b","D2","batch4","","1462","","","tol_toboard","","","","","","","","","tol_peg_3","1462","1462","0","[[2,0,0],[3,0],[1]]","6","[[0,0,0],[1,2],[3]]","4","0","","","","","","7","",""
"","","","","","single-stim-button","251","487550","0.0-3.0-22.6-0.6","55595b70fdf99b387ae30d2b","D2","batch4","","662","","","tol_tohand","","","","","","","","","tol_peg_3","662","662","0","[[2,0,0],[3,0],[0]]","7","[[0,0,0],[1,2],[3]]","4","0","","","","","","7","",""
"","","","","","single-stim-button","252","488031","0.0-3.0-22.6-1.6","55595b70fdf99b387ae30d2b","D2","batch4","","481","","","tol_toboard","","","","","","","","","tol_peg_1","481","481","0","[[2,1,0],[3,0],[0]]","7","[[0,0,0],[1,2],[3]]","4","0","","","","","","7","",""
"","","","","","single-stim-button","253","488444","0.0-3.0-22.7-0.7","55595b70fdf99b387ae30d2b","D2","batch4","","412","","","tol_tohand","","","","","","","","","tol_peg_2","412","412","0","[[2,1,0],[0,0],[0]]","8","[[0,0,0],[1,2],[3]]","4","0","","","","","","7","",""
"","","","","","single-stim-button","254","488796","0.0-3.0-22.7-1.7","55595b70fdf99b387ae30d2b","D2","batch4","","352","","","tol_toboard","","","","","","","","","tol_peg_3","352","352","0","[[2,1,0],[0,0],[3]]","8","[[0,0,0],[1,2],[3]]","4","0","","","","","","7","",""
"","","","","","single-stim-button","255","489528","0.0-3.0-22.8-0.8","55595b70fdf99b387ae30d2b","D2","batch4","","731","","","tol_tohand","","","","","","","","","tol_peg_1","731","731","0","[[2,0,0],[0,0],[3]]","9","[[0,0,0],[1,2],[3]]","4","0","","","","","","7","",""
"","","","","","single-stim-button","256","491771","0.0-3.0-22.8-1.8","55595b70fdf99b387ae30d2b","D2","batch4","","2242","","","tol_toboard","","","","","","","","","tol_peg_2","2242","2242","0","[[2,0,0],[1,0],[3]]","9","[[0,0,0],[1,2],[3]]","4","0","","","","","","7","",""
"","","","","","single-stim-button","257","493902","0.0-3.0-22.9-0.9","55595b70fdf99b387ae30d2b","D2","batch4","","2131","","","tol_tohand","","","","","","","","","tol_peg_1","2131","2131","0","[[0,0,0],[1,0],[3]]","10","[[0,0,0],[1,2],[3]]","4","0","","","","","","7","",""
"","","","","","single-stim-button","258","494255","0.0-3.0-22.9-1.9","55595b70fdf99b387ae30d2b","D2","batch4","","352","","","tol_toboard","","","","","","","","","tol_peg_2","352","352","0","[[0,0,0],[1,2],[3]]","10","[[0,0,0],[1,2],[3]]","4","0","","","","","","7","",""
"","","","","","poldrack-single-stim","259","495263","0.0-3.0-23.0","55595b70fdf99b387ae30d2b","D2","batch4","","-1","","","tol_feedback","true","","","","","","","","","1000","1000","500","","","","","","-1","none","true","9733","19805","","",""
"","","","","","html-button-response","260","496036","0.0-3.0-24.0","55595b70fdf99b387ae30d2b","D2","batch4","","773","<div class = centerbox><p class = center-block-text>problem <strong>6</strong> out of 25 problems</p></div>","0","tol_trial_num","","","","","","","","","","","","","","","","","","","","","","","","",""
"","","","","","single-stim-button","261","503200","0.0-3.0-25.0-0.0","55595b70fdf99b387ae30d2b","D2","batch4","","7163","","","tol_tohand","","","","","","","","","tol_peg_3","7163","7163","0","[[0,0,0],[1,2],[0]]","1","[[1,0,0],[2,3],[0]]","5","0","","","","","","6","",""
"","","","","","single-stim-button","262","503661","0.0-3.0-25.0-1.0","55595b70fdf99b387ae30d2b","D2","batch4","","461","","","tol_toboard","","","","","","","","","tol_peg_1","461","461","0","[[3,0,0],[1,2],[0]]","1","[[1,0,0],[2,3],[0]]","5","0","","","","","","6","",""
"","","","","","single-stim-button","263","504874","0.0-3.0-25.1-0.1","55595b70fdf99b387ae30d2b","D2","batch4","","1213","","","tol_tohand","","","","","","","","","tol_peg_2","1213","1213","0","[[3,0,0],[1,0],[0]]","2","[[1,0,0],[2,3],[0]]","5","0","","","","","","6","",""
"","","","","","single-stim-button","264","505826","0.0-3.0-25.1-1.1","55595b70fdf99b387ae30d2b","D2","batch4","","951","","","tol_toboard","","","","","","","","","tol_peg_3","951","951","0","[[3,0,0],[1,0],[2]]","2","[[1,0,0],[2,3],[0]]","5","0","","","","","","6","",""
"","","","","","single-stim-button","265","511158","0.0-3.0-25.2-0.2","55595b70fdf99b387ae30d2b","D2","batch4","","5332","","","tol_tohand","","","","","","","","","tol_peg_2","5332","5332","0","[[3,0,0],[0,0],[2]]","3","[[1,0,0],[2,3],[0]]","5","0","","","","","","6","",""
"","","","","","single-stim-button","266","511590","0.0-3.0-25.2-1.2","55595b70fdf99b387ae30d2b","D2","batch4","","431","","","tol_toboard","","","","","","","","","tol_peg_1","431","431","0","[[3,1,0],[0,0],[2]]","3","[[1,0,0],[2,3],[0]]","5","0","","","","","","6","",""
"","","","","","single-stim-button","267","512193","0.0-3.0-25.3-0.3","55595b70fdf99b387ae30d2b","D2","batch4","","603","","","tol_tohand","","","","","","","","","tol_peg_3","603","603","0","[[3,1,0],[0,0],[0]]","4","[[1,0,0],[2,3],[0]]","5","0","","","","","","6","",""
"","","","","","single-stim-button","268","512535","0.0-3.0-25.3-1.3","55595b70fdf99b387ae30d2b","D2","batch4","","342","","","tol_toboard","","","","","","","","","tol_peg_2","342","342","0","[[3,1,0],[2,0],[0]]","4","[[1,0,0],[2,3],[0]]","5","0","","","","","","6","",""
"","","","","","single-stim-button","269","513917","0.0-3.0-25.4-0.4","55595b70fdf99b387ae30d2b","D2","batch4","","1382","","","tol_tohand","","","","","","","","","tol_peg_1","1382","1382","0","[[3,0,0],[2,0],[0]]","5","[[1,0,0],[2,3],[0]]","5","0","","","","","","6","",""
"","","","","","single-stim-button","270","514989","0.0-3.0-25.4-1.4","55595b70fdf99b387ae30d2b","D2","batch4","","1071","","","tol_toboard","","","","","","","","","tol_peg_3","1071","1071","0","[[3,0,0],[2,0],[1]]","5","[[1,0,0],[2,3],[0]]","5","0","","","","","","6","",""
"","","","","","single-stim-button","271","515511","0.0-3.0-25.5-0.5","55595b70fdf99b387ae30d2b","D2","batch4","","522","","","tol_tohand","","","","","","","","","tol_peg_1","522","522","0","[[0,0,0],[2,0],[1]]","6","[[1,0,0],[2,3],[0]]","5","0","","","","","","6","",""
"","","","","","single-stim-button","272","515933","0.0-3.0-25.5-1.5","55595b70fdf99b387ae30d2b","D2","batch4","","422","","","tol_toboard","","","","","","","","","tol_peg_2","422","422","0","[[0,0,0],[2,3],[1]]","6","[[1,0,0],[2,3],[0]]","5","0","","","","","","6","",""
"","","","","","single-stim-button","273","516305","0.0-3.0-25.6-0.6","55595b70fdf99b387ae30d2b","D2","batch4","","371","","","tol_tohand","","","","","","","","","tol_peg_3","371","371","0","[[0,0,0],[2,3],[0]]","7","[[1,0,0],[2,3],[0]]","5","0","","","","","","6","",""
"","","","","","single-stim-button","274","516807","0.0-3.0-25.6-1.6","55595b70fdf99b387ae30d2b","D2","batch4","","502","","","tol_toboard","","","","","","","","","tol_peg_1","502","502","0","[[1,0,0],[2,3],[0]]","7","[[1,0,0],[2,3],[0]]","5","0","","","","","","6","",""
"","","","","","poldrack-single-stim","275","517809","0.0-3.0-26.0","55595b70fdf99b387ae30d2b","D2","batch4","","-1","","","tol_feedback","true","","","","","","","","","1000","1000","500","","","","","","-1","none","true","7163","16586","","",""
"","","","","","html-button-response","276","518819","0.0-3.0-27.0","55595b70fdf99b387ae30d2b","D2","batch4","","1010","<div class = centerbox><p class = center-block-text>problem <strong>7</strong> out of 25 problems</p></div>","0","tol_trial_num","","","","","","","","","","","","","","","","","","","","","","","","",""
"","","","","","single-stim-button","277","527552","0.0-3.0-28.0-0.0","55595b70fdf99b387ae30d2b","D2","batch4","","8733","","","tol_tohand","","","","","","","","","tol_peg_1","8733","8733","0","[[2,0,0],[0,0],[3]]","1","[[1,2,0],[3,0],[0]]","6","0","","","","","","5","",""
"","","","","","single-stim-button","278","528435","0.0-3.0-28.0-1.0","55595b70fdf99b387ae30d2b","D2","batch4","","881","","","tol_toboard","","","","","","","","","tol_peg_2","881","881","0","[[2,0,0],[1,0],[3]]","1","[[1,2,0],[3,0],[0]]","6","0","","","","","","5","",""
"","","","","","single-stim-button","279","528827","0.0-3.0-28.1-0.1","55595b70fdf99b387ae30d2b","D2","batch4","","392","","","tol_tohand","","","","","","","","","tol_peg_3","392","392","0","[[2,0,0],[1,0],[0]]","2","[[1,2,0],[3,0],[0]]","6","0","","","","","","5","",""
"","","","","","single-stim-button","280","529209","0.0-3.0-28.1-1.1","55595b70fdf99b387ae30d2b","D2","batch4","","382","","","tol_toboard","","","","","","","","","tol_peg_2","382","382","0","[[2,0,0],[1,3],[0]]","2","[[1,2,0],[3,0],[0]]","6","0","","","","","","5","",""
"","","","","","single-stim-button","281","529741","0.0-3.0-28.2-0.2","55595b70fdf99b387ae30d2b","D2","batch4","","532","","","tol_tohand","","","","","","","","","tol_peg_1","532","532","0","[[0,0,0],[1,3],[0]]","3","[[1,2,0],[3,0],[0]]","6","0","","","","","","5","",""
"","","","","","single-stim-button","282","530693","0.0-3.0-28.2-1.2","55595b70fdf99b387ae30d2b","D2","batch4","","952","","","tol_toboard","","","","","","","","","tol_peg_3","952","952","0","[[0,0,0],[1,3],[2]]","3","[[1,2,0],[3,0],[0]]","6","0","","","","","","5","",""
"","","","","","single-stim-button","283","531785","0.0-3.0-28.3-0.3","55595b70fdf99b387ae30d2b","D2","batch4","","1091","","","tol_tohand","","","","","","","","","tol_peg_2","1091","1091","0","[[0,0,0],[1,0],[2]]","4","[[1,2,0],[3,0],[0]]","6","0","","","","","","5","",""
"","","","","","single-stim-button","284","533017","0.0-3.0-28.3-1.3","55595b70fdf99b387ae30d2b","D2","batch4","","1232","","","tol_toboard","","","","","","","","","tol_peg_1","1232","1232","0","[[3,0,0],[1,0],[2]]","4","[[1,2,0],[3,0],[0]]","6","0","","","","","","5","",""
"","","","","","single-stim-button","285","533509","0.0-3.0-28.4-0.4","55595b70fdf99b387ae30d2b","D2","batch4","","491","","","tol_tohand","","","","","","","","","tol_peg_3","491","491","0","[[3,0,0],[1,0],[0]]","5","[[1,2,0],[3,0],[0]]","6","0","","","","","","5","",""
"","","","","","single-stim-button","286","533882","0.0-3.0-28.4-1.4","55595b70fdf99b387ae30d2b","D2","batch4","","372","","","tol_toboard","","","","","","","","","tol_peg_2","372","372","0","[[3,0,0],[1,2],[0]]","5","[[1,2,0],[3,0],[0]]","6","0","","","","","","5","",""
"","","","","","single-stim-button","287","534343","0.0-3.0-28.5-0.5","55595b70fdf99b387ae30d2b","D2","batch4","","461","","","tol_tohand","","","","","","","","","tol_peg_1","461","461","0","[[0,0,0],[1,2],[0]]","6","[[1,2,0],[3,0],[0]]","6","0","","","","","","5","",""
"","","","","","single-stim-button","288","535255","0.0-3.0-28.5-1.5","55595b70fdf99b387ae30d2b","D2","batch4","","912","","","tol_toboard","","","","","","","","","tol_peg_3","912","912","0","[[0,0,0],[1,2],[3]]","6","[[1,2,0],[3,0],[0]]","6","0","","","","","","5","",""
"","","","","","single-stim-button","289","538398","0.0-3.0-28.6-0.6","55595b70fdf99b387ae30d2b","D2","batch4","","3143","","","tol_tohand","","","","","","","","","tol_peg_3","3143","3143","0","[[0,0,0],[1,2],[0]]","7","[[1,2,0],[3,0],[0]]","6","0","","","","","","5","",""
"","","","","","single-stim-button","290","538930","0.0-3.0-28.6-1.6","55595b70fdf99b387ae30d2b","D2","batch4","","532","","","tol_toboard","","","","","","","","","tol_peg_1","532","532","0","[[3,0,0],[1,2],[0]]","7","[[1,2,0],[3,0],[0]]","6","0","","","","","","5","",""
"","","","","","single-stim-button","291","540901","0.0-3.0-28.7-0.7","55595b70fdf99b387ae30d2b","D2","batch4","","1971","","","tol_tohand","","","","","","","","","tol_peg_2","1971","1971","0","[[3,0,0],[1,0],[0]]","8","[[1,2,0],[3,0],[0]]","6","0","","","","","","5","",""
"","","","","","single-stim-button","292","545654","0.0-3.0-28.7-1.7","55595b70fdf99b387ae30d2b","D2","batch4","","4752","","","tol_toboard","","","","","","","","","tol_peg_1","4752","4752","0","[[3,2,0],[1,0],[0]]","8","[[1,2,0],[3,0],[0]]","6","0","","","","","","5","",""
"","","","","","single-stim-button","293","546066","0.0-3.0-28.8-0.8","55595b70fdf99b387ae30d2b","D2","batch4","","412","","","tol_tohand","","","","","","","","","tol_peg_2","412","412","0","[[3,2,0],[0,0],[0]]","9","[[1,2,0],[3,0],[0]]","6","0","","","","","","5","",""
"","","","","","single-stim-button","294","546429","0.0-3.0-28.8-1.8","55595b70fdf99b387ae30d2b","D2","batch4","","363","","","tol_toboard","","","","","","","","","tol_peg_3","363","363","0","[[3,2,0],[0,0],[1]]","9","[[1,2,0],[3,0],[0]]","6","0","","","","","","5","",""
"","","","","","single-stim-button","295","547251","0.0-3.0-28.9-0.9","55595b70fdf99b387ae30d2b","D2","batch4","","822","","","tol_tohand","","","","","","","","","tol_peg_1","822","822","0","[[3,0,0],[0,0],[1]]","10","[[1,2,0],[3,0],[0]]","6","0","","","","","","5","",""
"","","","","","single-stim-button","296","547692","0.0-3.0-28.9-1.9","55595b70fdf99b387ae30d2b","D2","batch4","","441","","","tol_toboard","","","","","","","","","tol_peg_2","441","441","0","[[3,0,0],[2,0],[1]]","10","[[1,2,0],[3,0],[0]]","6","0","","","","","","5","",""
"","","","","","single-stim-button","297","548205","0.0-3.0-28.10-0.10","55595b70fdf99b387ae30d2b","D2","batch4","","512","","","tol_tohand","","","","","","","","","tol_peg_1","512","512","0","[[0,0,0],[2,0],[1]]","11","[[1,2,0],[3,0],[0]]","6","0","","","","","","5","",""
"","","","","","single-stim-button","298","548517","0.0-3.0-28.10-1.10","55595b70fdf99b387ae30d2b","D2","batch4","","311","","","tol_toboard","","","","","","","","","tol_peg_2","311","311","0","[[0,0,0],[2,3],[1]]","11","[[1,2,0],[3,0],[0]]","6","0","","","","","","5","",""
"","","","","","single-stim-button","299","548869","0.0-3.0-28.11-0.11","55595b70fdf99b387ae30d2b","D2","batch4","","352","","","tol_tohand","","","","","","","","","tol_peg_3","352","352","0","[[0,0,0],[2,3],[0]]","12","[[1,2,0],[3,0],[0]]","6","0","","","","","","5","",""
"","","","","","single-stim-button","300","549581","0.0-3.0-28.11-1.11","55595b70fdf99b387ae30d2b","D2","batch4","","712","","","tol_toboard","","","","","","","","","tol_peg_1","712","712","0","[[1,0,0],[2,3],[0]]","12","[[1,2,0],[3,0],[0]]","6","0","","","","","","5","",""
"","","","","","single-stim-button","301","550874","0.0-3.0-28.12-0.12","55595b70fdf99b387ae30d2b","D2","batch4","","1292","","","tol_tohand","","","","","","","","","tol_peg_2","1292","1292","0","[[1,0,0],[2,0],[0]]","13","[[1,2,0],[3,0],[0]]","6","0","","","","","","5","",""
"","","","","","single-stim-button","302","551525","0.0-3.0-28.12-1.12","55595b70fdf99b387ae30d2b","D2","batch4","","651","","","tol_toboard","","","","","","","","","tol_peg_3","651","651","0","[[1,0,0],[2,0],[3]]","13","[[1,2,0],[3,0],[0]]","6","0","","","","","","5","",""
"","","","","","single-stim-button","303","551938","0.0-3.0-28.13-0.13","55595b70fdf99b387ae30d2b","D2","batch4","","412","","","tol_tohand","","","","","","","","","tol_peg_2","412","412","0","[[1,0,0],[0,0],[3]]","14","[[1,2,0],[3,0],[0]]","6","0","","","","","","5","",""
"","","","","","single-stim-button","304","552250","0.0-3.0-28.13-1.13","55595b70fdf99b387ae30d2b","D2","batch4","","312","","","tol_toboard","","","","","","","","","tol_peg_1","312","312","0","[[1,2,0],[0,0],[3]]","14","[[1,2,0],[3,0],[0]]","6","0","","","","","","5","",""
"","","","","","single-stim-button","305","552781","0.0-3.0-28.14-0.14","55595b70fdf99b387ae30d2b","D2","batch4","","531","","","tol_tohand","","","","","","","","","tol_peg_3","531","531","0","[[1,2,0],[0,0],[0]]","15","[[1,2,0],[3,0],[0]]","6","0","","","","","","5","",""
"","","","","","single-stim-button","306","553224","0.0-3.0-28.14-1.14","55595b70fdf99b387ae30d2b","D2","batch4","","441","","","tol_toboard","","","","","","","","","tol_peg_2","441","441","0","[[1,2,0],[3,0],[0]]","15","[[1,2,0],[3,0],[0]]","6","0","","","","","","5","",""
"","","","","","poldrack-single-stim","307","554226","0.0-3.0-29.0","55595b70fdf99b387ae30d2b","D2","batch4","","-1","","","tol_feedback","true","","","","","","","","","1000","1000","500","","","","","","-1","none","true","8733","21147","","",""
"","","","","","html-button-response","308","554896","0.0-3.0-30.0","55595b70fdf99b387ae30d2b","D2","batch4","","669","<div class = centerbox><p class = center-block-text>problem <strong>8</strong> out of 25 problems</p></div>","0","tol_trial_num","","","","","","","","","","","","","","","","","","","","","","","","",""
"","","","","","single-stim-button","309","557148","0.0-3.0-31.0-0.0","55595b70fdf99b387ae30d2b","D2","batch4","","2252","","","tol_tohand","","","","","","","","","tol_peg_2","2252","2252","0","[[0,0,0],[2,0],[1]]","1","[[1,2,0],[3,0],[0]]","7","0","","","","","","4","",""
"","","","","","single-stim-button","310","557550","0.0-3.0-31.0-1.0","55595b70fdf99b387ae30d2b","D2","batch4","","401","","","tol_toboard","","","","","","","","","tol_peg_1","401","401","0","[[3,0,0],[2,0],[1]]","1","[[1,2,0],[3,0],[0]]","7","0","","","","","","4","",""
"","","","","","single-stim-button","311","558102","0.0-3.0-31.1-0.1","55595b70fdf99b387ae30d2b","D2","batch4","","552","","","tol_tohand","","","","","","","","","tol_peg_3","552","552","0","[[3,0,0],[2,0],[0]]","2","[[1,2,0],[3,0],[0]]","7","0","","","","","","4","",""
"","","","","","single-stim-button","312","558504","0.0-3.0-31.1-1.1","55595b70fdf99b387ae30d2b","D2","batch4","","401","","","tol_toboard","","","","","","","","","tol_peg_1","401","401","0","[[3,1,0],[2,0],[0]]","2","[[1,2,0],[3,0],[0]]","7","0","","","","","","4","",""
"","","","","","single-stim-button","313","559897","0.0-3.0-31.2-0.2","55595b70fdf99b387ae30d2b","D2","batch4","","1392","","","tol_tohand","","","","","","","","","tol_peg_2","1392","1392","0","[[3,1,0],[0,0],[0]]","3","[[1,2,0],[3,0],[0]]","7","0","","","","","","4","",""
"","","","","","single-stim-button","314","560339","0.0-3.0-31.2-1.2","55595b70fdf99b387ae30d2b","D2","batch4","","442","","","tol_toboard","","","","","","","","","tol_peg_3","442","442","0","[[3,1,0],[0,0],[2]]","3","[[1,2,0],[3,0],[0]]","7","0","","","","","","4","",""
"","","","","","single-stim-button","315","560890","0.0-3.0-31.3-0.3","55595b70fdf99b387ae30d2b","D2","batch4","","551","","","tol_tohand","","","","","","","","","tol_peg_1","551","551","0","[[3,0,0],[0,0],[2]]","4","[[1,2,0],[3,0],[0]]","7","0","","","","","","4","",""
"","","","","","single-stim-button","316","561593","0.0-3.0-31.3-1.3","55595b70fdf99b387ae30d2b","D2","batch4","","702","","","tol_toboard","","","","","","","","","tol_peg_2","702","702","0","[[3,0,0],[1,0],[2]]","4","[[1,2,0],[3,0],[0]]","7","0","","","","","","4","",""
"","","","","","single-stim-button","317","562275","0.0-3.0-31.4-0.4","55595b70fdf99b387ae30d2b","D2","batch4","","682","","","tol_tohand","","","","","","","","","tol_peg_3","682","682","0","[[3,0,0],[1,0],[0]]","5","[[1,2,0],[3,0],[0]]","7","0","","","","","","4","",""
"","","","","","single-stim-button","318","563657","0.0-3.0-31.4-1.4","55595b70fdf99b387ae30d2b","D2","batch4","","1382","","","tol_toboard","","","","","","","","","tol_peg_3","1382","1382","0","[[3,0,0],[1,0],[2]]","5","[[1,2,0],[3,0],[0]]","7","0","","","","","","4","",""
"","","","","","single-stim-button","319","564569","0.0-3.0-31.5-0.5","55595b70fdf99b387ae30d2b","D2","batch4","","911","","","tol_tohand","","","","","","","","","tol_peg_3","911","911","0","[[3,0,0],[1,0],[0]]","6","[[1,2,0],[3,0],[0]]","7","0","","","","","","4","",""
"","","","","","single-stim-button","320","565061","0.0-3.0-31.5-1.5","55595b70fdf99b387ae30d2b","D2","batch4","","492","","","tol_toboard","","","","","","","","","tol_peg_2","492","492","0","[[3,0,0],[1,2],[0]]","6","[[1,2,0],[3,0],[0]]","7","0","","","","","","4","",""
"","","","","","single-stim-button","321","565573","0.0-3.0-31.6-0.6","55595b70fdf99b387ae30d2b","D2","batch4","","512","","","tol_tohand","","","","","","","","","tol_peg_1","512","512","0","[[0,0,0],[1,2],[0]]","7","[[1,2,0],[3,0],[0]]","7","0","","","","","","4","",""
"","","","","","single-stim-button","322","566035","0.0-3.0-31.6-1.6","55595b70fdf99b387ae30d2b","D2","batch4","","461","","","tol_toboard","","","","","","","","","tol_peg_3","461","461","0","[[0,0,0],[1,2],[3]]","7","[[1,2,0],[3,0],[0]]","7","0","","","","","","4","",""
"","","","","","single-stim-button","323","569198","0.0-3.0-31.7-0.7","55595b70fdf99b387ae30d2b","D2","batch4","","3163","","","tol_tohand","","","","","","","","","tol_peg_2","3163","3163","0","[[0,0,0],[1,0],[3]]","8","[[1,2,0],[3,0],[0]]","7","0","","","","","","4","",""
"","","","","","single-stim-button","324","569699","0.0-3.0-31.7-1.7","55595b70fdf99b387ae30d2b","D2","batch4","","501","","","tol_toboard","","","","","","","","","tol_peg_1","501","501","0","[[2,0,0],[1,0],[3]]","8","[[1,2,0],[3,0],[0]]","7","0","","","","","","4","",""
"","","","","","single-stim-button","325","570412","0.0-3.0-31.8-0.8","55595b70fdf99b387ae30d2b","D2","batch4","","713","","","tol_tohand","","","","","","","","","tol_peg_2","713","713","0","[[2,0,0],[0,0],[3]]","9","[[1,2,0],[3,0],[0]]","7","0","","","","","","4","",""
"","","","","","single-stim-button","326","570803","0.0-3.0-31.8-1.8","55595b70fdf99b387ae30d2b","D2","batch4","","391","","","tol_toboard","","","","","","","","","tol_peg_1","391","391","0","[[2,1,0],[0,0],[3]]","9","[[1,2,0],[3,0],[0]]","7","0","","","","","","4","",""
"","","","","","single-stim-button","327","571206","0.0-3.0-31.9-0.9","55595b70fdf99b387ae30d2b","D2","batch4","","403","","","tol_tohand","","","","","","","","","tol_peg_3","403","403","0","[[2,1,0],[0,0],[0]]","10","[[1,2,0],[3,0],[0]]","7","0","","","","","","4","",""
"","","","","","single-stim-button","328","571557","0.0-3.0-31.9-1.9","55595b70fdf99b387ae30d2b","D2","batch4","","351","","","tol_toboard","","","","","","","","","tol_peg_2","351","351","0","[[2,1,0],[3,0],[0]]","10","[[1,2,0],[3,0],[0]]","7","0","","","","","","4","",""
"","","","","","single-stim-button","329","572482","0.0-3.0-31.10-0.10","55595b70fdf99b387ae30d2b","D2","batch4","","924","","","tol_tohand","","","","","","","","","tol_peg_1","924","924","0","[[2,0,0],[3,0],[0]]","11","[[1,2,0],[3,0],[0]]","7","0","","","","","","4","",""
"","","","","","single-stim-button","330","573004","0.0-3.0-31.10-1.10","55595b70fdf99b387ae30d2b","D2","batch4","","522","","","tol_toboard","","","","","","","","","tol_peg_3","522","522","0","[[2,0,0],[3,0],[1]]","11","[[1,2,0],[3,0],[0]]","7","0","","","","","","4","",""
"","","","","","single-stim-button","331","574366","0.0-3.0-31.11-0.11","55595b70fdf99b387ae30d2b","D2","batch4","","1361","","","tol_tohand","","","","","","","","","tol_peg_1","1361","1361","0","[[0,0,0],[3,0],[1]]","12","[[1,2,0],[3,0],[0]]","7","0","","","","","","4","",""
"","","","","","single-stim-button","332","575558","0.0-3.0-31.11-1.11","55595b70fdf99b387ae30d2b","D2","batch4","","1192","","","tol_toboard","","","","","","","","","tol_peg_2","1192","1192","0","[[0,0,0],[3,2],[1]]","12","[[1,2,0],[3,0],[0]]","7","0","","","","","","4","",""
"","","","","","single-stim-button","333","576160","0.0-3.0-31.12-0.12","55595b70fdf99b387ae30d2b","D2","batch4","","602","","","tol_tohand","","","","","","","","","tol_peg_3","602","602","0","[[0,0,0],[3,2],[0]]","13","[[1,2,0],[3,0],[0]]","7","0","","","","","","4","",""
"","","","","","single-stim-button","334","576673","0.0-3.0-31.12-1.12","55595b70fdf99b387ae30d2b","D2","batch4","","513","","","tol_toboard","","","","","","","","","tol_peg_1","513","513","0","[[1,0,0],[3,2],[0]]","13","[[1,2,0],[3,0],[0]]","7","0","","","","","","4","",""
"","","","","","single-stim-button","335","577394","0.0-3.0-31.13-0.13","55595b70fdf99b387ae30d2b","D2","batch4","","721","","","tol_tohand","","","","","","","","","tol_peg_2","721","721","0","[[1,0,0],[3,0],[0]]","14","[[1,2,0],[3,0],[0]]","7","0","","","","","","4","",""
"","","","","","single-stim-button","336","577806","0.0-3.0-31.13-1.13","55595b70fdf99b387ae30d2b","D2","batch4","","412","","","tol_toboard","","","","","","","","","tol_peg_1","412","412","0","[[1,2,0],[3,0],[0]]","14","[[1,2,0],[3,0],[0]]","7","0","","","","","","4","",""
"","","","","","poldrack-single-stim","337","578808","0.0-3.0-32.0","55595b70fdf99b387ae30d2b","D2","batch4","","-1","","","tol_feedback","true","","","","","","","","","1000","1000","500","","","","","","-1","none","true","2252","14739","","",""
"","","","","","html-button-response","338","579588","0.0-3.0-33.0","55595b70fdf99b387ae30d2b","D2","batch4","","780","<div class = centerbox><p class = center-block-text>problem <strong>9</strong> out of 25 problems</p></div>","0","tol_trial_num","","","","","","","","","","","","","","","","","","","","","","","","",""
"","","","","","single-stim-button","339","584601","0.0-3.0-34.0-0.0","55595b70fdf99b387ae30d2b","D2","batch4","","5012","","","tol_tohand","","","","","","","","","tol_peg_1","5012","5012","0","[[3,0,0],[0,0],[1]]","1","[[2,1,0],[3,0],[0]]","8","0","","","","","","6","",""
"","","","","","single-stim-button","340","586374","0.0-3.0-34.0-1.0","55595b70fdf99b387ae30d2b","D2","batch4","","1773","","","tol_toboard","","","","","","","","","tol_peg_2","1773","1773","0","[[3,0,0],[2,0],[1]]","1","[[2,1,0],[3,0],[0]]","8","0","","","","","","6","",""
"","","","","","single-stim-button","341","587565","0.0-3.0-34.1-0.1","55595b70fdf99b387ae30d2b","D2","batch4","","1191","","","tol_tohand","","","","","","","","","tol_peg_1","1191","1191","0","[[0,0,0],[2,0],[1]]","2","[[2,1,0],[3,0],[0]]","8","0","","","","","","6","",""
"","","","","","single-stim-button","342","588397","0.0-3.0-34.1-1.1","55595b70fdf99b387ae30d2b","D2","batch4","","832","","","tol_toboard","","","","","","","","","tol_peg_2","832","832","0","[[0,0,0],[2,3],[1]]","2","[[2,1,0],[3,0],[0]]","8","0","","","","","","6","",""
"","","","","","single-stim-button","343","588890","0.0-3.0-34.2-0.2","55595b70fdf99b387ae30d2b","D2","batch4","","493","","","tol_tohand","","","","","","","","","tol_peg_3","493","493","0","[[0,0,0],[2,3],[0]]","3","[[2,1,0],[3,0],[0]]","8","0","","","","","","6","",""
"","","","","","single-stim-button","344","590244","0.0-3.0-34.2-1.2","55595b70fdf99b387ae30d2b","D2","batch4","","1354","","","tol_toboard","","","","","","","","","tol_peg_1","1354","1354","0","[[1,0,0],[2,3],[0]]","3","[[2,1,0],[3,0],[0]]","8","0","","","","","","6","",""
"","","","","","single-stim-button","345","592156","0.0-3.0-34.3-0.3","55595b70fdf99b387ae30d2b","D2","batch4","","1911","","","tol_tohand","","","","","","","","","tol_peg_2","1911","1911","0","[[1,0,0],[2,0],[0]]","4","[[2,1,0],[3,0],[0]]","8","0","","","","","","6","",""
"","","","","","single-stim-button","346","592578","0.0-3.0-34.3-1.3","55595b70fdf99b387ae30d2b","D2","batch4","","421","","","tol_toboard","","","","","","","","","tol_peg_3","421","421","0","[[1,0,0],[2,0],[3]]","4","[[2,1,0],[3,0],[0]]","8","0","","","","","","6","",""
"","","","","","single-stim-button","347","593010","0.0-3.0-34.4-0.4","55595b70fdf99b387ae30d2b","D2","batch4","","432","","","tol_tohand","","","","","","","","","tol_peg_2","432","432","0","[[1,0,0],[0,0],[3]]","5","[[2,1,0],[3,0],[0]]","8","0","","","","","","6","",""
"","","","","","single-stim-button","348","593413","0.0-3.0-34.4-1.4","55595b70fdf99b387ae30d2b","D2","batch4","","402","","","tol_toboard","","","","","","","","","tol_peg_1","402","402","0","[[1,2,0],[0,0],[3]]","5","[[2,1,0],[3,0],[0]]","8","0","","","","","","6","",""
"","","","","","single-stim-button","349","594025","0.0-3.0-34.5-0.5","55595b70fdf99b387ae30d2b","D2","batch4","","611","","","tol_tohand","","","","","","","","","tol_peg_3","611","611","0","[[1,2,0],[0,0],[0]]","6","[[2,1,0],[3,0],[0]]","8","0","","","","","","6","",""
"","","","","","single-stim-button","350","594456","0.0-3.0-34.5-1.5","55595b70fdf99b387ae30d2b","D2","batch4","","431","","","tol_toboard","","","","","","","","","tol_peg_2","431","431","0","[[1,2,0],[3,0],[0]]","6","[[2,1,0],[3,0],[0]]","8","0","","","","","","6","",""
"","","","","","single-stim-button","351","595059","0.0-3.0-34.6-0.6","55595b70fdf99b387ae30d2b","D2","batch4","","601","","","tol_tohand","","","","","","","","","tol_peg_1","601","601","0","[[1,0,0],[3,0],[0]]","7","[[2,1,0],[3,0],[0]]","8","0","","","","","","6","",""
"","","","","","single-stim-button","352","595661","0.0-3.0-34.6-1.6","55595b70fdf99b387ae30d2b","D2","batch4","","601","","","tol_toboard","","","","","","","","","tol_peg_3","601","601","0","[[1,0,0],[3,0],[2]]","7","[[2,1,0],[3,0],[0]]","8","0","","","","","","6","",""
"","","","","","single-stim-button","353","596542","0.0-3.0-34.7-0.7","55595b70fdf99b387ae30d2b","D2","batch4","","881","","","tol_tohand","","","","","","","","","tol_peg_1","881","881","0","[[0,0,0],[3,0],[2]]","8","[[2,1,0],[3,0],[0]]","8","0","","","","","","6","",""
"","","","","","single-stim-button","354","596895","0.0-3.0-34.7-1.7","55595b70fdf99b387ae30d2b","D2","batch4","","352","","","tol_toboard","","","","","","","","","tol_peg_2","352","352","0","[[0,0,0],[3,1],[2]]","8","[[2,1,0],[3,0],[0]]","8","0","","","","","","6","",""
"","","","","","single-stim-button","355","597507","0.0-3.0-34.8-0.8","55595b70fdf99b387ae30d2b","D2","batch4","","612","","","tol_tohand","","","","","","","","","tol_peg_3","612","612","0","[[0,0,0],[3,1],[0]]","9","[[2,1,0],[3,0],[0]]","8","0","","","","","","6","",""
"","","","","","single-stim-button","356","597918","0.0-3.0-34.8-1.8","55595b70fdf99b387ae30d2b","D2","batch4","","411","","","tol_toboard","","","","","","","","","tol_peg_1","411","411","0","[[2,0,0],[3,1],[0]]","9","[[2,1,0],[3,0],[0]]","8","0","","","","","","6","",""
"","","","","","single-stim-button","357","598401","0.0-3.0-34.9-0.9","55595b70fdf99b387ae30d2b","D2","batch4","","481","","","tol_tohand","","","","","","","","","tol_peg_2","481","481","0","[[2,0,0],[3,0],[0]]","10","[[2,1,0],[3,0],[0]]","8","0","","","","","","6","",""
