"success","timeout","failed_images","failed_audio","failed_video","trial_type","trial_index","time_elapsed","internal_node_id","subject_id","study_id","session_id","view_history","rt","stimulus","response","task","correct","answer","item","fiar_detect_rt","fiar_detect_correct","total_correct_fiar_detect","post_trial_gap","choices","spm_correct","spm_rt","mouse_click","stim_duration","block_duration","timing_post_trial","current_position","tol_num_moves_made","tol_target","tol_problem_id","tol_rt","key_press","possible_responses","tol_correct","preplanning","tol_rt_per_trial","tol_min_moves"
"true","false","[]","[]","[]","preload","0","3374","0.0-0.0","5588d7b8fdf99b304dd47e83","D2","batch4","","","","","","","","","","","","","","","","","","","","","","","","","","","","","",""
"true","","","","","fullscreen","1","14832","0.0-1.0-0.0","5588d7b8fdf99b304dd47e83","D2","batch4","","","","","","","","","","","","","","","","","","","","","","","","","","","","","",""
"true","","","","","fullscreen","2","20948","0.0-2.0-0.0","5588d7b8fdf99b304dd47e83","D2","batch4","","","","","","","","","","","","","","","","","","","","","","","","","","","","","",""
"","","","","","instructions","3","40993","0.0-2.0-1.0-0.0","5588d7b8fdf99b304dd47e83","D2","batch4","[{""page_index"":0,""viewing_time"":9448},{""page_index"":1,""viewing_time"":10595.799999952316}]","20044.39999985695","","","","","","","","","","","","","","","","","","","","","","","","","","","",""
"","","","","","html-button-response","4","42604","0.0-2.0-1.0-1.0-0.0","5588d7b8fdf99b304dd47e83","D2","batch4","","1609","<p class=block-text> Let's answer a few questions <br>","0","pattern_enter_quiz","","","","","","","","","","","","","","","","","","","","","","","","",""
"","","","","","html-button-response","5","44653","0.0-2.0-1.0-1.0-1.0","5588d7b8fdf99b304dd47e83","D2","batch4","","2046.7999999523163","<p class = block-text>True or False: You will have as much time as you want to make each choice. <br></p>","1","pattern_quiz","true","","","","","","","","","","","","","","","","","","","","","","","",""
"","","","","","html-button-response","6","45683","0.0-2.0-1.0-1.0-2.0","5588d7b8fdf99b304dd47e83","D2","batch4","","1027.8999998569489","<p class = block-text>Correct! You should make your choice <strong> as fast as you can</strong>.</p>","0","pattern_quiz_feedback","","","","","","","","","","","","","","","","","","","","","","","","",""
"","","","","","html-button-response","7","48007","0.0-2.0-1.0-1.0-3.0","5588d7b8fdf99b304dd47e83","D2","batch4","","2322.5","<p class = block-text>True or False: You will look for 4 pieces in black or white color connected in a row either horizontally, vertically or diagonally. <br></p>","0","pattern_quiz","true","","","","","","","","","","","","","","","","","","","","","","","",""
"","","","","","html-button-response","8","49027","0.0-2.0-1.0-1.0-4.0","5588d7b8fdf99b304dd47e83","D2","batch4","","1018.3999998569489","<p class = block-text>Correct! </p>","0","pattern_quiz_feedback","","","","","","","","","","","","","","","","","","","","","","","","",""
"","","","","","html-button-response","9","49995","0.0-2.0-2.0","5588d7b8fdf99b304dd47e83","D2","batch4","","966.2999999523163","<p class=block-text> Now that you've understood the game, let's do a few practice trials before we start!<br> <br>","0","pattern_enter_practice","","","","","","","","","","","","","","","","","","","","","","","","",""
"","","","","","image-keyboard-response","10","51008","0.0-2.0-3.0-0.0","5588d7b8fdf99b304dd47e83","D2","batch4","","984.5999999046326","stim/prac_yes_18_hor_w1.png","f","pattern_practice","true","f","","","","","","","","","","","","","","","","","","","","","","",""
"","","","","","html-keyboard-response","11","52027","0.0-2.0-3.0-1.0","5588d7b8fdf99b304dd47e83","D2","batch4","","null","<p style=""font-size:30px;color:green;"">Correct!</p>","null","pattern_feedback","","","","","","","","","","","","","","","","","","","","","","","","",""
"","","","","","image-keyboard-response","12","53385","0.0-2.0-3.0-0.1","5588d7b8fdf99b304dd47e83","D2","batch4","","1354.5","stim/prac_no_18_1.png","j","pattern_practice","true","j","","","","","","","","","","","","","","","","","","","","","","",""
"","","","","","html-keyboard-response","13","54402","0.0-2.0-3.0-1.1","5588d7b8fdf99b304dd47e83","D2","batch4","","null","<p style=""font-size:30px;color:green;"">Correct!</p>","null","pattern_feedback","","","","","","","","","","","","","","","","","","","","","","","","",""
"","","","","","image-keyboard-response","14","55152","0.0-2.0-3.0-0.2","5588d7b8fdf99b304dd47e83","D2","batch4","","746.1000001430511","stim/prac_yes_16_ver_w1.png","f","pattern_practice","true","f","","","","","","","","","","","","","","","","","","","","","","",""
"","","","","","html-keyboard-response","15","56170","0.0-2.0-3.0-1.2","5588d7b8fdf99b304dd47e83","D2","batch4","","null","<p style=""font-size:30px;color:green;"">Correct!</p>","null","pattern_feedback","","","","","","","","","","","","","","","","","","","","","","","","",""
"","","","","","image-keyboard-response","16","57447","0.0-2.0-3.0-0.3","5588d7b8fdf99b304dd47e83","D2","batch4","","1273.7999999523163","stim/prac_yes_20_dia_b1.png","f","pattern_practice","true","f","","","","","","","","","","","","","","","","","","","","","","",""
"","","","","","html-keyboard-response","17","58466","0.0-2.0-3.0-1.3","5588d7b8fdf99b304dd47e83","D2","batch4","","null","<p style=""font-size:30px;color:green;"">Correct!</p>","null","pattern_feedback","","","","","","","","","","","","","","","","","","","","","","","","",""
"","","","","","image-keyboard-response","18","60216","0.0-2.0-3.0-0.4","5588d7b8fdf99b304dd47e83","D2","batch4","","1746.9000000953674","stim/prac_no_16_1.png","j","pattern_practice","true","j","","","","","","","","","","","","","","","","","","","","","","",""
"","","","","","html-keyboard-response","19","61234","0.0-2.0-3.0-1.4","5588d7b8fdf99b304dd47e83","D2","batch4","","null","<p style=""font-size:30px;color:green;"">Correct!</p>","null","pattern_feedback","","","","","","","","","","","","","","","","","","","","","","","","",""
"","","","","","html-button-response","20","64218","0.0-2.0-4.0","5588d7b8fdf99b304dd47e83","D2","batch4","","2981.7000000476837","<p class=block-text> Good job! You are done with practice trials!<br>
        You responded correctly on 100% of the trials.<br>
        Press the button below to start official trials. Now you won't see any feedback about your response</p>","0","pattern_enter_official_trials","","","","","","","","","","","","","","","","","","","","","","","","",""
"","","","","","html-keyboard-response","21","65026","0.0-2.0-5.0-0.0","5588d7b8fdf99b304dd47e83","D2","batch4","","null","<p class=block-text>Trial 1 out of 78</p>","null","pattern_show_trial_num","","","","","","","","","","","","","","","","","","","","","","","","",""
"","","","","","image-keyboard-response","22","66192","0.0-2.0-5.0-1.0","5588d7b8fdf99b304dd47e83","D2","batch4","","1161.9000000953674","stim/yes_17_ver_b1_b.png","f","pattern_response","true","f","pattern_46","1161.9000000953674","true","1","","","","","","","","","","","","","","","","","","",""
"","","","","","html-keyboard-response","23","67504","0.0-2.0-5.0-0.1","5588d7b8fdf99b304dd47e83","D2","batch4","","null","<p class=block-text>Trial 2 out of 78</p>","null","pattern_show_trial_num","","","","","","","","","","","","","","","","","","","","","","","","",""
"","","","","","image-keyboard-response","24","68695","0.0-2.0-5.0-1.1","5588d7b8fdf99b304dd47e83","D2","batch4","","1187.7000000476837","stim/yes_29_hor_b1_b.png","f","pattern_response","true","f","pattern_52","1187.7000000476837","true","2","","","","","","","","","","","","","","","","","","",""
"","","","","","html-keyboard-response","25","70010","0.0-2.0-5.0-0.2","5588d7b8fdf99b304dd47e83","D2","batch4","","null","<p class=block-text>Trial 3 out of 78</p>","null","pattern_show_trial_num","","","","","","","","","","","","","","","","","","","","","","","","",""
"","","","","","image-keyboard-response","26","71071","0.0-2.0-5.0-1.2","5588d7b8fdf99b304dd47e83","D2","batch4","","1058","stim/yes_30_ver_b1_b.png","f","pattern_response","true","f","pattern_54","1058","true","3","","","","","","","","","","","","","","","","","","",""
"","","","","","html-keyboard-response","27","72384","0.0-2.0-5.0-0.3","5588d7b8fdf99b304dd47e83","D2","batch4","","null","<p class=block-text>Trial 4 out of 78</p>","null","pattern_show_trial_num","","","","","","","","","","","","","","","","","","","","","","","","",""
"","","","","","image-keyboard-response","28","74359","0.0-2.0-5.0-1.3","5588d7b8fdf99b304dd47e83","D2","batch4","","1971","stim/no_30_1_b.png","j","pattern_response","true","j","pattern_13","1971","true","4","","","","","","","","","","","","","","","","","","",""
"","","","","","html-keyboard-response","29","75674","0.0-2.0-5.0-0.4","5588d7b8fdf99b304dd47e83","D2","batch4","","null","<p class=block-text>Trial 5 out of 78</p>","null","pattern_show_trial_num","","","","","","","","","","","","","","","","","","","","","","","","",""
"","","","","","image-keyboard-response","30","76815","0.0-2.0-5.0-1.4","5588d7b8fdf99b304dd47e83","D2","batch4","","1138.1000001430511","stim/yes_26_dia_w2_w.png","j","pattern_response","false","f","pattern_50","1138.1000001430511","false","4","","","","","","","","","","","","","","","","","","",""
"","","","","","html-keyboard-response","31","78126","0.0-2.0-5.0-0.5","5588d7b8fdf99b304dd47e83","D2","batch4","","null","<p class=block-text>Trial 6 out of 78</p>","null","pattern_show_trial_num","","","","","","","","","","","","","","","","","","","","","","","","",""
"","","","","","image-keyboard-response","32","79007","0.0-2.0-5.0-1.5","5588d7b8fdf99b304dd47e83","D2","batch4","","876.8999998569489","stim/yes_49_hor_w1_b.png","f","pattern_response","true","f","pattern_70","876.8999998569489","true","5","","","","","","","","","","","","","","","","","","",""
"","","","","","html-keyboard-response","33","80321","0.0-2.0-5.0-0.6","5588d7b8fdf99b304dd47e83","D2","batch4","","null","<p class=block-text>Trial 7 out of 78</p>","null","pattern_show_trial_num","","","","","","","","","","","","","","","","","","","","","","","","",""
"","","","","","image-keyboard-response","34","82327","0.0-2.0-5.0-1.6","5588d7b8fdf99b304dd47e83","D2","batch4","","2002.5","stim/no_36_1_b.png","j","pattern_response","true","j","pattern_17","2002.5","true","6","","","","","","","","","","","","","","","","","","",""
"","","","","","html-keyboard-response","35","83637","0.0-2.0-5.0-0.7","5588d7b8fdf99b304dd47e83","D2","batch4","","null","<p class=block-text>Trial 8 out of 78</p>","null","pattern_show_trial_num","","","","","","","","","","","","","","","","","","","","","","","","",""
"","","","","","image-keyboard-response","36","85901","0.0-2.0-5.0-1.7","5588d7b8fdf99b304dd47e83","D2","batch4","","2260.4000000953674","stim/no_53_1_b.png","j","pattern_response","true","j","pattern_33","2260.4000000953674","true","7","","","","","","","","","","","","","","","","","","",""
"","","","","","html-keyboard-response","37","87217","0.0-2.0-5.0-0.8","5588d7b8fdf99b304dd47e83","D2","batch4","","null","<p class=block-text>Trial 9 out of 78</p>","null","pattern_show_trial_num","","","","","","","","","","","","","","","","","","","","","","","","",""
"","","","","","image-keyboard-response","38","89919","0.0-2.0-5.0-1.8","5588d7b8fdf99b304dd47e83","D2","batch4","","2698.2999999523163","stim/yes_58_dia_w1_w.png","j","pattern_response","false","f","pattern_76","2698.2999999523163","false","7","","","","","","","","","","","","","","","","","","",""
"","","","","","html-keyboard-response","39","91228","0.0-2.0-5.0-0.9","5588d7b8fdf99b304dd47e83","D2","batch4","","null","<p class=block-text>Trial 10 out of 78</p>","null","pattern_show_trial_num","","","","","","","","","","","","","","","","","","","","","","","","",""
"","","","","","image-keyboard-response","40","92744","0.0-2.0-5.0-1.9","5588d7b8fdf99b304dd47e83","D2","batch4","","1487.6000001430511","stim/no_33_1_b.png","j","pattern_response","true","j","pattern_15","1487.6000001430511","true","8","","","","","","","","","","","","","","","","","","",""
"","","","","","html-keyboard-response","41","94064","0.0-2.0-5.0-0.10","5588d7b8fdf99b304dd47e83","D2","batch4","","null","<p class=block-text>Trial 11 out of 78</p>","null","pattern_show_trial_num","","","","","","","","","","","","","","","","","","","","","","","","",""
"","","","","","image-keyboard-response","42","97155","0.0-2.0-5.0-1.10","5588d7b8fdf99b304dd47e83","D2","batch4","","3086","stim/yes_46_ver_b1_b.png","j","pattern_response","false","f","pattern_68","3086","false","8","","","","","","","","","","","","","","","","","","",""
"","","","","","html-keyboard-response","43","98472","0.0-2.0-5.0-0.11","5588d7b8fdf99b304dd47e83","D2","batch4","","null","<p class=block-text>Trial 12 out of 78</p>","null","pattern_show_trial_num","","","","","","","","","","","","","","","","","","","","","","","","",""
"","","","","","image-keyboard-response","44","100099","0.0-2.0-5.0-1.11","5588d7b8fdf99b304dd47e83","D2","batch4","","1622.2000000476837","stim/yes_37_hor_w1_w.png","f","pattern_response","true","f","pattern_60","1622.2000000476837","true","9","","","","","","","","","","","","","","","","","","",""
"","","","","","html-keyboard-response","45","101416","0.0-2.0-5.0-0.12","5588d7b8fdf99b304dd47e83","D2","batch4","","null","<p class=block-text>Trial 13 out of 78</p>","null","pattern_show_trial_num","","","","","","","","","","","","","","","","","","","","","","","","",""
"","","","","","image-keyboard-response","46","106109","0.0-2.0-5.0-1.12","5588d7b8fdf99b304dd47e83","D2","batch4","","4688.900000095367","stim/no_58_1_w.png","j","pattern_response","true","j","pattern_35","4688.900000095367","true","10","","","","","","","","","","","","","","","","","","",""
"","","","","","html-keyboard-response","47","107424","0.0-2.0-5.0-0.13","5588d7b8fdf99b304dd47e83","D2","batch4","","null","<p class=block-text>Trial 14 out of 78</p>","null","pattern_show_trial_num","","","","","","","","","","","","","","","","","","","","","","","","",""
"","","","","","image-keyboard-response","48","109541","0.0-2.0-5.0-1.13","5588d7b8fdf99b304dd47e83","D2","batch4","","2113.100000143051","stim/yes_42_dia_w1_w.png","j","pattern_response","false","f","pattern_64","2113.100000143051","false","10","","","","","","","","","","","","","","","","","","",""
"","","","","","html-keyboard-response","49","110856","0.0-2.0-5.0-0.14","5588d7b8fdf99b304dd47e83","D2","batch4","","null","<p class=block-text>Trial 15 out of 78</p>","null","pattern_show_trial_num","","","","","","","","","","","","","","","","","","","","","","","","",""
"","","","","","image-keyboard-response","50","112348","0.0-2.0-5.0-1.14","5588d7b8fdf99b304dd47e83","D2","batch4","","1488.7999999523163","stim/yes_39_hor_w1_w.png","f","pattern_response","true","f","pattern_62","1488.7999999523163","true","11","","","","","","","","","","","","","","","","","","",""
"","","","","","html-keyboard-response","51","113663","0.0-2.0-5.0-0.15","5588d7b8fdf99b304dd47e83","D2","batch4","","null","<p class=block-text>Trial 16 out of 78</p>","null","pattern_show_trial_num","","","","","","","","","","","","","","","","","","","","","","","","",""
"","","","","","image-keyboard-response","52","117079","0.0-2.0-5.0-1.15","5588d7b8fdf99b304dd47e83","D2","batch4","","3412.9000000953674","stim/no_67_1.png","j","pattern_response","true","j","pattern_39","3412.9000000953674","true","12","","","","","","","","","","","","","","","","","","",""
"","","","","","html-keyboard-response","53","118399","0.0-2.0-5.0-0.16","5588d7b8fdf99b304dd47e83","D2","batch4","","null","<p class=block-text>Trial 17 out of 78</p>","null","pattern_show_trial_num","","","","","","","","","","","","","","","","","","","","","","","","",""
"","","","","","image-keyboard-response","54","119632","0.0-2.0-5.0-1.16","5588d7b8fdf99b304dd47e83","D2","batch4","","1228.5","stim/yes_15_dia_b1u_b.png","f","pattern_response","true","f","pattern_44","1228.5","true","13","","","","","","","","","","","","","","","","","","",""
"","","","","","html-keyboard-response","55","120951","0.0-2.0-5.0-0.17","5588d7b8fdf99b304dd47e83","D2","batch4","","null","<p class=block-text>Trial 18 out of 78</p>","null","pattern_show_trial_num","","","","","","","","","","","","","","","","","","","","","","","","",""
"","","","","","image-keyboard-response","56","122031","0.0-2.0-5.0-1.17","5588d7b8fdf99b304dd47e83","D2","batch4","","1076.7999999523163","stim/yes_33_dia_w1_w.png","j","pattern_response","false","f","pattern_56","1076.7999999523163","false","13","","","","","","","","","","","","","","","","","","",""
"","","","","","html-keyboard-response","57","123351","0.0-2.0-5.0-0.18","5588d7b8fdf99b304dd47e83","D2","batch4","","null","<p class=block-text>Trial 19 out of 78</p>","null","pattern_show_trial_num","","","","","","","","","","","","","","","","","","","","","","","","",""
"","","","","","image-keyboard-response","58","124952","0.0-2.0-5.0-1.18","5588d7b8fdf99b304dd47e83","D2","batch4","","1599","stim/no_18_1_b.png","j","pattern_response","true","j","pattern_05","1599","true","14","","","","","","","","","","","","","","","","","","",""
"","","","","","html-keyboard-response","59","126271","0.0-2.0-5.0-0.19","5588d7b8fdf99b304dd47e83","D2","batch4","","null","<p class=block-text>Trial 20 out of 78</p>","null","pattern_show_trial_num","","","","","","","","","","","","","","","","","","","","","","","","",""
"","","","","","image-keyboard-response","60","127823","0.0-2.0-5.0-1.19","5588d7b8fdf99b304dd47e83","D2","batch4","","1548.2999999523163","stim/no_15_1_w.png","j","pattern_response","true","j","pattern_03","1548.2999999523163","true","15","","","","","","","","","","","","","","","","","","",""
"","","","","","html-keyboard-response","61","129143","0.0-2.0-5.0-0.20","5588d7b8fdf99b304dd47e83","D2","batch4","","null","<p class=block-text>Trial 21 out of 78</p>","null","pattern_show_trial_num","","","","","","","","","","","","","","","","","","","","","","","","",""
"","","","","","image-keyboard-response","62","131850","0.0-2.0-5.0-1.20","5588d7b8fdf99b304dd47e83","D2","batch4","","2703.9000000953674","stim/no_51_1.png","j","pattern_response","true","j","pattern_31","2703.9000000953674","true","16","","","","","","","","","","","","","","","","","","",""
"","","","","","html-keyboard-response","63","133167","0.0-2.0-5.0-0.21","5588d7b8fdf99b304dd47e83","D2","batch4","","null","<p class=block-text>Trial 22 out of 78</p>","null","pattern_show_trial_num","","","","","","","","","","","","","","","","","","","","","","","","",""
"","","","","","image-keyboard-response","64","134673","0.0-2.0-5.0-1.21","5588d7b8fdf99b304dd47e83","D2","batch4","","1502.8999998569489","stim/no_22_1_b.png","j","pattern_response","true","j","pattern_07","1502.8999998569489","true","17","","","","","","","","","","","","","","","","","","",""
"","","","","","html-keyboard-response","65","135991","0.0-2.0-5.0-0.22","5588d7b8fdf99b304dd47e83","D2","batch4","","null","<p class=block-text>Trial 23 out of 78</p>","null","pattern_show_trial_num","","","","","","","","","","","","","","","","","","","","","","","","",""
"","","","","","image-keyboard-response","66","136889","0.0-2.0-5.0-1.22","5588d7b8fdf99b304dd47e83","D2","batch4","","895.5999999046326","stim/no_12_1.png","j","pattern_response","true","j","pattern_01","895.5999999046326","true","18","","","","","","","","","","","","","","","","","","",""
"","","","","","html-keyboard-response","67","138206","0.0-2.0-5.0-0.23","5588d7b8fdf99b304dd47e83","D2","batch4","","null","<p class=block-text>Trial 24 out of 78</p>","null","pattern_show_trial_num","","","","","","","","","","","","","","","","","","","","","","","","",""
"","","","","","image-keyboard-response","68","139513","0.0-2.0-5.0-1.23","5588d7b8fdf99b304dd47e83","D2","batch4","","1302.5","stim/yes_36_ver_w1_w.png","f","pattern_response","true","f","pattern_58","1302.5","true","19","","","","","","","","","","","","","","","","","","",""
"","","","","","html-keyboard-response","69","140826","0.0-2.0-5.0-0.24","5588d7b8fdf99b304dd47e83","D2","batch4","","null","<p class=block-text>Trial 25 out of 78</p>","null","pattern_show_trial_num","","","","","","","","","","","","","","","","","","","","","","","","",""
"","","","","","image-keyboard-response","70","142201","0.0-2.0-5.0-1.24","5588d7b8fdf99b304dd47e83","D2","batch4","","1372.2000000476837","stim/no_25_1_b.png","j","pattern_response","true","j","pattern_09","1372.2000000476837","true","20","","","","","","","","","","","","","","","","","","",""
"","","","","","html-keyboard-response","71","143518","0.0-2.0-5.0-0.25","5588d7b8fdf99b304dd47e83","D2","batch4","","null","<p class=block-text>Trial 26 out of 78</p>","null","pattern_show_trial_num","","","","","","","","","","","","","","","","","","","","","","","","",""
"","","","","","image-keyboard-response","72","144225","0.0-2.0-5.0-1.25","5588d7b8fdf99b304dd47e83","D2","batch4","","703.5","stim/yes_12_hor_w1_w.png","f","pattern_response","true","f","pattern_42","703.5","true","21","","","","","","","","","","","","","","","","","","",""
"","","","","","html-keyboard-response","73","145541","0.0-2.0-5.0-0.26","5588d7b8fdf99b304dd47e83","D2","batch4","","null","<p class=block-text>Trial 27 out of 78</p>","null","pattern_show_trial_num","","","","","","","","","","","","","","","","","","","","","","","","",""
"","","","","","image-keyboard-response","74","146497","0.0-2.0-5.0-1.26","5588d7b8fdf99b304dd47e83","D2","batch4","","952.3999998569489","stim/yes_44_ver_w1_w.png","f","pattern_response","true","f","pattern_66","952.3999998569489","true","22","","","","","","","","","","","","","","","","","","",""
"","","","","","html-keyboard-response","75","147810","0.0-2.0-5.0-0.27","5588d7b8fdf99b304dd47e83","D2","batch4","","null","<p class=block-text>Trial 28 out of 78</p>","null","pattern_show_trial_num","","","","","","","","","","","","","","","","","","","","","","","","",""
"","","","","","image-keyboard-response","76","150747","0.0-2.0-5.0-1.27","5588d7b8fdf99b304dd47e83","D2","batch4","","2935.0999999046326","stim/no_45_1_w.png","j","pattern_response","true","j","pattern_25","2935.0999999046326","true","23","","","","","","","","","","","","","","","","","","",""
"","","","","","html-keyboard-response","77","152057","0.0-2.0-5.0-0.28","5588d7b8fdf99b304dd47e83","D2","batch4","","null","<p class=block-text>Trial 29 out of 78</p>","null","pattern_show_trial_num","","","","","","","","","","","","","","","","","","","","","","","","",""
"","","","","","image-keyboard-response","78","154927","0.0-2.0-5.0-1.28","5588d7b8fdf99b304dd47e83","D2","batch4","","2866.5999999046326","stim/yes_63_dia_b1.png","j","pattern_response","false","f","pattern_78","2866.5999999046326","false","23","","","","","","","","","","","","","","","","","","",""
"","","","","","html-keyboard-response","79","156242","0.0-2.0-5.0-0.29","5588d7b8fdf99b304dd47e83","D2","batch4","","null","<p class=block-text>Trial 30 out of 78</p>","null","pattern_show_trial_num","","","","","","","","","","","","","","","","","","","","","","","","",""
"","","","","","image-keyboard-response","80","158889","0.0-2.0-5.0-1.29","5588d7b8fdf99b304dd47e83","D2","batch4","","2643.4000000953674","stim/no_47_1_b.png","j","pattern_response","true","j","pattern_27","2643.4000000953674","true","24","","","","","","","","","","","","","","","","","","",""
"","","","","","html-keyboard-response","81","160205","0.0-2.0-5.0-0.30","5588d7b8fdf99b304dd47e83","D2","batch4","","null","<p class=block-text>Trial 31 out of 78</p>","null","pattern_show_trial_num","","","","","","","","","","","","","","","","","","","","","","","","",""
"","","","","","image-keyboard-response","82","162874","0.0-2.0-5.0-1.30","5588d7b8fdf99b304dd47e83","D2","batch4","","2666","stim/no_43_2_b.png","j","pattern_response","true","j","pattern_23","2666","true","25","","","","","","","","","","","","","","","","","","",""
"","","","","","html-keyboard-response","83","164187","0.0-2.0-5.0-0.31","5588d7b8fdf99b304dd47e83","D2","batch4","","null","<p class=block-text>Trial 32 out of 78</p>","null","pattern_show_trial_num","","","","","","","","","","","","","","","","","","","","","","","","",""
"","","","","","image-keyboard-response","84","166834","0.0-2.0-5.0-1.31","5588d7b8fdf99b304dd47e83","D2","batch4","","2643.899999856949","stim/no_39_1_w.png","j","pattern_response","true","j","pattern_21","2643.899999856949","true","26","","","","","","","","","","","","","","","","","","",""
"","","","","","html-keyboard-response","85","168149","0.0-2.0-5.0-0.32","5588d7b8fdf99b304dd47e83","D2","batch4","","null","<p class=block-text>Trial 33 out of 78</p>","null","pattern_show_trial_num","","","","","","","","","","","","","","","","","","","","","","","","",""
"","","","","","image-keyboard-response","86","171289","0.0-2.0-5.0-1.32","5588d7b8fdf99b304dd47e83","D2","batch4","","3136.7000000476837","stim/yes_51_dia_b1.png","f","pattern_response","true","f","pattern_72","3136.7000000476837","true","27","","","","","","","","","","","","","","","","","","",""
"","","","","","html-keyboard-response","87","172605","0.0-2.0-5.0-0.33","5588d7b8fdf99b304dd47e83","D2","batch4","","null","<p class=block-text>Trial 34 out of 78</p>","null","pattern_show_trial_num","","","","","","","","","","","","","","","","","","","","","","","","",""
"","","","","","image-keyboard-response","88","175131","0.0-2.0-5.0-1.33","5588d7b8fdf99b304dd47e83","D2","batch4","","2522.2999999523163","stim/no_37_2_w.png","j","pattern_response","true","j","pattern_19","2522.2999999523163","true","28","","","","","","","","","","","","","","","","","","",""
"","","","","","html-keyboard-response","89","176445","0.0-2.0-5.0-0.34","5588d7b8fdf99b304dd47e83","D2","batch4","","null","<p class=block-text>Trial 35 out of 78</p>","null","pattern_show_trial_num","","","","","","","","","","","","","","","","","","","","","","","","",""
"","","","","","image-keyboard-response","90","177435","0.0-2.0-5.0-1.34","5588d7b8fdf99b304dd47e83","D2","batch4","","986.7999999523163","stim/yes_23_ver_b1.png","f","pattern_response","true","f","pattern_48","986.7999999523163","true","29","","","","","","","","","","","","","","","","","","",""
"","","","","","html-keyboard-response","91","178757","0.0-2.0-5.0-0.35","5588d7b8fdf99b304dd47e83","D2","batch4","","null","<p class=block-text>Trial 36 out of 78</p>","null","pattern_show_trial_num","","","","","","","","","","","","","","","","","","","","","","","","",""
"","","","","","image-keyboard-response","92","180363","0.0-2.0-5.0-1.35","5588d7b8fdf99b304dd47e83","D2","batch4","","1603.5","stim/no_28_2.png","j","pattern_response","true","j","pattern_11","1603.5","true","30","","","","","","","","","","","","","","","","","","",""
"","","","","","html-keyboard-response","93","181682","0.0-2.0-5.0-0.36","5588d7b8fdf99b304dd47e83","D2","batch4","","null","<p class=block-text>Trial 37 out of 78</p>","null","pattern_show_trial_num","","","","","","","","","","","","","","","","","","","","","","","","",""
"","","","","","image-keyboard-response","94","184222","0.0-2.0-5.0-1.36","5588d7b8fdf99b304dd47e83","D2","batch4","","2537.399999856949","stim/no_49_2_b.png","j","pattern_response","true","j","pattern_29","2537.399999856949","true","31","","","","","","","","","","","","","","","","","","",""
"","","","","","html-keyboard-response","95","185539","0.0-2.0-5.0-0.37","5588d7b8fdf99b304dd47e83","D2","batch4","","null","<p class=block-text>Trial 38 out of 78</p>","null","pattern_show_trial_num","","","","","","","","","","","","","","","","","","","","","","","","",""
"","","","","","image-keyboard-response","96","188854","0.0-2.0-5.0-1.37","5588d7b8fdf99b304dd47e83","D2","batch4","","3311.5999999046326","stim/yes_70_ver_b1.png","j","pattern_response","false","f","pattern_80","3311.5999999046326","false","31","","","","","","","","","","","","","","","","","","",""
"","","","","","html-keyboard-response","97","190168","0.0-2.0-5.0-0.38","5588d7b8fdf99b304dd47e83","D2","batch4","","null","<p class=block-text>Trial 39 out of 78</p>","null","pattern_show_trial_num","","","","","","","","","","","","","","","","","","","","","","","","",""
"","","","","","image-keyboard-response","98","192708","0.0-2.0-5.0-1.38","5588d7b8fdf99b304dd47e83","D2","batch4","","2536.100000143051","stim/yes_53_ver_b1_b.png","f","pattern_response","true","f","pattern_74","2536.100000143051","true","32","","","","","","","","","","","","","","","","","","",""
"","","","","","image-keyboard-response","99","195300","0.0-2.0-6.0","5588d7b8fdf99b304dd47e83","D2","batch4","","2081.9000000953674","stim/empty_board.png","j","attention_check","true","j","","","","","500","[""f"",""j""]","","","","","","","","","","","","","","","","",""
"","","","","","html-keyboard-response","100","196108","0.0-2.0-7.0-0.0","5588d7b8fdf99b304dd47e83","D2","batch4","","null","<p class=block-text>Trial 40 out of 78</p>","null","pattern_show_trial_num","","","","","","","","","","","","","","","","","","","","","","","","",""
"","","","","","image-keyboard-response","101","199194","0.0-2.0-7.0-1.0","5588d7b8fdf99b304dd47e83","D2","batch4","","3082","stim/yes_67_hor_b1.png","f","pattern_response","true","f","pattern_79","3082","true","33","","","","","","","","","","","","","","","","","","",""
"","","","","","html-keyboard-response","102","200508","0.0-2.0-7.0-0.1","5588d7b8fdf99b304dd47e83","D2","batch4","","null","<p class=block-text>Trial 41 out of 78</p>","null","pattern_show_trial_num","","","","","","","","","","","","","","","","","","","","","","","","",""
"","","","","","image-keyboard-response","103","202098","0.0-2.0-7.0-1.1","5588d7b8fdf99b304dd47e83","D2","batch4","","1586.2999999523163","stim/yes_29_ver_w1.png","f","pattern_response","true","f","pattern_53","1586.2999999523163","true","34","","","","","","","","","","","","","","","","","","",""
"","","","","","html-keyboard-response","104","203411","0.0-2.0-7.0-0.2","5588d7b8fdf99b304dd47e83","D2","batch4","","null","<p class=block-text>Trial 42 out of 78</p>","null","pattern_show_trial_num","","","","","","","","","","","","","","","","","","","","","","","","",""
"","","","","","image-keyboard-response","105","205249","0.0-2.0-7.0-1.2","5588d7b8fdf99b304dd47e83","D2","batch4","","1834.8000001907349","stim/yes_55_hor_w1_w.png","f","pattern_response","true","f","pattern_75","1834.8000001907349","true","35","","","","","","","","","","","","","","","","","","",""
"","","","","","html-keyboard-response","106","206563","0.0-2.0-7.0-0.3","5588d7b8fdf99b304dd47e83","D2","batch4","","null","<p class=block-text>Trial 43 out of 78</p>","null","pattern_show_trial_num","","","","","","","","","","","","","","","","","","","","","","","","",""
"","","","","","image-keyboard-response","107","209050","0.0-2.0-7.0-1.3","5588d7b8fdf99b304dd47e83","D2","batch4","","2482.5999999046326","stim/no_42_1_w.png","j","pattern_response","true","j","pattern_22","2482.5999999046326","true","36","","","","","","","","","","","","","","","","","","",""
"","","","","","html-keyboard-response","108","210371","0.0-2.0-7.0-0.4","5588d7b8fdf99b304dd47e83","D2","batch4","","null","<p class=block-text>Trial 44 out of 78</p>","null","pattern_show_trial_num","","","","","","","","","","","","","","","","","","","","","","","","",""
"","","","","","image-keyboard-response","109","213148","0.0-2.0-7.0-1.4","5588d7b8fdf99b304dd47e83","D2","batch4","","2772.899999856949","stim/yes_48_dia_w1_w.png","j","pattern_response","false","f","pattern_69","2772.899999856949","false","36","","","","","","","","","","","","","","","","","","",""
"","","","","","html-keyboard-response","110","214467","0.0-2.0-7.0-0.5","5588d7b8fdf99b304dd47e83","D2","batch4","","null","<p class=block-text>Trial 45 out of 78</p>","null","pattern_show_trial_num","","","","","","","","","","","","","","","","","","","","","","","","",""
"","","","","","image-keyboard-response","111","216052","0.0-2.0-7.0-1.5","5588d7b8fdf99b304dd47e83","D2","batch4","","1581.0999999046326","stim/yes_17_dia_w1.png","f","pattern_response","true","f","pattern_45","1581.0999999046326","true","37","","","","","","","","","","","","","","","","","","",""
"","","","","","html-keyboard-response","112","217371","0.0-2.0-7.0-0.6","5588d7b8fdf99b304dd47e83","D2","batch4","","null","<p class=block-text>Trial 46 out of 78</p>","null","pattern_show_trial_num","","","","","","","","","","","","","","","","","","","","","","","","",""
"","","","","","image-keyboard-response","113","218452","0.0-2.0-7.0-1.6","5588d7b8fdf99b304dd47e83","D2","batch4","","1077.6000001430511","stim/no_23_1.png","j","pattern_response","true","j","pattern_08","1077.6000001430511","true","38","","","","","","","","","","","","","","","","","","",""
"","","","","","html-keyboard-response","114","219771","0.0-2.0-7.0-0.7","5588d7b8fdf99b304dd47e83","D2","batch4","","null","<p class=block-text>Trial 47 out of 78</p>","null","pattern_show_trial_num","","","","","","","","","","","","","","","","","","","","","","","","",""
"","","","","","image-keyboard-response","115","221004","0.0-2.0-7.0-1.7","5588d7b8fdf99b304dd47e83","D2","batch4","","1229.7000000476837","stim/no_17_1_w.png","j","pattern_response","true","j","pattern_04","1229.7000000476837","true","39","","","","","","","","","","","","","","","","","","",""
"","","","","","html-keyboard-response","116","222320","0.0-2.0-7.0-0.8","5588d7b8fdf99b304dd47e83","D2","batch4","","null","<p class=block-text>Trial 48 out of 78</p>","null","pattern_show_trial_num","","","","","","","","","","","","","","","","","","","","","","","","",""
"","","","","","image-keyboard-response","117","225040","0.0-2.0-7.0-1.8","5588d7b8fdf99b304dd47e83","D2","batch4","","2717.2000000476837","stim/no_38_1_b.png","j","pattern_response","true","j","pattern_20","2717.2000000476837","true","40","","","","","","","","","","","","","","","","","","",""
"","","","","","html-keyboard-response","118","226354","0.0-2.0-7.0-0.9","5588d7b8fdf99b304dd47e83","D2","batch4","","null","<p class=block-text>Trial 49 out of 78</p>","null","pattern_show_trial_num","","","","","","","","","","","","","","","","","","","","","","","","",""
"","","","","","image-keyboard-response","119","228047","0.0-2.0-7.0-1.9","5588d7b8fdf99b304dd47e83","D2","batch4","","1689","stim/yes_25_hor_b1_b.png","f","pattern_response","true","f","pattern_49","1689","true","41","","","","","","","","","","","","","","","","","","",""
"","","","","","html-keyboard-response","120","229362","0.0-2.0-7.0-0.10","5588d7b8fdf99b304dd47e83","D2","batch4","","null","<p class=block-text>Trial 50 out of 78</p>","null","pattern_show_trial_num","","","","","","","","","","","","","","","","","","","","","","","","",""
"","","","","","image-keyboard-response","121","231191","0.0-2.0-7.0-1.10","5588d7b8fdf99b304dd47e83","D2","batch4","","1824.8999998569489","stim/no_34_1_b.png","j","pattern_response","true","j","pattern_16","1824.8999998569489","true","42","","","","","","","","","","","","","","","","","","",""
"","","","","","html-keyboard-response","122","232503","0.0-2.0-7.0-0.11","5588d7b8fdf99b304dd47e83","D2","batch4","","null","<p class=block-text>Trial 51 out of 78</p>","null","pattern_show_trial_num","","","","","","","","","","","","","","","","","","","","","","","","",""
"","","","","","image-keyboard-response","123","234127","0.0-2.0-7.0-1.11","5588d7b8fdf99b304dd47e83","D2","batch4","","1620.7000000476837","stim/yes_60_ver_b1_b.png","f","pattern_response","true","f","pattern_77","1620.7000000476837","true","43","","","","","","","","","","","","","","","","","","",""
"","","","","","html-keyboard-response","124","235442","0.0-2.0-7.0-0.12","5588d7b8fdf99b304dd47e83","D2","batch4","","null","<p class=block-text>Trial 52 out of 78</p>","null","pattern_show_trial_num","","","","","","","","","","","","","","","","","","","","","","","","",""
"","","","","","image-keyboard-response","125","238538","0.0-2.0-7.0-1.12","5588d7b8fdf99b304dd47e83","D2","batch4","","3093","stim/yes_50_dia_w1.png","j","pattern_response","false","f","pattern_71","3093","false","43","","","","","","","","","","","","","","","","","","",""
"","","","","","html-keyboard-response","126","239883","0.0-2.0-7.0-0.13","5588d7b8fdf99b304dd47e83","D2","batch4","","null","<p class=block-text>Trial 53 out of 78</p>","null","pattern_show_trial_num","","","","","","","","","","","","","","","","","","","","","","","","",""
"","","","","","image-keyboard-response","127","241795","0.0-2.0-7.0-1.13","5588d7b8fdf99b304dd47e83","D2","batch4","","1907.3999998569489","stim/yes_37_dia_w1.png","j","pattern_response","false","f","pattern_59","1907.3999998569489","false","43","","","","","","","","","","","","","","","","","","",""
"","","","","","html-keyboard-response","128","243109","0.0-2.0-7.0-0.14","5588d7b8fdf99b304dd47e83","D2","batch4","","null","<p class=block-text>Trial 54 out of 78</p>","null","pattern_show_trial_num","","","","","","","","","","","","","","","","","","","","","","","","",""
"","","","","","image-keyboard-response","129","245107","0.0-2.0-7.0-1.14","5588d7b8fdf99b304dd47e83","D2","batch4","","1994","stim/no_29_1_b.png","j","pattern_response","true","j","pattern_12","1994","true","44","","","","","","","","","","","","","","","","","","",""
"","","","","","html-keyboard-response","130","246425","0.0-2.0-7.0-0.15","5588d7b8fdf99b304dd47e83","D2","batch4","","null","<p class=block-text>Trial 55 out of 78</p>","null","pattern_show_trial_num","","","","","","","","","","","","","","","","","","","","","","","","",""
"","","","","","image-keyboard-response","131","248010","0.0-2.0-7.0-1.15","5588d7b8fdf99b304dd47e83","D2","batch4","","1581.5","stim/no_32_1_w.png","j","pattern_response","true","j","pattern_14","1581.5","true","45","","","","","","","","","","","","","","","","","","",""
"","","","","","html-keyboard-response","132","249326","0.0-2.0-7.0-0.16","5588d7b8fdf99b304dd47e83","D2","batch4","","null","<p class=block-text>Trial 56 out of 78</p>","null","pattern_show_trial_num","","","","","","","","","","","","","","","","","","","","","","","","",""
"","","","","","image-keyboard-response","133","250491","0.0-2.0-7.0-1.16","5588d7b8fdf99b304dd47e83","D2","batch4","","1160.7000000476837","stim/yes_43_ver_w1_w.png","f","pattern_response","true","f","pattern_65","1160.7000000476837","true","46","","","","","","","","","","","","","","","","","","",""
"","","","","","html-keyboard-response","134","251805","0.0-2.0-7.0-0.17","5588d7b8fdf99b304dd47e83","D2","batch4","","null","<p class=block-text>Trial 57 out of 78</p>","null","pattern_show_trial_num","","","","","","","","","","","","","","","","","","","","","","","","",""
"","","","","","image-keyboard-response","135","253242","0.0-2.0-7.0-1.17","5588d7b8fdf99b304dd47e83","D2","batch4","","1434","stim/yes_52_ver_w1.png","f","pattern_response","true","f","pattern_73","1434","true","47","","","","","","","","","","","","","","","","","","",""
"","","","","","html-keyboard-response","136","254559","0.0-2.0-7.0-0.18","5588d7b8fdf99b304dd47e83","D2","batch4","","null","<p class=block-text>Trial 58 out of 78</p>","null","pattern_show_trial_num","","","","","","","","","","","","","","","","","","","","","","","","",""
"","","","","","image-keyboard-response","137","255970","0.0-2.0-7.0-1.18","5588d7b8fdf99b304dd47e83","D2","batch4","","1407","stim/yes_35_dia_b1.png","f","pattern_response","true","f","pattern_57","1407","true","48","","","","","","","","","","","","","","","","","","",""
"","","","","","html-keyboard-response","138","257287","0.0-2.0-7.0-0.19","5588d7b8fdf99b304dd47e83","D2","batch4","","null","<p class=block-text>Trial 59 out of 78</p>","null","pattern_show_trial_num","","","","","","","","","","","","","","","","","","","","","","","","",""
"","","","","","image-keyboard-response","139","258474","0.0-2.0-7.0-1.19","5588d7b8fdf99b304dd47e83","D2","batch4","","1183.9000000953674","stim/no_20_1_w.png","j","pattern_response","true","j","pattern_06","1183.9000000953674","true","49","","","","","","","","","","","","","","","","","","",""
"","","","","","html-keyboard-response","140","259793","0.0-2.0-7.0-0.20","5588d7b8fdf99b304dd47e83","D2","batch4","","null","<p class=block-text>Trial 60 out of 78</p>","null","pattern_show_trial_num","","","","","","","","","","","","","","","","","","","","","","","","",""
"","","","","","image-keyboard-response","141","262197","0.0-2.0-7.0-1.20","5588d7b8fdf99b304dd47e83","D2","batch4","","2400.7000000476837","stim/no_50_1.png","j","pattern_response","true","j","pattern_30","2400.7000000476837","true","50","","","","","","","","","","","","","","","","","","",""
"","","","","","html-keyboard-response","142","263513","0.0-2.0-7.0-0.21","5588d7b8fdf99b304dd47e83","D2","batch4","","null","<p class=block-text>Trial 61 out of 78</p>","null","pattern_show_trial_num","","","","","","","","","","","","","","","","","","","","","","","","",""
"","","","","","image-keyboard-response","143","265092","0.0-2.0-7.0-1.21","5588d7b8fdf99b304dd47e83","D2","batch4","","1575.7999999523163","stim/no_26_1_w.png","j","pattern_response","true","j","pattern_10","1575.7999999523163","true","51","","","","","","","","","","","","","","","","","","",""
"","","","","","html-keyboard-response","144","266405","0.0-2.0-7.0-0.22","5588d7b8fdf99b304dd47e83","D2","batch4","","null","<p class=block-text>Trial 62 out of 78</p>","null","pattern_show_trial_num","","","","","","","","","","","","","","","","","","","","","","","","",""
"","","","","","image-keyboard-response","145","267124","0.0-2.0-7.0-1.22","5588d7b8fdf99b304dd47e83","D2","batch4","","716.5999999046326","stim/yes_14_hor_b1_w.png","f","pattern_response","true","f","pattern_43","716.5999999046326","true","52","","","","","","","","","","","","","","","","","","",""
"","","","","","html-keyboard-response","146","268441","0.0-2.0-7.0-0.23","5588d7b8fdf99b304dd47e83","D2","batch4","","null","<p class=block-text>Trial 63 out of 78</p>","null","pattern_show_trial_num","","","","","","","","","","","","","","","","","","","","","","","","",""
"","","","","","image-keyboard-response","147","271099","0.0-2.0-7.0-1.23","5588d7b8fdf99b304dd47e83","D2","batch4","","2655.399999856949","stim/no_48_1_w.png","j","pattern_response","true","j","pattern_28","2655.399999856949","true","53","","","","","","","","","","","","","","","","","","",""
"","","","","","html-keyboard-response","148","272414","0.0-2.0-7.0-0.24","5588d7b8fdf99b304dd47e83","D2","batch4","","null","<p class=block-text>Trial 64 out of 78</p>","null","pattern_show_trial_num","","","","","","","","","","","","","","","","","","","","","","","","",""
"","","","","","image-keyboard-response","149","274891","0.0-2.0-7.0-1.24","5588d7b8fdf99b304dd47e83","D2","batch4","","2472.899999856949","stim/no_52_1.png","j","pattern_response","true","j","pattern_32","2472.899999856949","true","54","","","","","","","","","","","","","","","","","","",""
"","","","","","html-keyboard-response","150","276208","0.0-2.0-7.0-0.25","5588d7b8fdf99b304dd47e83","D2","batch4","","null","<p class=block-text>Trial 65 out of 78</p>","null","pattern_show_trial_num","","","","","","","","","","","","","","","","","","","","","","","","",""
"","","","","","image-keyboard-response","151","277843","0.0-2.0-7.0-1.25","5588d7b8fdf99b304dd47e83","D2","batch4","","1630.6000001430511","stim/yes_45_hor_b2_b.png","f","pattern_response","true","f","pattern_67","1630.6000001430511","true","55","","","","","","","","","","","","","","","","","","",""
"","","","","","html-keyboard-response","152","279156","0.0-2.0-7.0-0.26","5588d7b8fdf99b304dd47e83","D2","batch4","","null","<p class=block-text>Trial 66 out of 78</p>","null","pattern_show_trial_num","","","","","","","","","","","","","","","","","","","","","","","","",""
"","","","","","image-keyboard-response","153","281673","0.0-2.0-7.0-1.26","5588d7b8fdf99b304dd47e83","D2","batch4","","2513.7999999523163","stim/no_55_1_w.png","j","pattern_response","true","j","pattern_34","2513.7999999523163","true","56","","","","","","","","","","","","","","","","","","",""
"","","","","","html-keyboard-response","154","282992","0.0-2.0-7.0-0.27","5588d7b8fdf99b304dd47e83","D2","batch4","","null","<p class=block-text>Trial 67 out of 78</p>","null","pattern_show_trial_num","","","","","","","","","","","","","","","","","","","","","","","","",""
"","","","","","image-keyboard-response","155","284274","0.0-2.0-7.0-1.27","5588d7b8fdf99b304dd47e83","D2","batch4","","1278.5","stim/no_13_2_b.png","j","pattern_response","true","j","pattern_02","1278.5","true","57","","","","","","","","","","","","","","","","","","",""
"","","","","","html-keyboard-response","156","285592","0.0-2.0-7.0-0.28","5588d7b8fdf99b304dd47e83","D2","batch4","","null","<p class=block-text>Trial 68 out of 78</p>","null","pattern_show_trial_num","","","","","","","","","","","","","","","","","","","","","","","","",""
"","","","","","image-keyboard-response","157","286458","0.0-2.0-7.0-1.28","5588d7b8fdf99b304dd47e83","D2","batch4","","863.2999999523163","stim/yes_28_ver_b1.png","f","pattern_response","true","f","pattern_51","863.2999999523163","true","58","","","","","","","","","","","","","","","","","","",""
"","","","","","html-keyboard-response","158","287776","0.0-2.0-7.0-0.29","5588d7b8fdf99b304dd47e83","D2","batch4","","null","<p class=block-text>Trial 69 out of 78</p>","null","pattern_show_trial_num","","","","","","","","","","","","","","","","","","","","","","","","",""
"","","","","","image-keyboard-response","159","288778","0.0-2.0-7.0-1.29","5588d7b8fdf99b304dd47e83","D2","batch4","","998.7000000476837","stim/yes_22_ver_w1.png","f","pattern_response","true","f","pattern_47","998.7000000476837","true","59","","","","","","","","","","","","","","","","","","",""
"","","","","","html-keyboard-response","160","290096","0.0-2.0-7.0-0.30","5588d7b8fdf99b304dd47e83","D2","batch4","","null","<p class=block-text>Trial 70 out of 78</p>","null","pattern_show_trial_num","","","","","","","","","","","","","","","","","","","","","","","","",""
"","","","","","image-keyboard-response","161","292615","0.0-2.0-7.0-1.30","5588d7b8fdf99b304dd47e83","D2","batch4","","2516","stim/no_46_1_b.png","f","pattern_response","false","j","pattern_26","2516","false","59","","","","","","","","","","","","","","","","","","",""
"","","","","","html-keyboard-response","162","293937","0.0-2.0-7.0-0.31","5588d7b8fdf99b304dd47e83","D2","batch4","","null","<p class=block-text>Trial 71 out of 78</p>","null","pattern_show_trial_num","","","","","","","","","","","","","","","","","","","","","","","","",""
"","","","","","image-keyboard-response","163","294927","0.0-2.0-7.0-1.31","5588d7b8fdf99b304dd47e83","D2","batch4","","986.5999999046326","stim/yes_38_hor_b1_b.png","f","pattern_response","true","f","pattern_61","986.5999999046326","true","60","","","","","","","","","","","","","","","","","","",""
"","","","","","html-keyboard-response","164","296247","0.0-2.0-7.0-0.32","5588d7b8fdf99b304dd47e83","D2","batch4","","null","<p class=block-text>Trial 72 out of 78</p>","null","pattern_show_trial_num","","","","","","","","","","","","","","","","","","","","","","","","",""
"","","","","","image-keyboard-response","165","299507","0.0-2.0-7.0-1.32","5588d7b8fdf99b304dd47e83","D2","batch4","","3256.7000000476837","stim/no_62_1_w.png","j","pattern_response","true","j","pattern_36","3256.7000000476837","true","61","","","","","","","","","","","","","","","","","","",""
"","","","","","html-keyboard-response","166","300823","0.0-2.0-7.0-0.33","5588d7b8fdf99b304dd47e83","D2","batch4","","null","<p class=block-text>Trial 73 out of 78</p>","null","pattern_show_trial_num","","","","","","","","","","","","","","","","","","","","","","","","",""
"","","","","","image-keyboard-response","167","303780","0.0-2.0-7.0-1.33","5588d7b8fdf99b304dd47e83","D2","batch4","","2952.7000000476837","stim/yes_40_dia_b1_b.png","j","pattern_response","false","f","pattern_63","2952.7000000476837","false","61","","","","","","","","","","","","","","","","","","",""
"","","","","","html-keyboard-response","168","305091","0.0-2.0-7.0-0.34","5588d7b8fdf99b304dd47e83","D2","batch4","","null","<p class=block-text>Trial 74 out of 78</p>","null","pattern_show_trial_num","","","","","","","","","","","","","","","","","","","","","","","","",""
"","","","","","image-keyboard-response","169","306308","0.0-2.0-7.0-1.34","5588d7b8fdf99b304dd47e83","D2","batch4","","1213.2999999523163","stim/yes_31_hor_b1.png","f","pattern_response","true","f","pattern_55","1213.2999999523163","true","62","","","","","","","","","","","","","","","","","","",""
"","","","","","html-keyboard-response","170","307623","0.0-2.0-7.0-0.35","5588d7b8fdf99b304dd47e83","D2","batch4","","null","<p class=block-text>Trial 75 out of 78</p>","null","pattern_show_trial_num","","","","","","","","","","","","","","","","","","","","","","","","",""
"","","","","","image-keyboard-response","171","310747","0.0-2.0-7.0-1.35","5588d7b8fdf99b304dd47e83","D2","batch4","","3121.100000143051","stim/no_70_2.png","j","pattern_response","true","j","pattern_40","3121.100000143051","true","63","","","","","","","","","","","","","","","","","","",""
"","","","","","html-keyboard-response","172","312063","0.0-2.0-7.0-0.36","5588d7b8fdf99b304dd47e83","D2","batch4","","null","<p class=block-text>Trial 76 out of 78</p>","null","pattern_show_trial_num","","","","","","","","","","","","","","","","","","","","","","","","",""
"","","","","","image-keyboard-response","173","314708","0.0-2.0-7.0-1.36","5588d7b8fdf99b304dd47e83","D2","batch4","","2641.2999999523163","stim/no_65_1_b.png","f","pattern_response","false","j","pattern_38","2641.2999999523163","false","63","","","","","","","","","","","","","","","","","","",""
"","","","","","html-keyboard-response","174","316023","0.0-2.0-7.0-0.37","5588d7b8fdf99b304dd47e83","D2","batch4","","null","<p class=block-text>Trial 77 out of 78</p>","null","pattern_show_trial_num","","","","","","","","","","","","","","","","","","","","","","","","",""
"","","","","","image-keyboard-response","175","318140","0.0-2.0-7.0-1.37","5588d7b8fdf99b304dd47e83","D2","batch4","","2114","stim/no_44_1.png","j","pattern_response","true","j","pattern_24","2114","true","64","","","","","","","","","","","","","","","","","","",""
"","","","","","html-keyboard-response","176","319451","0.0-2.0-7.0-0.38","5588d7b8fdf99b304dd47e83","D2","batch4","","null","<p class=block-text>Trial 78 out of 78</p>","null","pattern_show_trial_num","","","","","","","","","","","","","","","","","","","","","","","","",""
"","","","","","image-keyboard-response","177","321092","0.0-2.0-7.0-1.38","5588d7b8fdf99b304dd47e83","D2","batch4","","1637.6999998092651","stim/no_36_2_w.png","j","pattern_response","true","j","pattern_18","1637.6999998092651","true","65","","","","","","","","","","","","","","","","","","",""
"","","","","","html-button-response","178","325580","0.0-2.0-8.0","5588d7b8fdf99b304dd47e83","D2","batch4","","3980.0999999046326","<p class = block-text>This concludes the 4-in-a-row detection game.Thank you for your responses!<br>
            You responded correctly on 83% of the trials.<br>
            When you are ready, press ""Continue"" button to continue </p>","0","","","","","","","","","","","","","","","","","","","","","","","","","",""
"true","","","","","fullscreen","179","329451","0.0-3.0-0.0","5588d7b8fdf99b304dd47e83","D2","batch4","","","","","spm_fullscreen","","","","","","","","","","","","","","","","","","","","","","","","",""
"","","","","","html-button-response","180","335120","0.0-3.0-1.0","5588d7b8fdf99b304dd47e83","D2","batch4","","5667.299999952316","<p class = block-text><b>Instructions</b> <br>This is a widely used intelligence test in research. <br>In this test, a figure with a missing piece will be presented.<br>Below the figure are alternative pieces to complete the figure, only one of which is correct.<br> Different figures might involve different principles for obtaining the missing piece<br>Your job is to select the most logical piece to complete the figure.</p>","0","","","","","","","","","","","","","","","","","","","","","","","","","",""
"","","","","","html-keyboard-response","181","335934","0.0-3.0-2.0-0.0","5588d7b8fdf99b304dd47e83","D2","batch4","","null","<p class=block-text>Trial 1 out of 60</p>","null","spm_show_trial_num","","","","","","","","","","","","","","","","","","","","","","","","",""
"","","","","","image-button-response","182","344697","0.0-3.0-2.0-1.0","5588d7b8fdf99b304dd47e83","D2","batch4","","8730.5","img/question_1_1.jpeg","5","spm_respsonse","0","4","mat_01","","","","","","0","8730.5","","","","","","","","","","","","","","",""
"","","","","","html-keyboard-response","183","345765","0.0-3.0-2.0-0.1","5588d7b8fdf99b304dd47e83","D2","batch4","","null","<p class=block-text>Trial 2 out of 60</p>","null","spm_show_trial_num","","","","","","","","","","","","","","","","","","","","","","","","",""
"","","","","","image-button-response","184","348012","0.0-3.0-2.0-1.1","5588d7b8fdf99b304dd47e83","D2","batch4","","2242.100000143051","img/question_1_2.jpeg","4","spm_respsonse","1","5","mat_02","","","","","","1","2242.100000143051","","","","","","","","","","","","","","",""
"","","","","","html-keyboard-response","185","349074","0.0-3.0-2.0-0.2","5588d7b8fdf99b304dd47e83","D2","batch4","","null","<p class=block-text>Trial 3 out of 60</p>","null","spm_show_trial_num","","","","","","","","","","","","","","","","","","","","","","","","",""
"","","","","","image-button-response","186","353268","0.0-3.0-2.0-1.2","5588d7b8fdf99b304dd47e83","D2","batch4","","4188.899999856949","img/question_1_3.jpeg","0","spm_respsonse","1","1","mat_03","","","","","","1","4188.899999856949","","","","","","","","","","","","","","",""
"","","","","","html-keyboard-response","187","354333","0.0-3.0-2.0-0.3","5588d7b8fdf99b304dd47e83","D2","batch4","","null","<p class=block-text>Trial 4 out of 60</p>","null","spm_show_trial_num","","","","","","","","","","","","","","","","","","","","","","","","",""
"","","","","","image-button-response","188","359107","0.0-3.0-2.0-1.3","5588d7b8fdf99b304dd47e83","D2","batch4","","4770.100000143051","img/question_1_4.jpeg","1","spm_respsonse","1","2","mat_04","","","","","","1","4770.100000143051","","","","","","","","","","","","","","",""
"","","","","","html-keyboard-response","189","360172","0.0-3.0-2.0-0.4","5588d7b8fdf99b304dd47e83","D2","batch4","","null","<p class=block-text>Trial 5 out of 60</p>","null","spm_show_trial_num","","","","","","","","","","","","","","","","","","","","","","","","",""
"","","","","","image-button-response","190","365810","0.0-3.0-2.0-1.4","5588d7b8fdf99b304dd47e83","D2","batch4","","5632.399999856949","img/question_1_5.jpeg","5","spm_respsonse","1","6","mat_05","","","","","","1","5632.399999856949","","","","","","","","","","","","","","",""
"","","","","","html-keyboard-response","191","366872","0.0-3.0-2.0-0.5","5588d7b8fdf99b304dd47e83","D2","batch4","","null","<p class=block-text>Trial 6 out of 60</p>","null","spm_show_trial_num","","","","","","","","","","","","","","","","","","","","","","","","",""
"","","","","","image-button-response","192","369877","0.0-3.0-2.0-1.5","5588d7b8fdf99b304dd47e83","D2","batch4","","3000","img/question_1_6.jpeg","2","spm_respsonse","1","3","mat_06","","","","","","1","3000","","","","","","","","","","","","","","",""
"","","","","","html-keyboard-response","193","370948","0.0-3.0-2.0-0.6","5588d7b8fdf99b304dd47e83","D2","batch4","","null","<p class=block-text>Trial 7 out of 60</p>","null","spm_show_trial_num","","","","","","","","","","","","","","","","","","","","","","","","",""
"","","","","","image-button-response","194","376049","0.0-3.0-2.0-1.6","5588d7b8fdf99b304dd47e83","D2","batch4","","5096.799999952316","img/question_1_7.jpeg","5","spm_respsonse","1","6","mat_07","","","","","","1","5096.799999952316","","","","","","","","","","","","","","",""
"","","","","","html-keyboard-response","195","377113","0.0-3.0-2.0-0.7","5588d7b8fdf99b304dd47e83","D2","batch4","","null","<p class=block-text>Trial 8 out of 60</p>","null","spm_show_trial_num","","","","","","","","","","","","","","","","","","","","","","","","",""
"","","","","","image-button-response","196","383633","0.0-3.0-2.0-1.7","5588d7b8fdf99b304dd47e83","D2","batch4","","6515.299999952316","img/question_1_8.jpeg","1","spm_respsonse","1","2","mat_08","","","","","","1","6515.299999952316","","","","","","","","","","","","","","",""
"","","","","","html-keyboard-response","197","384696","0.0-3.0-2.0-0.8","5588d7b8fdf99b304dd47e83","D2","batch4","","null","<p class=block-text>Trial 9 out of 60</p>","null","spm_show_trial_num","","","","","","","","","","","","","","","","","","","","","","","","",""
"","","","","","image-button-response","198","389275","0.0-3.0-2.0-1.8","5588d7b8fdf99b304dd47e83","D2","batch4","","4575","img/question_1_9.jpeg","0","spm_respsonse","1","1","mat_09","","","","","","1","4575","","","","","","","","","","","","","","",""
"","","","","","html-keyboard-response","199","390339","0.0-3.0-2.0-0.9","5588d7b8fdf99b304dd47e83","D2","batch4","","null","<p class=block-text>Trial 10 out of 60</p>","null","spm_show_trial_num","","","","","","","","","","","","","","","","","","","","","","","","",""
"","","","","","image-button-response","200","395651","0.0-3.0-2.0-1.9","5588d7b8fdf99b304dd47e83","D2","batch4","","5307.200000047684","img/question_1_10.jpeg","2","spm_respsonse","1","3","mat_10","","","","","","1","5307.200000047684","","","","","","","","","","","","","","",""
"","","","","","html-keyboard-response","201","396712","0.0-3.0-2.0-0.10","5588d7b8fdf99b304dd47e83","D2","batch4","","null","<p class=block-text>Trial 11 out of 60</p>","null","spm_show_trial_num","","","","","","","","","","","","","","","","","","","","","","","","",""
"","","","","","image-button-response","202","405481","0.0-3.0-2.0-1.10","5588d7b8fdf99b304dd47e83","D2","batch4","","8764.299999952316","img/question_1_11.jpeg","4","spm_respsonse","0","4","mat_11","","","","","","0","8764.299999952316","","","","","","","","","","","","","","",""
"","","","","","html-keyboard-response","203","406878","0.0-3.0-2.0-0.11","5588d7b8fdf99b304dd47e83","D2","batch4","","null","<p class=block-text>Trial 12 out of 60</p>","null","spm_show_trial_num","","","","","","","","","","","","","","","","","","","","","","","","",""
"","","","","","image-button-response","204","415684","0.0-3.0-2.0-1.11","5588d7b8fdf99b304dd47e83","D2","batch4","","8802.5","img/question_1_12.jpeg","4","spm_respsonse","1","5","mat_12","","","","","","1","8802.5","","","","","","","","","","","","","","",""
"","","","","","html-keyboard-response","205","416752","0.0-3.0-2.0-0.12","5588d7b8fdf99b304dd47e83","D2","batch4","","null","<p class=block-text>Trial 13 out of 60</p>","null","spm_show_trial_num","","","","","","","","","","","","","","","","","","","","","","","","",""
"","","","","","image-button-response","206","419278","0.0-3.0-2.0-1.12","5588d7b8fdf99b304dd47e83","D2","batch4","","2522","img/question_2_1.jpeg","1","spm_respsonse","1","2","mat_13","","","","","","1","2522","","","","","","","","","","","","","","",""
"","","","","","html-keyboard-response","207","420341","0.0-3.0-2.0-0.13","5588d7b8fdf99b304dd47e83","D2","batch4","","null","<p class=block-text>Trial 14 out of 60</p>","null","spm_show_trial_num","","","","","","","","","","","","","","","","","","","","","","","","",""
"","","","","","image-button-response","208","427683","0.0-3.0-2.0-1.13","5588d7b8fdf99b304dd47e83","D2","batch4","","7338.599999904633","img/question_2_2.jpeg","5","spm_respsonse","1","6","mat_14","","","","","","1","7338.599999904633","","","","","","","","","","","","","","",""
"","","","","","html-keyboard-response","209","428753","0.0-3.0-2.0-0.14","5588d7b8fdf99b304dd47e83","D2","batch4","","null","<p class=block-text>Trial 15 out of 60</p>","null","spm_show_trial_num","","","","","","","","","","","","","","","","","","","","","","","","",""
"","","","","","image-button-response","210","431607","0.0-3.0-2.0-1.14","5588d7b8fdf99b304dd47e83","D2","batch4","","2849.5","img/question_2_3.jpeg","0","spm_respsonse","1","1","mat_15","","","","","","1","2849.5","","","","","","","","","","","","","","",""
"","","","","","html-keyboard-response","211","432671","0.0-3.0-2.0-0.15","5588d7b8fdf99b304dd47e83","D2","batch4","","null","<p class=block-text>Trial 16 out of 60</p>","null","spm_show_trial_num","","","","","","","","","","","","","","","","","","","","","","","","",""
"","","","","","image-button-response","212","438411","0.0-3.0-2.0-1.15","5588d7b8fdf99b304dd47e83","D2","batch4","","5736.099999904633","img/question_2_4.jpeg","1","spm_respsonse","1","2","mat_16","","","","","","1","5736.099999904633","","","","","","","","","","","","","","",""
"","","","","","html-keyboard-response","213","439480","0.0-3.0-2.0-0.16","5588d7b8fdf99b304dd47e83","D2","batch4","","null","<p class=block-text>Trial 17 out of 60</p>","null","spm_show_trial_num","","","","","","","","","","","","","","","","","","","","","","","","",""
"","","","","","image-button-response","214","443933","0.0-3.0-2.0-1.16","5588d7b8fdf99b304dd47e83","D2","batch4","","4449.200000047684","img/question_2_5.jpeg","0","spm_respsonse","1","1","mat_17","","","","","","1","4449.200000047684","","","","","","","","","","","","","","",""
"","","","","","html-keyboard-response","215","445001","0.0-3.0-2.0-0.17","5588d7b8fdf99b304dd47e83","D2","batch4","","null","<p class=block-text>Trial 18 out of 60</p>","null","spm_show_trial_num","","","","","","","","","","","","","","","","","","","","","","","","",""
"","","","","","image-button-response","216","449726","0.0-3.0-2.0-1.17","5588d7b8fdf99b304dd47e83","D2","batch4","","4721.799999952316","img/question_2_6.jpeg","2","spm_respsonse","1","3","mat_18","","","","","","1","4721.799999952316","","","","","","","","","","","","","","",""
"","","","","","html-keyboard-response","217","450793","0.0-3.0-2.0-0.18","5588d7b8fdf99b304dd47e83","D2","batch4","","null","<p class=block-text>Trial 19 out of 60</p>","null","spm_show_trial_num","","","","","","","","","","","","","","","","","","","","","","","","",""
"","","","","","image-button-response","218","458788","0.0-3.0-2.0-1.18","5588d7b8fdf99b304dd47e83","D2","batch4","","7990.900000095367","img/question_2_7.jpeg","4","spm_respsonse","1","5","mat_19","","","","","","1","7990.900000095367","","","","","","","","","","","","","","",""
"","","","","","html-keyboard-response","219","459877","0.0-3.0-2.0-0.19","5588d7b8fdf99b304dd47e83","D2","batch4","","null","<p class=block-text>Trial 20 out of 60</p>","null","spm_show_trial_num","","","","","","","","","","","","","","","","","","","","","","","","",""
"","","","","","image-button-response","220","463590","0.0-3.0-2.0-1.19","5588d7b8fdf99b304dd47e83","D2","batch4","","3708.100000143051","img/question_2_8.jpeg","3","spm_respsonse","0","6","mat_20","","","","","","0","3708.100000143051","","","","","","","","","","","","","","",""
"","","","","","html-keyboard-response","221","464653","0.0-3.0-2.0-0.20","5588d7b8fdf99b304dd47e83","D2","batch4","","null","<p class=block-text>Trial 21 out of 60</p>","null","spm_show_trial_num","","","","","","","","","","","","","","","","","","","","","","","","",""
"","","","","","image-button-response","222","468824","0.0-3.0-2.0-1.20","5588d7b8fdf99b304dd47e83","D2","batch4","","4167","img/question_2_9.jpeg","3","spm_respsonse","1","4","mat_21","","","","","","1","4167","","","","","","","","","","","","","","",""
"","","","","","html-keyboard-response","223","469883","0.0-3.0-2.0-0.21","5588d7b8fdf99b304dd47e83","D2","batch4","","null","<p class=block-text>Trial 22 out of 60</p>","null","spm_show_trial_num","","","","","","","","","","","","","","","","","","","","","","","","",""
"","","","","","image-button-response","224","475242","0.0-3.0-2.0-1.21","5588d7b8fdf99b304dd47e83","D2","batch4","","5354.5","img/question_2_10.jpeg","2","spm_respsonse","1","3","mat_22","","","","","","1","5354.5","","","","","","","","","","","","","","",""
"","","","","","html-keyboard-response","225","476308","0.0-3.0-2.0-0.22","5588d7b8fdf99b304dd47e83","D2","batch4","","null","<p class=block-text>Trial 23 out of 60</p>","null","spm_show_trial_num","","","","","","","","","","","","","","","","","","","","","","","","",""
"","","","","","image-button-response","226","482901","0.0-3.0-2.0-1.22","5588d7b8fdf99b304dd47e83","D2","batch4","","6589.099999904633","img/question_2_11.jpeg","3","spm_respsonse","1","4","mat_23","","","","","","1","6589.099999904633","","","","","","","","","","","","","","",""
"","","","","","html-keyboard-response","227","483967","0.0-3.0-2.0-0.23","5588d7b8fdf99b304dd47e83","D2","batch4","","null","<p class=block-text>Trial 24 out of 60</p>","null","spm_show_trial_num","","","","","","","","","","","","","","","","","","","","","","","","",""
"","","","","","image-button-response","228","491280","0.0-3.0-2.0-1.23","5588d7b8fdf99b304dd47e83","D2","batch4","","7309.299999952316","img/question_2_12.jpeg","4","spm_respsonse","1","5","mat_24","","","","","","1","7309.299999952316","","","","","","","","","","","","","","",""
"","","","","","html-button-response","229","493962","0.0-3.0-3.0","5588d7b8fdf99b304dd47e83","D2","batch4","","2400.399999856949","<p class = block-text>Attention check: Please choose 1<br></p>","0","attention_check","true","","","","","","","","","","","","","","","","","","","","","","","",""
"","","","","","html-keyboard-response","230","494770","0.0-3.0-4.0-0.0","5588d7b8fdf99b304dd47e83","D2","batch4","","null","<p class=block-text>Trial 25 out of 60</p>","null","spm_show_trial_num","","","","","","","","","","","","","","","","","","","","","","","","",""
"","","","","","image-button-response","231","501114","0.0-3.0-4.0-1.0","5588d7b8fdf99b304dd47e83","D2","batch4","","6340.199999809265","img/question_3_1.jpeg","7","spm_respsonse","1","8","mat_25","","","","","","1","6340.199999809265","","","","","","","","","","","","","","",""
"","","","","","html-keyboard-response","232","502182","0.0-3.0-4.0-0.1","5588d7b8fdf99b304dd47e83","D2","batch4","","null","<p class=block-text>Trial 26 out of 60</p>","null","spm_show_trial_num","","","","","","","","","","","","","","","","","","","","","","","","",""
"","","","","","image-button-response","233","509048","0.0-3.0-4.0-1.1","5588d7b8fdf99b304dd47e83","D2","batch4","","6861.700000047684","img/question_3_2.jpeg","1","spm_respsonse","1","2","mat_26","","","","","","1","6861.700000047684","","","","","","","","","","","","","","",""
"","","","","","html-keyboard-response","234","510118","0.0-3.0-4.0-0.2","5588d7b8fdf99b304dd47e83","D2","batch4","","null","<p class=block-text>Trial 27 out of 60</p>","null","spm_show_trial_num","","","","","","","","","","","","","","","","","","","","","","","","",""
"","","","","","image-button-response","235","518610","0.0-3.0-4.0-1.2","5588d7b8fdf99b304dd47e83","D2","batch4","","8488.099999904633","img/question_3_3.jpeg","2","spm_respsonse","1","3","mat_27","","","","","","1","8488.099999904633","","","","","","","","","","","","","","",""
"","","","","","html-keyboard-response","236","519673","0.0-3.0-4.0-0.3","5588d7b8fdf99b304dd47e83","D2","batch4","","null","<p class=block-text>Trial 28 out of 60</p>","null","spm_show_trial_num","","","","","","","","","","","","","","","","","","","","","","","","",""
"","","","","","image-button-response","237","527813","0.0-3.0-4.0-1.3","5588d7b8fdf99b304dd47e83","D2","batch4","","8136.400000095367","img/question_3_4.jpeg","2","spm_respsonse","0","8","mat_28","","","","","","0","8136.400000095367","","","","","","","","","","","","","","",""
"","","","","","html-keyboard-response","238","528873","0.0-3.0-4.0-0.4","5588d7b8fdf99b304dd47e83","D2","batch4","","null","<p class=block-text>Trial 29 out of 60</p>","null","spm_show_trial_num","","","","","","","","","","","","","","","","","","","","","","","","",""
"","","","","","image-button-response","239","536043","0.0-3.0-4.0-1.4","5588d7b8fdf99b304dd47e83","D2","batch4","","7165.799999952316","img/question_3_5.jpeg","6","spm_respsonse","1","7","mat_29","","","","","","1","7165.799999952316","","","","","","","","","","","","","","",""
"","","","","","html-keyboard-response","240","537127","0.0-3.0-4.0-0.5","5588d7b8fdf99b304dd47e83","D2","batch4","","null","<p class=block-text>Trial 30 out of 60</p>","null","spm_show_trial_num","","","","","","","","","","","","","","","","","","","","","","","","",""
"","","","","","image-button-response","241","541786","0.0-3.0-4.0-1.5","5588d7b8fdf99b304dd47e83","D2","batch4","","4655.100000143051","img/question_3_6.jpeg","3","spm_respsonse","1","4","mat_30","","","","","","1","4655.100000143051","","","","","","","","","","","","","","",""
"","","","","","html-keyboard-response","242","542852","0.0-3.0-4.0-0.6","5588d7b8fdf99b304dd47e83","D2","batch4","","null","<p class=block-text>Trial 31 out of 60</p>","null","spm_show_trial_num","","","","","","","","","","","","","","","","","","","","","","","","",""
"","","","","","image-button-response","243","554416","0.0-3.0-4.0-1.6","5588d7b8fdf99b304dd47e83","D2","batch4","","11559.600000143051","img/question_3_7.jpeg","0","spm_respsonse","0","5","mat_31","","","","","","0","11559.600000143051","","","","","","","","","","","","","","",""
"","","","","","html-keyboard-response","244","555484","0.0-3.0-4.0-0.7","5588d7b8fdf99b304dd47e83","D2","batch4","","null","<p class=block-text>Trial 32 out of 60</p>","null","spm_show_trial_num","","","","","","","","","","","","","","","","","","","","","","","","",""
"","","","","","image-button-response","245","564368","0.0-3.0-4.0-1.7","5588d7b8fdf99b304dd47e83","D2","batch4","","8879.899999856949","img/question_3_8.jpeg","0","spm_respsonse","1","1","mat_32","","","","","","1","8879.899999856949","","","","","","","","","","","","","","",""
"","","","","","html-keyboard-response","246","565437","0.0-3.0-4.0-0.8","5588d7b8fdf99b304dd47e83","D2","batch4","","null","<p class=block-text>Trial 33 out of 60</p>","null","spm_show_trial_num","","","","","","","","","","","","","","","","","","","","","","","","",""
"","","","","","image-button-response","247","581177","0.0-3.0-4.0-1.8","5588d7b8fdf99b304dd47e83","D2","batch4","","15737.5","img/question_3_9.jpeg","5","spm_respsonse","0","7","mat_33","","","","","","0","15737.5","","","","","","","","","","","","","","",""
"","","","","","html-keyboard-response","248","582243","0.0-3.0-4.0-0.9","5588d7b8fdf99b304dd47e83","D2","batch4","","null","<p class=block-text>Trial 34 out of 60</p>","null","spm_show_trial_num","","","","","","","","","","","","","","","","","","","","","","","","",""
"","","","","","image-button-response","249","589086","0.0-3.0-4.0-1.9","5588d7b8fdf99b304dd47e83","D2","batch4","","6839.799999952316","img/question_3_10.jpeg","5","spm_respsonse","1","6","mat_34","","","","","","1","6839.799999952316","","","","","","","","","","","","","","",""
"","","","","","html-keyboard-response","250","590154","0.0-3.0-4.0-0.10","5588d7b8fdf99b304dd47e83","D2","batch4","","null","<p class=block-text>Trial 35 out of 60</p>","null","spm_show_trial_num","","","","","","","","","","","","","","","","","","","","","","","","",""
"","","","","","image-button-response","251","607000","0.0-3.0-4.0-1.10","5588d7b8fdf99b304dd47e83","D2","batch4","","16842.5","img/question_3_11.jpeg","4","spm_respsonse","0","1","mat_35","","","","","","0","16842.5","","","","","","","","","","","","","","",""
"","","","","","html-keyboard-response","252","608062","0.0-3.0-4.0-0.11","5588d7b8fdf99b304dd47e83","D2","batch4","","null","<p class=block-text>Trial 36 out of 60</p>","null","spm_show_trial_num","","","","","","","","","","","","","","","","","","","","","","","","",""
"","","","","","image-button-response","253","624908","0.0-3.0-4.0-1.11","5588d7b8fdf99b304dd47e83","D2","batch4","","16843","img/question_3_12.jpeg","3","spm_respsonse","0","2","mat_36","","","","","","0","16843","","","","","","","","","","","","","","",""
"","","","","","html-keyboard-response","254","625977","0.0-3.0-4.0-0.12","5588d7b8fdf99b304dd47e83","D2","batch4","","null","<p class=block-text>Trial 37 out of 60</p>","null","spm_show_trial_num","","","","","","","","","","","","","","","","","","","","","","","","",""
"","","","","","image-button-response","255","629032","0.0-3.0-4.0-1.12","5588d7b8fdf99b304dd47e83","D2","batch4","","3051.5","img/question_4_1.jpeg","2","spm_respsonse","1","3","mat_37","","","","","","1","3051.5","","","","","","","","","","","","","","",""
"","","","","","html-keyboard-response","256","630096","0.0-3.0-4.0-0.13","5588d7b8fdf99b304dd47e83","D2","batch4","","null","<p class=block-text>Trial 38 out of 60</p>","null","spm_show_trial_num","","","","","","","","","","","","","","","","","","","","","","","","",""
"","","","","","image-button-response","257","641310","0.0-3.0-4.0-1.13","5588d7b8fdf99b304dd47e83","D2","batch4","","11210.700000047684","img/question_4_2.jpeg","3","spm_respsonse","1","4","mat_38","","","","","","1","11210.700000047684","","","","","","","","","","","","","","",""
"","","","","","html-keyboard-response","258","642376","0.0-3.0-4.0-0.14","5588d7b8fdf99b304dd47e83","D2","batch4","","null","<p class=block-text>Trial 39 out of 60</p>","null","spm_show_trial_num","","","","","","","","","","","","","","","","","","","","","","","","",""
"","","","","","image-button-response","259","648260","0.0-3.0-4.0-1.14","5588d7b8fdf99b304dd47e83","D2","batch4","","5880.300000190735","img/question_4_3.jpeg","2","spm_respsonse","1","3","mat_39","","","","","","1","5880.300000190735","","","","","","","","","","","","","","",""
"","","","","","html-keyboard-response","260","649328","0.0-3.0-4.0-0.15","5588d7b8fdf99b304dd47e83","D2","batch4","","null","<p class=block-text>Trial 40 out of 60</p>","null","spm_show_trial_num","","","","","","","","","","","","","","","","","","","","","","","","",""
"","","","","","image-button-response","261","658845","0.0-3.0-4.0-1.15","5588d7b8fdf99b304dd47e83","D2","batch4","","9512.200000047684","img/question_4_4.jpeg","6","spm_respsonse","1","7","mat_40","","","","","","1","9512.200000047684","","","","","","","","","","","","","","",""
"","","","","","html-keyboard-response","262","659907","0.0-3.0-4.0-0.16","5588d7b8fdf99b304dd47e83","D2","batch4","","null","<p class=block-text>Trial 41 out of 60</p>","null","spm_show_trial_num","","","","","","","","","","","","","","","","","","","","","","","","",""
"","","","","","image-button-response","263","669200","0.0-3.0-4.0-1.16","5588d7b8fdf99b304dd47e83","D2","batch4","","9288.600000143051","img/question_4_5.jpeg","7","spm_respsonse","1","8","mat_41","","","","","","1","9288.600000143051","","","","","","","","","","","","","","",""
"","","","","","html-keyboard-response","264","670267","0.0-3.0-4.0-0.17","5588d7b8fdf99b304dd47e83","D2","batch4","","null","<p class=block-text>Trial 42 out of 60</p>","null","spm_show_trial_num","","","","","","","","","","","","","","","","","","","","","","","","",""
"","","","","","image-button-response","265","681726","0.0-3.0-4.0-1.17","5588d7b8fdf99b304dd47e83","D2","batch4","","11455.900000095367","img/question_4_6.jpeg","5","spm_respsonse","1","6","mat_42","","","","","","1","11455.900000095367","","","","","","","","","","","","","","",""
"","","","","","html-keyboard-response","266","682798","0.0-3.0-4.0-0.18","5588d7b8fdf99b304dd47e83","D2","batch4","","null","<p class=block-text>Trial 43 out of 60</p>","null","spm_show_trial_num","","","","","","","","","","","","","","","","","","","","","","","","",""
"","","","","","image-button-response","267","691264","0.0-3.0-4.0-1.18","5588d7b8fdf99b304dd47e83","D2","batch4","","8462","img/question_4_7.jpeg","4","spm_respsonse","1","5","mat_43","","","","","","1","8462","","","","","","","","","","","","","","",""
"","","","","","html-keyboard-response","268","692334","0.0-3.0-4.0-0.19","5588d7b8fdf99b304dd47e83","D2","batch4","","null","<p class=block-text>Trial 44 out of 60</p>","null","spm_show_trial_num","","","","","","","","","","","","","","","","","","","","","","","","",""
"","","","","","image-button-response","269","701288","0.0-3.0-4.0-1.19","5588d7b8fdf99b304dd47e83","D2","batch4","","8950.700000047684","img/question_4_8.jpeg","4","spm_respsonse","0","4","mat_44","","","","","","0","8950.700000047684","","","","","","","","","","","","","","",""
"","","","","","html-keyboard-response","270","702357","0.0-3.0-4.0-0.20","5588d7b8fdf99b304dd47e83","D2","batch4","","null","<p class=block-text>Trial 45 out of 60</p>","null","spm_show_trial_num","","","","","","","","","","","","","","","","","","","","","","","","",""
"","","","","","image-button-response","271","711065","0.0-3.0-4.0-1.20","5588d7b8fdf99b304dd47e83","D2","batch4","","8704.699999809265","img/question_4_9.jpeg","1","spm_respsonse","0","1","mat_45","","","","","","0","8704.699999809265","","","","","","","","","","","","","","",""
"","","","","","html-keyboard-response","272","712128","0.0-3.0-4.0-0.21","5588d7b8fdf99b304dd47e83","D2","batch4","","null","<p class=block-text>Trial 46 out of 60</p>","null","spm_show_trial_num","","","","","","","","","","","","","","","","","","","","","","","","",""
"","","","","","image-button-response","273","718979","0.0-3.0-4.0-1.21","5588d7b8fdf99b304dd47e83","D2","batch4","","6847","img/question_4_10.jpeg","0","spm_respsonse","0","2","mat_46","","","","","","0","6847","","","","","","","","","","","","","","",""
"","","","","","html-keyboard-response","274","720043","0.0-3.0-4.0-0.22","5588d7b8fdf99b304dd47e83","D2","batch4","","null","<p class=block-text>Trial 47 out of 60</p>","null","spm_show_trial_num","","","","","","","","","","","","","","","","","","","","","","","","",""
"","","","","","image-button-response","275","737731","0.0-3.0-4.0-1.22","5588d7b8fdf99b304dd47e83","D2","batch4","","17685.099999904633","img/question_4_11.jpeg","5","spm_respsonse","0","5","mat_47","","","","","","0","17685.099999904633","","","","","","","","","","","","","","",""
"","","","","","html-keyboard-response","276","738796","0.0-3.0-4.0-0.23","5588d7b8fdf99b304dd47e83","D2","batch4","","null","<p class=block-text>Trial 48 out of 60</p>","null","spm_show_trial_num","","","","","","","","","","","","","","","","","","","","","","","","",""
"","","","","","image-button-response","277","745472","0.0-3.0-4.0-1.23","5588d7b8fdf99b304dd47e83","D2","batch4","","6672.5","img/question_4_12.jpeg","7","spm_respsonse","0","6","mat_48","","","","","","0","6672.5","","","","","","","","","","","","","","",""
"","","","","","html-keyboard-response","278","746539","0.0-3.0-4.0-0.24","5588d7b8fdf99b304dd47e83","D2","batch4","","null","<p class=block-text>Trial 49 out of 60</p>","null","spm_show_trial_num","","","","","","","","","","","","","","","","","","","","","","","","",""
"","","","","","image-button-response","279","756484","0.0-3.0-4.0-1.24","5588d7b8fdf99b304dd47e83","D2","batch4","","9941.299999952316","img/question_5_1.jpeg","6","spm_respsonse","1","7","mat_49","","","","","","1","9941.299999952316","","","","","","","","","","","","","","",""
"","","","","","html-keyboard-response","280","757552","0.0-3.0-4.0-0.25","5588d7b8fdf99b304dd47e83","D2","batch4","","null","<p class=block-text>Trial 50 out of 60</p>","null","spm_show_trial_num","","","","","","","","","","","","","","","","","","","","","","","","",""
"","","","","","image-button-response","281","767764","0.0-3.0-4.0-1.25","5588d7b8fdf99b304dd47e83","D2","batch4","","10207.400000095367","img/question_5_2.jpeg","5","spm_respsonse","1","6","mat_50","","","","","","1","10207.400000095367","","","","","","","","","","","","","","",""
"","","","","","html-keyboard-response","282","768830","0.0-3.0-4.0-0.26","5588d7b8fdf99b304dd47e83","D2","batch4","","null","<p class=block-text>Trial 51 out of 60</p>","null","spm_show_trial_num","","","","","","","","","","","","","","","","","","","","","","","","",""
"","","","","","image-button-response","283","789447","0.0-3.0-4.0-1.26","5588d7b8fdf99b304dd47e83","D2","batch4","","20614.099999904633","img/question_5_3.jpeg","7","spm_respsonse","1","8","mat_51","","","","","","1","20614.099999904633","","","","","","","","","","","","","","",""
"","","","","","html-keyboard-response","284","790511","0.0-3.0-4.0-0.27","5588d7b8fdf99b304dd47e83","D2","batch4","","null","<p class=block-text>Trial 52 out of 60</p>","null","spm_show_trial_num","","","","","","","","","","","","","","","","","","","","","","","","",""
"","","","","","image-button-response","285","804668","0.0-3.0-4.0-1.27","5588d7b8fdf99b304dd47e83","D2","batch4","","14153.399999856949","img/question_5_4.jpeg","1","spm_respsonse","1","2","mat_52","","","","","","1","14153.399999856949","","","","","","","","","","","","","","",""
"","","","","","html-keyboard-response","286","805732","0.0-3.0-4.0-0.28","5588d7b8fdf99b304dd47e83","D2","batch4","","null","<p class=block-text>Trial 53 out of 60</p>","null","spm_show_trial_num","","","","","","","","","","","","","","","","","","","","","","","","",""
"","","","","","image-button-response","287","813501","0.0-3.0-4.0-1.28","5588d7b8fdf99b304dd47e83","D2","batch4","","7764.900000095367","img/question_5_5.jpeg","0","spm_respsonse","1","1","mat_53","","","","","","1","7764.900000095367","","","","","","","","","","","","","","",""
"","","","","","html-keyboard-response","288","814568","0.0-3.0-4.0-0.29","5588d7b8fdf99b304dd47e83","D2","batch4","","null","<p class=block-text>Trial 54 out of 60</p>","null","spm_show_trial_num","","","","","","","","","","","","","","","","","","","","","","","","",""
"","","","","","image-button-response","289","836557","0.0-3.0-4.0-1.29","5588d7b8fdf99b304dd47e83","D2","batch4","","21985.700000047684","img/question_5_6.jpeg","0","spm_respsonse","0","5","mat_54","","","","","","0","21985.700000047684","","","","","","","","","","","","","","",""
"","","","","","html-keyboard-response","290","837623","0.0-3.0-4.0-0.30","5588d7b8fdf99b304dd47e83","D2","batch4","","null","<p class=block-text>Trial 55 out of 60</p>","null","spm_show_trial_num","","","","","","","","","","","","","","","","","","","","","","","","",""
"","","","","","image-button-response","291","854060","0.0-3.0-4.0-1.30","5588d7b8fdf99b304dd47e83","D2","batch4","","16431.89999985695","img/question_5_7.jpeg","3","spm_respsonse","0","1","mat_55","","","","","","0","16431.89999985695","","","","","","","","","","","","","","",""
"","","","","","html-keyboard-response","292","855123","0.0-3.0-4.0-0.31","5588d7b8fdf99b304dd47e83","D2","batch4","","null","<p class=block-text>Trial 56 out of 60</p>","null","spm_show_trial_num","","","","","","","","","","","","","","","","","","","","","","","","",""
"","","","","","image-button-response","293","865452","0.0-3.0-4.0-1.31","5588d7b8fdf99b304dd47e83","D2","batch4","","10325","img/question_5_8.jpeg","5","spm_respsonse","1","6","mat_56","","","","","","1","10325","","","","","","","","","","","","","","",""
"","","","","","html-keyboard-response","294","866514","0.0-3.0-4.0-0.32","5588d7b8fdf99b304dd47e83","D2","batch4","","null","<p class=block-text>Trial 57 out of 60</p>","null","spm_show_trial_num","","","","","","","","","","","","","","","","","","","","","","","","",""
"","","","","","image-button-response","295","873614","0.0-3.0-4.0-1.32","5588d7b8fdf99b304dd47e83","D2","batch4","","7096.899999856949","img/question_5_9.jpeg","2","spm_respsonse","1","3","mat_57","","","","","","1","7096.899999856949","","","","","","","","","","","","","","",""
"","","","","","html-keyboard-response","296","874674","0.0-3.0-4.0-0.33","5588d7b8fdf99b304dd47e83","D2","batch4","","null","<p class=block-text>Trial 58 out of 60</p>","null","spm_show_trial_num","","","","","","","","","","","","","","","","","","","","","","","","",""
"","","","","","image-button-response","297","897414","0.0-3.0-4.0-1.33","5588d7b8fdf99b304dd47e83","D2","batch4","","22736.299999952316","img/question_5_10.jpeg","1","spm_respsonse","1","2","mat_58","","","","","","1","22736.299999952316","","","","","","","","","","","","","","",""
"","","","","","html-keyboard-response","298","898484","0.0-3.0-4.0-0.34","5588d7b8fdf99b304dd47e83","D2","batch4","","null","<p class=block-text>Trial 59 out of 60</p>","null","spm_show_trial_num","","","","","","","","","","","","","","","","","","","","","","","","",""
"","","","","","image-button-response","299","917725","0.0-3.0-4.0-1.34","5588d7b8fdf99b304dd47e83","D2","batch4","","19238.200000047684","img/question_5_11.jpeg","1","spm_respsonse","0","4","mat_59","","","","","","0","19238.200000047684","","","","","","","","","","","","","","",""
"","","","","","html-keyboard-response","300","918794","0.0-3.0-4.0-0.35","5588d7b8fdf99b304dd47e83","D2","batch4","","null","<p class=block-text>Trial 60 out of 60</p>","null","spm_show_trial_num","","","","","","","","","","","","","","","","","","","","","","","","",""
"","","","","","image-button-response","301","934364","0.0-3.0-4.0-1.35","5588d7b8fdf99b304dd47e83","D2","batch4","","15566.700000047684","img/question_5_12.jpeg","2","spm_respsonse","0","5","mat_60","","","","","","0","15566.700000047684","","","","","","","","","","","","","","",""
"","","","","","html-button-response","302","953337","0.0-3.0-5.0","5588d7b8fdf99b304dd47e83","D2","batch4","","18708.599999904633","<p class= block-text>This concludes the Standard Progressive Matrix game. Thank you for your responses!<br> When you are ready, click the button continue</p>","0","spm_goodbye","","","","","","","","","","","","","","","","","","","","","","","","",""
"true","","","","","fullscreen","303","955735","0.0-4.0-0.0","5588d7b8fdf99b304dd47e83","D2","batch4","","","","","","","","","","","","","","","","","","","","","","","","","","","","","",""
"","","","","","instructions","304","1008624","0.0-4.0-1.0-0.0-0.0","5588d7b8fdf99b304dd47e83","D2","batch4","[{""page_index"":0,""viewing_time"":15884.799999952316},{""page_index"":1,""viewing_time"":5843.700000047684},{""page_index"":2,""viewing_time"":4478.799999952316},{""page_index"":3,""viewing_time"":4757.400000095367},{""page_index"":4,""viewing_time"":5312.899999856949},{""page_index"":5,""viewing_time"":7260.400000095367},{""page_index"":4,""viewing_time"":4285.399999856949},{""page_index"":5,""viewing_time"":2768.2000000476837},{""page_index"":6,""viewing_time"":2297.5}]","52889.59999990463","","","tol-instructions","","","","","","","","","","","","","","","","","","","","","","","","",""
"","","","","","html-button-response","305","1009951","0.0-4.0-1.0-1.0-0.0","5588d7b8fdf99b304dd47e83","D2","batch4","","1326.2999999523163","<p class=block-text> Let's answer a few questions <br>","0","tol_enter_quiz","","","","","","","","","","","","","","","","","","","","","","","","",""
"","","","","","html-button-response","306","1012131","0.0-4.0-1.0-1.0-1.0","5588d7b8fdf99b304dd47e83","D2","batch4","","2152.4000000953674","<p class = block-text>True or False: You can only move the ball on top of a peg. <br></p>","0","tol_quiz","true","","","","","","","","","","","","","","","","","","","","","","","",""
"","","","","","html-button-response","307","1013080","0.0-4.0-1.0-1.0-2.0","5588d7b8fdf99b304dd47e83","D2","batch4","","947.0999999046326","<p class = block-text>Correct! You can only move the ball on top of a peg.</p>","0","tol_quiz_feedback","","","","","","","","","","","","","","","","","","","","","","","","",""
"","","","","","html-button-response","308","1015367","0.0-4.0-1.0-1.0-3.0","5588d7b8fdf99b304dd47e83","D2","batch4","","2286.0999999046326","<p class = block-text>True or False: You should try to match your board with the target board with fewest moves possible. <br></p>","0","tol_quiz","true","","","","","","","","","","","","","","","","","","","","","","","",""
"","","","","","html-button-response","309","1016315","0.0-4.0-1.0-1.0-4.0","5588d7b8fdf99b304dd47e83","D2","batch4","","946.5","<p class = block-text>Correct! </p>","0","tol_quiz_feedback","","","","","","","","","","","","","","","","","","","","","","","","",""
"","","","","","html-button-response","310","1017272","0.0-4.0-2.0","5588d7b8fdf99b304dd47e83","D2","batch4","","954.3999998569489","<p class=block-text> Now that you've understood the game, let's practice a few easier examples before we start!<br> <br>","0","","","","","","","","","","","","","","","","","","","","","","","","","",""
"","","","","","single-stim-button","311","1019774","0.0-4.0-3.0-0.0","5588d7b8fdf99b304dd47e83","D2","batch4","","2500","","","tol_practice","","","","","","","","","","","tol_peg_2","2500","2500","0","[[1,2,0],[0,0],[0]]","1","[[1,2,0],[0,0],[3]]","practice","2500","","","","","",""
"","","","","","single-stim-button","312","1021061","0.0-4.0-3.0-1.0","5588d7b8fdf99b304dd47e83","D2","batch4","","1286","","","tol_practice","","","","","","","","","","","tol_peg_3","1286","1286","0","[[1,2,0],[0,0],[3]]","1","[[1,2,0],[0,0],[3]]","practice","1286","","","","","",""
"","","","","","poldrack-single-stim","313","1022065","0.0-4.0-4.0","5588d7b8fdf99b304dd47e83","D2","batch4","","-1","","","tol_feedback","true","","","","","","","","","","","1000","1000","500","","","","","","-1","none","true","","0",""
"","","","","","single-stim-button","314","1026629","0.0-4.0-5.0-0.0","5588d7b8fdf99b304dd47e83","D2","batch4","","4563","","","tol_practice","","","","","","","","","","","tol_peg_1","4563","4563","0","[[1,0,0],[3,0],[0]]","2","[[0,0,0],[3,1],[2]]","practice","4563","","","","","",""
"","","","","","single-stim-button","315","1027865","0.0-4.0-5.0-1.0","5588d7b8fdf99b304dd47e83","D2","batch4","","1235","","","tol_practice","","","","","","","","","","","tol_peg_3","1235","1235","0","[[1,0,0],[3,0],[2]]","2","[[0,0,0],[3,1],[2]]","practice","1235","","","","","",""
"","","","","","single-stim-button","316","1029397","0.0-4.0-5.1-0.1","5588d7b8fdf99b304dd47e83","D2","batch4","","1531","","","tol_practice","","","","","","","","","","","tol_peg_1","1531","1531","0","[[0,0,0],[3,0],[2]]","3","[[0,0,0],[3,1],[2]]","practice","1531","","","","","",""
"","","","","","single-stim-button","317","1030242","0.0-4.0-5.1-1.1","5588d7b8fdf99b304dd47e83","D2","batch4","","843","","","tol_practice","","","","","","","","","","","tol_peg_2","843","843","0","[[0,0,0],[3,1],[2]]","3","[[0,0,0],[3,1],[2]]","practice","843","","","","","",""
"","","","","","poldrack-single-stim","318","1031249","0.0-4.0-6.0","5588d7b8fdf99b304dd47e83","D2","batch4","","-1","","","tol_feedback","true","","","","","","","","","","","1000","1000","500","","","","","","-1","none","true","","0",""
"","","","","","single-stim-button","319","1035647","0.0-4.0-7.0-0.0","5588d7b8fdf99b304dd47e83","D2","batch4","","4398","","","tol_practice","","","","","","","","","","","tol_peg_2","4398","4398","0","[[1,2,0],[0,0],[0]]","4","[[1,0,0],[2,0],[3]]","practice","4398","","","","","",""
"","","","","","single-stim-button","320","1036501","0.0-4.0-7.0-1.0","5588d7b8fdf99b304dd47e83","D2","batch4","","852","","","tol_practice","","","","","","","","","","","tol_peg_3","852","852","0","[[1,2,0],[0,0],[3]]","4","[[1,0,0],[2,0],[3]]","practice","852","","","","","",""
"","","","","","single-stim-button","321","1037529","0.0-4.0-7.1-0.1","5588d7b8fdf99b304dd47e83","D2","batch4","","1026","","","tol_practice","","","","","","","","","","","tol_peg_1","1026","1026","0","[[1,0,0],[0,0],[3]]","5","[[1,0,0],[2,0],[3]]","practice","1026","","","","","",""
"","","","","","single-stim-button","322","1038351","0.0-4.0-7.1-1.1","5588d7b8fdf99b304dd47e83","D2","batch4","","822","","","tol_practice","","","","","","","","","","","tol_peg_2","822","822","0","[[1,0,0],[2,0],[3]]","5","[[1,0,0],[2,0],[3]]","practice","822","","","","","",""
"","","","","","poldrack-single-stim","323","1039359","0.0-4.0-8.0","5588d7b8fdf99b304dd47e83","D2","batch4","","-1","","","tol_feedback","true","","","","","","","","","","","1000","1000","500","","","","","","-1","none","true","","0",""
"","","","","","html-button-response","324","1040937","0.0-4.0-9.0","5588d7b8fdf99b304dd47e83","D2","batch4","","1576.4000000953674","<div class = centerbox><p class = center-block-text>Great job! You are done with practice trials<br>You are about to start official trials.<br> <br> Problem <strong>1</strong> out of 25 problems</p></div>","0","tol_instruction","","","","","","","","","","","","","","","","","","","","","","","","",""
"","","","","","single-stim-button","325","1045276","0.0-4.0-10.0-0.0","5588d7b8fdf99b304dd47e83","D2","batch4","","3336","","","tol_tohand","","","","","","","","","","","tol_peg_2","3336","3336","0","[[1,2,0],[0,0],[0]]","1","[[1,3,0],[2,0],[0]]","0","0","","","","","","3"
"","","","","","single-stim-button","326","1046235","0.0-4.0-10.0-1.0","5588d7b8fdf99b304dd47e83","D2","batch4","","957","","","tol_toboard","","","","","","","","","","","tol_peg_3","957","957","0","[[1,2,0],[0,0],[3]]","1","[[1,3,0],[2,0],[0]]","0","0","","","","","","3"
"","","","","","single-stim-button","327","1047350","0.0-4.0-10.1-0.1","5588d7b8fdf99b304dd47e83","D2","batch4","","1114","","","tol_tohand","","","","","","","","","","","tol_peg_1","1114","1114","0","[[1,0,0],[0,0],[3]]","2","[[1,3,0],[2,0],[0]]","0","0","","","","","","3"
"","","","","","single-stim-button","328","1048213","0.0-4.0-10.1-1.1","5588d7b8fdf99b304dd47e83","D2","batch4","","861","","","tol_toboard","","","","","","","","","","","tol_peg_2","861","861","0","[[1,0,0],[2,0],[3]]","2","[[1,3,0],[2,0],[0]]","0","0","","","","","","3"
"","","","","","single-stim-button","329","1048891","0.0-4.0-10.2-0.2","5588d7b8fdf99b304dd47e83","D2","batch4","","677","","","tol_tohand","","","","","","","","","","","tol_peg_3","677","677","0","[[1,0,0],[2,0],[0]]","3","[[1,3,0],[2,0],[0]]","0","0","","","","","","3"
"","","","","","single-stim-button","330","1049926","0.0-4.0-10.2-1.2","5588d7b8fdf99b304dd47e83","D2","batch4","","1035","","","tol_toboard","","","","","","","","","","","tol_peg_1","1035","1035","0","[[1,3,0],[2,0],[0]]","3","[[1,3,0],[2,0],[0]]","0","0","","","","","","3"
"","","","","","poldrack-single-stim","331","1050931","0.0-4.0-11.0","5588d7b8fdf99b304dd47e83","D2","batch4","","-1","","","tol_feedback","true","","","","","","","","","","","1000","1000","500","","","","","","-1","none","true","3336","5127",""
"","","","","","html-button-response","332","1052319","0.0-4.0-12.0","5588d7b8fdf99b304dd47e83","D2","batch4","","1386.3000001907349","<div class = centerbox><p class = center-block-text>problem <strong>2</strong> out of 25 problems</p></div>","0","tol_trial_num","","","","","","","","","","","","","","","","","","","","","","","","",""
"","","","","","single-stim-button","333","1057258","0.0-4.0-13.0-0.0","5588d7b8fdf99b304dd47e83","D2","batch4","","4938","","","tol_tohand","","","","","","","","","","","tol_peg_1","4938","4938","0","[[1,0,0],[3,0],[0]]","1","[[2,1,3],[0,0],[0]]","1","0","","","","","","5"
"","","","","","single-stim-button","334","1060660","0.0-4.0-13.0-1.0","5588d7b8fdf99b304dd47e83","D2","batch4","","3400","","","tol_toboard","","","","","","","","","","","tol_peg_3","3400","3400","0","[[1,0,0],[3,0],[2]]","1","[[2,1,3],[0,0],[0]]","1","0","","","","","","5"
"","","","","","single-stim-button","335","1062352","0.0-4.0-13.1-0.1","5588d7b8fdf99b304dd47e83","D2","batch4","","1691","","","tol_tohand","","","","","","","","","","","tol_peg_2","1691","1691","0","[[1,0,0],[0,0],[2]]","2","[[2,1,3],[0,0],[0]]","1","0","","","","","","5"
"","","","","","single-stim-button","336","1067680","0.0-4.0-13.1-1.1","5588d7b8fdf99b304dd47e83","D2","batch4","","5326","","","tol_toboard","","","","","","","","","","","tol_peg_2","5326","5326","0","[[1,0,0],[3,0],[2]]","2","[[2,1,3],[0,0],[0]]","1","0","","","","","","5"
"","","","","","single-stim-button","337","1068862","0.0-4.0-13.2-0.2","5588d7b8fdf99b304dd47e83","D2","batch4","","1180","","","tol_tohand","","","","","","","","","","","tol_peg_1","1180","1180","0","[[0,0,0],[3,0],[2]]","3","[[2,1,3],[0,0],[0]]","1","0","","","","","","5"
"","","","","","single-stim-button","338","1069835","0.0-4.0-13.2-1.2","5588d7b8fdf99b304dd47e83","D2","batch4","","973","","","tol_toboard","","","","","","","","","","","tol_peg_2","973","973","0","[[0,0,0],[3,1],[2]]","3","[[2,1,3],[0,0],[0]]","1","0","","","","","","5"
"","","","","","single-stim-button","339","1070698","0.0-4.0-13.3-0.3","5588d7b8fdf99b304dd47e83","D2","batch4","","861","","","tol_tohand","","","","","","","","","","","tol_peg_3","861","861","0","[[0,0,0],[3,1],[0]]","4","[[2,1,3],[0,0],[0]]","1","0","","","","","","5"
"","","","","","single-stim-button","340","1071703","0.0-4.0-13.3-1.3","5588d7b8fdf99b304dd47e83","D2","batch4","","1005","","","tol_toboard","","","","","","","","","","","tol_peg_1","1005","1005","0","[[2,0,0],[3,1],[0]]","4","[[2,1,3],[0,0],[0]]","1","0","","","","","","5"
"","","","","","single-stim-button","341","1072389","0.0-4.0-13.4-0.4","5588d7b8fdf99b304dd47e83","D2","batch4","","685","","","tol_tohand","","","","","","","","","","","tol_peg_2","685","685","0","[[2,0,0],[3,0],[0]]","5","[[2,1,3],[0,0],[0]]","1","0","","","","","","5"
"","","","","","single-stim-button","342","1073491","0.0-4.0-13.4-1.4","5588d7b8fdf99b304dd47e83","D2","batch4","","1101","","","tol_toboard","","","","","","","","","","","tol_peg_1","1101","1101","0","[[2,1,0],[3,0],[0]]","5","[[2,1,3],[0,0],[0]]","1","0","","","","","","5"
"","","","","","single-stim-button","343","1074129","0.0-4.0-13.5-0.5","5588d7b8fdf99b304dd47e83","D2","batch4","","636","","","tol_tohand","","","","","","","","","","","tol_peg_2","636","636","0","[[2,1,0],[0,0],[0]]","6","[[2,1,3],[0,0],[0]]","1","0","","","","","","5"
"","","","","","single-stim-button","344","1075352","0.0-4.0-13.5-1.5","5588d7b8fdf99b304dd47e83","D2","batch4","","1222","","","tol_toboard","","","","","","","","","","","tol_peg_1","1222","1222","0","[[2,1,3],[0,0],[0]]","6","[[2,1,3],[0,0],[0]]","1","0","","","","","","5"
"","","","","","poldrack-single-stim","345","1076355","0.0-4.0-14.0","5588d7b8fdf99b304dd47e83","D2","batch4","","-1","","","tol_feedback","true","","","","","","","","","","","1000","1000","500","","","","","","-1","none","true","4938","9991",""
"","","","","","html-button-response","346","1077544","0.0-4.0-15.0","5588d7b8fdf99b304dd47e83","D2","batch4","","1186.8999998569489","<div class = centerbox><p class = center-block-text>problem <strong>3</strong> out of 25 problems</p></div>","0","tol_trial_num","","","","","","","","","","","","","","","","","","","","","","","","",""
"","","","","","single-stim-button","347","1080563","0.0-4.0-16.0-0.0","5588d7b8fdf99b304dd47e83","D2","batch4","","3019","","","tol_tohand","","","","","","","","","","","tol_peg_1","3019","3019","0","[[2,0,0],[0,0],[1]]","1","[[1,2,0],[3,0],[0]]","2","0","","","","","","4"
