"success","timeout","failed_images","failed_audio","failed_video","trial_type","trial_index","time_elapsed","internal_node_id","subject_id","study_id","session_id","task","rt","stimulus","response","item","answer","correct","spm_correct","spm_rt","view_history","fiar_detect_rt","fiar_detect_correct","total_correct_fiar_detect","post_trial_gap","choices","mouse_click","stim_duration","block_duration","timing_post_trial","current_position","tol_num_moves_made","tol_target","tol_problem_id","tol_rt","key_press","possible_responses","tol_correct","preplanning","tol_rt_per_trial","tol_min_moves"
"true","false","[]","[]","[]","preload","0","3222","0.0-0.0","5589a309fdf99b7ae5007c33","F1","batch6","","","","","","","","","","","","","","","","","","","","","","","","","","","","","",""
"true","","","","","fullscreen","1","11046","0.0-1.0-0.0","5589a309fdf99b7ae5007c33","F1","batch6","","","","","","","","","","","","","","","","","","","","","","","","","","","","","",""
"true","","","","","fullscreen","2","15838","0.0-2.0-0.0","5589a309fdf99b7ae5007c33","F1","batch6","spm_fullscreen","","","","","","","","","","","","","","","","","","","","","","","","","","","","",""
"","","","","","html-button-response","3","24891","0.0-2.0-1.0","5589a309fdf99b7ae5007c33","F1","batch6","","9052","<p class = block-text><b>Instructions</b> <br>This is a widely used intelligence test in research. <br>In this test, a figure with a missing piece will be presented.<br>Below the figure are alternative pieces to complete the figure, only one of which is correct.<br> Different figures might involve different principles for obtaining the missing piece<br>Your job is to select the most logical piece to complete the figure.</p>","0","","","","","","","","","","","","","","","","","","","","","","","","","",""
"","","","","","html-keyboard-response","4","25693","0.0-2.0-2.0-0.0","5589a309fdf99b7ae5007c33","F1","batch6","spm_show_trial_num","null","<p class=block-text>Trial 1 out of 60</p>","null","","","","","","","","","","","","","","","","","","","","","","","","","",""
"","","","","","image-button-response","5","30562","0.0-2.0-2.0-1.0","5589a309fdf99b7ae5007c33","F1","batch6","spm_respsonse","4798","img/question_1_1.jpeg","1","mat_01","4","0","0","4798","","","","","","","","","","","","","","","","","","","","",""
"","","","","","html-keyboard-response","6","31613","0.0-2.0-2.0-0.1","5589a309fdf99b7ae5007c33","F1","batch6","spm_show_trial_num","null","<p class=block-text>Trial 2 out of 60</p>","null","","","","","","","","","","","","","","","","","","","","","","","","","",""
"","","","","","image-button-response","7","34499","0.0-2.0-2.0-1.1","5589a309fdf99b7ae5007c33","F1","batch6","spm_respsonse","2882","img/question_1_2.jpeg","4","mat_02","5","1","1","2882","","","","","","","","","","","","","","","","","","","","",""
"","","","","","html-keyboard-response","8","35551","0.0-2.0-2.0-0.2","5589a309fdf99b7ae5007c33","F1","batch6","spm_show_trial_num","null","<p class=block-text>Trial 3 out of 60</p>","null","","","","","","","","","","","","","","","","","","","","","","","","","",""
"","","","","","image-button-response","9","38003","0.0-2.0-2.0-1.2","5589a309fdf99b7ae5007c33","F1","batch6","spm_respsonse","2450","img/question_1_3.jpeg","0","mat_03","1","1","1","2450","","","","","","","","","","","","","","","","","","","","",""
"","","","","","html-keyboard-response","10","39055","0.0-2.0-2.0-0.3","5589a309fdf99b7ae5007c33","F1","batch6","spm_show_trial_num","null","<p class=block-text>Trial 4 out of 60</p>","null","","","","","","","","","","","","","","","","","","","","","","","","","",""
"","","","","","image-button-response","11","40787","0.0-2.0-2.0-1.3","5589a309fdf99b7ae5007c33","F1","batch6","spm_respsonse","1729","img/question_1_4.jpeg","1","mat_04","2","1","1","1729","","","","","","","","","","","","","","","","","","","","",""
"","","","","","html-keyboard-response","12","41839","0.0-2.0-2.0-0.4","5589a309fdf99b7ae5007c33","F1","batch6","spm_show_trial_num","null","<p class=block-text>Trial 5 out of 60</p>","null","","","","","","","","","","","","","","","","","","","","","","","","","",""
"","","","","","image-button-response","13","45100","0.0-2.0-2.0-1.4","5589a309fdf99b7ae5007c33","F1","batch6","spm_respsonse","3259","img/question_1_5.jpeg","5","mat_05","6","1","1","3259","","","","","","","","","","","","","","","","","","","","",""
"","","","","","html-keyboard-response","14","46152","0.0-2.0-2.0-0.5","5589a309fdf99b7ae5007c33","F1","batch6","spm_show_trial_num","null","<p class=block-text>Trial 6 out of 60</p>","null","","","","","","","","","","","","","","","","","","","","","","","","","",""
"","","","","","image-button-response","15","48517","0.0-2.0-2.0-1.5","5589a309fdf99b7ae5007c33","F1","batch6","spm_respsonse","2363","img/question_1_6.jpeg","2","mat_06","3","1","1","2363","","","","","","","","","","","","","","","","","","","","",""
"","","","","","html-keyboard-response","16","49569","0.0-2.0-2.0-0.6","5589a309fdf99b7ae5007c33","F1","batch6","spm_show_trial_num","null","<p class=block-text>Trial 7 out of 60</p>","null","","","","","","","","","","","","","","","","","","","","","","","","","",""
"","","","","","image-button-response","17","51769","0.0-2.0-2.0-1.6","5589a309fdf99b7ae5007c33","F1","batch6","spm_respsonse","2197","img/question_1_7.jpeg","5","mat_07","6","1","1","2197","","","","","","","","","","","","","","","","","","","","",""
"","","","","","html-keyboard-response","18","52820","0.0-2.0-2.0-0.7","5589a309fdf99b7ae5007c33","F1","batch6","spm_show_trial_num","null","<p class=block-text>Trial 8 out of 60</p>","null","","","","","","","","","","","","","","","","","","","","","","","","","",""
"","","","","","image-button-response","19","56210","0.0-2.0-2.0-1.7","5589a309fdf99b7ae5007c33","F1","batch6","spm_respsonse","3387","img/question_1_8.jpeg","1","mat_08","2","1","1","3387","","","","","","","","","","","","","","","","","","","","",""
"","","","","","html-keyboard-response","20","57263","0.0-2.0-2.0-0.8","5589a309fdf99b7ae5007c33","F1","batch6","spm_show_trial_num","null","<p class=block-text>Trial 9 out of 60</p>","null","","","","","","","","","","","","","","","","","","","","","","","","","",""
"","","","","","image-button-response","21","59749","0.0-2.0-2.0-1.8","5589a309fdf99b7ae5007c33","F1","batch6","spm_respsonse","2483","img/question_1_9.jpeg","0","mat_09","1","1","1","2483","","","","","","","","","","","","","","","","","","","","",""
"","","","","","html-keyboard-response","22","60799","0.0-2.0-2.0-0.9","5589a309fdf99b7ae5007c33","F1","batch6","spm_show_trial_num","null","<p class=block-text>Trial 10 out of 60</p>","null","","","","","","","","","","","","","","","","","","","","","","","","","",""
"","","","","","image-button-response","23","63557","0.0-2.0-2.0-1.9","5589a309fdf99b7ae5007c33","F1","batch6","spm_respsonse","2755","img/question_1_10.jpeg","2","mat_10","3","1","1","2755","","","","","","","","","","","","","","","","","","","","",""
"","","","","","html-keyboard-response","24","64608","0.0-2.0-2.0-0.10","5589a309fdf99b7ae5007c33","F1","batch6","spm_show_trial_num","null","<p class=block-text>Trial 11 out of 60</p>","null","","","","","","","","","","","","","","","","","","","","","","","","","",""
"","","","","","image-button-response","25","71590","0.0-2.0-2.0-1.10","5589a309fdf99b7ae5007c33","F1","batch6","spm_respsonse","6980","img/question_1_11.jpeg","3","mat_11","4","1","1","6980","","","","","","","","","","","","","","","","","","","","",""
"","","","","","html-keyboard-response","26","72643","0.0-2.0-2.0-0.11","5589a309fdf99b7ae5007c33","F1","batch6","spm_show_trial_num","null","<p class=block-text>Trial 12 out of 60</p>","null","","","","","","","","","","","","","","","","","","","","","","","","","",""
"","","","","","image-button-response","27","76267","0.0-2.0-2.0-1.11","5589a309fdf99b7ae5007c33","F1","batch6","spm_respsonse","3619","img/question_1_12.jpeg","0","mat_12","5","0","0","3619","","","","","","","","","","","","","","","","","","","","",""
"","","","","","html-keyboard-response","28","77319","0.0-2.0-2.0-0.12","5589a309fdf99b7ae5007c33","F1","batch6","spm_show_trial_num","null","<p class=block-text>Trial 13 out of 60</p>","null","","","","","","","","","","","","","","","","","","","","","","","","","",""
"","","","","","image-button-response","29","79238","0.0-2.0-2.0-1.12","5589a309fdf99b7ae5007c33","F1","batch6","spm_respsonse","1917","img/question_2_1.jpeg","1","mat_13","2","1","1","1917","","","","","","","","","","","","","","","","","","","","",""
"","","","","","html-keyboard-response","30","80289","0.0-2.0-2.0-0.13","5589a309fdf99b7ae5007c33","F1","batch6","spm_show_trial_num","null","<p class=block-text>Trial 14 out of 60</p>","null","","","","","","","","","","","","","","","","","","","","","","","","","",""
"","","","","","image-button-response","31","82679","0.0-2.0-2.0-1.13","5589a309fdf99b7ae5007c33","F1","batch6","spm_respsonse","2388","img/question_2_2.jpeg","5","mat_14","6","1","1","2388","","","","","","","","","","","","","","","","","","","","",""
"","","","","","html-keyboard-response","32","83731","0.0-2.0-2.0-0.14","5589a309fdf99b7ae5007c33","F1","batch6","spm_show_trial_num","null","<p class=block-text>Trial 15 out of 60</p>","null","","","","","","","","","","","","","","","","","","","","","","","","","",""
"","","","","","image-button-response","33","85812","0.0-2.0-2.0-1.14","5589a309fdf99b7ae5007c33","F1","batch6","spm_respsonse","2078","img/question_2_3.jpeg","0","mat_15","1","1","1","2078","","","","","","","","","","","","","","","","","","","","",""
"","","","","","html-keyboard-response","34","86863","0.0-2.0-2.0-0.15","5589a309fdf99b7ae5007c33","F1","batch6","spm_show_trial_num","null","<p class=block-text>Trial 16 out of 60</p>","null","","","","","","","","","","","","","","","","","","","","","","","","","",""
"","","","","","image-button-response","35","89674","0.0-2.0-2.0-1.15","5589a309fdf99b7ae5007c33","F1","batch6","spm_respsonse","2808","img/question_2_4.jpeg","1","mat_16","2","1","1","2808","","","","","","","","","","","","","","","","","","","","",""
"","","","","","html-keyboard-response","36","90726","0.0-2.0-2.0-0.16","5589a309fdf99b7ae5007c33","F1","batch6","spm_show_trial_num","null","<p class=block-text>Trial 17 out of 60</p>","null","","","","","","","","","","","","","","","","","","","","","","","","","",""
"","","","","","image-button-response","37","92947","0.0-2.0-2.0-1.16","5589a309fdf99b7ae5007c33","F1","batch6","spm_respsonse","2220","img/question_2_5.jpeg","0","mat_17","1","1","1","2220","","","","","","","","","","","","","","","","","","","","",""
"","","","","","html-keyboard-response","38","93999","0.0-2.0-2.0-0.17","5589a309fdf99b7ae5007c33","F1","batch6","spm_show_trial_num","null","<p class=block-text>Trial 18 out of 60</p>","null","","","","","","","","","","","","","","","","","","","","","","","","","",""
"","","","","","image-button-response","39","98981","0.0-2.0-2.0-1.17","5589a309fdf99b7ae5007c33","F1","batch6","spm_respsonse","4980","img/question_2_6.jpeg","2","mat_18","3","1","1","4980","","","","","","","","","","","","","","","","","","","","",""
"","","","","","html-keyboard-response","40","100033","0.0-2.0-2.0-0.18","5589a309fdf99b7ae5007c33","F1","batch6","spm_show_trial_num","null","<p class=block-text>Trial 19 out of 60</p>","null","","","","","","","","","","","","","","","","","","","","","","","","","",""
"","","","","","image-button-response","41","102803","0.0-2.0-2.0-1.18","5589a309fdf99b7ae5007c33","F1","batch6","spm_respsonse","2767","img/question_2_7.jpeg","4","mat_19","5","1","1","2767","","","","","","","","","","","","","","","","","","","","",""
"","","","","","html-keyboard-response","42","103855","0.0-2.0-2.0-0.19","5589a309fdf99b7ae5007c33","F1","batch6","spm_show_trial_num","null","<p class=block-text>Trial 20 out of 60</p>","null","","","","","","","","","","","","","","","","","","","","","","","","","",""
"","","","","","image-button-response","43","107147","0.0-2.0-2.0-1.19","5589a309fdf99b7ae5007c33","F1","batch6","spm_respsonse","3290","img/question_2_8.jpeg","5","mat_20","6","1","1","3290","","","","","","","","","","","","","","","","","","","","",""
"","","","","","html-keyboard-response","44","108199","0.0-2.0-2.0-0.20","5589a309fdf99b7ae5007c33","F1","batch6","spm_show_trial_num","null","<p class=block-text>Trial 21 out of 60</p>","null","","","","","","","","","","","","","","","","","","","","","","","","","",""
"","","","","","image-button-response","45","110712","0.0-2.0-2.0-1.20","5589a309fdf99b7ae5007c33","F1","batch6","spm_respsonse","2511","img/question_2_9.jpeg","3","mat_21","4","1","1","2511","","","","","","","","","","","","","","","","","","","","",""
"","","","","","html-keyboard-response","46","111763","0.0-2.0-2.0-0.21","5589a309fdf99b7ae5007c33","F1","batch6","spm_show_trial_num","null","<p class=block-text>Trial 22 out of 60</p>","null","","","","","","","","","","","","","","","","","","","","","","","","","",""
"","","","","","image-button-response","47","114293","0.0-2.0-2.0-1.21","5589a309fdf99b7ae5007c33","F1","batch6","spm_respsonse","2529","img/question_2_10.jpeg","2","mat_22","3","1","1","2529","","","","","","","","","","","","","","","","","","","","",""
"","","","","","html-keyboard-response","48","115345","0.0-2.0-2.0-0.22","5589a309fdf99b7ae5007c33","F1","batch6","spm_show_trial_num","null","<p class=block-text>Trial 23 out of 60</p>","null","","","","","","","","","","","","","","","","","","","","","","","","","",""
"","","","","","image-button-response","49","118323","0.0-2.0-2.0-1.22","5589a309fdf99b7ae5007c33","F1","batch6","spm_respsonse","2977","img/question_2_11.jpeg","3","mat_23","4","1","1","2977","","","","","","","","","","","","","","","","","","","","",""
"","","","","","html-keyboard-response","50","119375","0.0-2.0-2.0-0.23","5589a309fdf99b7ae5007c33","F1","batch6","spm_show_trial_num","null","<p class=block-text>Trial 24 out of 60</p>","null","","","","","","","","","","","","","","","","","","","","","","","","","",""
"","","","","","image-button-response","51","124843","0.0-2.0-2.0-1.23","5589a309fdf99b7ae5007c33","F1","batch6","spm_respsonse","5466","img/question_2_12.jpeg","4","mat_24","5","1","1","5466","","","","","","","","","","","","","","","","","","","","",""
"","","","","","html-button-response","52","126745","0.0-2.0-3.0","5589a309fdf99b7ae5007c33","F1","batch6","attention_check","1651","<p class = block-text>Attention check: Please choose 1<br></p>","0","","","true","","","","","","","","","","","","","","","","","","","","","","",""
"","","","","","html-keyboard-response","53","127546","0.0-2.0-4.0-0.0","5589a309fdf99b7ae5007c33","F1","batch6","spm_show_trial_num","null","<p class=block-text>Trial 25 out of 60</p>","null","","","","","","","","","","","","","","","","","","","","","","","","","",""
"","","","","","image-button-response","54","132154","0.0-2.0-4.0-1.0","5589a309fdf99b7ae5007c33","F1","batch6","spm_respsonse","4607","img/question_3_1.jpeg","7","mat_25","8","1","1","4607","","","","","","","","","","","","","","","","","","","","",""
"","","","","","html-keyboard-response","55","133207","0.0-2.0-4.0-0.1","5589a309fdf99b7ae5007c33","F1","batch6","spm_show_trial_num","null","<p class=block-text>Trial 26 out of 60</p>","null","","","","","","","","","","","","","","","","","","","","","","","","","",""
"","","","","","image-button-response","56","136603","0.0-2.0-4.0-1.1","5589a309fdf99b7ae5007c33","F1","batch6","spm_respsonse","3393","img/question_3_2.jpeg","1","mat_26","2","1","1","3393","","","","","","","","","","","","","","","","","","","","",""
"","","","","","html-keyboard-response","57","137655","0.0-2.0-4.0-0.2","5589a309fdf99b7ae5007c33","F1","batch6","spm_show_trial_num","null","<p class=block-text>Trial 27 out of 60</p>","null","","","","","","","","","","","","","","","","","","","","","","","","","",""
"","","","","","image-button-response","58","141304","0.0-2.0-4.0-1.2","5589a309fdf99b7ae5007c33","F1","batch6","spm_respsonse","3648","img/question_3_3.jpeg","2","mat_27","3","1","1","3648","","","","","","","","","","","","","","","","","","","","",""
"","","","","","html-keyboard-response","59","142356","0.0-2.0-4.0-0.3","5589a309fdf99b7ae5007c33","F1","batch6","spm_show_trial_num","null","<p class=block-text>Trial 28 out of 60</p>","null","","","","","","","","","","","","","","","","","","","","","","","","","",""
"","","","","","image-button-response","60","147042","0.0-2.0-4.0-1.3","5589a309fdf99b7ae5007c33","F1","batch6","spm_respsonse","4684","img/question_3_4.jpeg","7","mat_28","8","1","1","4684","","","","","","","","","","","","","","","","","","","","",""
"","","","","","html-keyboard-response","61","148094","0.0-2.0-4.0-0.4","5589a309fdf99b7ae5007c33","F1","batch6","spm_show_trial_num","null","<p class=block-text>Trial 29 out of 60</p>","null","","","","","","","","","","","","","","","","","","","","","","","","","",""
"","","","","","image-button-response","62","154254","0.0-2.0-4.0-1.4","5589a309fdf99b7ae5007c33","F1","batch6","spm_respsonse","6159","img/question_3_5.jpeg","6","mat_29","7","1","1","6159","","","","","","","","","","","","","","","","","","","","",""
"","","","","","html-keyboard-response","63","155307","0.0-2.0-4.0-0.5","5589a309fdf99b7ae5007c33","F1","batch6","spm_show_trial_num","null","<p class=block-text>Trial 30 out of 60</p>","null","","","","","","","","","","","","","","","","","","","","","","","","","",""
"","","","","","image-button-response","64","159614","0.0-2.0-4.0-1.5","5589a309fdf99b7ae5007c33","F1","batch6","spm_respsonse","4305","img/question_3_6.jpeg","3","mat_30","4","1","1","4305","","","","","","","","","","","","","","","","","","","","",""
"","","","","","html-keyboard-response","65","160665","0.0-2.0-4.0-0.6","5589a309fdf99b7ae5007c33","F1","batch6","spm_show_trial_num","null","<p class=block-text>Trial 31 out of 60</p>","null","","","","","","","","","","","","","","","","","","","","","","","","","",""
"","","","","","image-button-response","66","164286","0.0-2.0-4.0-1.6","5589a309fdf99b7ae5007c33","F1","batch6","spm_respsonse","3618","img/question_3_7.jpeg","4","mat_31","5","1","1","3618","","","","","","","","","","","","","","","","","","","","",""
"","","","","","html-keyboard-response","67","165338","0.0-2.0-4.0-0.7","5589a309fdf99b7ae5007c33","F1","batch6","spm_show_trial_num","null","<p class=block-text>Trial 32 out of 60</p>","null","","","","","","","","","","","","","","","","","","","","","","","","","",""
"","","","","","image-button-response","68","168586","0.0-2.0-4.0-1.7","5589a309fdf99b7ae5007c33","F1","batch6","spm_respsonse","3245","img/question_3_8.jpeg","0","mat_32","1","1","1","3245","","","","","","","","","","","","","","","","","","","","",""
"","","","","","html-keyboard-response","69","169637","0.0-2.0-4.0-0.8","5589a309fdf99b7ae5007c33","F1","batch6","spm_show_trial_num","null","<p class=block-text>Trial 33 out of 60</p>","null","","","","","","","","","","","","","","","","","","","","","","","","","",""
"","","","","","image-button-response","70","175070","0.0-2.0-4.0-1.8","5589a309fdf99b7ae5007c33","F1","batch6","spm_respsonse","5430","img/question_3_9.jpeg","6","mat_33","7","1","1","5430","","","","","","","","","","","","","","","","","","","","",""
"","","","","","html-keyboard-response","71","176121","0.0-2.0-4.0-0.9","5589a309fdf99b7ae5007c33","F1","batch6","spm_show_trial_num","null","<p class=block-text>Trial 34 out of 60</p>","null","","","","","","","","","","","","","","","","","","","","","","","","","",""
"","","","","","image-button-response","72","180362","0.0-2.0-4.0-1.9","5589a309fdf99b7ae5007c33","F1","batch6","spm_respsonse","4237","img/question_3_10.jpeg","5","mat_34","6","1","1","4237","","","","","","","","","","","","","","","","","","","","",""
"","","","","","html-keyboard-response","73","181414","0.0-2.0-4.0-0.10","5589a309fdf99b7ae5007c33","F1","batch6","spm_show_trial_num","null","<p class=block-text>Trial 35 out of 60</p>","null","","","","","","","","","","","","","","","","","","","","","","","","","",""
"","","","","","image-button-response","74","202389","0.0-2.0-4.0-1.10","5589a309fdf99b7ae5007c33","F1","batch6","spm_respsonse","20973","img/question_3_11.jpeg","0","mat_35","1","1","1","20973","","","","","","","","","","","","","","","","","","","","",""
"","","","","","html-keyboard-response","75","203441","0.0-2.0-4.0-0.11","5589a309fdf99b7ae5007c33","F1","batch6","spm_show_trial_num","null","<p class=block-text>Trial 36 out of 60</p>","null","","","","","","","","","","","","","","","","","","","","","","","","","",""
"","","","","","image-button-response","76","220803","0.0-2.0-4.0-1.11","5589a309fdf99b7ae5007c33","F1","batch6","spm_respsonse","17359","img/question_3_12.jpeg","1","mat_36","2","1","1","17359","","","","","","","","","","","","","","","","","","","","",""
"","","","","","html-keyboard-response","77","221855","0.0-2.0-4.0-0.12","5589a309fdf99b7ae5007c33","F1","batch6","spm_show_trial_num","null","<p class=block-text>Trial 37 out of 60</p>","null","","","","","","","","","","","","","","","","","","","","","","","","","",""
"","","","","","image-button-response","78","224224","0.0-2.0-4.0-1.12","5589a309fdf99b7ae5007c33","F1","batch6","spm_respsonse","2368","img/question_4_1.jpeg","2","mat_37","3","1","1","2368","","","","","","","","","","","","","","","","","","","","",""
"","","","","","html-keyboard-response","79","225276","0.0-2.0-4.0-0.13","5589a309fdf99b7ae5007c33","F1","batch6","spm_show_trial_num","null","<p class=block-text>Trial 38 out of 60</p>","null","","","","","","","","","","","","","","","","","","","","","","","","","",""
"","","","","","image-button-response","80","228093","0.0-2.0-4.0-1.13","5589a309fdf99b7ae5007c33","F1","batch6","spm_respsonse","2814","img/question_4_2.jpeg","3","mat_38","4","1","1","2814","","","","","","","","","","","","","","","","","","","","",""
"","","","","","html-keyboard-response","81","229144","0.0-2.0-4.0-0.14","5589a309fdf99b7ae5007c33","F1","batch6","spm_show_trial_num","null","<p class=block-text>Trial 39 out of 60</p>","null","","","","","","","","","","","","","","","","","","","","","","","","","",""
"","","","","","image-button-response","82","232213","0.0-2.0-4.0-1.14","5589a309fdf99b7ae5007c33","F1","batch6","spm_respsonse","3066","img/question_4_3.jpeg","2","mat_39","3","1","1","3066","","","","","","","","","","","","","","","","","","","","",""
"","","","","","html-keyboard-response","83","233264","0.0-2.0-4.0-0.15","5589a309fdf99b7ae5007c33","F1","batch6","spm_show_trial_num","null","<p class=block-text>Trial 40 out of 60</p>","null","","","","","","","","","","","","","","","","","","","","","","","","","",""
"","","","","","image-button-response","84","238248","0.0-2.0-4.0-1.15","5589a309fdf99b7ae5007c33","F1","batch6","spm_respsonse","4981","img/question_4_4.jpeg","6","mat_40","7","1","1","4981","","","","","","","","","","","","","","","","","","","","",""
"","","","","","html-keyboard-response","85","239300","0.0-2.0-4.0-0.16","5589a309fdf99b7ae5007c33","F1","batch6","spm_show_trial_num","null","<p class=block-text>Trial 41 out of 60</p>","null","","","","","","","","","","","","","","","","","","","","","","","","","",""
"","","","","","image-button-response","86","247530","0.0-2.0-4.0-1.16","5589a309fdf99b7ae5007c33","F1","batch6","spm_respsonse","8228","img/question_4_5.jpeg","7","mat_41","8","1","1","8228","","","","","","","","","","","","","","","","","","","","",""
"","","","","","html-keyboard-response","87","248582","0.0-2.0-4.0-0.17","5589a309fdf99b7ae5007c33","F1","batch6","spm_show_trial_num","null","<p class=block-text>Trial 42 out of 60</p>","null","","","","","","","","","","","","","","","","","","","","","","","","","",""
"","","","","","image-button-response","88","259809","0.0-2.0-4.0-1.17","5589a309fdf99b7ae5007c33","F1","batch6","spm_respsonse","11225","img/question_4_6.jpeg","5","mat_42","6","1","1","11225","","","","","","","","","","","","","","","","","","","","",""
"","","","","","html-keyboard-response","89","260860","0.0-2.0-4.0-0.18","5589a309fdf99b7ae5007c33","F1","batch6","spm_show_trial_num","null","<p class=block-text>Trial 43 out of 60</p>","null","","","","","","","","","","","","","","","","","","","","","","","","","",""
"","","","","","image-button-response","90","268690","0.0-2.0-4.0-1.18","5589a309fdf99b7ae5007c33","F1","batch6","spm_respsonse","7826","img/question_4_7.jpeg","4","mat_43","5","1","1","7826","","","","","","","","","","","","","","","","","","","","",""
"","","","","","html-keyboard-response","91","269741","0.0-2.0-4.0-0.19","5589a309fdf99b7ae5007c33","F1","batch6","spm_show_trial_num","null","<p class=block-text>Trial 44 out of 60</p>","null","","","","","","","","","","","","","","","","","","","","","","","","","",""
"","","","","","image-button-response","92","275173","0.0-2.0-4.0-1.19","5589a309fdf99b7ae5007c33","F1","batch6","spm_respsonse","5430","img/question_4_8.jpeg","4","mat_44","4","0","0","5430","","","","","","","","","","","","","","","","","","","","",""
"","","","","","html-keyboard-response","93","276226","0.0-2.0-4.0-0.20","5589a309fdf99b7ae5007c33","F1","batch6","spm_show_trial_num","null","<p class=block-text>Trial 45 out of 60</p>","null","","","","","","","","","","","","","","","","","","","","","","","","","",""
"","","","","","image-button-response","94","283819","0.0-2.0-4.0-1.20","5589a309fdf99b7ae5007c33","F1","batch6","spm_respsonse","7591","img/question_4_9.jpeg","0","mat_45","1","1","1","7591","","","","","","","","","","","","","","","","","","","","",""
"","","","","","html-keyboard-response","95","284871","0.0-2.0-4.0-0.21","5589a309fdf99b7ae5007c33","F1","batch6","spm_show_trial_num","null","<p class=block-text>Trial 46 out of 60</p>","null","","","","","","","","","","","","","","","","","","","","","","","","","",""
"","","","","","image-button-response","96","298941","0.0-2.0-4.0-1.21","5589a309fdf99b7ae5007c33","F1","batch6","spm_respsonse","14068","img/question_4_10.jpeg","1","mat_46","2","1","1","14068","","","","","","","","","","","","","","","","","","","","",""
"","","","","","html-keyboard-response","97","299992","0.0-2.0-4.0-0.22","5589a309fdf99b7ae5007c33","F1","batch6","spm_show_trial_num","null","<p class=block-text>Trial 47 out of 60</p>","null","","","","","","","","","","","","","","","","","","","","","","","","","",""
"","","","","","image-button-response","98","329250","0.0-2.0-4.0-1.22","5589a309fdf99b7ae5007c33","F1","batch6","spm_respsonse","29256","img/question_4_11.jpeg","4","mat_47","5","1","1","29256","","","","","","","","","","","","","","","","","","","","",""
"","","","","","html-keyboard-response","99","330302","0.0-2.0-4.0-0.23","5589a309fdf99b7ae5007c33","F1","batch6","spm_show_trial_num","null","<p class=block-text>Trial 48 out of 60</p>","null","","","","","","","","","","","","","","","","","","","","","","","","","",""
"","","","","","image-button-response","100","372991","0.0-2.0-4.0-1.23","5589a309fdf99b7ae5007c33","F1","batch6","spm_respsonse","42688","img/question_4_12.jpeg","5","mat_48","6","1","1","42688","","","","","","","","","","","","","","","","","","","","",""
"","","","","","html-keyboard-response","101","374042","0.0-2.0-4.0-0.24","5589a309fdf99b7ae5007c33","F1","batch6","spm_show_trial_num","null","<p class=block-text>Trial 49 out of 60</p>","null","","","","","","","","","","","","","","","","","","","","","","","","","",""
"","","","","","image-button-response","102","378005","0.0-2.0-4.0-1.24","5589a309fdf99b7ae5007c33","F1","batch6","spm_respsonse","3960","img/question_5_1.jpeg","6","mat_49","7","1","1","3960","","","","","","","","","","","","","","","","","","","","",""
"","","","","","html-keyboard-response","103","379057","0.0-2.0-4.0-0.25","5589a309fdf99b7ae5007c33","F1","batch6","spm_show_trial_num","null","<p class=block-text>Trial 50 out of 60</p>","null","","","","","","","","","","","","","","","","","","","","","","","","","",""
"","","","","","image-button-response","104","393597","0.0-2.0-4.0-1.25","5589a309fdf99b7ae5007c33","F1","batch6","spm_respsonse","14538","img/question_5_2.jpeg","5","mat_50","6","1","1","14538","","","","","","","","","","","","","","","","","","","","",""
"","","","","","html-keyboard-response","105","394649","0.0-2.0-4.0-0.26","5589a309fdf99b7ae5007c33","F1","batch6","spm_show_trial_num","null","<p class=block-text>Trial 51 out of 60</p>","null","","","","","","","","","","","","","","","","","","","","","","","","","",""
"","","","","","image-button-response","106","403885","0.0-2.0-4.0-1.26","5589a309fdf99b7ae5007c33","F1","batch6","spm_respsonse","9234","img/question_5_3.jpeg","7","mat_51","8","1","1","9234","","","","","","","","","","","","","","","","","","","","",""
"","","","","","html-keyboard-response","107","404937","0.0-2.0-4.0-0.27","5589a309fdf99b7ae5007c33","F1","batch6","spm_show_trial_num","null","<p class=block-text>Trial 52 out of 60</p>","null","","","","","","","","","","","","","","","","","","","","","","","","","",""
"","","","","","image-button-response","108","414470","0.0-2.0-4.0-1.27","5589a309fdf99b7ae5007c33","F1","batch6","spm_respsonse","9532","img/question_5_4.jpeg","1","mat_52","2","1","1","9532","","","","","","","","","","","","","","","","","","","","",""
"","","","","","html-keyboard-response","109","415522","0.0-2.0-4.0-0.28","5589a309fdf99b7ae5007c33","F1","batch6","spm_show_trial_num","null","<p class=block-text>Trial 53 out of 60</p>","null","","","","","","","","","","","","","","","","","","","","","","","","","",""
"","","","","","image-button-response","110","424534","0.0-2.0-4.0-1.28","5589a309fdf99b7ae5007c33","F1","batch6","spm_respsonse","9010","img/question_5_5.jpeg","0","mat_53","1","1","1","9010","","","","","","","","","","","","","","","","","","","","",""
"","","","","","html-keyboard-response","111","425586","0.0-2.0-4.0-0.29","5589a309fdf99b7ae5007c33","F1","batch6","spm_show_trial_num","null","<p class=block-text>Trial 54 out of 60</p>","null","","","","","","","","","","","","","","","","","","","","","","","","","",""
"","","","","","image-button-response","112","447149","0.0-2.0-4.0-1.29","5589a309fdf99b7ae5007c33","F1","batch6","spm_respsonse","21561","img/question_5_6.jpeg","4","mat_54","5","1","1","21561","","","","","","","","","","","","","","","","","","","","",""
"","","","","","html-keyboard-response","113","448202","0.0-2.0-4.0-0.30","5589a309fdf99b7ae5007c33","F1","batch6","spm_show_trial_num","null","<p class=block-text>Trial 55 out of 60</p>","null","","","","","","","","","","","","","","","","","","","","","","","","","",""
"","","","","","image-button-response","114","531303","0.0-2.0-4.0-1.30","5589a309fdf99b7ae5007c33","F1","batch6","spm_respsonse","83099","img/question_5_7.jpeg","0","mat_55","1","1","1","83099","","","","","","","","","","","","","","","","","","","","",""
"","","","","","html-keyboard-response","115","532355","0.0-2.0-4.0-0.31","5589a309fdf99b7ae5007c33","F1","batch6","spm_show_trial_num","null","<p class=block-text>Trial 56 out of 60</p>","null","","","","","","","","","","","","","","","","","","","","","","","","","",""
"","","","","","image-button-response","116","539285","0.0-2.0-4.0-1.31","5589a309fdf99b7ae5007c33","F1","batch6","spm_respsonse","6927","img/question_5_8.jpeg","5","mat_56","6","1","1","6927","","","","","","","","","","","","","","","","","","","","",""
"","","","","","html-keyboard-response","117","540336","0.0-2.0-4.0-0.32","5589a309fdf99b7ae5007c33","F1","batch6","spm_show_trial_num","null","<p class=block-text>Trial 57 out of 60</p>","null","","","","","","","","","","","","","","","","","","","","","","","","","",""
"","","","","","image-button-response","118","553871","0.0-2.0-4.0-1.32","5589a309fdf99b7ae5007c33","F1","batch6","spm_respsonse","13533","img/question_5_9.jpeg","2","mat_57","3","1","1","13533","","","","","","","","","","","","","","","","","","","","",""
"","","","","","html-keyboard-response","119","554923","0.0-2.0-4.0-0.33","5589a309fdf99b7ae5007c33","F1","batch6","spm_show_trial_num","null","<p class=block-text>Trial 58 out of 60</p>","null","","","","","","","","","","","","","","","","","","","","","","","","","",""
"","","","","","image-button-response","120","593068","0.0-2.0-4.0-1.33","5589a309fdf99b7ae5007c33","F1","batch6","spm_respsonse","38143","img/question_5_10.jpeg","1","mat_58","2","1","1","38143","","","","","","","","","","","","","","","","","","","","",""
"","","","","","html-keyboard-response","121","594120","0.0-2.0-4.0-0.34","5589a309fdf99b7ae5007c33","F1","batch6","spm_show_trial_num","null","<p class=block-text>Trial 59 out of 60</p>","null","","","","","","","","","","","","","","","","","","","","","","","","","",""
"","","","","","image-button-response","122","648211","0.0-2.0-4.0-1.34","5589a309fdf99b7ae5007c33","F1","batch6","spm_respsonse","54089","img/question_5_11.jpeg","3","mat_59","4","1","1","54089","","","","","","","","","","","","","","","","","","","","",""
"","","","","","html-keyboard-response","123","649263","0.0-2.0-4.0-0.35","5589a309fdf99b7ae5007c33","F1","batch6","spm_show_trial_num","null","<p class=block-text>Trial 60 out of 60</p>","null","","","","","","","","","","","","","","","","","","","","","","","","","",""
"","","","","","image-button-response","124","664989","0.0-2.0-4.0-1.35","5589a309fdf99b7ae5007c33","F1","batch6","spm_respsonse","15722","img/question_5_12.jpeg","4","mat_60","5","1","1","15722","","","","","","","","","","","","","","","","","","","","",""
"","","","","","html-button-response","125","667265","0.0-2.0-5.0","5589a309fdf99b7ae5007c33","F1","batch6","spm_goodbye","2024","<p class= block-text>This concludes the Standard Progressive Matrix game. Thank you for your responses!<br> When you are ready, click the button continue</p>","0","","","","","","","","","","","","","","","","","","","","","","","","","",""
"true","","","","","fullscreen","126","670841","0.0-3.0-0.0","5589a309fdf99b7ae5007c33","F1","batch6","","","","","","","","","","","","","","","","","","","","","","","","","","","","","",""
"","","","","","instructions","127","688644","0.0-3.0-1.0-0.0","5589a309fdf99b7ae5007c33","F1","batch6","","17802","","","","","","","","[{""page_index"":0,""viewing_time"":13198},{""page_index"":1,""viewing_time"":4604}]","","","","","","","","","","","","","","","","","","","",""
"","","","","","html-button-response","128","689933","0.0-3.0-1.0-1.0-0.0","5589a309fdf99b7ae5007c33","F1","batch6","pattern_enter_quiz","1289","<p class=block-text> Let's answer a few questions <br>","0","","","","","","","","","","","","","","","","","","","","","","","","","",""
"","","","","","html-button-response","129","695870","0.0-3.0-1.0-1.0-1.0","5589a309fdf99b7ae5007c33","F1","batch6","pattern_quiz","5934","<p class = block-text>True or False: You will have as much time as you want to make each choice. <br></p>","1","","","true","","","","","","","","","","","","","","","","","","","","","","",""
"","","","","","html-button-response","130","697024","0.0-3.0-1.0-1.0-2.0","5589a309fdf99b7ae5007c33","F1","batch6","pattern_quiz_feedback","1152","<p class = block-text>Correct! You should make your choice <strong> as fast as you can</strong>.</p>","0","","","","","","","","","","","","","","","","","","","","","","","","","",""
"","","","","","html-button-response","131","699695","0.0-3.0-1.0-1.0-3.0","5589a309fdf99b7ae5007c33","F1","batch6","pattern_quiz","2671","<p class = block-text>True or False: You will look for 4 pieces in black or white color connected in a row either horizontally, vertically or diagonally. <br></p>","0","","","true","","","","","","","","","","","","","","","","","","","","","","",""
"","","","","","html-button-response","132","700348","0.0-3.0-1.0-1.0-4.0","5589a309fdf99b7ae5007c33","F1","batch6","pattern_quiz_feedback","651","<p class = block-text>Correct! </p>","0","","","","","","","","","","","","","","","","","","","","","","","","","",""
"","","","","","html-button-response","133","701442","0.0-3.0-2.0","5589a309fdf99b7ae5007c33","F1","batch6","pattern_enter_practice","1094","<p class=block-text> Now that you've understood the game, let's do a few practice trials before we start!<br> <br>","0","","","","","","","","","","","","","","","","","","","","","","","","","",""
"","","","","","image-keyboard-response","134","702531","0.0-3.0-3.0-0.0","5589a309fdf99b7ae5007c33","F1","batch6","pattern_practice","1078","stim/prac_yes_16_ver_w1.png","f","","f","true","","","","","","","","","","","","","","","","","","","","","","",""
"","","","","","html-keyboard-response","135","703532","0.0-3.0-3.0-1.0","5589a309fdf99b7ae5007c33","F1","batch6","pattern_feedback","null","<p style=""font-size:30px;color:green;"">Correct!</p>","null","","","","","","","","","","","","","","","","","","","","","","","","","",""
"","","","","","image-keyboard-response","136","704292","0.0-3.0-3.0-0.1","5589a309fdf99b7ae5007c33","F1","batch6","pattern_practice","751","stim/prac_no_18_1.png","j","","j","true","","","","","","","","","","","","","","","","","","","","","","",""
"","","","","","html-keyboard-response","137","705294","0.0-3.0-3.0-1.1","5589a309fdf99b7ae5007c33","F1","batch6","pattern_feedback","null","<p style=""font-size:30px;color:green;"">Correct!</p>","null","","","","","","","","","","","","","","","","","","","","","","","","","",""
"","","","","","image-keyboard-response","138","705804","0.0-3.0-3.0-0.2","5589a309fdf99b7ae5007c33","F1","batch6","pattern_practice","502","stim/prac_yes_18_hor_w1.png","f","","f","true","","","","","","","","","","","","","","","","","","","","","","",""
"","","","","","html-keyboard-response","139","706806","0.0-3.0-3.0-1.2","5589a309fdf99b7ae5007c33","F1","batch6","pattern_feedback","null","<p style=""font-size:30px;color:green;"">Correct!</p>","null","","","","","","","","","","","","","","","","","","","","","","","","","",""
"","","","","","image-keyboard-response","140","707400","0.0-3.0-3.0-0.3","5589a309fdf99b7ae5007c33","F1","batch6","pattern_practice","586","stim/prac_yes_20_dia_b1.png","j","","f","false","","","","","","","","","","","","","","","","","","","","","","",""
"","","","","","html-keyboard-response","141","708402","0.0-3.0-3.0-1.3","5589a309fdf99b7ae5007c33","F1","batch6","pattern_feedback","null","<p style=""font-size:30px;color:red;"">Wrong.</p>","null","","","","","","","","","","","","","","","","","","","","","","","","","",""
"","","","","","image-keyboard-response","142","709352","0.0-3.0-3.0-0.4","5589a309fdf99b7ae5007c33","F1","batch6","pattern_practice","942","stim/prac_no_16_1.png","j","","j","true","","","","","","","","","","","","","","","","","","","","","","",""
"","","","","","html-keyboard-response","143","710354","0.0-3.0-3.0-1.4","5589a309fdf99b7ae5007c33","F1","batch6","pattern_feedback","null","<p style=""font-size:30px;color:green;"">Correct!</p>","null","","","","","","","","","","","","","","","","","","","","","","","","","",""
"","","","","","html-button-response","144","713213","0.0-3.0-4.0","5589a309fdf99b7ae5007c33","F1","batch6","pattern_enter_official_trials","2858","<p class=block-text> Good job! You are done with practice trials!<br>
        You responded correctly on 80% of the trials.<br>
        Press the button below to start official trials. Now you won't see any feedback about your response</p>","0","","","","","","","","","","","","","","","","","","","","","","","","","",""
"","","","","","html-keyboard-response","145","714014","0.0-3.0-5.0-0.0","5589a309fdf99b7ae5007c33","F1","batch6","pattern_show_trial_num","null","<p class=block-text>Trial 1 out of 78</p>","null","","","","","","","","","","","","","","","","","","","","","","","","","",""
"","","","","","image-keyboard-response","146","716468","0.0-3.0-5.0-1.0","5589a309fdf99b7ae5007c33","F1","batch6","pattern_response","2447","stim/yes_58_dia_w1_w.png","j","pattern_76","f","false","","","","2447","false","0","","","","","","","","","","","","","","","","",""
"","","","","","html-keyboard-response","147","717769","0.0-3.0-5.0-0.1","5589a309fdf99b7ae5007c33","F1","batch6","pattern_show_trial_num","null","<p class=block-text>Trial 2 out of 78</p>","null","","","","","","","","","","","","","","","","","","","","","","","","","",""
"","","","","","image-keyboard-response","148","719116","0.0-3.0-5.0-1.1","5589a309fdf99b7ae5007c33","F1","batch6","pattern_response","1339","stim/no_28_2.png","j","pattern_11","j","true","","","","1339","true","1","","","","","","","","","","","","","","","","",""
"","","","","","html-keyboard-response","149","720416","0.0-3.0-5.0-0.2","5589a309fdf99b7ae5007c33","F1","batch6","pattern_show_trial_num","null","<p class=block-text>Trial 3 out of 78</p>","null","","","","","","","","","","","","","","","","","","","","","","","","","",""
"","","","","","image-keyboard-response","150","725326","0.0-3.0-5.0-1.2","5589a309fdf99b7ae5007c33","F1","batch6","pattern_response","4901","stim/no_67_1.png","j","pattern_39","j","true","","","","4901","true","2","","","","","","","","","","","","","","","","",""
"","","","","","html-keyboard-response","151","726628","0.0-3.0-5.0-0.3","5589a309fdf99b7ae5007c33","F1","batch6","pattern_show_trial_num","null","<p class=block-text>Trial 4 out of 78</p>","null","","","","","","","","","","","","","","","","","","","","","","","","","",""
"","","","","","image-keyboard-response","152","727621","0.0-3.0-5.0-1.3","5589a309fdf99b7ae5007c33","F1","batch6","pattern_response","986","stim/yes_15_dia_b1u_b.png","f","pattern_44","f","true","","","","986","true","3","","","","","","","","","","","","","","","","",""
"","","","","","html-keyboard-response","153","728923","0.0-3.0-5.0-0.4","5589a309fdf99b7ae5007c33","F1","batch6","pattern_show_trial_num","null","<p class=block-text>Trial 5 out of 78</p>","null","","","","","","","","","","","","","","","","","","","","","","","","","",""
"","","","","","image-keyboard-response","154","729727","0.0-3.0-5.0-1.4","5589a309fdf99b7ae5007c33","F1","batch6","pattern_response","797","stim/yes_39_hor_w1_w.png","f","pattern_62","f","true","","","","797","true","4","","","","","","","","","","","","","","","","",""
"","","","","","html-keyboard-response","155","731028","0.0-3.0-5.0-0.5","5589a309fdf99b7ae5007c33","F1","batch6","pattern_show_trial_num","null","<p class=block-text>Trial 6 out of 78</p>","null","","","","","","","","","","","","","","","","","","","","","","","","","",""
"","","","","","image-keyboard-response","156","732346","0.0-3.0-5.0-1.5","5589a309fdf99b7ae5007c33","F1","batch6","pattern_response","1309","stim/no_30_1_b.png","j","pattern_13","j","true","","","","1309","true","5","","","","","","","","","","","","","","","","",""
"","","","","","html-keyboard-response","157","733647","0.0-3.0-5.0-0.6","5589a309fdf99b7ae5007c33","F1","batch6","pattern_show_trial_num","null","<p class=block-text>Trial 7 out of 78</p>","null","","","","","","","","","","","","","","","","","","","","","","","","","",""
"","","","","","image-keyboard-response","158","734847","0.0-3.0-5.0-1.6","5589a309fdf99b7ae5007c33","F1","batch6","pattern_response","1192","stim/yes_26_dia_w2_w.png","f","pattern_50","f","true","","","","1192","true","6","","","","","","","","","","","","","","","","",""
"","","","","","html-keyboard-response","159","736149","0.0-3.0-5.0-0.7","5589a309fdf99b7ae5007c33","F1","batch6","pattern_show_trial_num","null","<p class=block-text>Trial 8 out of 78</p>","null","","","","","","","","","","","","","","","","","","","","","","","","","",""
"","","","","","image-keyboard-response","160","737361","0.0-3.0-5.0-1.7","5589a309fdf99b7ae5007c33","F1","batch6","pattern_response","1205","stim/yes_46_ver_b1_b.png","f","pattern_68","f","true","","","","1205","true","7","","","","","","","","","","","","","","","","",""
"","","","","","html-keyboard-response","161","738663","0.0-3.0-5.0-0.8","5589a309fdf99b7ae5007c33","F1","batch6","pattern_show_trial_num","null","<p class=block-text>Trial 9 out of 78</p>","null","","","","","","","","","","","","","","","","","","","","","","","","","",""
"","","","","","image-keyboard-response","162","739327","0.0-3.0-5.0-1.8","5589a309fdf99b7ae5007c33","F1","batch6","pattern_response","656","stim/yes_17_ver_b1_b.png","f","pattern_46","f","true","","","","656","true","8","","","","","","","","","","","","","","","","",""
"","","","","","html-keyboard-response","163","740629","0.0-3.0-5.0-0.9","5589a309fdf99b7ae5007c33","F1","batch6","pattern_show_trial_num","null","<p class=block-text>Trial 10 out of 78</p>","null","","","","","","","","","","","","","","","","","","","","","","","","","",""
"","","","","","image-keyboard-response","164","742433","0.0-3.0-5.0-1.9","5589a309fdf99b7ae5007c33","F1","batch6","pattern_response","1796","stim/no_22_1_b.png","j","pattern_07","j","true","","","","1796","true","9","","","","","","","","","","","","","","","","",""
"","","","","","html-keyboard-response","165","743734","0.0-3.0-5.0-0.10","5589a309fdf99b7ae5007c33","F1","batch6","pattern_show_trial_num","null","<p class=block-text>Trial 11 out of 78</p>","null","","","","","","","","","","","","","","","","","","","","","","","","","",""
"","","","","","image-keyboard-response","166","747494","0.0-3.0-5.0-1.10","5589a309fdf99b7ae5007c33","F1","batch6","pattern_response","3751","stim/no_45_1_w.png","j","pattern_25","j","true","","","","3751","true","10","","","","","","","","","","","","","","","","",""
"","","","","","html-keyboard-response","167","748794","0.0-3.0-5.0-0.11","5589a309fdf99b7ae5007c33","F1","batch6","pattern_show_trial_num","null","<p class=block-text>Trial 12 out of 78</p>","null","","","","","","","","","","","","","","","","","","","","","","","","","",""
"","","","","","image-keyboard-response","168","749645","0.0-3.0-5.0-1.11","5589a309fdf99b7ae5007c33","F1","batch6","pattern_response","844","stim/no_18_1_b.png","j","pattern_05","j","true","","","","844","true","11","","","","","","","","","","","","","","","","",""
"","","","","","html-keyboard-response","169","750946","0.0-3.0-5.0-0.12","5589a309fdf99b7ae5007c33","F1","batch6","pattern_show_trial_num","null","<p class=block-text>Trial 13 out of 78</p>","null","","","","","","","","","","","","","","","","","","","","","","","","","",""
"","","","","","image-keyboard-response","170","751863","0.0-3.0-5.0-1.12","5589a309fdf99b7ae5007c33","F1","batch6","pattern_response","909","stim/yes_70_ver_b1.png","f","pattern_80","f","true","","","","909","true","12","","","","","","","","","","","","","","","","",""
"","","","","","html-keyboard-response","171","753164","0.0-3.0-5.0-0.13","5589a309fdf99b7ae5007c33","F1","batch6","pattern_show_trial_num","null","<p class=block-text>Trial 14 out of 78</p>","null","","","","","","","","","","","","","","","","","","","","","","","","","",""
"","","","","","image-keyboard-response","172","754657","0.0-3.0-5.0-1.13","5589a309fdf99b7ae5007c33","F1","batch6","pattern_response","1485","stim/no_37_2_w.png","j","pattern_19","j","true","","","","1485","true","13","","","","","","","","","","","","","","","","",""
"","","","","","html-keyboard-response","173","755957","0.0-3.0-5.0-0.14","5589a309fdf99b7ae5007c33","F1","batch6","pattern_show_trial_num","null","<p class=block-text>Trial 15 out of 78</p>","null","","","","","","","","","","","","","","","","","","","","","","","","","",""
"","","","","","image-keyboard-response","174","756717","0.0-3.0-5.0-1.14","5589a309fdf99b7ae5007c33","F1","batch6","pattern_response","753","stim/yes_37_hor_w1_w.png","f","pattern_60","f","true","","","","753","true","14","","","","","","","","","","","","","","","","",""
"","","","","","html-keyboard-response","175","758018","0.0-3.0-5.0-0.15","5589a309fdf99b7ae5007c33","F1","batch6","pattern_show_trial_num","null","<p class=block-text>Trial 16 out of 78</p>","null","","","","","","","","","","","","","","","","","","","","","","","","","",""
"","","","","","image-keyboard-response","176","758985","0.0-3.0-5.0-1.15","5589a309fdf99b7ae5007c33","F1","batch6","pattern_response","960","stim/yes_53_ver_b1_b.png","f","pattern_74","f","true","","","","960","true","15","","","","","","","","","","","","","","","","",""
"","","","","","html-keyboard-response","177","760285","0.0-3.0-5.0-0.16","5589a309fdf99b7ae5007c33","F1","batch6","pattern_show_trial_num","null","<p class=block-text>Trial 17 out of 78</p>","null","","","","","","","","","","","","","","","","","","","","","","","","","",""
"","","","","","image-keyboard-response","178","762907","0.0-3.0-5.0-1.16","5589a309fdf99b7ae5007c33","F1","batch6","pattern_response","2615","stim/yes_63_dia_b1.png","j","pattern_78","f","false","","","","2615","false","15","","","","","","","","","","","","","","","","",""
"","","","","","html-keyboard-response","179","764209","0.0-3.0-5.0-0.17","5589a309fdf99b7ae5007c33","F1","batch6","pattern_show_trial_num","null","<p class=block-text>Trial 18 out of 78</p>","null","","","","","","","","","","","","","","","","","","","","","","","","","",""
"","","","","","image-keyboard-response","180","765285","0.0-3.0-5.0-1.17","5589a309fdf99b7ae5007c33","F1","batch6","pattern_response","1069","stim/yes_51_dia_b1.png","j","pattern_72","f","false","","","","1069","false","15","","","","","","","","","","","","","","","","",""
"","","","","","html-keyboard-response","181","766585","0.0-3.0-5.0-0.18","5589a309fdf99b7ae5007c33","F1","batch6","pattern_show_trial_num","null","<p class=block-text>Trial 19 out of 78</p>","null","","","","","","","","","","","","","","","","","","","","","","","","","",""
"","","","","","image-keyboard-response","182","767317","0.0-3.0-5.0-1.18","5589a309fdf99b7ae5007c33","F1","batch6","pattern_response","725","stim/yes_23_ver_b1.png","f","pattern_48","f","true","","","","725","true","16","","","","","","","","","","","","","","","","",""
"","","","","","html-keyboard-response","183","768617","0.0-3.0-5.0-0.19","5589a309fdf99b7ae5007c33","F1","batch6","pattern_show_trial_num","null","<p class=block-text>Trial 20 out of 78</p>","null","","","","","","","","","","","","","","","","","","","","","","","","","",""
"","","","","","image-keyboard-response","184","770279","0.0-3.0-5.0-1.19","5589a309fdf99b7ae5007c33","F1","batch6","pattern_response","1655","stim/no_58_1_w.png","f","pattern_35","j","false","","","","1655","false","16","","","","","","","","","","","","","","","","",""
"","","","","","html-keyboard-response","185","771580","0.0-3.0-5.0-0.20","5589a309fdf99b7ae5007c33","F1","batch6","pattern_show_trial_num","null","<p class=block-text>Trial 21 out of 78</p>","null","","","","","","","","","","","","","","","","","","","","","","","","","",""
"","","","","","image-keyboard-response","186","773317","0.0-3.0-5.0-1.20","5589a309fdf99b7ae5007c33","F1","batch6","pattern_response","1730","stim/yes_42_dia_w1_w.png","j","pattern_64","f","false","","","","1730","false","16","","","","","","","","","","","","","","","","",""
"","","","","","html-keyboard-response","187","774618","0.0-3.0-5.0-0.21","5589a309fdf99b7ae5007c33","F1","batch6","pattern_show_trial_num","null","<p class=block-text>Trial 22 out of 78</p>","null","","","","","","","","","","","","","","","","","","","","","","","","","",""
"","","","","","image-keyboard-response","188","775257","0.0-3.0-5.0-1.21","5589a309fdf99b7ae5007c33","F1","batch6","pattern_response","631","stim/yes_29_hor_b1_b.png","f","pattern_52","f","true","","","","631","true","17","","","","","","","","","","","","","","","","",""
"","","","","","html-keyboard-response","189","776557","0.0-3.0-5.0-0.22","5589a309fdf99b7ae5007c33","F1","batch6","pattern_show_trial_num","null","<p class=block-text>Trial 23 out of 78</p>","null","","","","","","","","","","","","","","","","","","","","","","","","","",""
"","","","","","image-keyboard-response","190","778270","0.0-3.0-5.0-1.22","5589a309fdf99b7ae5007c33","F1","batch6","pattern_response","1706","stim/no_51_1.png","j","pattern_31","j","true","","","","1706","true","18","","","","","","","","","","","","","","","","",""
"","","","","","html-keyboard-response","191","779571","0.0-3.0-5.0-0.23","5589a309fdf99b7ae5007c33","F1","batch6","pattern_show_trial_num","null","<p class=block-text>Trial 24 out of 78</p>","null","","","","","","","","","","","","","","","","","","","","","","","","","",""
"","","","","","image-keyboard-response","192","780954","0.0-3.0-5.0-1.23","5589a309fdf99b7ae5007c33","F1","batch6","pattern_response","1378","stim/no_39_1_w.png","j","pattern_21","j","true","","","","1378","true","19","","","","","","","","","","","","","","","","",""
"","","","","","html-keyboard-response","193","782256","0.0-3.0-5.0-0.24","5589a309fdf99b7ae5007c33","F1","batch6","pattern_show_trial_num","null","<p class=block-text>Trial 25 out of 78</p>","null","","","","","","","","","","","","","","","","","","","","","","","","","",""
"","","","","","image-keyboard-response","194","782889","0.0-3.0-5.0-1.24","5589a309fdf99b7ae5007c33","F1","batch6","pattern_response","626","stim/yes_12_hor_w1_w.png","f","pattern_42","f","true","","","","626","true","20","","","","","","","","","","","","","","","","",""
"","","","","","html-keyboard-response","195","784191","0.0-3.0-5.0-0.25","5589a309fdf99b7ae5007c33","F1","batch6","pattern_show_trial_num","null","<p class=block-text>Trial 26 out of 78</p>","null","","","","","","","","","","","","","","","","","","","","","","","","","",""
"","","","","","image-keyboard-response","196","785460","0.0-3.0-5.0-1.25","5589a309fdf99b7ae5007c33","F1","batch6","pattern_response","1263","stim/yes_44_ver_w1_w.png","j","pattern_66","f","false","","","","1263","false","20","","","","","","","","","","","","","","","","",""
"","","","","","html-keyboard-response","197","786762","0.0-3.0-5.0-0.26","5589a309fdf99b7ae5007c33","F1","batch6","pattern_show_trial_num","null","<p class=block-text>Trial 27 out of 78</p>","null","","","","","","","","","","","","","","","","","","","","","","","","","",""
"","","","","","image-keyboard-response","198","787807","0.0-3.0-5.0-1.26","5589a309fdf99b7ae5007c33","F1","batch6","pattern_response","1038","stim/yes_49_hor_w1_b.png","f","pattern_70","f","true","","","","1038","true","21","","","","","","","","","","","","","","","","",""
"","","","","","html-keyboard-response","199","789108","0.0-3.0-5.0-0.27","5589a309fdf99b7ae5007c33","F1","batch6","pattern_show_trial_num","null","<p class=block-text>Trial 28 out of 78</p>","null","","","","","","","","","","","","","","","","","","","","","","","","","",""
"","","","","","image-keyboard-response","200","789700","0.0-3.0-5.0-1.27","5589a309fdf99b7ae5007c33","F1","batch6","pattern_response","584","stim/no_12_1.png","f","pattern_01","j","false","","","","584","false","21","","","","","","","","","","","","","","","","",""
"","","","","","html-keyboard-response","201","791002","0.0-3.0-5.0-0.28","5589a309fdf99b7ae5007c33","F1","batch6","pattern_show_trial_num","null","<p class=block-text>Trial 29 out of 78</p>","null","","","","","","","","","","","","","","","","","","","","","","","","","",""
"","","","","","image-keyboard-response","202","791651","0.0-3.0-5.0-1.28","5589a309fdf99b7ae5007c33","F1","batch6","pattern_response","639","stim/yes_36_ver_w1_w.png","f","pattern_58","f","true","","","","639","true","22","","","","","","","","","","","","","","","","",""
"","","","","","html-keyboard-response","203","792953","0.0-3.0-5.0-0.29","5589a309fdf99b7ae5007c33","F1","batch6","pattern_show_trial_num","null","<p class=block-text>Trial 30 out of 78</p>","null","","","","","","","","","","","","","","","","","","","","","","","","","",""
"","","","","","image-keyboard-response","204","794106","0.0-3.0-5.0-1.29","5589a309fdf99b7ae5007c33","F1","batch6","pattern_response","1147","stim/no_49_2_b.png","j","pattern_29","j","true","","","","1147","true","23","","","","","","","","","","","","","","","","",""
"","","","","","html-keyboard-response","205","795407","0.0-3.0-5.0-0.30","5589a309fdf99b7ae5007c33","F1","batch6","pattern_show_trial_num","null","<p class=block-text>Trial 31 out of 78</p>","null","","","","","","","","","","","","","","","","","","","","","","","","","",""
"","","","","","image-keyboard-response","206","797188","0.0-3.0-5.0-1.30","5589a309fdf99b7ae5007c33","F1","batch6","pattern_response","1773","stim/no_36_1_b.png","j","pattern_17","j","true","","","","1773","true","24","","","","","","","","","","","","","","","","",""
"","","","","","html-keyboard-response","207","798490","0.0-3.0-5.0-0.31","5589a309fdf99b7ae5007c33","F1","batch6","pattern_show_trial_num","null","<p class=block-text>Trial 32 out of 78</p>","null","","","","","","","","","","","","","","","","","","","","","","","","","",""
"","","","","","image-keyboard-response","208","799452","0.0-3.0-5.0-1.31","5589a309fdf99b7ae5007c33","F1","batch6","pattern_response","955","stim/no_15_1_w.png","j","pattern_03","j","true","","","","955","true","25","","","","","","","","","","","","","","","","",""
"","","","","","html-keyboard-response","209","800754","0.0-3.0-5.0-0.32","5589a309fdf99b7ae5007c33","F1","batch6","pattern_show_trial_num","null","<p class=block-text>Trial 33 out of 78</p>","null","","","","","","","","","","","","","","","","","","","","","","","","","",""
"","","","","","image-keyboard-response","210","801729","0.0-3.0-5.0-1.32","5589a309fdf99b7ae5007c33","F1","batch6","pattern_response","968","stim/no_33_1_b.png","j","pattern_15","j","true","","","","968","true","26","","","","","","","","","","","","","","","","",""
"","","","","","html-keyboard-response","211","803032","0.0-3.0-5.0-0.33","5589a309fdf99b7ae5007c33","F1","batch6","pattern_show_trial_num","null","<p class=block-text>Trial 34 out of 78</p>","null","","","","","","","","","","","","","","","","","","","","","","","","","",""
"","","","","","image-keyboard-response","212","804560","0.0-3.0-5.0-1.33","5589a309fdf99b7ae5007c33","F1","batch6","pattern_response","1521","stim/no_47_1_b.png","j","pattern_27","j","true","","","","1521","true","27","","","","","","","","","","","","","","","","",""
"","","","","","html-keyboard-response","213","805862","0.0-3.0-5.0-0.34","5589a309fdf99b7ae5007c33","F1","batch6","pattern_show_trial_num","null","<p class=block-text>Trial 35 out of 78</p>","null","","","","","","","","","","","","","","","","","","","","","","","","","",""
"","","","","","image-keyboard-response","214","807546","0.0-3.0-5.0-1.34","5589a309fdf99b7ae5007c33","F1","batch6","pattern_response","1676","stim/no_43_2_b.png","j","pattern_23","j","true","","","","1676","true","28","","","","","","","","","","","","","","","","",""
"","","","","","html-keyboard-response","215","808847","0.0-3.0-5.0-0.35","5589a309fdf99b7ae5007c33","F1","batch6","pattern_show_trial_num","null","<p class=block-text>Trial 36 out of 78</p>","null","","","","","","","","","","","","","","","","","","","","","","","","","",""
"","","","","","image-keyboard-response","216","811540","0.0-3.0-5.0-1.35","5589a309fdf99b7ae5007c33","F1","batch6","pattern_response","2685","stim/no_53_1_b.png","j","pattern_33","j","true","","","","2685","true","29","","","","","","","","","","","","","","","","",""
"","","","","","html-keyboard-response","217","812841","0.0-3.0-5.0-0.36","5589a309fdf99b7ae5007c33","F1","batch6","pattern_show_trial_num","null","<p class=block-text>Trial 37 out of 78</p>","null","","","","","","","","","","","","","","","","","","","","","","","","","",""
"","","","","","image-keyboard-response","218","813967","0.0-3.0-5.0-1.36","5589a309fdf99b7ae5007c33","F1","batch6","pattern_response","1119","stim/no_25_1_b.png","j","pattern_09","j","true","","","","1119","true","30","","","","","","","","","","","","","","","","",""
"","","","","","html-keyboard-response","219","815269","0.0-3.0-5.0-0.37","5589a309fdf99b7ae5007c33","F1","batch6","pattern_show_trial_num","null","<p class=block-text>Trial 38 out of 78</p>","null","","","","","","","","","","","","","","","","","","","","","","","","","",""
"","","","","","image-keyboard-response","220","816321","0.0-3.0-5.0-1.37","5589a309fdf99b7ae5007c33","F1","batch6","pattern_response","1045","stim/yes_30_ver_b1_b.png","f","pattern_54","f","true","","","","1045","true","31","","","","","","","","","","","","","","","","",""
"","","","","","html-keyboard-response","221","817622","0.0-3.0-5.0-0.38","5589a309fdf99b7ae5007c33","F1","batch6","pattern_show_trial_num","null","<p class=block-text>Trial 39 out of 78</p>","null","","","","","","","","","","","","","","","","","","","","","","","","","",""
"","","","","","image-keyboard-response","222","818759","0.0-3.0-5.0-1.38","5589a309fdf99b7ae5007c33","F1","batch6","pattern_response","1131","stim/yes_33_dia_w1_w.png","f","pattern_56","f","true","","","","1131","true","32","","","","","","","","","","","","","","","","",""
"","","","","","image-keyboard-response","223","821833","0.0-3.0-6.0","5589a309fdf99b7ae5007c33","F1","batch6","attention_check","2565","stim/empty_board.png","j","","j","true","","","","","","","500","[""f"",""j""]","","","","","","","","","","","","","","",""
"","","","","","html-keyboard-response","224","822634","0.0-3.0-7.0-0.0","5589a309fdf99b7ae5007c33","F1","batch6","pattern_show_trial_num","null","<p class=block-text>Trial 40 out of 78</p>","null","","","","","","","","","","","","","","","","","","","","","","","","","",""
"","","","","","image-keyboard-response","225","825435","0.0-3.0-7.0-1.0","5589a309fdf99b7ae5007c33","F1","batch6","pattern_response","2793","stim/no_36_2_w.png","j","pattern_18","j","true","","","","2793","true","33","","","","","","","","","","","","","","","","",""
"","","","","","html-keyboard-response","226","826735","0.0-3.0-7.0-0.1","5589a309fdf99b7ae5007c33","F1","batch6","pattern_show_trial_num","null","<p class=block-text>Trial 41 out of 78</p>","null","","","","","","","","","","","","","","","","","","","","","","","","","",""
"","","","","","image-keyboard-response","227","827573","0.0-3.0-7.0-1.1","5589a309fdf99b7ae5007c33","F1","batch6","pattern_response","832","stim/yes_22_ver_w1.png","f","pattern_47","f","true","","","","832","true","34","","","","","","","","","","","","","","","","",""
"","","","","","html-keyboard-response","228","828875","0.0-3.0-7.0-0.2","5589a309fdf99b7ae5007c33","F1","batch6","pattern_show_trial_num","null","<p class=block-text>Trial 42 out of 78</p>","null","","","","","","","","","","","","","","","","","","","","","","","","","",""
"","","","","","image-keyboard-response","229","830220","0.0-3.0-7.0-1.2","5589a309fdf99b7ae5007c33","F1","batch6","pattern_response","1337","stim/yes_28_ver_b1.png","f","pattern_51","f","true","","","","1337","true","35","","","","","","","","","","","","","","","","",""
"","","","","","html-keyboard-response","230","831521","0.0-3.0-7.0-0.3","5589a309fdf99b7ae5007c33","F1","batch6","pattern_show_trial_num","null","<p class=block-text>Trial 43 out of 78</p>","null","","","","","","","","","","","","","","","","","","","","","","","","","",""
"","","","","","image-keyboard-response","231","835746","0.0-3.0-7.0-1.3","5589a309fdf99b7ae5007c33","F1","batch6","pattern_response","4219","stim/no_65_1_b.png","j","pattern_38","j","true","","","","4219","true","36","","","","","","","","","","","","","","","","",""
"","","","","","html-keyboard-response","232","837047","0.0-3.0-7.0-0.4","5589a309fdf99b7ae5007c33","F1","batch6","pattern_show_trial_num","null","<p class=block-text>Trial 44 out of 78</p>","null","","","","","","","","","","","","","","","","","","","","","","","","","",""
"","","","","","image-keyboard-response","233","839414","0.0-3.0-7.0-1.4","5589a309fdf99b7ae5007c33","F1","batch6","pattern_response","2359","stim/yes_67_hor_b1.png","f","pattern_79","f","true","","","","2359","true","37","","","","","","","","","","","","","","","","",""
"","","","","","html-keyboard-response","234","840715","0.0-3.0-7.0-0.5","5589a309fdf99b7ae5007c33","F1","batch6","pattern_show_trial_num","null","<p class=block-text>Trial 45 out of 78</p>","null","","","","","","","","","","","","","","","","","","","","","","","","","",""
"","","","","","image-keyboard-response","235","842892","0.0-3.0-7.0-1.5","5589a309fdf99b7ae5007c33","F1","batch6","pattern_response","2171","stim/yes_50_dia_w1.png","j","pattern_71","f","false","","","","2171","false","37","","","","","","","","","","","","","","","","",""
"","","","","","html-keyboard-response","236","844192","0.0-3.0-7.0-0.6","5589a309fdf99b7ae5007c33","F1","batch6","pattern_show_trial_num","null","<p class=block-text>Trial 46 out of 78</p>","null","","","","","","","","","","","","","","","","","","","","","","","","","",""
"","","","","","image-keyboard-response","237","845007","0.0-3.0-7.0-1.6","5589a309fdf99b7ae5007c33","F1","batch6","pattern_response","807","stim/yes_25_hor_b1_b.png","f","pattern_49","f","true","","","","807","true","38","","","","","","","","","","","","","","","","",""
"","","","","","html-keyboard-response","238","846309","0.0-3.0-7.0-0.7","5589a309fdf99b7ae5007c33","F1","batch6","pattern_show_trial_num","null","<p class=block-text>Trial 47 out of 78</p>","null","","","","","","","","","","","","","","","","","","","","","","","","","",""
"","","","","","image-keyboard-response","239","847064","0.0-3.0-7.0-1.7","5589a309fdf99b7ae5007c33","F1","batch6","pattern_response","748","stim/yes_14_hor_b1_w.png","f","pattern_43","f","true","","","","748","true","39","","","","","","","","","","","","","","","","",""
"","","","","","html-keyboard-response","240","848366","0.0-3.0-7.0-0.8","5589a309fdf99b7ae5007c33","F1","batch6","pattern_show_trial_num","null","<p class=block-text>Trial 48 out of 78</p>","null","","","","","","","","","","","","","","","","","","","","","","","","","",""
"","","","","","image-keyboard-response","241","849194","0.0-3.0-7.0-1.8","5589a309fdf99b7ae5007c33","F1","batch6","pattern_response","821","stim/yes_55_hor_w1_w.png","f","pattern_75","f","true","","","","821","true","40","","","","","","","","","","","","","","","","",""
"","","","","","html-keyboard-response","242","850496","0.0-3.0-7.0-0.9","5589a309fdf99b7ae5007c33","F1","batch6","pattern_show_trial_num","null","<p class=block-text>Trial 49 out of 78</p>","null","","","","","","","","","","","","","","","","","","","","","","","","","",""
"","","","","","image-keyboard-response","243","852551","0.0-3.0-7.0-1.9","5589a309fdf99b7ae5007c33","F1","batch6","pattern_response","2047","stim/no_48_1_w.png","j","pattern_28","j","true","","","","2047","true","41","","","","","","","","","","","","","","","","",""
"","","","","","html-keyboard-response","244","853854","0.0-3.0-7.0-0.10","5589a309fdf99b7ae5007c33","F1","batch6","pattern_show_trial_num","null","<p class=block-text>Trial 50 out of 78</p>","null","","","","","","","","","","","","","","","","","","","","","","","","","",""
"","","","","","image-keyboard-response","245","854600","0.0-3.0-7.0-1.10","5589a309fdf99b7ae5007c33","F1","batch6","pattern_response","739","stim/no_13_2_b.png","j","pattern_02","j","true","","","","739","true","42","","","","","","","","","","","","","","","","",""
"","","","","","html-keyboard-response","246","855901","0.0-3.0-7.0-0.11","5589a309fdf99b7ae5007c33","F1","batch6","pattern_show_trial_num","null","<p class=block-text>Trial 51 out of 78</p>","null","","","","","","","","","","","","","","","","","","","","","","","","","",""
"","","","","","image-keyboard-response","247","857296","0.0-3.0-7.0-1.11","5589a309fdf99b7ae5007c33","F1","batch6","pattern_response","1388","stim/yes_35_dia_b1.png","j","pattern_57","f","false","","","","1388","false","42","","","","","","","","","","","","","","","","",""
"","","","","","html-keyboard-response","248","858597","0.0-3.0-7.0-0.12","5589a309fdf99b7ae5007c33","F1","batch6","pattern_show_trial_num","null","<p class=block-text>Trial 52 out of 78</p>","null","","","","","","","","","","","","","","","","","","","","","","","","","",""
"","","","","","image-keyboard-response","249","860896","0.0-3.0-7.0-1.12","5589a309fdf99b7ae5007c33","F1","batch6","pattern_response","2292","stim/no_52_1.png","j","pattern_32","j","true","","","","2292","true","43","","","","","","","","","","","","","","","","",""
"","","","","","html-keyboard-response","250","862199","0.0-3.0-7.0-0.13","5589a309fdf99b7ae5007c33","F1","batch6","pattern_show_trial_num","null","<p class=block-text>Trial 53 out of 78</p>","null","","","","","","","","","","","","","","","","","","","","","","","","","",""
"","","","","","image-keyboard-response","251","864075","0.0-3.0-7.0-1.13","5589a309fdf99b7ae5007c33","F1","batch6","pattern_response","1870","stim/yes_31_hor_b1.png","j","pattern_55","f","false","","","","1870","false","43","","","","","","","","","","","","","","","","",""
"","","","","","html-keyboard-response","252","865377","0.0-3.0-7.0-0.14","5589a309fdf99b7ae5007c33","F1","batch6","pattern_show_trial_num","null","<p class=block-text>Trial 54 out of 78</p>","null","","","","","","","","","","","","","","","","","","","","","","","","","",""
"","","","","","image-keyboard-response","253","866513","0.0-3.0-7.0-1.14","5589a309fdf99b7ae5007c33","F1","batch6","pattern_response","1130","stim/no_32_1_w.png","j","pattern_14","j","true","","","","1130","true","44","","","","","","","","","","","","","","","","",""
"","","","","","html-keyboard-response","254","867816","0.0-3.0-7.0-0.15","5589a309fdf99b7ae5007c33","F1","batch6","pattern_show_trial_num","null","<p class=block-text>Trial 55 out of 78</p>","null","","","","","","","","","","","","","","","","","","","","","","","","","",""
"","","","","","image-keyboard-response","255","869535","0.0-3.0-7.0-1.15","5589a309fdf99b7ae5007c33","F1","batch6","pattern_response","1713","stim/no_42_1_w.png","j","pattern_22","j","true","","","","1713","true","45","","","","","","","","","","","","","","","","",""
"","","","","","html-keyboard-response","256","870836","0.0-3.0-7.0-0.16","5589a309fdf99b7ae5007c33","F1","batch6","pattern_show_trial_num","null","<p class=block-text>Trial 56 out of 78</p>","null","","","","","","","","","","","","","","","","","","","","","","","","","",""
"","","","","","image-keyboard-response","257","873233","0.0-3.0-7.0-1.16","5589a309fdf99b7ae5007c33","F1","batch6","pattern_response","2389","stim/yes_37_dia_w1.png","j","pattern_59","f","false","","","","2389","false","45","","","","","","","","","","","","","","","","",""
"","","","","","html-keyboard-response","258","874535","0.0-3.0-7.0-0.17","5589a309fdf99b7ae5007c33","F1","batch6","pattern_show_trial_num","null","<p class=block-text>Trial 57 out of 78</p>","null","","","","","","","","","","","","","","","","","","","","","","","","","",""
"","","","","","image-keyboard-response","259","875691","0.0-3.0-7.0-1.17","5589a309fdf99b7ae5007c33","F1","batch6","pattern_response","1150","stim/yes_43_ver_w1_w.png","f","pattern_65","f","true","","","","1150","true","46","","","","","","","","","","","","","","","","",""
"","","","","","html-keyboard-response","260","876993","0.0-3.0-7.0-0.18","5589a309fdf99b7ae5007c33","F1","batch6","pattern_show_trial_num","null","<p class=block-text>Trial 58 out of 78</p>","null","","","","","","","","","","","","","","","","","","","","","","","","","",""
"","","","","","image-keyboard-response","261","878509","0.0-3.0-7.0-1.18","5589a309fdf99b7ae5007c33","F1","batch6","pattern_response","1509","stim/no_34_1_b.png","j","pattern_16","j","true","","","","1509","true","47","","","","","","","","","","","","","","","","",""
"","","","","","html-keyboard-response","262","879810","0.0-3.0-7.0-0.19","5589a309fdf99b7ae5007c33","F1","batch6","pattern_show_trial_num","null","<p class=block-text>Trial 59 out of 78</p>","null","","","","","","","","","","","","","","","","","","","","","","","","","",""
"","","","","","image-keyboard-response","263","882081","0.0-3.0-7.0-1.19","5589a309fdf99b7ae5007c33","F1","batch6","pattern_response","2264","stim/no_44_1.png","j","pattern_24","j","true","","","","2264","true","48","","","","","","","","","","","","","","","","",""
"","","","","","html-keyboard-response","264","883383","0.0-3.0-7.0-0.20","5589a309fdf99b7ae5007c33","F1","batch6","pattern_show_trial_num","null","<p class=block-text>Trial 60 out of 78</p>","null","","","","","","","","","","","","","","","","","","","","","","","","","",""
"","","","","","image-keyboard-response","265","884527","0.0-3.0-7.0-1.20","5589a309fdf99b7ae5007c33","F1","batch6","pattern_response","1137","stim/yes_29_ver_w1.png","f","pattern_53","f","true","","","","1137","true","49","","","","","","","","","","","","","","","","",""
"","","","","","html-keyboard-response","266","885828","0.0-3.0-7.0-0.21","5589a309fdf99b7ae5007c33","F1","batch6","pattern_show_trial_num","null","<p class=block-text>Trial 61 out of 78</p>","null","","","","","","","","","","","","","","","","","","","","","","","","","",""
"","","","","","image-keyboard-response","267","886694","0.0-3.0-7.0-1.21","5589a309fdf99b7ae5007c33","F1","batch6","pattern_response","860","stim/yes_38_hor_b1_b.png","f","pattern_61","f","true","","","","860","true","50","","","","","","","","","","","","","","","","",""
"","","","","","html-keyboard-response","268","887997","0.0-3.0-7.0-0.22","5589a309fdf99b7ae5007c33","F1","batch6","pattern_show_trial_num","null","<p class=block-text>Trial 62 out of 78</p>","null","","","","","","","","","","","","","","","","","","","","","","","","","",""
"","","","","","image-keyboard-response","269","890077","0.0-3.0-7.0-1.22","5589a309fdf99b7ae5007c33","F1","batch6","pattern_response","2073","stim/no_38_1_b.png","j","pattern_20","j","true","","","","2073","true","51","","","","","","","","","","","","","","","","",""
"","","","","","html-keyboard-response","270","891378","0.0-3.0-7.0-0.23","5589a309fdf99b7ae5007c33","F1","batch6","pattern_show_trial_num","null","<p class=block-text>Trial 63 out of 78</p>","null","","","","","","","","","","","","","","","","","","","","","","","","","",""
"","","","","","image-keyboard-response","271","892975","0.0-3.0-7.0-1.23","5589a309fdf99b7ae5007c33","F1","batch6","pattern_response","1590","stim/no_17_1_w.png","j","pattern_04","j","true","","","","1590","true","52","","","","","","","","","","","","","","","","",""
"","","","","","html-keyboard-response","272","894277","0.0-3.0-7.0-0.24","5589a309fdf99b7ae5007c33","F1","batch6","pattern_show_trial_num","null","<p class=block-text>Trial 64 out of 78</p>","null","","","","","","","","","","","","","","","","","","","","","","","","","",""
"","","","","","image-keyboard-response","273","895228","0.0-3.0-7.0-1.24","5589a309fdf99b7ae5007c33","F1","batch6","pattern_response","944","stim/no_20_1_w.png","j","pattern_06","j","true","","","","944","true","53","","","","","","","","","","","","","","","","",""
"","","","","","html-keyboard-response","274","896528","0.0-3.0-7.0-0.25","5589a309fdf99b7ae5007c33","F1","batch6","pattern_show_trial_num","null","<p class=block-text>Trial 65 out of 78</p>","null","","","","","","","","","","","","","","","","","","","","","","","","","",""
"","","","","","image-keyboard-response","275","897553","0.0-3.0-7.0-1.25","5589a309fdf99b7ae5007c33","F1","batch6","pattern_response","1017","stim/yes_45_hor_b2_b.png","f","pattern_67","f","true","","","","1017","true","54","","","","","","","","","","","","","","","","",""
"","","","","","html-keyboard-response","276","898853","0.0-3.0-7.0-0.26","5589a309fdf99b7ae5007c33","F1","batch6","pattern_show_trial_num","null","<p class=block-text>Trial 66 out of 78</p>","null","","","","","","","","","","","","","","","","","","","","","","","","","",""
"","","","","","image-keyboard-response","277","900694","0.0-3.0-7.0-1.26","5589a309fdf99b7ae5007c33","F1","batch6","pattern_response","1836","stim/no_50_1.png","j","pattern_30","j","true","","","","1836","true","55","","","","","","","","","","","","","","","","",""
"","","","","","html-keyboard-response","278","901996","0.0-3.0-7.0-0.27","5589a309fdf99b7ae5007c33","F1","batch6","pattern_show_trial_num","null","<p class=block-text>Trial 67 out of 78</p>","null","","","","","","","","","","","","","","","","","","","","","","","","","",""
"","","","","","image-keyboard-response","279","903036","0.0-3.0-7.0-1.27","5589a309fdf99b7ae5007c33","F1","batch6","pattern_response","1032","stim/yes_17_dia_w1.png","f","pattern_45","f","true","","","","1032","true","56","","","","","","","","","","","","","","","","",""
"","","","","","html-keyboard-response","280","904338","0.0-3.0-7.0-0.28","5589a309fdf99b7ae5007c33","F1","batch6","pattern_show_trial_num","null","<p class=block-text>Trial 68 out of 78</p>","null","","","","","","","","","","","","","","","","","","","","","","","","","",""
"","","","","","image-keyboard-response","281","905764","0.0-3.0-7.0-1.28","5589a309fdf99b7ae5007c33","F1","batch6","pattern_response","1419","stim/no_29_1_b.png","j","pattern_12","j","true","","","","1419","true","57","","","","","","","","","","","","","","","","",""
"","","","","","html-keyboard-response","282","907066","0.0-3.0-7.0-0.29","5589a309fdf99b7ae5007c33","F1","batch6","pattern_show_trial_num","null","<p class=block-text>Trial 69 out of 78</p>","null","","","","","","","","","","","","","","","","","","","","","","","","","",""
"","","","","","image-keyboard-response","283","908147","0.0-3.0-7.0-1.29","5589a309fdf99b7ae5007c33","F1","batch6","pattern_response","1074","stim/yes_40_dia_b1_b.png","j","pattern_63","f","false","","","","1074","false","57","","","","","","","","","","","","","","","","",""
"","","","","","html-keyboard-response","284","909447","0.0-3.0-7.0-0.30","5589a309fdf99b7ae5007c33","F1","batch6","pattern_show_trial_num","null","<p class=block-text>Trial 70 out of 78</p>","null","","","","","","","","","","","","","","","","","","","","","","","","","",""
"","","","","","image-keyboard-response","285","910286","0.0-3.0-7.0-1.30","5589a309fdf99b7ae5007c33","F1","batch6","pattern_response","832","stim/no_23_1.png","j","pattern_08","j","true","","","","832","true","58","","","","","","","","","","","","","","","","",""
"","","","","","html-keyboard-response","286","911588","0.0-3.0-7.0-0.31","5589a309fdf99b7ae5007c33","F1","batch6","pattern_show_trial_num","null","<p class=block-text>Trial 71 out of 78</p>","null","","","","","","","","","","","","","","","","","","","","","","","","","",""
"","","","","","image-keyboard-response","287","914462","0.0-3.0-7.0-1.31","5589a309fdf99b7ae5007c33","F1","batch6","pattern_response","2866","stim/yes_48_dia_w1_w.png","j","pattern_69","f","false","","","","2866","false","58","","","","","","","","","","","","","","","","",""
"","","","","","html-keyboard-response","288","915765","0.0-3.0-7.0-0.32","5589a309fdf99b7ae5007c33","F1","batch6","pattern_show_trial_num","null","<p class=block-text>Trial 72 out of 78</p>","null","","","","","","","","","","","","","","","","","","","","","","","","","",""
"","","","","","image-keyboard-response","289","916945","0.0-3.0-7.0-1.32","5589a309fdf99b7ae5007c33","F1","batch6","pattern_response","1171","stim/no_26_1_w.png","j","pattern_10","j","true","","","","1171","true","59","","","","","","","","","","","","","","","","",""
"","","","","","html-keyboard-response","290","918245","0.0-3.0-7.0-0.33","5589a309fdf99b7ae5007c33","F1","batch6","pattern_show_trial_num","null","<p class=block-text>Trial 73 out of 78</p>","null","","","","","","","","","","","","","","","","","","","","","","","","","",""
"","","","","","image-keyboard-response","291","919482","0.0-3.0-7.0-1.33","5589a309fdf99b7ae5007c33","F1","batch6","pattern_response","1229","stim/yes_52_ver_w1.png","f","pattern_73","f","true","","","","1229","true","60","","","","","","","","","","","","","","","","",""
"","","","","","html-keyboard-response","292","920784","0.0-3.0-7.0-0.34","5589a309fdf99b7ae5007c33","F1","batch6","pattern_show_trial_num","null","<p class=block-text>Trial 74 out of 78</p>","null","","","","","","","","","","","","","","","","","","","","","","","","","",""
"","","","","","image-keyboard-response","293","922394","0.0-3.0-7.0-1.34","5589a309fdf99b7ae5007c33","F1","batch6","pattern_response","1603","stim/no_46_1_b.png","j","pattern_26","j","true","","","","1603","true","61","","","","","","","","","","","","","","","","",""
"","","","","","html-keyboard-response","294","923696","0.0-3.0-7.0-0.35","5589a309fdf99b7ae5007c33","F1","batch6","pattern_show_trial_num","null","<p class=block-text>Trial 75 out of 78</p>","null","","","","","","","","","","","","","","","","","","","","","","","","","",""
"","","","","","image-keyboard-response","295","924623","0.0-3.0-7.0-1.35","5589a309fdf99b7ae5007c33","F1","batch6","pattern_response","919","stim/yes_60_ver_b1_b.png","f","pattern_77","f","true","","","","919","true","62","","","","","","","","","","","","","","","","",""
"","","","","","html-keyboard-response","296","925924","0.0-3.0-7.0-0.36","5589a309fdf99b7ae5007c33","F1","batch6","pattern_show_trial_num","null","<p class=block-text>Trial 76 out of 78</p>","null","","","","","","","","","","","","","","","","","","","","","","","","","",""
"","","","","","image-keyboard-response","297","928476","0.0-3.0-7.0-1.36","5589a309fdf99b7ae5007c33","F1","batch6","pattern_response","2545","stim/no_62_1_w.png","j","pattern_36","j","true","","","","2545","true","63","","","","","","","","","","","","","","","","",""
"","","","","","html-keyboard-response","298","929778","0.0-3.0-7.0-0.37","5589a309fdf99b7ae5007c33","F1","batch6","pattern_show_trial_num","null","<p class=block-text>Trial 77 out of 78</p>","null","","","","","","","","","","","","","","","","","","","","","","","","","",""
"","","","","","image-keyboard-response","299","931152","0.0-3.0-7.0-1.37","5589a309fdf99b7ae5007c33","F1","batch6","pattern_response","1367","stim/no_55_1_w.png","j","pattern_34","j","true","","","","1367","true","64","","","","","","","","","","","","","","","","",""
"","","","","","html-keyboard-response","300","932454","0.0-3.0-7.0-0.38","5589a309fdf99b7ae5007c33","F1","batch6","pattern_show_trial_num","null","<p class=block-text>Trial 78 out of 78</p>","null","","","","","","","","","","","","","","","","","","","","","","","","","",""
"","","","","","image-keyboard-response","301","935310","0.0-3.0-7.0-1.38","5589a309fdf99b7ae5007c33","F1","batch6","pattern_response","2850","stim/no_70_2.png","j","pattern_40","j","true","","","","2850","true","65","","","","","","","","","","","","","","","","",""
"","","","","","html-button-response","302","943744","0.0-3.0-8.0","5589a309fdf99b7ae5007c33","F1","batch6","","7933","<p class = block-text>This concludes the 4-in-a-row detection game.Thank you for your responses!<br>
            You responded correctly on 83% of the trials.<br>
            When you are ready, press ""Continue"" button to continue </p>","0","","","","","","","","","","","","","","","","","","","","","","","","","",""
"true","","","","","fullscreen","303","946035","0.0-4.0-0.0","5589a309fdf99b7ae5007c33","F1","batch6","","","","","","","","","","","","","","","","","","","","","","","","","","","","","",""
"","","","","","instructions","304","987491","0.0-4.0-1.0-0.0-0.0","5589a309fdf99b7ae5007c33","F1","batch6","tol-instructions","41455","","","","","","","","[{""page_index"":0,""viewing_time"":11521},{""page_index"":1,""viewing_time"":5577},{""page_index"":2,""viewing_time"":2217},{""page_index"":3,""viewing_time"":8484},{""page_index"":4,""viewing_time"":3936},{""page_index"":5,""viewing_time"":8248},{""page_index"":6,""viewing_time"":1472}]","","","","","","","","","","","","","","","","","","","",""
"","","","","","html-button-response","305","988211","0.0-4.0-1.0-1.0-0.0","5589a309fdf99b7ae5007c33","F1","batch6","tol_enter_quiz","718","<p class=block-text> Let's answer a few questions <br>","0","","","","","","","","","","","","","","","","","","","","","","","","","",""
"","","","","","html-button-response","306","992649","0.0-4.0-1.0-1.0-1.0","5589a309fdf99b7ae5007c33","F1","batch6","tol_quiz","4436","<p class = block-text>True or False: You can only move the ball on top of a peg. <br></p>","1","","","false","","","","","","","","","","","","","","","","","","","","","","",""
"","","","","","html-button-response","307","994401","0.0-4.0-1.0-1.0-2.0","5589a309fdf99b7ae5007c33","F1","batch6","tol_quiz_feedback","1749","<p class = block-text>Incorrect. Remember, you can only move the ball on top of a peg.</p>","0","","","","","","","","","","","","","","","","","","","","","","","","","",""
"","","","","","html-button-response","308","996743","0.0-4.0-1.0-1.0-3.0","5589a309fdf99b7ae5007c33","F1","batch6","tol_quiz","2341","<p class = block-text>True or False: You should try to match your board with the target board with fewest moves possible. <br></p>","0","","","true","","","","","","","","","","","","","","","","","","","","","","",""
"","","","","","html-button-response","309","997428","0.0-4.0-1.0-1.0-4.0","5589a309fdf99b7ae5007c33","F1","batch6","tol_quiz_feedback","685","<p class = block-text>Correct! </p>","0","","","","","","","","","","","","","","","","","","","","","","","","","",""
"","","","","","html-button-response","310","998870","0.0-4.0-1.0-2.0-0.0","5589a309fdf99b7ae5007c33","F1","batch6","","1440","<p class = block-text>You made too many incorrect choices.</p><p class = block-text>You will now repeat the instructions and quiz</p>","0","","","","","","","","","","","","","","","","","","","","","","","","","",""
"","","","","","instructions","311","1006276","0.0-4.0-1.1-0.1-0.1","5589a309fdf99b7ae5007c33","F1","batch6","tol-instructions","7404","","","","","","","","[{""page_index"":0,""viewing_time"":988},{""page_index"":1,""viewing_time"":477},{""page_index"":2,""viewing_time"":558},{""page_index"":3,""viewing_time"":1084},{""page_index"":4,""viewing_time"":570},{""page_index"":5,""viewing_time"":677},{""page_index"":6,""viewing_time"":3050}]","","","","","","","","","","","","","","","","","","","",""
"","","","","","html-button-response","312","1007248","0.0-4.0-1.1-1.1-0.1","5589a309fdf99b7ae5007c33","F1","batch6","tol_enter_quiz","971","<p class=block-text> Let's answer a few questions <br>","0","","","","","","","","","","","","","","","","","","","","","","","","","",""
"","","","","","html-button-response","313","1008568","0.0-4.0-1.1-1.1-1.1","5589a309fdf99b7ae5007c33","F1","batch6","tol_quiz","1318","<p class = block-text>True or False: You can only move the ball on top of a peg. <br></p>","0","","","true","","","","","","","","","","","","","","","","","","","","","","",""
"","","","","","html-button-response","314","1009395","0.0-4.0-1.1-1.1-2.1","5589a309fdf99b7ae5007c33","F1","batch6","tol_quiz_feedback","824","<p class = block-text>Correct! You can only move the ball on top of a peg.</p>","0","","","","","","","","","","","","","","","","","","","","","","","","","",""
"","","","","","html-button-response","315","1010759","0.0-4.0-1.1-1.1-3.1","5589a309fdf99b7ae5007c33","F1","batch6","tol_quiz","1362","<p class = block-text>True or False: You should try to match your board with the target board with fewest moves possible. <br></p>","0","","","true","","","","","","","","","","","","","","","","","","","","","","",""
"","","","","","html-button-response","316","1011409","0.0-4.0-1.1-1.1-4.1","5589a309fdf99b7ae5007c33","F1","batch6","tol_quiz_feedback","648","<p class = block-text>Correct! </p>","0","","","","","","","","","","","","","","","","","","","","","","","","","",""
"","","","","","html-button-response","317","1012482","0.0-4.0-2.0","5589a309fdf99b7ae5007c33","F1","batch6","","1072","<p class=block-text> Now that you've understood the game, let's practice a few easier examples before we start!<br> <br>","0","","","","","","","","","","","","","","","","","","","","","","","","","",""
"","","","","","single-stim-button","318","1014446","0.0-4.0-3.0-0.0","5589a309fdf99b7ae5007c33","F1","batch6","tol_practice","1961","","","","","","","","","","","","","","tol_peg_2","1961","1961","0","[[1,2,0],[0,0],[0]]","1","[[1,2,0],[0,0],[3]]","practice","1961","","","","","",""
"","","","","","single-stim-button","319","1015785","0.0-4.0-3.0-1.0","5589a309fdf99b7ae5007c33","F1","batch6","tol_practice","1338","","","","","","","","","","","","","","tol_peg_3","1338","1338","0","[[1,2,0],[0,0],[3]]","1","[[1,2,0],[0,0],[3]]","practice","1338","","","","","",""
"","","","","","poldrack-single-stim","320","1016787","0.0-4.0-4.0","5589a309fdf99b7ae5007c33","F1","batch6","tol_feedback","-1","","","","","true","","","","","","","","","","1000","1000","500","","","","","","-1","none","true","","0",""
"","","","","","single-stim-button","321","1020155","0.0-4.0-5.0-0.0","5589a309fdf99b7ae5007c33","F1","batch6","tol_practice","3367","","","","","","","","","","","","","","tol_peg_1","3367","3367","0","[[1,0,0],[3,0],[0]]","2","[[0,0,0],[3,1],[2]]","practice","3367","","","","","",""
"","","","","","single-stim-button","322","1020912","0.0-4.0-5.0-1.0","5589a309fdf99b7ae5007c33","F1","batch6","tol_practice","757","","","","","","","","","","","","","","tol_peg_3","757","757","0","[[1,0,0],[3,0],[2]]","2","[[0,0,0],[3,1],[2]]","practice","757","","","","","",""
"","","","","","single-stim-button","323","1022113","0.0-4.0-5.1-0.1","5589a309fdf99b7ae5007c33","F1","batch6","tol_practice","1198","","","","","","","","","","","","","","tol_peg_1","1198","1198","0","[[0,0,0],[3,0],[2]]","3","[[0,0,0],[3,1],[2]]","practice","1198","","","","","",""
"","","","","","single-stim-button","324","1022891","0.0-4.0-5.1-1.1","5589a309fdf99b7ae5007c33","F1","batch6","tol_practice","776","","","","","","","","","","","","","","tol_peg_2","776","776","0","[[0,0,0],[3,1],[2]]","3","[[0,0,0],[3,1],[2]]","practice","776","","","","","",""
"","","","","","poldrack-single-stim","325","1023892","0.0-4.0-6.0","5589a309fdf99b7ae5007c33","F1","batch6","tol_feedback","-1","","","","","true","","","","","","","","","","1000","1000","500","","","","","","-1","none","true","","0",""
"","","","","","single-stim-button","326","1025316","0.0-4.0-7.0-0.0","5589a309fdf99b7ae5007c33","F1","batch6","tol_practice","1423","","","","","","","","","","","","","","tol_peg_1","1423","1423","0","[[1,0,0],[3,0],[0]]","4","[[1,0,0],[2,0],[3]]","practice","1423","","","","","",""
"","","","","","single-stim-button","327","1027028","0.0-4.0-7.0-1.0","5589a309fdf99b7ae5007c33","F1","batch6","tol_practice","1711","","","","","","","","","","","","","","tol_peg_1","1711","1711","0","[[1,2,0],[3,0],[0]]","4","[[1,0,0],[2,0],[3]]","practice","1711","","","","","",""
"","","","","","single-stim-button","328","1028636","0.0-4.0-7.1-0.1","5589a309fdf99b7ae5007c33","F1","batch6","tol_practice","1607","","","","","","","","","","","","","","tol_peg_2","1607","1607","0","[[1,2,0],[0,0],[0]]","5","[[1,0,0],[2,0],[3]]","practice","1607","","","","","",""
"","","","","","single-stim-button","329","1029200","0.0-4.0-7.1-1.1","5589a309fdf99b7ae5007c33","F1","batch6","tol_practice","563","","","","","","","","","","","","","","tol_peg_3","563","563","0","[[1,2,0],[0,0],[3]]","5","[[1,0,0],[2,0],[3]]","practice","563","","","","","",""
"","","","","","single-stim-button","330","1029807","0.0-4.0-7.2-0.2","5589a309fdf99b7ae5007c33","F1","batch6","tol_practice","606","","","","","","","","","","","","","","tol_peg_1","606","606","0","[[1,0,0],[0,0],[3]]","6","[[1,0,0],[2,0],[3]]","practice","606","","","","","",""
"","","","","","single-stim-button","331","1030171","0.0-4.0-7.2-1.2","5589a309fdf99b7ae5007c33","F1","batch6","tol_practice","362","","","","","","","","","","","","","","tol_peg_2","362","362","0","[[1,0,0],[2,0],[3]]","6","[[1,0,0],[2,0],[3]]","practice","362","","","","","",""
"","","","","","poldrack-single-stim","332","1031171","0.0-4.0-8.0","5589a309fdf99b7ae5007c33","F1","batch6","tol_feedback","-1","","","","","true","","","","","","","","","","1000","1000","500","","","","","","-1","none","true","","0",""
"","","","","","html-button-response","333","1033695","0.0-4.0-9.0","5589a309fdf99b7ae5007c33","F1","batch6","tol_instruction","2523","<div class = centerbox><p class = center-block-text>Great job! You are done with practice trials<br>You are about to start official trials.<br> <br> Problem <strong>1</strong> out of 25 problems</p></div>","0","","","","","","","","","","","","","","","","","","","","","","","","","",""
"","","","","","single-stim-button","334","1038526","0.0-4.0-10.0-0.0","5589a309fdf99b7ae5007c33","F1","batch6","tol_tohand","3828","","","","","","","","","","","","","","tol_peg_2","3828","3828","0","[[1,2,0],[0,0],[0]]","1","[[1,3,0],[2,0],[0]]","0","0","","","","","","3"
"","","","","","single-stim-button","335","1040098","0.0-4.0-10.0-1.0","5589a309fdf99b7ae5007c33","F1","batch6","tol_toboard","1572","","","","","","","","","","","","","","tol_peg_3","1572","1572","0","[[1,2,0],[0,0],[3]]","1","[[1,3,0],[2,0],[0]]","0","0","","","","","","3"
"","","","","","single-stim-button","336","1040661","0.0-4.0-10.1-0.1","5589a309fdf99b7ae5007c33","F1","batch6","tol_tohand","562","","","","","","","","","","","","","","tol_peg_1","562","562","0","[[1,0,0],[0,0],[3]]","2","[[1,3,0],[2,0],[0]]","0","0","","","","","","3"
"","","","","","single-stim-button","337","1041170","0.0-4.0-10.1-1.1","5589a309fdf99b7ae5007c33","F1","batch6","tol_toboard","509","","","","","","","","","","","","","","tol_peg_2","509","509","0","[[1,0,0],[2,0],[3]]","2","[[1,3,0],[2,0],[0]]","0","0","","","","","","3"
"","","","","","single-stim-button","338","1041728","0.0-4.0-10.2-0.2","5589a309fdf99b7ae5007c33","F1","batch6","tol_tohand","557","","","","","","","","","","","","","","tol_peg_3","557","557","0","[[1,0,0],[2,0],[0]]","3","[[1,3,0],[2,0],[0]]","0","0","","","","","","3"
"","","","","","single-stim-button","339","1042289","0.0-4.0-10.2-1.2","5589a309fdf99b7ae5007c33","F1","batch6","tol_toboard","561","","","","","","","","","","","","","","tol_peg_1","561","561","0","[[1,3,0],[2,0],[0]]","3","[[1,3,0],[2,0],[0]]","0","0","","","","","","3"
"","","","","","poldrack-single-stim","340","1043291","0.0-4.0-11.0","5589a309fdf99b7ae5007c33","F1","batch6","tol_feedback","-1","","","","","true","","","","","","","","","","1000","1000","500","","","","","","-1","none","true","3828","4947",""
"","","","","","html-button-response","341","1044159","0.0-4.0-12.0","5589a309fdf99b7ae5007c33","F1","batch6","tol_trial_num","868","<div class = centerbox><p class = center-block-text>problem <strong>2</strong> out of 25 problems</p></div>","0","","","","","","","","","","","","","","","","","","","","","","","","","",""
"","","","","","single-stim-button","342","1053325","0.0-4.0-13.0-0.0","5589a309fdf99b7ae5007c33","F1","batch6","tol_tohand","9165","","","","","","","","","","","","","","tol_peg_2","9165","9165","0","[[1,2,0],[0,0],[0]]","1","[[2,1,3],[0,0],[0]]","1","0","","","","","","5"
"","","","","","single-stim-button","343","1054431","0.0-4.0-13.0-1.0","5589a309fdf99b7ae5007c33","F1","batch6","tol_toboard","1106","","","","","","","","","","","","","","tol_peg_3","1106","1106","0","[[1,2,0],[0,0],[3]]","1","[[2,1,3],[0,0],[0]]","1","0","","","","","","5"
"","","","","","single-stim-button","344","1057974","0.0-4.0-13.1-0.1","5589a309fdf99b7ae5007c33","F1","batch6","tol_tohand","3542","","","","","","","","","","","","","","tol_peg_1","3542","3542","0","[[1,0,0],[0,0],[3]]","2","[[2,1,3],[0,0],[0]]","1","0","","","","","","5"
"","","","","","single-stim-button","345","1058639","0.0-4.0-13.1-1.1","5589a309fdf99b7ae5007c33","F1","batch6","tol_toboard","665","","","","","","","","","","","","","","tol_peg_2","665","665","0","[[1,0,0],[2,0],[3]]","2","[[2,1,3],[0,0],[0]]","1","0","","","","","","5"
"","","","","","single-stim-button","346","1059096","0.0-4.0-13.2-0.2","5589a309fdf99b7ae5007c33","F1","batch6","tol_tohand","455","","","","","","","","","","","","","","tol_peg_3","455","455","0","[[1,0,0],[2,0],[0]]","3","[[2,1,3],[0,0],[0]]","1","0","","","","","","5"
"","","","","","single-stim-button","347","1059595","0.0-4.0-13.2-1.2","5589a309fdf99b7ae5007c33","F1","batch6","tol_toboard","499","","","","","","","","","","","","","","tol_peg_2","499","499","0","[[1,0,0],[2,3],[0]]","3","[[2,1,3],[0,0],[0]]","1","0","","","","","","5"
"","","","","","single-stim-button","348","1061193","0.0-4.0-13.3-0.3","5589a309fdf99b7ae5007c33","F1","batch6","tol_tohand","1598","","","","","","","","","","","","","","tol_peg_1","1598","1598","0","[[0,0,0],[2,3],[0]]","4","[[2,1,3],[0,0],[0]]","1","0","","","","","","5"
"","","","","","single-stim-button","349","1062322","0.0-4.0-13.3-1.3","5589a309fdf99b7ae5007c33","F1","batch6","tol_toboard","1129","","","","","","","","","","","","","","tol_peg_3","1129","1129","0","[[0,0,0],[2,3],[1]]","4","[[2,1,3],[0,0],[0]]","1","0","","","","","","5"
"","","","","","single-stim-button","350","1064001","0.0-4.0-13.4-0.4","5589a309fdf99b7ae5007c33","F1","batch6","tol_tohand","1679","","","","","","","","","","","","","","tol_peg_2","1679","1679","0","[[0,0,0],[2,0],[1]]","5","[[2,1,3],[0,0],[0]]","1","0","","","","","","5"
"","","","","","single-stim-button","351","1064731","0.0-4.0-13.4-1.4","5589a309fdf99b7ae5007c33","F1","batch6","tol_toboard","730","","","","","","","","","","","","","","tol_peg_1","730","730","0","[[3,0,0],[2,0],[1]]","5","[[2,1,3],[0,0],[0]]","1","0","","","","","","5"
"","","","","","single-stim-button","352","1065842","0.0-4.0-13.5-0.5","5589a309fdf99b7ae5007c33","F1","batch6","tol_tohand","1110","","","","","","","","","","","","","","tol_peg_3","1110","1110","0","[[3,0,0],[2,0],[0]]","6","[[2,1,3],[0,0],[0]]","1","0","","","","","","5"
"","","","","","single-stim-button","353","1066579","0.0-4.0-13.5-1.5","5589a309fdf99b7ae5007c33","F1","batch6","tol_toboard","737","","","","","","","","","","","","","","tol_peg_2","737","737","0","[[3,0,0],[2,1],[0]]","6","[[2,1,3],[0,0],[0]]","1","0","","","","","","5"
"","","","","","single-stim-button","354","1067703","0.0-4.0-13.6-0.6","5589a309fdf99b7ae5007c33","F1","batch6","tol_tohand","1124","","","","","","","","","","","","","","tol_peg_1","1124","1124","0","[[0,0,0],[2,1],[0]]","7","[[2,1,3],[0,0],[0]]","1","0","","","","","","5"
"","","","","","single-stim-button","355","1070389","0.0-4.0-13.6-1.6","5589a309fdf99b7ae5007c33","F1","batch6","tol_toboard","2686","","","","","","","","","","","","","","tol_peg_1","2686","2686","0","[[3,0,0],[2,1],[0]]","7","[[2,1,3],[0,0],[0]]","1","0","","","","","","5"
"","","","","","single-stim-button","356","1070957","0.0-4.0-13.7-0.7","5589a309fdf99b7ae5007c33","F1","batch6","tol_tohand","568","","","","","","","","","","","","","","tol_peg_2","568","568","0","[[3,0,0],[2,0],[0]]","8","[[2,1,3],[0,0],[0]]","1","0","","","","","","5"
"","","","","","single-stim-button","357","1071417","0.0-4.0-13.7-1.7","5589a309fdf99b7ae5007c33","F1","batch6","tol_toboard","459","","","","","","","","","","","","","","tol_peg_3","459","459","0","[[3,0,0],[2,0],[1]]","8","[[2,1,3],[0,0],[0]]","1","0","","","","","","5"
"","","","","","single-stim-button","358","1073341","0.0-4.0-13.8-0.8","5589a309fdf99b7ae5007c33","F1","batch6","tol_tohand","1923","","","","","","","","","","","","","","tol_peg_2","1923","1923","0","[[3,0,0],[0,0],[1]]","9","[[2,1,3],[0,0],[0]]","1","0","","","","","","5"
