"success","timeout","failed_images","failed_audio","failed_video","trial_type","trial_index","time_elapsed","internal_node_id","subject_id","study_id","session_id","task","rt","stimulus","response","item","answer","correct","spm_correct","spm_rt","view_history","mouse_click","stim_duration","block_duration","timing_post_trial","current_position","tol_num_moves_made","tol_target","tol_problem_id","tol_rt","key_press","possible_responses","tol_correct","preplanning","tol_rt_per_trial","tol_min_moves","fiar_detect_rt","fiar_detect_correct","total_correct_fiar_detect","post_trial_gap","choices"
"true","false","[]","[]","[]","preload","0","4308","0.0-0.0","558afc18fdf99b7dfef4d84e","C3","batch3","","","","","","","","","","","","","","","","","","","","","","","","","","","","","",""
"true","","","","","fullscreen","1","15301","0.0-1.0-0.0","558afc18fdf99b7dfef4d84e","C3","batch3","","","","","","","","","","","","","","","","","","","","","","","","","","","","","",""
"true","","","","","fullscreen","2","19333","0.0-2.0-0.0","558afc18fdf99b7dfef4d84e","C3","batch3","spm_fullscreen","","","","","","","","","","","","","","","","","","","","","","","","","","","","",""
"","","","","","html-button-response","3","28358","0.0-2.0-1.0","558afc18fdf99b7dfef4d84e","C3","batch3","","9024","<p class = block-text><b>Instructions</b> <br>This is a widely used intelligence test in research. <br>In this test, a figure with a missing piece will be presented.<br>Below the figure are alternative pieces to complete the figure, only one of which is correct.<br> Different figures might involve different principles for obtaining the missing piece<br>Your job is to select the most logical piece to complete the figure.</p>","0","","","","","","","","","","","","","","","","","","","","","","","","","",""
"","","","","","html-keyboard-response","4","29167","0.0-2.0-2.0-0.0","558afc18fdf99b7dfef4d84e","C3","batch3","spm_show_trial_num","null","<p class=block-text>Trial 1 out of 60</p>","null","","","","","","","","","","","","","","","","","","","","","","","","","",""
"","","","","","image-button-response","5","38361","0.0-2.0-2.0-1.0","558afc18fdf99b7dfef4d84e","C3","batch3","spm_respsonse","9190.099999999627","img/question_1_1.jpeg","3","mat_01","4","1","1","9190.099999999627","","","","","","","","","","","","","","","","","","","","",""
"","","","","","html-keyboard-response","6","39423","0.0-2.0-2.0-0.1","558afc18fdf99b7dfef4d84e","C3","batch3","spm_show_trial_num","null","<p class=block-text>Trial 2 out of 60</p>","null","","","","","","","","","","","","","","","","","","","","","","","","","",""
"","","","","","image-button-response","7","42849","0.0-2.0-2.0-1.1","558afc18fdf99b7dfef4d84e","C3","batch3","spm_respsonse","3424.2000000011176","img/question_1_2.jpeg","4","mat_02","5","1","1","3424.2000000011176","","","","","","","","","","","","","","","","","","","","",""
"","","","","","html-keyboard-response","8","43910","0.0-2.0-2.0-0.2","558afc18fdf99b7dfef4d84e","C3","batch3","spm_show_trial_num","null","<p class=block-text>Trial 3 out of 60</p>","null","","","","","","","","","","","","","","","","","","","","","","","","","",""
"","","","","","image-button-response","9","51005","0.0-2.0-2.0-1.2","558afc18fdf99b7dfef4d84e","C3","batch3","spm_respsonse","7092.9000000003725","img/question_1_3.jpeg","0","mat_03","1","1","1","7092.9000000003725","","","","","","","","","","","","","","","","","","","","",""
"","","","","","html-keyboard-response","10","52072","0.0-2.0-2.0-0.3","558afc18fdf99b7dfef4d84e","C3","batch3","spm_show_trial_num","null","<p class=block-text>Trial 4 out of 60</p>","null","","","","","","","","","","","","","","","","","","","","","","","","","",""
"","","","","","image-button-response","11","59327","0.0-2.0-2.0-1.3","558afc18fdf99b7dfef4d84e","C3","batch3","spm_respsonse","7252.300000000745","img/question_1_4.jpeg","1","mat_04","2","1","1","7252.300000000745","","","","","","","","","","","","","","","","","","","","",""
"","","","","","html-keyboard-response","12","60392","0.0-2.0-2.0-0.4","558afc18fdf99b7dfef4d84e","C3","batch3","spm_show_trial_num","null","<p class=block-text>Trial 5 out of 60</p>","null","","","","","","","","","","","","","","","","","","","","","","","","","",""
"","","","","","image-button-response","13","67403","0.0-2.0-2.0-1.4","558afc18fdf99b7dfef4d84e","C3","batch3","spm_respsonse","7009.4000000003725","img/question_1_5.jpeg","5","mat_05","6","1","1","7009.4000000003725","","","","","","","","","","","","","","","","","","","","",""
"","","","","","html-keyboard-response","14","68470","0.0-2.0-2.0-0.5","558afc18fdf99b7dfef4d84e","C3","batch3","spm_show_trial_num","null","<p class=block-text>Trial 6 out of 60</p>","null","","","","","","","","","","","","","","","","","","","","","","","","","",""
"","","","","","image-button-response","15","73536","0.0-2.0-2.0-1.5","558afc18fdf99b7dfef4d84e","C3","batch3","spm_respsonse","5064","img/question_1_6.jpeg","2","mat_06","3","1","1","5064","","","","","","","","","","","","","","","","","","","","",""
"","","","","","html-keyboard-response","16","74601","0.0-2.0-2.0-0.6","558afc18fdf99b7dfef4d84e","C3","batch3","spm_show_trial_num","null","<p class=block-text>Trial 7 out of 60</p>","null","","","","","","","","","","","","","","","","","","","","","","","","","",""
"","","","","","image-button-response","17","80799","0.0-2.0-2.0-1.6","558afc18fdf99b7dfef4d84e","C3","batch3","spm_respsonse","6196","img/question_1_7.jpeg","5","mat_07","6","1","1","6196","","","","","","","","","","","","","","","","","","","","",""
"","","","","","html-keyboard-response","18","81862","0.0-2.0-2.0-0.7","558afc18fdf99b7dfef4d84e","C3","batch3","spm_show_trial_num","null","<p class=block-text>Trial 8 out of 60</p>","null","","","","","","","","","","","","","","","","","","","","","","","","","",""
"","","","","","image-button-response","19","88055","0.0-2.0-2.0-1.7","558afc18fdf99b7dfef4d84e","C3","batch3","spm_respsonse","6190.9000000003725","img/question_1_8.jpeg","1","mat_08","2","1","1","6190.9000000003725","","","","","","","","","","","","","","","","","","","","",""
"","","","","","html-keyboard-response","20","89122","0.0-2.0-2.0-0.8","558afc18fdf99b7dfef4d84e","C3","batch3","spm_show_trial_num","null","<p class=block-text>Trial 9 out of 60</p>","null","","","","","","","","","","","","","","","","","","","","","","","","","",""
"","","","","","image-button-response","21","93727","0.0-2.0-2.0-1.8","558afc18fdf99b7dfef4d84e","C3","batch3","spm_respsonse","4605.700000001118","img/question_1_9.jpeg","0","mat_09","1","1","1","4605.700000001118","","","","","","","","","","","","","","","","","","","","",""
"","","","","","html-keyboard-response","22","94789","0.0-2.0-2.0-0.9","558afc18fdf99b7dfef4d84e","C3","batch3","spm_show_trial_num","null","<p class=block-text>Trial 10 out of 60</p>","null","","","","","","","","","","","","","","","","","","","","","","","","","",""
"","","","","","image-button-response","23","100063","0.0-2.0-2.0-1.9","558afc18fdf99b7dfef4d84e","C3","batch3","spm_respsonse","5271.700000001118","img/question_1_10.jpeg","2","mat_10","3","1","1","5271.700000001118","","","","","","","","","","","","","","","","","","","","",""
"","","","","","html-keyboard-response","24","101126","0.0-2.0-2.0-0.10","558afc18fdf99b7dfef4d84e","C3","batch3","spm_show_trial_num","null","<p class=block-text>Trial 11 out of 60</p>","null","","","","","","","","","","","","","","","","","","","","","","","","","",""
"","","","","","image-button-response","25","122077","0.0-2.0-2.0-1.10","558afc18fdf99b7dfef4d84e","C3","batch3","spm_respsonse","20949.300000000745","img/question_1_11.jpeg","3","mat_11","4","1","1","20949.300000000745","","","","","","","","","","","","","","","","","","","","",""
"","","","","","html-keyboard-response","26","123141","0.0-2.0-2.0-0.11","558afc18fdf99b7dfef4d84e","C3","batch3","spm_show_trial_num","null","<p class=block-text>Trial 12 out of 60</p>","null","","","","","","","","","","","","","","","","","","","","","","","","","",""
"","","","","","image-button-response","27","141620","0.0-2.0-2.0-1.11","558afc18fdf99b7dfef4d84e","C3","batch3","spm_respsonse","18477","img/question_1_12.jpeg","5","mat_12","5","0","0","18477","","","","","","","","","","","","","","","","","","","","",""
"","","","","","html-keyboard-response","28","142684","0.0-2.0-2.0-0.12","558afc18fdf99b7dfef4d84e","C3","batch3","spm_show_trial_num","null","<p class=block-text>Trial 13 out of 60</p>","null","","","","","","","","","","","","","","","","","","","","","","","","","",""
"","","","","","image-button-response","29","147171","0.0-2.0-2.0-1.12","558afc18fdf99b7dfef4d84e","C3","batch3","spm_respsonse","4484.9000000003725","img/question_2_1.jpeg","1","mat_13","2","1","1","4484.9000000003725","","","","","","","","","","","","","","","","","","","","",""
"","","","","","html-keyboard-response","30","148237","0.0-2.0-2.0-0.13","558afc18fdf99b7dfef4d84e","C3","batch3","spm_show_trial_num","null","<p class=block-text>Trial 14 out of 60</p>","null","","","","","","","","","","","","","","","","","","","","","","","","","",""
"","","","","","image-button-response","31","154161","0.0-2.0-2.0-1.13","558afc18fdf99b7dfef4d84e","C3","batch3","spm_respsonse","5921.60000000149","img/question_2_2.jpeg","5","mat_14","6","1","1","5921.60000000149","","","","","","","","","","","","","","","","","","","","",""
"","","","","","html-keyboard-response","32","155227","0.0-2.0-2.0-0.14","558afc18fdf99b7dfef4d84e","C3","batch3","spm_show_trial_num","null","<p class=block-text>Trial 15 out of 60</p>","null","","","","","","","","","","","","","","","","","","","","","","","","","",""
"","","","","","image-button-response","33","163054","0.0-2.0-2.0-1.14","558afc18fdf99b7dfef4d84e","C3","batch3","spm_respsonse","7824.4000000003725","img/question_2_3.jpeg","0","mat_15","1","1","1","7824.4000000003725","","","","","","","","","","","","","","","","","","","","",""
"","","","","","html-keyboard-response","34","164117","0.0-2.0-2.0-0.15","558afc18fdf99b7dfef4d84e","C3","batch3","spm_show_trial_num","null","<p class=block-text>Trial 16 out of 60</p>","null","","","","","","","","","","","","","","","","","","","","","","","","","",""
"","","","","","image-button-response","35","168172","0.0-2.0-2.0-1.15","558afc18fdf99b7dfef4d84e","C3","batch3","spm_respsonse","4052.4000000003725","img/question_2_4.jpeg","1","mat_16","2","1","1","4052.4000000003725","","","","","","","","","","","","","","","","","","","","",""
"","","","","","html-keyboard-response","36","169238","0.0-2.0-2.0-0.16","558afc18fdf99b7dfef4d84e","C3","batch3","spm_show_trial_num","null","<p class=block-text>Trial 17 out of 60</p>","null","","","","","","","","","","","","","","","","","","","","","","","","","",""
"","","","","","image-button-response","37","179601","0.0-2.0-2.0-1.16","558afc18fdf99b7dfef4d84e","C3","batch3","spm_respsonse","10361.900000000373","img/question_2_5.jpeg","0","mat_17","1","1","1","10361.900000000373","","","","","","","","","","","","","","","","","","","","",""
"","","","","","html-keyboard-response","38","180668","0.0-2.0-2.0-0.17","558afc18fdf99b7dfef4d84e","C3","batch3","spm_show_trial_num","null","<p class=block-text>Trial 18 out of 60</p>","null","","","","","","","","","","","","","","","","","","","","","","","","","",""
"","","","","","image-button-response","39","190720","0.0-2.0-2.0-1.17","558afc18fdf99b7dfef4d84e","C3","batch3","spm_respsonse","10051","img/question_2_6.jpeg","2","mat_18","3","1","1","10051","","","","","","","","","","","","","","","","","","","","",""
"","","","","","html-keyboard-response","40","191787","0.0-2.0-2.0-0.18","558afc18fdf99b7dfef4d84e","C3","batch3","spm_show_trial_num","null","<p class=block-text>Trial 19 out of 60</p>","null","","","","","","","","","","","","","","","","","","","","","","","","","",""
"","","","","","image-button-response","41","204489","0.0-2.0-2.0-1.18","558afc18fdf99b7dfef4d84e","C3","batch3","spm_respsonse","12700.599999999627","img/question_2_7.jpeg","4","mat_19","5","1","1","12700.599999999627","","","","","","","","","","","","","","","","","","","","",""
"","","","","","html-keyboard-response","42","205547","0.0-2.0-2.0-0.19","558afc18fdf99b7dfef4d84e","C3","batch3","spm_show_trial_num","null","<p class=block-text>Trial 20 out of 60</p>","null","","","","","","","","","","","","","","","","","","","","","","","","","",""
"","","","","","image-button-response","43","212221","0.0-2.0-2.0-1.19","558afc18fdf99b7dfef4d84e","C3","batch3","spm_respsonse","6672.300000000745","img/question_2_8.jpeg","5","mat_20","6","1","1","6672.300000000745","","","","","","","","","","","","","","","","","","","","",""
"","","","","","html-keyboard-response","44","213283","0.0-2.0-2.0-0.20","558afc18fdf99b7dfef4d84e","C3","batch3","spm_show_trial_num","null","<p class=block-text>Trial 21 out of 60</p>","null","","","","","","","","","","","","","","","","","","","","","","","","","",""
"","","","","","image-button-response","45","218890","0.0-2.0-2.0-1.20","558afc18fdf99b7dfef4d84e","C3","batch3","spm_respsonse","5605.0999999996275","img/question_2_9.jpeg","3","mat_21","4","1","1","5605.0999999996275","","","","","","","","","","","","","","","","","","","","",""
"","","","","","html-keyboard-response","46","219958","0.0-2.0-2.0-0.21","558afc18fdf99b7dfef4d84e","C3","batch3","spm_show_trial_num","null","<p class=block-text>Trial 22 out of 60</p>","null","","","","","","","","","","","","","","","","","","","","","","","","","",""
"","","","","","image-button-response","47","226271","0.0-2.0-2.0-1.21","558afc18fdf99b7dfef4d84e","C3","batch3","spm_respsonse","6311","img/question_2_10.jpeg","2","mat_22","3","1","1","6311","","","","","","","","","","","","","","","","","","","","",""
"","","","","","html-keyboard-response","48","227334","0.0-2.0-2.0-0.22","558afc18fdf99b7dfef4d84e","C3","batch3","spm_show_trial_num","null","<p class=block-text>Trial 23 out of 60</p>","null","","","","","","","","","","","","","","","","","","","","","","","","","",""
"","","","","","image-button-response","49","236341","0.0-2.0-2.0-1.22","558afc18fdf99b7dfef4d84e","C3","batch3","spm_respsonse","9004.300000000745","img/question_2_11.jpeg","3","mat_23","4","1","1","9004.300000000745","","","","","","","","","","","","","","","","","","","","",""
"","","","","","html-keyboard-response","50","237403","0.0-2.0-2.0-0.23","558afc18fdf99b7dfef4d84e","C3","batch3","spm_show_trial_num","null","<p class=block-text>Trial 24 out of 60</p>","null","","","","","","","","","","","","","","","","","","","","","","","","","",""
"","","","","","image-button-response","51","251365","0.0-2.0-2.0-1.23","558afc18fdf99b7dfef4d84e","C3","batch3","spm_respsonse","13959.299999998882","img/question_2_12.jpeg","4","mat_24","5","1","1","13959.299999998882","","","","","","","","","","","","","","","","","","","","",""
"","","","","","html-button-response","52","253231","0.0-2.0-3.0","558afc18fdf99b7dfef4d84e","C3","batch3","attention_check","1610.300000000745","<p class = block-text>Attention check: Please choose 1<br></p>","0","","","true","","","","","","","","","","","","","","","","","","","","","","",""
"","","","","","html-keyboard-response","53","254035","0.0-2.0-4.0-0.0","558afc18fdf99b7dfef4d84e","C3","batch3","spm_show_trial_num","null","<p class=block-text>Trial 25 out of 60</p>","null","","","","","","","","","","","","","","","","","","","","","","","","","",""
"","","","","","image-button-response","54","261314","0.0-2.0-4.0-1.0","558afc18fdf99b7dfef4d84e","C3","batch3","spm_respsonse","7277.0999999996275","img/question_3_1.jpeg","7","mat_25","8","1","1","7277.0999999996275","","","","","","","","","","","","","","","","","","","","",""
"","","","","","html-keyboard-response","55","262379","0.0-2.0-4.0-0.1","558afc18fdf99b7dfef4d84e","C3","batch3","spm_show_trial_num","null","<p class=block-text>Trial 26 out of 60</p>","null","","","","","","","","","","","","","","","","","","","","","","","","","",""
"","","","","","image-button-response","56","272781","0.0-2.0-4.0-1.1","558afc18fdf99b7dfef4d84e","C3","batch3","spm_respsonse","10395.89999999851","img/question_3_2.jpeg","1","mat_26","2","1","1","10395.89999999851","","","","","","","","","","","","","","","","","","","","",""
"","","","","","html-keyboard-response","57","273850","0.0-2.0-4.0-0.2","558afc18fdf99b7dfef4d84e","C3","batch3","spm_show_trial_num","null","<p class=block-text>Trial 27 out of 60</p>","null","","","","","","","","","","","","","","","","","","","","","","","","","",""
"","","","","","image-button-response","58","280905","0.0-2.0-4.0-1.2","558afc18fdf99b7dfef4d84e","C3","batch3","spm_respsonse","7053.5","img/question_3_3.jpeg","2","mat_27","3","1","1","7053.5","","","","","","","","","","","","","","","","","","","","",""
"","","","","","html-keyboard-response","59","281971","0.0-2.0-4.0-0.3","558afc18fdf99b7dfef4d84e","C3","batch3","spm_show_trial_num","null","<p class=block-text>Trial 28 out of 60</p>","null","","","","","","","","","","","","","","","","","","","","","","","","","",""
"","","","","","image-button-response","60","308242","0.0-2.0-4.0-1.3","558afc18fdf99b7dfef4d84e","C3","batch3","spm_respsonse","26269","img/question_3_4.jpeg","7","mat_28","8","1","1","26269","","","","","","","","","","","","","","","","","","","","",""
"","","","","","html-keyboard-response","61","309308","0.0-2.0-4.0-0.4","558afc18fdf99b7dfef4d84e","C3","batch3","spm_show_trial_num","null","<p class=block-text>Trial 29 out of 60</p>","null","","","","","","","","","","","","","","","","","","","","","","","","","",""
"","","","","","image-button-response","62","329442","0.0-2.0-4.0-1.4","558afc18fdf99b7dfef4d84e","C3","batch3","spm_respsonse","20132.800000000745","img/question_3_5.jpeg","6","mat_29","7","1","1","20132.800000000745","","","","","","","","","","","","","","","","","","","","",""
"","","","","","html-keyboard-response","63","330506","0.0-2.0-4.0-0.5","558afc18fdf99b7dfef4d84e","C3","batch3","spm_show_trial_num","null","<p class=block-text>Trial 30 out of 60</p>","null","","","","","","","","","","","","","","","","","","","","","","","","","",""
"","","","","","image-button-response","64","339188","0.0-2.0-4.0-1.5","558afc18fdf99b7dfef4d84e","C3","batch3","spm_respsonse","8682.5","img/question_3_6.jpeg","3","mat_30","4","1","1","8682.5","","","","","","","","","","","","","","","","","","","","",""
"","","","","","html-keyboard-response","65","340256","0.0-2.0-4.0-0.6","558afc18fdf99b7dfef4d84e","C3","batch3","spm_show_trial_num","null","<p class=block-text>Trial 31 out of 60</p>","null","","","","","","","","","","","","","","","","","","","","","","","","","",""
"","","","","","image-button-response","66","348444","0.0-2.0-4.0-1.6","558afc18fdf99b7dfef4d84e","C3","batch3","spm_respsonse","8186.4000000003725","img/question_3_7.jpeg","4","mat_31","5","1","1","8186.4000000003725","","","","","","","","","","","","","","","","","","","","",""
"","","","","","html-keyboard-response","67","349510","0.0-2.0-4.0-0.7","558afc18fdf99b7dfef4d84e","C3","batch3","spm_show_trial_num","null","<p class=block-text>Trial 32 out of 60</p>","null","","","","","","","","","","","","","","","","","","","","","","","","","",""
"","","","","","image-button-response","68","356716","0.0-2.0-4.0-1.7","558afc18fdf99b7dfef4d84e","C3","batch3","spm_respsonse","7204.0999999996275","img/question_3_8.jpeg","0","mat_32","1","1","1","7204.0999999996275","","","","","","","","","","","","","","","","","","","","",""
"","","","","","html-keyboard-response","69","357784","0.0-2.0-4.0-0.8","558afc18fdf99b7dfef4d84e","C3","batch3","spm_show_trial_num","null","<p class=block-text>Trial 33 out of 60</p>","null","","","","","","","","","","","","","","","","","","","","","","","","","",""
"","","","","","image-button-response","70","365234","0.0-2.0-4.0-1.8","558afc18fdf99b7dfef4d84e","C3","batch3","spm_respsonse","7448.200000001118","img/question_3_9.jpeg","6","mat_33","7","1","1","7448.200000001118","","","","","","","","","","","","","","","","","","","","",""
"","","","","","html-keyboard-response","71","366298","0.0-2.0-4.0-0.9","558afc18fdf99b7dfef4d84e","C3","batch3","spm_show_trial_num","null","<p class=block-text>Trial 34 out of 60</p>","null","","","","","","","","","","","","","","","","","","","","","","","","","",""
"","","","","","image-button-response","72","373138","0.0-2.0-4.0-1.9","558afc18fdf99b7dfef4d84e","C3","batch3","spm_respsonse","6837.5999999996275","img/question_3_10.jpeg","5","mat_34","6","1","1","6837.5999999996275","","","","","","","","","","","","","","","","","","","","",""
"","","","","","html-keyboard-response","73","374200","0.0-2.0-4.0-0.10","558afc18fdf99b7dfef4d84e","C3","batch3","spm_show_trial_num","null","<p class=block-text>Trial 35 out of 60</p>","null","","","","","","","","","","","","","","","","","","","","","","","","","",""
"","","","","","image-button-response","74","384825","0.0-2.0-4.0-1.10","558afc18fdf99b7dfef4d84e","C3","batch3","spm_respsonse","10622.799999998882","img/question_3_11.jpeg","0","mat_35","1","1","1","10622.799999998882","","","","","","","","","","","","","","","","","","","","",""
"","","","","","html-keyboard-response","75","385889","0.0-2.0-4.0-0.11","558afc18fdf99b7dfef4d84e","C3","batch3","spm_show_trial_num","null","<p class=block-text>Trial 36 out of 60</p>","null","","","","","","","","","","","","","","","","","","","","","","","","","",""
"","","","","","image-button-response","76","407151","0.0-2.0-4.0-1.11","558afc18fdf99b7dfef4d84e","C3","batch3","spm_respsonse","21259.199999999255","img/question_3_12.jpeg","5","mat_36","2","0","0","21259.199999999255","","","","","","","","","","","","","","","","","","","","",""
"","","","","","html-keyboard-response","77","408209","0.0-2.0-4.0-0.12","558afc18fdf99b7dfef4d84e","C3","batch3","spm_show_trial_num","null","<p class=block-text>Trial 37 out of 60</p>","null","","","","","","","","","","","","","","","","","","","","","","","","","",""
"","","","","","image-button-response","78","411289","0.0-2.0-4.0-1.12","558afc18fdf99b7dfef4d84e","C3","batch3","spm_respsonse","3078.2999999988824","img/question_4_1.jpeg","2","mat_37","3","1","1","3078.2999999988824","","","","","","","","","","","","","","","","","","","","",""
"","","","","","html-keyboard-response","79","412347","0.0-2.0-4.0-0.13","558afc18fdf99b7dfef4d84e","C3","batch3","spm_show_trial_num","null","<p class=block-text>Trial 38 out of 60</p>","null","","","","","","","","","","","","","","","","","","","","","","","","","",""
"","","","","","image-button-response","80","417683","0.0-2.0-4.0-1.13","558afc18fdf99b7dfef4d84e","C3","batch3","spm_respsonse","5334.299999998882","img/question_4_2.jpeg","3","mat_38","4","1","1","5334.299999998882","","","","","","","","","","","","","","","","","","","","",""
"","","","","","html-keyboard-response","81","418746","0.0-2.0-4.0-0.14","558afc18fdf99b7dfef4d84e","C3","batch3","spm_show_trial_num","null","<p class=block-text>Trial 39 out of 60</p>","null","","","","","","","","","","","","","","","","","","","","","","","","","",""
"","","","","","image-button-response","82","425431","0.0-2.0-4.0-1.14","558afc18fdf99b7dfef4d84e","C3","batch3","spm_respsonse","6683.0999999996275","img/question_4_3.jpeg","2","mat_39","3","1","1","6683.0999999996275","","","","","","","","","","","","","","","","","","","","",""
"","","","","","html-keyboard-response","83","426495","0.0-2.0-4.0-0.15","558afc18fdf99b7dfef4d84e","C3","batch3","spm_show_trial_num","null","<p class=block-text>Trial 40 out of 60</p>","null","","","","","","","","","","","","","","","","","","","","","","","","","",""
"","","","","","image-button-response","84","438078","0.0-2.0-4.0-1.15","558afc18fdf99b7dfef4d84e","C3","batch3","spm_respsonse","11580.900000000373","img/question_4_4.jpeg","6","mat_40","7","1","1","11580.900000000373","","","","","","","","","","","","","","","","","","","","",""
"","","","","","html-keyboard-response","85","439147","0.0-2.0-4.0-0.16","558afc18fdf99b7dfef4d84e","C3","batch3","spm_show_trial_num","null","<p class=block-text>Trial 41 out of 60</p>","null","","","","","","","","","","","","","","","","","","","","","","","","","",""
"","","","","","image-button-response","86","448640","0.0-2.0-4.0-1.16","558afc18fdf99b7dfef4d84e","C3","batch3","spm_respsonse","9491.799999998882","img/question_4_5.jpeg","7","mat_41","8","1","1","9491.799999998882","","","","","","","","","","","","","","","","","","","","",""
"","","","","","html-keyboard-response","87","449703","0.0-2.0-4.0-0.17","558afc18fdf99b7dfef4d84e","C3","batch3","spm_show_trial_num","null","<p class=block-text>Trial 42 out of 60</p>","null","","","","","","","","","","","","","","","","","","","","","","","","","",""
"","","","","","image-button-response","88","465864","0.0-2.0-4.0-1.17","558afc18fdf99b7dfef4d84e","C3","batch3","spm_respsonse","16159.5","img/question_4_6.jpeg","5","mat_42","6","1","1","16159.5","","","","","","","","","","","","","","","","","","","","",""
"","","","","","html-keyboard-response","89","466925","0.0-2.0-4.0-0.18","558afc18fdf99b7dfef4d84e","C3","batch3","spm_show_trial_num","null","<p class=block-text>Trial 43 out of 60</p>","null","","","","","","","","","","","","","","","","","","","","","","","","","",""
"","","","","","image-button-response","90","477528","0.0-2.0-4.0-1.18","558afc18fdf99b7dfef4d84e","C3","batch3","spm_respsonse","10601.5","img/question_4_7.jpeg","4","mat_43","5","1","1","10601.5","","","","","","","","","","","","","","","","","","","","",""
"","","","","","html-keyboard-response","91","478590","0.0-2.0-4.0-0.19","558afc18fdf99b7dfef4d84e","C3","batch3","spm_show_trial_num","null","<p class=block-text>Trial 44 out of 60</p>","null","","","","","","","","","","","","","","","","","","","","","","","","","",""
"","","","","","image-button-response","92","493675","0.0-2.0-4.0-1.19","558afc18fdf99b7dfef4d84e","C3","batch3","spm_respsonse","15082.900000000373","img/question_4_8.jpeg","3","mat_44","4","1","1","15082.900000000373","","","","","","","","","","","","","","","","","","","","",""
"","","","","","html-keyboard-response","93","494736","0.0-2.0-4.0-0.20","558afc18fdf99b7dfef4d84e","C3","batch3","spm_show_trial_num","null","<p class=block-text>Trial 45 out of 60</p>","null","","","","","","","","","","","","","","","","","","","","","","","","","",""
"","","","","","image-button-response","94","521625","0.0-2.0-4.0-1.20","558afc18fdf99b7dfef4d84e","C3","batch3","spm_respsonse","26886.799999998882","img/question_4_9.jpeg","0","mat_45","1","1","1","26886.799999998882","","","","","","","","","","","","","","","","","","","","",""
"","","","","","html-keyboard-response","95","522688","0.0-2.0-4.0-0.21","558afc18fdf99b7dfef4d84e","C3","batch3","spm_show_trial_num","null","<p class=block-text>Trial 46 out of 60</p>","null","","","","","","","","","","","","","","","","","","","","","","","","","",""
"","","","","","image-button-response","96","542380","0.0-2.0-4.0-1.21","558afc18fdf99b7dfef4d84e","C3","batch3","spm_respsonse","19686.5","img/question_4_10.jpeg","1","mat_46","2","1","1","19686.5","","","","","","","","","","","","","","","","","","","","",""
"","","","","","html-keyboard-response","97","543443","0.0-2.0-4.0-0.22","558afc18fdf99b7dfef4d84e","C3","batch3","spm_show_trial_num","null","<p class=block-text>Trial 47 out of 60</p>","null","","","","","","","","","","","","","","","","","","","","","","","","","",""
"","","","","","image-button-response","98","567599","0.0-2.0-4.0-1.22","558afc18fdf99b7dfef4d84e","C3","batch3","spm_respsonse","24154.099999999627","img/question_4_11.jpeg","7","mat_47","5","0","0","24154.099999999627","","","","","","","","","","","","","","","","","","","","",""
"","","","","","html-keyboard-response","99","568665","0.0-2.0-4.0-0.23","558afc18fdf99b7dfef4d84e","C3","batch3","spm_show_trial_num","null","<p class=block-text>Trial 48 out of 60</p>","null","","","","","","","","","","","","","","","","","","","","","","","","","",""
"","","","","","image-button-response","100","592039","0.0-2.0-4.0-1.23","558afc18fdf99b7dfef4d84e","C3","batch3","spm_respsonse","23371.599999999627","img/question_4_12.jpeg","7","mat_48","6","0","0","23371.599999999627","","","","","","","","","","","","","","","","","","","","",""
"","","","","","html-keyboard-response","101","593103","0.0-2.0-4.0-0.24","558afc18fdf99b7dfef4d84e","C3","batch3","spm_show_trial_num","null","<p class=block-text>Trial 49 out of 60</p>","null","","","","","","","","","","","","","","","","","","","","","","","","","",""
"","","","","","image-button-response","102","600770","0.0-2.0-4.0-1.24","558afc18fdf99b7dfef4d84e","C3","batch3","spm_respsonse","7664.800000000745","img/question_5_1.jpeg","6","mat_49","7","1","1","7664.800000000745","","","","","","","","","","","","","","","","","","","","",""
"","","","","","html-keyboard-response","103","601835","0.0-2.0-4.0-0.25","558afc18fdf99b7dfef4d84e","C3","batch3","spm_show_trial_num","null","<p class=block-text>Trial 50 out of 60</p>","null","","","","","","","","","","","","","","","","","","","","","","","","","",""
"","","","","","image-button-response","104","621868","0.0-2.0-4.0-1.25","558afc18fdf99b7dfef4d84e","C3","batch3","spm_respsonse","20031.300000000745","img/question_5_2.jpeg","5","mat_50","6","1","1","20031.300000000745","","","","","","","","","","","","","","","","","","","","",""
"","","","","","html-keyboard-response","105","622939","0.0-2.0-4.0-0.26","558afc18fdf99b7dfef4d84e","C3","batch3","spm_show_trial_num","null","<p class=block-text>Trial 51 out of 60</p>","null","","","","","","","","","","","","","","","","","","","","","","","","","",""
"","","","","","image-button-response","106","636434","0.0-2.0-4.0-1.26","558afc18fdf99b7dfef4d84e","C3","batch3","spm_respsonse","13493.200000001118","img/question_5_3.jpeg","7","mat_51","8","1","1","13493.200000001118","","","","","","","","","","","","","","","","","","","","",""
"","","","","","html-keyboard-response","107","637508","0.0-2.0-4.0-0.27","558afc18fdf99b7dfef4d84e","C3","batch3","spm_show_trial_num","null","<p class=block-text>Trial 52 out of 60</p>","null","","","","","","","","","","","","","","","","","","","","","","","","","",""
"","","","","","image-button-response","108","668211","0.0-2.0-4.0-1.27","558afc18fdf99b7dfef4d84e","C3","batch3","spm_respsonse","30700.200000001118","img/question_5_4.jpeg","1","mat_52","2","1","1","30700.200000001118","","","","","","","","","","","","","","","","","","","","",""
"","","","","","html-keyboard-response","109","669272","0.0-2.0-4.0-0.28","558afc18fdf99b7dfef4d84e","C3","batch3","spm_show_trial_num","null","<p class=block-text>Trial 53 out of 60</p>","null","","","","","","","","","","","","","","","","","","","","","","","","","",""
"","","","","","image-button-response","110","683269","0.0-2.0-4.0-1.28","558afc18fdf99b7dfef4d84e","C3","batch3","spm_respsonse","13995.5","img/question_5_5.jpeg","0","mat_53","1","1","1","13995.5","","","","","","","","","","","","","","","","","","","","",""
"","","","","","html-keyboard-response","111","684329","0.0-2.0-4.0-0.29","558afc18fdf99b7dfef4d84e","C3","batch3","spm_show_trial_num","null","<p class=block-text>Trial 54 out of 60</p>","null","","","","","","","","","","","","","","","","","","","","","","","","","",""
"","","","","","image-button-response","112","717183","0.0-2.0-4.0-1.29","558afc18fdf99b7dfef4d84e","C3","batch3","spm_respsonse","32852","img/question_5_6.jpeg","2","mat_54","5","0","0","32852","","","","","","","","","","","","","","","","","","","","",""
"","","","","","html-keyboard-response","113","718242","0.0-2.0-4.0-0.30","558afc18fdf99b7dfef4d84e","C3","batch3","spm_show_trial_num","null","<p class=block-text>Trial 55 out of 60</p>","null","","","","","","","","","","","","","","","","","","","","","","","","","",""
"","","","","","image-button-response","114","728736","0.0-2.0-4.0-1.30","558afc18fdf99b7dfef4d84e","C3","batch3","spm_respsonse","10491.800000000745","img/question_5_7.jpeg","0","mat_55","1","1","1","10491.800000000745","","","","","","","","","","","","","","","","","","","","",""
"","","","","","html-keyboard-response","115","729799","0.0-2.0-4.0-0.31","558afc18fdf99b7dfef4d84e","C3","batch3","spm_show_trial_num","null","<p class=block-text>Trial 56 out of 60</p>","null","","","","","","","","","","","","","","","","","","","","","","","","","",""
"","","","","","image-button-response","116","742189","0.0-2.0-4.0-1.31","558afc18fdf99b7dfef4d84e","C3","batch3","spm_respsonse","12387.700000001118","img/question_5_8.jpeg","5","mat_56","6","1","1","12387.700000001118","","","","","","","","","","","","","","","","","","","","",""
"","","","","","html-keyboard-response","117","743255","0.0-2.0-4.0-0.32","558afc18fdf99b7dfef4d84e","C3","batch3","spm_show_trial_num","null","<p class=block-text>Trial 57 out of 60</p>","null","","","","","","","","","","","","","","","","","","","","","","","","","",""
"","","","","","image-button-response","118","754867","0.0-2.0-4.0-1.32","558afc18fdf99b7dfef4d84e","C3","batch3","spm_respsonse","11609.5","img/question_5_9.jpeg","2","mat_57","3","1","1","11609.5","","","","","","","","","","","","","","","","","","","","",""
"","","","","","html-keyboard-response","119","755928","0.0-2.0-4.0-0.33","558afc18fdf99b7dfef4d84e","C3","batch3","spm_show_trial_num","null","<p class=block-text>Trial 58 out of 60</p>","null","","","","","","","","","","","","","","","","","","","","","","","","","",""
"","","","","","image-button-response","120","768183","0.0-2.0-4.0-1.33","558afc18fdf99b7dfef4d84e","C3","batch3","spm_respsonse","12254","img/question_5_10.jpeg","7","mat_58","2","0","0","12254","","","","","","","","","","","","","","","","","","","","",""
"","","","","","html-keyboard-response","121","769241","0.0-2.0-4.0-0.34","558afc18fdf99b7dfef4d84e","C3","batch3","spm_show_trial_num","null","<p class=block-text>Trial 59 out of 60</p>","null","","","","","","","","","","","","","","","","","","","","","","","","","",""
"","","","","","image-button-response","122","793120","0.0-2.0-4.0-1.34","558afc18fdf99b7dfef4d84e","C3","batch3","spm_respsonse","23874.699999999255","img/question_5_11.jpeg","2","mat_59","4","0","0","23874.699999999255","","","","","","","","","","","","","","","","","","","","",""
"","","","","","html-keyboard-response","123","794181","0.0-2.0-4.0-0.35","558afc18fdf99b7dfef4d84e","C3","batch3","spm_show_trial_num","null","<p class=block-text>Trial 60 out of 60</p>","null","","","","","","","","","","","","","","","","","","","","","","","","","",""
"","","","","","image-button-response","124","818261","0.0-2.0-4.0-1.35","558afc18fdf99b7dfef4d84e","C3","batch3","spm_respsonse","24078.5","img/question_5_12.jpeg","3","mat_60","5","0","0","24078.5","","","","","","","","","","","","","","","","","","","","",""
"","","","","","html-button-response","125","821267","0.0-2.0-5.0","558afc18fdf99b7dfef4d84e","C3","batch3","spm_goodbye","2752.7000000011176","<p class= block-text>This concludes the Standard Progressive Matrix game. Thank you for your responses!<br> When you are ready, click the button continue</p>","0","","","","","","","","","","","","","","","","","","","","","","","","","",""
"true","","","","","fullscreen","126","824259","0.0-3.0-0.0","558afc18fdf99b7dfef4d84e","C3","batch3","","","","","","","","","","","","","","","","","","","","","","","","","","","","","",""
"","","","","","instructions","127","903895","0.0-3.0-1.0-0.0-0.0","558afc18fdf99b7dfef4d84e","C3","batch3","tol-instructions","79633.59999999963","","","","","","","","[{""page_index"":0,""viewing_time"":22501.199999999255},{""page_index"":1,""viewing_time"":18062.599999999627},{""page_index"":2,""viewing_time"":6148.9000000003725},{""page_index"":3,""viewing_time"":9284.900000000373},{""page_index"":4,""viewing_time"":9890.900000000373},{""page_index"":5,""viewing_time"":10162.699999999255},{""page_index"":6,""viewing_time"":3582}]","","","","","","","","","","","","","","","","","","","",""
"","","","","","html-button-response","128","904645","0.0-3.0-1.0-1.0-0.0","558afc18fdf99b7dfef4d84e","C3","batch3","tol_enter_quiz","749","<p class=block-text> Let's answer a few questions <br>","0","","","","","","","","","","","","","","","","","","","","","","","","","",""
"","","","","","html-button-response","129","911567","0.0-3.0-1.0-1.0-1.0","558afc18fdf99b7dfef4d84e","C3","batch3","tol_quiz","6920.9000000003725","<p class = block-text>True or False: You can only move the ball on top of a peg. <br></p>","0","","","true","","","","","","","","","","","","","","","","","","","","","","",""
"","","","","","html-button-response","130","912452","0.0-3.0-1.0-1.0-2.0","558afc18fdf99b7dfef4d84e","C3","batch3","tol_quiz_feedback","883","<p class = block-text>Correct! You can only move the ball on top of a peg.</p>","0","","","","","","","","","","","","","","","","","","","","","","","","","",""
"","","","","","html-button-response","131","915251","0.0-3.0-1.0-1.0-3.0","558afc18fdf99b7dfef4d84e","C3","batch3","tol_quiz","2797.800000000745","<p class = block-text>True or False: You should try to match your board with the target board with fewest moves possible. <br></p>","0","","","true","","","","","","","","","","","","","","","","","","","","","","",""
"","","","","","html-button-response","132","915717","0.0-3.0-1.0-1.0-4.0","558afc18fdf99b7dfef4d84e","C3","batch3","tol_quiz_feedback","464.59999999962747","<p class = block-text>Correct! </p>","0","","","","","","","","","","","","","","","","","","","","","","","","","",""
"","","","","","html-button-response","133","917433","0.0-3.0-2.0","558afc18fdf99b7dfef4d84e","C3","batch3","","1714.5","<p class=block-text> Now that you've understood the game, let's practice a few easier examples before we start!<br> <br>","0","","","","","","","","","","","","","","","","","","","","","","","","","",""
"","","","","","single-stim-button","134","920474","0.0-3.0-3.0-0.0","558afc18fdf99b7dfef4d84e","C3","batch3","tol_practice","3039","","","","","","","","","tol_peg_2","3039","3039","0","[[1,2,0],[0,0],[0]]","1","[[1,2,0],[0,0],[3]]","practice","3039","","","","","","","","","","",""
"","","","","","single-stim-button","135","922324","0.0-3.0-3.0-1.0","558afc18fdf99b7dfef4d84e","C3","batch3","tol_practice","1848","","","","","","","","","tol_peg_3","1848","1848","0","[[1,2,0],[0,0],[3]]","1","[[1,2,0],[0,0],[3]]","practice","1848","","","","","","","","","","",""
"","","","","","poldrack-single-stim","136","923331","0.0-3.0-4.0","558afc18fdf99b7dfef4d84e","C3","batch3","tol_feedback","-1","","","","","true","","","","","1000","1000","500","","","","","","-1","none","true","","0","","","","","",""
"","","","","","single-stim-button","137","928899","0.0-3.0-5.0-0.0","558afc18fdf99b7dfef4d84e","C3","batch3","tol_practice","5566","","","","","","","","","tol_peg_1","5566","5566","0","[[1,0,0],[3,0],[0]]","2","[[0,0,0],[3,1],[2]]","practice","5566","","","","","","","","","","",""
"","","","","","single-stim-button","138","929694","0.0-3.0-5.0-1.0","558afc18fdf99b7dfef4d84e","C3","batch3","tol_practice","795","","","","","","","","","tol_peg_3","795","795","0","[[1,0,0],[3,0],[2]]","2","[[0,0,0],[3,1],[2]]","practice","795","","","","","","","","","","",""
"","","","","","single-stim-button","139","930629","0.0-3.0-5.1-0.1","558afc18fdf99b7dfef4d84e","C3","batch3","tol_practice","933","","","","","","","","","tol_peg_1","933","933","0","[[0,0,0],[3,0],[2]]","3","[[0,0,0],[3,1],[2]]","practice","933","","","","","","","","","","",""
"","","","","","single-stim-button","140","931039","0.0-3.0-5.1-1.1","558afc18fdf99b7dfef4d84e","C3","batch3","tol_practice","409","","","","","","","","","tol_peg_2","409","409","0","[[0,0,0],[3,1],[2]]","3","[[0,0,0],[3,1],[2]]","practice","409","","","","","","","","","","",""
"","","","","","poldrack-single-stim","141","932043","0.0-3.0-6.0","558afc18fdf99b7dfef4d84e","C3","batch3","tol_feedback","-1","","","","","true","","","","","1000","1000","500","","","","","","-1","none","true","","0","","","","","",""
"","","","","","single-stim-button","142","936032","0.0-3.0-7.0-0.0","558afc18fdf99b7dfef4d84e","C3","batch3","tol_practice","3987","","","","","","","","","tol_peg_2","3987","3987","0","[[1,2,0],[0,0],[0]]","4","[[1,0,0],[2,0],[3]]","practice","3987","","","","","","","","","","",""
"","","","","","single-stim-button","143","936579","0.0-3.0-7.0-1.0","558afc18fdf99b7dfef4d84e","C3","batch3","tol_practice","546","","","","","","","","","tol_peg_3","546","546","0","[[1,2,0],[0,0],[3]]","4","[[1,0,0],[2,0],[3]]","practice","546","","","","","","","","","","",""
"","","","","","single-stim-button","144","937172","0.0-3.0-7.1-0.1","558afc18fdf99b7dfef4d84e","C3","batch3","tol_practice","592","","","","","","","","","tol_peg_1","592","592","0","[[1,0,0],[0,0],[3]]","5","[[1,0,0],[2,0],[3]]","practice","592","","","","","","","","","","",""
"","","","","","single-stim-button","145","937705","0.0-3.0-7.1-1.1","558afc18fdf99b7dfef4d84e","C3","batch3","tol_practice","532","","","","","","","","","tol_peg_2","532","532","0","[[1,0,0],[2,0],[3]]","5","[[1,0,0],[2,0],[3]]","practice","532","","","","","","","","","","",""
"","","","","","poldrack-single-stim","146","938708","0.0-3.0-8.0","558afc18fdf99b7dfef4d84e","C3","batch3","tol_feedback","-1","","","","","true","","","","","1000","1000","500","","","","","","-1","none","true","","0","","","","","",""
"","","","","","html-button-response","147","940638","0.0-3.0-9.0","558afc18fdf99b7dfef4d84e","C3","batch3","tol_instruction","1929","<div class = centerbox><p class = center-block-text>Great job! You are done with practice trials<br>You are about to start official trials.<br> <br> Problem <strong>1</strong> out of 25 problems</p></div>","0","","","","","","","","","","","","","","","","","","","","","","","","","",""
"","","","","","single-stim-button","148","952030","0.0-3.0-10.0-0.0","558afc18fdf99b7dfef4d84e","C3","batch3","tol_tohand","10385","","","","","","","","","tol_peg_1","10385","10385","0","[[1,0,0],[3,0],[0]]","1","[[1,3,0],[2,0],[0]]","0","0","","","","","","3","","","","",""
"","","","","","single-stim-button","149","953662","0.0-3.0-10.0-1.0","558afc18fdf99b7dfef4d84e","C3","batch3","tol_toboard","1631","","","","","","","","","tol_peg_3","1631","1631","0","[[1,0,0],[3,0],[2]]","1","[[1,3,0],[2,0],[0]]","0","0","","","","","","3","","","","",""
"","","","","","single-stim-button","150","954149","0.0-3.0-10.1-0.1","558afc18fdf99b7dfef4d84e","C3","batch3","tol_tohand","486","","","","","","","","","tol_peg_2","486","486","0","[[1,0,0],[0,0],[2]]","2","[[1,3,0],[2,0],[0]]","0","0","","","","","","3","","","","",""
"","","","","","single-stim-button","151","955343","0.0-3.0-10.1-1.1","558afc18fdf99b7dfef4d84e","C3","batch3","tol_toboard","1193","","","","","","","","","tol_peg_1","1193","1193","0","[[1,3,0],[0,0],[2]]","2","[[1,3,0],[2,0],[0]]","0","0","","","","","","3","","","","",""
"","","","","","single-stim-button","152","956291","0.0-3.0-10.2-0.2","558afc18fdf99b7dfef4d84e","C3","batch3","tol_tohand","947","","","","","","","","","tol_peg_3","947","947","0","[[1,3,0],[0,0],[0]]","3","[[1,3,0],[2,0],[0]]","0","0","","","","","","3","","","","",""
"","","","","","single-stim-button","153","956958","0.0-3.0-10.2-1.2","558afc18fdf99b7dfef4d84e","C3","batch3","tol_toboard","666","","","","","","","","","tol_peg_2","666","666","0","[[1,3,0],[2,0],[0]]","3","[[1,3,0],[2,0],[0]]","0","0","","","","","","3","","","","",""
"","","","","","poldrack-single-stim","154","957963","0.0-3.0-11.0","558afc18fdf99b7dfef4d84e","C3","batch3","tol_feedback","-1","","","","","true","","","","","1000","1000","500","","","","","","-1","none","true","10385","11818","","","","","",""
"","","","","","html-button-response","155","958820","0.0-3.0-12.0","558afc18fdf99b7dfef4d84e","C3","batch3","tol_trial_num","856.1999999992549","<div class = centerbox><p class = center-block-text>problem <strong>2</strong> out of 25 problems</p></div>","0","","","","","","","","","","","","","","","","","","","","","","","","","",""
"","","","","","single-stim-button","156","971798","0.0-3.0-13.0-0.0","558afc18fdf99b7dfef4d84e","C3","batch3","tol_tohand","12977","","","","","","","","","tol_peg_1","12977","12977","0","[[1,0,0],[3,0],[0]]","1","[[2,1,3],[0,0],[0]]","1","0","","","","","","5","","","","",""
"","","","","","single-stim-button","157","982298","0.0-3.0-13.0-1.0","558afc18fdf99b7dfef4d84e","C3","batch3","tol_toboard","10499","","","","","","","","","tol_peg_1","10499","10499","0","[[1,2,0],[3,0],[0]]","1","[[2,1,3],[0,0],[0]]","1","0","","","","","","5","","","","",""
"","","","","","single-stim-button","158","984124","0.0-3.0-13.1-0.1","558afc18fdf99b7dfef4d84e","C3","batch3","tol_tohand","1825","","","","","","","","","tol_peg_1","1825","1825","0","[[1,0,0],[3,0],[0]]","2","[[2,1,3],[0,0],[0]]","1","0","","","","","","5","","","","",""
"","","","","","single-stim-button","159","987016","0.0-3.0-13.1-1.1","558afc18fdf99b7dfef4d84e","C3","batch3","tol_toboard","2891","","","","","","","","","tol_peg_3","2891","2891","0","[[1,0,0],[3,0],[2]]","2","[[2,1,3],[0,0],[0]]","1","0","","","","","","5","","","","",""
"","","","","","single-stim-button","160","995434","0.0-3.0-13.2-0.2","558afc18fdf99b7dfef4d84e","C3","batch3","tol_tohand","8417","","","","","","","","","tol_peg_1","8417","8417","0","[[0,0,0],[3,0],[2]]","3","[[2,1,3],[0,0],[0]]","1","0","","","","","","5","","","","",""
"","","","","","single-stim-button","161","1003003","0.0-3.0-13.2-1.2","558afc18fdf99b7dfef4d84e","C3","batch3","tol_toboard","7568","","","","","","","","","tol_peg_1","7568","7568","0","[[1,0,0],[3,0],[2]]","3","[[2,1,3],[0,0],[0]]","1","0","","","","","","5","","","","",""
"","","","","","single-stim-button","162","1008140","0.0-3.0-13.3-0.3","558afc18fdf99b7dfef4d84e","C3","batch3","tol_tohand","5135","","","","","","","","","tol_peg_3","5135","5135","0","[[1,0,0],[3,0],[0]]","4","[[2,1,3],[0,0],[0]]","1","0","","","","","","5","","","","",""
"","","","","","single-stim-button","163","1008817","0.0-3.0-13.3-1.3","558afc18fdf99b7dfef4d84e","C3","batch3","tol_toboard","677","","","","","","","","","tol_peg_2","677","677","0","[[1,0,0],[3,2],[0]]","4","[[2,1,3],[0,0],[0]]","1","0","","","","","","5","","","","",""
"","","","","","single-stim-button","164","1009269","0.0-3.0-13.4-0.4","558afc18fdf99b7dfef4d84e","C3","batch3","tol_tohand","451","","","","","","","","","tol_peg_1","451","451","0","[[0,0,0],[3,2],[0]]","5","[[2,1,3],[0,0],[0]]","1","0","","","","","","5","","","","",""
"","","","","","single-stim-button","165","1009993","0.0-3.0-13.4-1.4","558afc18fdf99b7dfef4d84e","C3","batch3","tol_toboard","723","","","","","","","","","tol_peg_3","723","723","0","[[0,0,0],[3,2],[1]]","5","[[2,1,3],[0,0],[0]]","1","0","","","","","","5","","","","",""
"","","","","","single-stim-button","166","1011173","0.0-3.0-13.5-0.5","558afc18fdf99b7dfef4d84e","C3","batch3","tol_tohand","1178","","","","","","","","","tol_peg_2","1178","1178","0","[[0,0,0],[3,0],[1]]","6","[[2,1,3],[0,0],[0]]","1","0","","","","","","5","","","","",""
"","","","","","single-stim-button","167","1011874","0.0-3.0-13.5-1.5","558afc18fdf99b7dfef4d84e","C3","batch3","tol_toboard","700","","","","","","","","","tol_peg_1","700","700","0","[[2,0,0],[3,0],[1]]","6","[[2,1,3],[0,0],[0]]","1","0","","","","","","5","","","","",""
"","","","","","single-stim-button","168","1013286","0.0-3.0-13.6-0.6","558afc18fdf99b7dfef4d84e","C3","batch3","tol_tohand","1411","","","","","","","","","tol_peg_3","1411","1411","0","[[2,0,0],[3,0],[0]]","7","[[2,1,3],[0,0],[0]]","1","0","","","","","","5","","","","",""
"","","","","","single-stim-button","169","1013967","0.0-3.0-13.6-1.6","558afc18fdf99b7dfef4d84e","C3","batch3","tol_toboard","680","","","","","","","","","tol_peg_1","680","680","0","[[2,1,0],[3,0],[0]]","7","[[2,1,3],[0,0],[0]]","1","0","","","","","","5","","","","",""
"","","","","","single-stim-button","170","1014492","0.0-3.0-13.7-0.7","558afc18fdf99b7dfef4d84e","C3","batch3","tol_tohand","524","","","","","","","","","tol_peg_2","524","524","0","[[2,1,0],[0,0],[0]]","8","[[2,1,3],[0,0],[0]]","1","0","","","","","","5","","","","",""
"","","","","","single-stim-button","171","1014824","0.0-3.0-13.7-1.7","558afc18fdf99b7dfef4d84e","C3","batch3","tol_toboard","331","","","","","","","","","tol_peg_1","331","331","0","[[2,1,3],[0,0],[0]]","8","[[2,1,3],[0,0],[0]]","1","0","","","","","","5","","","","",""
"","","","","","poldrack-single-stim","172","1015826","0.0-3.0-14.0","558afc18fdf99b7dfef4d84e","C3","batch3","tol_feedback","-1","","","","","true","","","","","1000","1000","500","","","","","","-1","none","true","12977","31918","","","","","",""
"","","","","","html-button-response","173","1017079","0.0-3.0-15.0","558afc18fdf99b7dfef4d84e","C3","batch3","tol_trial_num","1251.7000000011176","<div class = centerbox><p class = center-block-text>problem <strong>3</strong> out of 25 problems</p></div>","0","","","","","","","","","","","","","","","","","","","","","","","","","",""
"","","","","","single-stim-button","174","1024940","0.0-3.0-16.0-0.0","558afc18fdf99b7dfef4d84e","C3","batch3","tol_tohand","7861","","","","","","","","","tol_peg_1","7861","7861","0","[[2,0,0],[0,0],[1]]","1","[[1,2,0],[3,0],[0]]","2","0","","","","","","4","","","","",""
"","","","","","single-stim-button","175","1025574","0.0-3.0-16.0-1.0","558afc18fdf99b7dfef4d84e","C3","batch3","tol_toboard","633","","","","","","","","","tol_peg_2","633","633","0","[[2,0,0],[3,0],[1]]","1","[[1,2,0],[3,0],[0]]","2","0","","","","","","4","","","","",""
"","","","","","single-stim-button","176","1025984","0.0-3.0-16.1-0.1","558afc18fdf99b7dfef4d84e","C3","batch3","tol_tohand","408","","","","","","","","","tol_peg_1","408","408","0","[[0,0,0],[3,0],[1]]","2","[[1,2,0],[3,0],[0]]","2","0","","","","","","4","","","","",""
"","","","","","single-stim-button","177","1026383","0.0-3.0-16.1-1.1","558afc18fdf99b7dfef4d84e","C3","batch3","tol_toboard","398","","","","","","","","","tol_peg_2","398","398","0","[[0,0,0],[3,2],[1]]","2","[[1,2,0],[3,0],[0]]","2","0","","","","","","4","","","","",""
"","","","","","single-stim-button","178","1026856","0.0-3.0-16.2-0.2","558afc18fdf99b7dfef4d84e","C3","batch3","tol_tohand","472","","","","","","","","","tol_peg_3","472","472","0","[[0,0,0],[3,2],[0]]","3","[[1,2,0],[3,0],[0]]","2","0","","","","","","4","","","","",""
"","","","","","single-stim-button","179","1027500","0.0-3.0-16.2-1.2","558afc18fdf99b7dfef4d84e","C3","batch3","tol_toboard","643","","","","","","","","","tol_peg_1","643","643","0","[[1,0,0],[3,2],[0]]","3","[[1,2,0],[3,0],[0]]","2","0","","","","","","4","","","","",""
"","","","","","single-stim-button","180","1028394","0.0-3.0-16.3-0.3","558afc18fdf99b7dfef4d84e","C3","batch3","tol_tohand","893","","","","","","","","","tol_peg_2","893","893","0","[[1,0,0],[3,0],[0]]","4","[[1,2,0],[3,0],[0]]","2","0","","","","","","4","","","","",""
"","","","","","single-stim-button","181","1028901","0.0-3.0-16.3-1.3","558afc18fdf99b7dfef4d84e","C3","batch3","tol_toboard","506","","","","","","","","","tol_peg_1","506","506","0","[[1,2,0],[3,0],[0]]","4","[[1,2,0],[3,0],[0]]","2","0","","","","","","4","","","","",""
"","","","","","poldrack-single-stim","182","1029906","0.0-3.0-17.0","558afc18fdf99b7dfef4d84e","C3","batch3","tol_feedback","-1","","","","","true","","","","","1000","1000","500","","","","","","-1","none","true","7861","9634","","","","","",""
"","","","","","html-button-response","183","1030554","0.0-3.0-18.0","558afc18fdf99b7dfef4d84e","C3","batch3","tol_trial_num","647.0999999996275","<div class = centerbox><p class = center-block-text>problem <strong>4</strong> out of 25 problems</p></div>","0","","","","","","","","","","","","","","","","","","","","","","","","","",""
"","","","","","single-stim-button","184","1035689","0.0-3.0-19.0-0.0","558afc18fdf99b7dfef4d84e","C3","batch3","tol_tohand","5133","","","","","","","","","tol_peg_2","5133","5133","0","[[3,0,0],[2,0],[0]]","1","[[3,0,0],[1,0],[2]]","3","0","","","","","","3","","","","",""
"","","","","","single-stim-button","185","1036181","0.0-3.0-19.0-1.0","558afc18fdf99b7dfef4d84e","C3","batch3","tol_toboard","491","","","","","","","","","tol_peg_1","491","491","0","[[3,1,0],[2,0],[0]]","1","[[3,0,0],[1,0],[2]]","3","0","","","","","","3","","","","",""
"","","","","","single-stim-button","186","1036678","0.0-3.0-19.1-0.1","558afc18fdf99b7dfef4d84e","C3","batch3","tol_tohand","497","","","","","","","","","tol_peg_2","497","497","0","[[3,1,0],[0,0],[0]]","2","[[3,0,0],[1,0],[2]]","3","0","","","","","","3","","","","",""
"","","","","","single-stim-button","187","1037196","0.0-3.0-19.1-1.1","558afc18fdf99b7dfef4d84e","C3","batch3","tol_toboard","517","","","","","","","","","tol_peg_3","517","517","0","[[3,1,0],[0,0],[2]]","2","[[3,0,0],[1,0],[2]]","3","0","","","","","","3","","","","",""
"","","","","","single-stim-button","188","1037849","0.0-3.0-19.2-0.2","558afc18fdf99b7dfef4d84e","C3","batch3","tol_tohand","652","","","","","","","","","tol_peg_1","652","652","0","[[3,0,0],[0,0],[2]]","3","[[3,0,0],[1,0],[2]]","3","0","","","","","","3","","","","",""
"","","","","","single-stim-button","189","1038332","0.0-3.0-19.2-1.2","558afc18fdf99b7dfef4d84e","C3","batch3","tol_toboard","482","","","","","","","","","tol_peg_2","482","482","0","[[3,0,0],[1,0],[2]]","3","[[3,0,0],[1,0],[2]]","3","0","","","","","","3","","","","",""
"","","","","","poldrack-single-stim","190","1039334","0.0-3.0-20.0","558afc18fdf99b7dfef4d84e","C3","batch3","tol_feedback","-1","","","","","true","","","","","1000","1000","500","","","","","","-1","none","true","5133","6282","","","","","",""
"","","","","","html-button-response","191","1039920","0.0-3.0-21.0","558afc18fdf99b7dfef4d84e","C3","batch3","tol_trial_num","585.2000000011176","<div class = centerbox><p class = center-block-text>problem <strong>5</strong> out of 25 problems</p></div>","0","","","","","","","","","","","","","","","","","","","","","","","","","",""
"","","","","","single-stim-button","192","1058425","0.0-3.0-22.0-0.0","558afc18fdf99b7dfef4d84e","C3","batch3","tol_tohand","18504","","","","","","","","","tol_peg_1","18504","18504","0","[[0,0,0],[2,0],[3]]","1","[[0,0,0],[1,2],[3]]","4","0","","","","","","7","","","","",""
"","","","","","single-stim-button","193","1068863","0.0-3.0-22.0-1.0","558afc18fdf99b7dfef4d84e","C3","batch3","tol_toboard","10437","","","","","","","","","tol_peg_1","10437","10437","0","[[1,0,0],[2,0],[3]]","1","[[0,0,0],[1,2],[3]]","4","0","","","","","","7","","","","",""
"","","","","","single-stim-button","194","1083537","0.0-3.0-22.1-0.1","558afc18fdf99b7dfef4d84e","C3","batch3","tol_tohand","14673","","","","","","","","","tol_peg_3","14673","14673","0","[[1,0,0],[2,0],[0]]","2","[[0,0,0],[1,2],[3]]","4","0","","","","","","7","","","","",""
"","","","","","single-stim-button","195","1084159","0.0-3.0-22.1-1.1","558afc18fdf99b7dfef4d84e","C3","batch3","tol_toboard","621","","","","","","","","","tol_peg_1","621","621","0","[[1,3,0],[2,0],[0]]","2","[[0,0,0],[1,2],[3]]","4","0","","","","","","7","","","","",""
"","","","","","single-stim-button","196","1084614","0.0-3.0-22.2-0.2","558afc18fdf99b7dfef4d84e","C3","batch3","tol_tohand","454","","","","","","","","","tol_peg_2","454","454","0","[[1,3,0],[0,0],[0]]","3","[[0,0,0],[1,2],[3]]","4","0","","","","","","7","","","","",""
"","","","","","single-stim-button","197","1085228","0.0-3.0-22.2-1.2","558afc18fdf99b7dfef4d84e","C3","batch3","tol_toboard","613","","","","","","","","","tol_peg_3","613","613","0","[[1,3,0],[0,0],[2]]","3","[[0,0,0],[1,2],[3]]","4","0","","","","","","7","","","","",""
"","","","","","single-stim-button","198","1087204","0.0-3.0-22.3-0.3","558afc18fdf99b7dfef4d84e","C3","batch3","tol_tohand","1975","","","","","","","","","tol_peg_1","1975","1975","0","[[1,0,0],[0,0],[2]]","4","[[0,0,0],[1,2],[3]]","4","0","","","","","","7","","","","",""
"","","","","","single-stim-button","199","1089385","0.0-3.0-22.3-1.3","558afc18fdf99b7dfef4d84e","C3","batch3","tol_toboard","2179","","","","","","","","","tol_peg_2","2179","2179","0","[[1,0,0],[3,0],[2]]","4","[[0,0,0],[1,2],[3]]","4","0","","","","","","7","","","","",""
"","","","","","single-stim-button","200","1089851","0.0-3.0-22.4-0.4","558afc18fdf99b7dfef4d84e","C3","batch3","tol_tohand","465","","","","","","","","","tol_peg_1","465","465","0","[[0,0,0],[3,0],[2]]","5","[[0,0,0],[1,2],[3]]","4","0","","","","","","7","","","","",""
"","","","","","single-stim-button","201","1090386","0.0-3.0-22.4-1.4","558afc18fdf99b7dfef4d84e","C3","batch3","tol_toboard","535","","","","","","","","","tol_peg_2","535","535","0","[[0,0,0],[3,1],[2]]","5","[[0,0,0],[1,2],[3]]","4","0","","","","","","7","","","","",""
"","","","","","single-stim-button","202","1095902","0.0-3.0-22.5-0.5","558afc18fdf99b7dfef4d84e","C3","batch3","tol_tohand","5515","","","","","","","","","tol_peg_3","5515","5515","0","[[0,0,0],[3,1],[0]]","6","[[0,0,0],[1,2],[3]]","4","0","","","","","","7","","","","",""
"","","","","","single-stim-button","203","1096683","0.0-3.0-22.5-1.5","558afc18fdf99b7dfef4d84e","C3","batch3","tol_toboard","780","","","","","","","","","tol_peg_1","780","780","0","[[2,0,0],[3,1],[0]]","6","[[0,0,0],[1,2],[3]]","4","0","","","","","","7","","","","",""
"","","","","","single-stim-button","204","1097897","0.0-3.0-22.6-0.6","558afc18fdf99b7dfef4d84e","C3","batch3","tol_tohand","1213","","","","","","","","","tol_peg_2","1213","1213","0","[[2,0,0],[3,0],[0]]","7","[[0,0,0],[1,2],[3]]","4","0","","","","","","7","","","","",""
"","","","","","single-stim-button","205","1101683","0.0-3.0-22.6-1.6","558afc18fdf99b7dfef4d84e","C3","batch3","tol_toboard","3786","","","","","","","","","tol_peg_3","3786","3786","0","[[2,0,0],[3,0],[1]]","7","[[0,0,0],[1,2],[3]]","4","0","","","","","","7","","","","",""
"","","","","","single-stim-button","206","1105396","0.0-3.0-22.7-0.7","558afc18fdf99b7dfef4d84e","C3","batch3","tol_tohand","3712","","","","","","","","","tol_peg_2","3712","3712","0","[[2,0,0],[0,0],[1]]","8","[[0,0,0],[1,2],[3]]","4","0","","","","","","7","","","","",""
"","","","","","single-stim-button","207","1105855","0.0-3.0-22.7-1.7","558afc18fdf99b7dfef4d84e","C3","batch3","tol_toboard","458","","","","","","","","","tol_peg_1","458","458","0","[[2,3,0],[0,0],[1]]","8","[[0,0,0],[1,2],[3]]","4","0","","","","","","7","","","","",""
"","","","","","single-stim-button","208","1106320","0.0-3.0-22.8-0.8","558afc18fdf99b7dfef4d84e","C3","batch3","tol_tohand","464","","","","","","","","","tol_peg_1","464","464","0","[[2,0,0],[0,0],[1]]","9","[[0,0,0],[1,2],[3]]","4","0","","","","","","7","","","","",""
"","","","","","single-stim-button","209","1109257","0.0-3.0-22.8-1.8","558afc18fdf99b7dfef4d84e","C3","batch3","tol_toboard","2936","","","","","","","","","tol_peg_2","2936","2936","0","[[2,0,0],[3,0],[1]]","9","[[0,0,0],[1,2],[3]]","4","0","","","","","","7","","","","",""
"","","","","","single-stim-button","210","1119068","0.0-3.0-22.9-0.9","558afc18fdf99b7dfef4d84e","C3","batch3","tol_tohand","9810","","","","","","","","","tol_peg_2","9810","9810","0","[[2,0,0],[0,0],[1]]","10","[[0,0,0],[1,2],[3]]","4","0","","","","","","7","","","","",""
"","","","","","single-stim-button","211","1119931","0.0-3.0-22.9-1.9","558afc18fdf99b7dfef4d84e","C3","batch3","tol_toboard","862","","","","","","","","","tol_peg_1","862","862","0","[[2,3,0],[0,0],[1]]","10","[[0,0,0],[1,2],[3]]","4","0","","","","","","7","","","","",""
"","","","","","single-stim-button","212","1120437","0.0-3.0-22.10-0.10","558afc18fdf99b7dfef4d84e","C3","batch3","tol_tohand","505","","","","","","","","","tol_peg_3","505","505","0","[[2,3,0],[0,0],[0]]","11","[[0,0,0],[1,2],[3]]","4","0","","","","","","7","","","","",""
"","","","","","single-stim-button","213","1120942","0.0-3.0-22.10-1.10","558afc18fdf99b7dfef4d84e","C3","batch3","tol_toboard","504","","","","","","","","","tol_peg_2","504","504","0","[[2,3,0],[1,0],[0]]","11","[[0,0,0],[1,2],[3]]","4","0","","","","","","7","","","","",""
"","","","","","single-stim-button","214","1121582","0.0-3.0-22.11-0.11","558afc18fdf99b7dfef4d84e","C3","batch3","tol_tohand","639","","","","","","","","","tol_peg_1","639","639","0","[[2,0,0],[1,0],[0]]","12","[[0,0,0],[1,2],[3]]","4","0","","","","","","7","","","","",""
"","","","","","single-stim-button","215","1122105","0.0-3.0-22.11-1.11","558afc18fdf99b7dfef4d84e","C3","batch3","tol_toboard","522","","","","","","","","","tol_peg_3","522","522","0","[[2,0,0],[1,0],[3]]","12","[[0,0,0],[1,2],[3]]","4","0","","","","","","7","","","","",""
"","","","","","single-stim-button","216","1122753","0.0-3.0-22.12-0.12","558afc18fdf99b7dfef4d84e","C3","batch3","tol_tohand","647","","","","","","","","","tol_peg_1","647","647","0","[[0,0,0],[1,0],[3]]","13","[[0,0,0],[1,2],[3]]","4","0","","","","","","7","","","","",""
"","","","","","single-stim-button","217","1123087","0.0-3.0-22.12-1.12","558afc18fdf99b7dfef4d84e","C3","batch3","tol_toboard","333","","","","","","","","","tol_peg_2","333","333","0","[[0,0,0],[1,2],[3]]","13","[[0,0,0],[1,2],[3]]","4","0","","","","","","7","","","","",""
"","","","","","poldrack-single-stim","218","1124092","0.0-3.0-23.0","558afc18fdf99b7dfef4d84e","C3","batch3","tol_feedback","-1","","","","","true","","","","","1000","1000","500","","","","","","-1","none","true","18504","58576","","","","","",""
"","","","","","html-button-response","219","1124775","0.0-3.0-24.0","558afc18fdf99b7dfef4d84e","C3","batch3","tol_trial_num","682.4000000003725","<div class = centerbox><p class = center-block-text>problem <strong>6</strong> out of 25 problems</p></div>","0","","","","","","","","","","","","","","","","","","","","","","","","","",""
"","","","","","single-stim-button","220","1136947","0.0-3.0-25.0-0.0","558afc18fdf99b7dfef4d84e","C3","batch3","tol_tohand","12171","","","","","","","","","tol_peg_3","12171","12171","0","[[0,0,0],[1,2],[0]]","1","[[1,0,0],[2,3],[0]]","5","0","","","","","","6","","","","",""
"","","","","","single-stim-button","221","1140347","0.0-3.0-25.0-1.0","558afc18fdf99b7dfef4d84e","C3","batch3","tol_toboard","3398","","","","","","","","","tol_peg_1","3398","3398","0","[[3,0,0],[1,2],[0]]","1","[[1,0,0],[2,3],[0]]","5","0","","","","","","6","","","","",""
"","","","","","single-stim-button","222","1143440","0.0-3.0-25.1-0.1","558afc18fdf99b7dfef4d84e","C3","batch3","tol_tohand","3092","","","","","","","","","tol_peg_2","3092","3092","0","[[3,0,0],[1,0],[0]]","2","[[1,0,0],[2,3],[0]]","5","0","","","","","","6","","","","",""
"","","","","","single-stim-button","223","1144091","0.0-3.0-25.1-1.1","558afc18fdf99b7dfef4d84e","C3","batch3","tol_toboard","649","","","","","","","","","tol_peg_3","649","649","0","[[3,0,0],[1,0],[2]]","2","[[1,0,0],[2,3],[0]]","5","0","","","","","","6","","","","",""
"","","","","","single-stim-button","224","1144566","0.0-3.0-25.2-0.2","558afc18fdf99b7dfef4d84e","C3","batch3","tol_tohand","475","","","","","","","","","tol_peg_2","475","475","0","[[3,0,0],[0,0],[2]]","3","[[1,0,0],[2,3],[0]]","5","0","","","","","","6","","","","",""
"","","","","","single-stim-button","225","1145080","0.0-3.0-25.2-1.2","558afc18fdf99b7dfef4d84e","C3","batch3","tol_toboard","512","","","","","","","","","tol_peg_1","512","512","0","[[3,1,0],[0,0],[2]]","3","[[1,0,0],[2,3],[0]]","5","0","","","","","","6","","","","",""
"","","","","","single-stim-button","226","1145629","0.0-3.0-25.3-0.3","558afc18fdf99b7dfef4d84e","C3","batch3","tol_tohand","549","","","","","","","","","tol_peg_3","549","549","0","[[3,1,0],[0,0],[0]]","4","[[1,0,0],[2,3],[0]]","5","0","","","","","","6","","","","",""
"","","","","","single-stim-button","227","1146339","0.0-3.0-25.3-1.3","558afc18fdf99b7dfef4d84e","C3","batch3","tol_toboard","709","","","","","","","","","tol_peg_2","709","709","0","[[3,1,0],[2,0],[0]]","4","[[1,0,0],[2,3],[0]]","5","0","","","","","","6","","","","",""
"","","","","","single-stim-button","228","1147501","0.0-3.0-25.4-0.4","558afc18fdf99b7dfef4d84e","C3","batch3","tol_tohand","1161","","","","","","","","","tol_peg_1","1161","1161","0","[[3,0,0],[2,0],[0]]","5","[[1,0,0],[2,3],[0]]","5","0","","","","","","6","","","","",""
"","","","","","single-stim-button","229","1148833","0.0-3.0-25.4-1.4","558afc18fdf99b7dfef4d84e","C3","batch3","tol_toboard","1331","","","","","","","","","tol_peg_3","1331","1331","0","[[3,0,0],[2,0],[1]]","5","[[1,0,0],[2,3],[0]]","5","0","","","","","","6","","","","",""
"","","","","","single-stim-button","230","1149292","0.0-3.0-25.5-0.5","558afc18fdf99b7dfef4d84e","C3","batch3","tol_tohand","458","","","","","","","","","tol_peg_1","458","458","0","[[0,0,0],[2,0],[1]]","6","[[1,0,0],[2,3],[0]]","5","0","","","","","","6","","","","",""
"","","","","","single-stim-button","231","1149640","0.0-3.0-25.5-1.5","558afc18fdf99b7dfef4d84e","C3","batch3","tol_toboard","348","","","","","","","","","tol_peg_2","348","348","0","[[0,0,0],[2,3],[1]]","6","[[1,0,0],[2,3],[0]]","5","0","","","","","","6","","","","",""
"","","","","","single-stim-button","232","1150028","0.0-3.0-25.6-0.6","558afc18fdf99b7dfef4d84e","C3","batch3","tol_tohand","386","","","","","","","","","tol_peg_3","386","386","0","[[0,0,0],[2,3],[0]]","7","[[1,0,0],[2,3],[0]]","5","0","","","","","","6","","","","",""
"","","","","","single-stim-button","233","1150641","0.0-3.0-25.6-1.6","558afc18fdf99b7dfef4d84e","C3","batch3","tol_toboard","612","","","","","","","","","tol_peg_1","612","612","0","[[1,0,0],[2,3],[0]]","7","[[1,0,0],[2,3],[0]]","5","0","","","","","","6","","","","",""
"","","","","","poldrack-single-stim","234","1151644","0.0-3.0-26.0","558afc18fdf99b7dfef4d84e","C3","batch3","tol_feedback","-1","","","","","true","","","","","1000","1000","500","","","","","","-1","none","true","12171","18292","","","","","",""
"","","","","","html-button-response","235","1152386","0.0-3.0-27.0","558afc18fdf99b7dfef4d84e","C3","batch3","tol_trial_num","741","<div class = centerbox><p class = center-block-text>problem <strong>7</strong> out of 25 problems</p></div>","0","","","","","","","","","","","","","","","","","","","","","","","","","",""
"","","","","","single-stim-button","236","1164400","0.0-3.0-28.0-0.0","558afc18fdf99b7dfef4d84e","C3","batch3","tol_tohand","12012","","","","","","","","","tol_peg_3","12012","12012","0","[[2,1,0],[0,0],[0]]","1","[[1,2,0],[3,0],[0]]","6","0","","","","","","5","","","","",""
"","","","","","single-stim-button","237","1165480","0.0-3.0-28.0-1.0","558afc18fdf99b7dfef4d84e","C3","batch3","tol_toboard","1078","","","","","","","","","tol_peg_2","1078","1078","0","[[2,1,0],[3,0],[0]]","1","[[1,2,0],[3,0],[0]]","6","0","","","","","","5","","","","",""
"","","","","","single-stim-button","238","1167548","0.0-3.0-28.1-0.1","558afc18fdf99b7dfef4d84e","C3","batch3","tol_tohand","2067","","","","","","","","","tol_peg_1","2067","2067","0","[[2,0,0],[3,0],[0]]","2","[[1,2,0],[3,0],[0]]","6","0","","","","","","5","","","","",""
"","","","","","single-stim-button","239","1168003","0.0-3.0-28.1-1.1","558afc18fdf99b7dfef4d84e","C3","batch3","tol_toboard","454","","","","","","","","","tol_peg_3","454","454","0","[[2,0,0],[3,0],[1]]","2","[[1,2,0],[3,0],[0]]","6","0","","","","","","5","","","","",""
"","","","","","single-stim-button","240","1168441","0.0-3.0-28.2-0.2","558afc18fdf99b7dfef4d84e","C3","batch3","tol_tohand","438","","","","","","","","","tol_peg_1","438","438","0","[[0,0,0],[3,0],[1]]","3","[[1,2,0],[3,0],[0]]","6","0","","","","","","5","","","","",""
"","","","","","single-stim-button","241","1168858","0.0-3.0-28.2-1.2","558afc18fdf99b7dfef4d84e","C3","batch3","tol_toboard","415","","","","","","","","","tol_peg_2","415","415","0","[[0,0,0],[3,2],[1]]","3","[[1,2,0],[3,0],[0]]","6","0","","","","","","5","","","","",""
"","","","","","single-stim-button","242","1169212","0.0-3.0-28.3-0.3","558afc18fdf99b7dfef4d84e","C3","batch3","tol_tohand","353","","","","","","","","","tol_peg_3","353","353","0","[[0,0,0],[3,2],[0]]","4","[[1,2,0],[3,0],[0]]","6","0","","","","","","5","","","","",""
"","","","","","single-stim-button","243","1169850","0.0-3.0-28.3-1.3","558afc18fdf99b7dfef4d84e","C3","batch3","tol_toboard","637","","","","","","","","","tol_peg_1","637","637","0","[[1,0,0],[3,2],[0]]","4","[[1,2,0],[3,0],[0]]","6","0","","","","","","5","","","","",""
"","","","","","single-stim-button","244","1170717","0.0-3.0-28.4-0.4","558afc18fdf99b7dfef4d84e","C3","batch3","tol_tohand","866","","","","","","","","","tol_peg_2","866","866","0","[[1,0,0],[3,0],[0]]","5","[[1,2,0],[3,0],[0]]","6","0","","","","","","5","","","","",""
"","","","","","single-stim-button","245","1171318","0.0-3.0-28.4-1.4","558afc18fdf99b7dfef4d84e","C3","batch3","tol_toboard","600","","","","","","","","","tol_peg_1","600","600","0","[[1,2,0],[3,0],[0]]","5","[[1,2,0],[3,0],[0]]","6","0","","","","","","5","","","","",""
"","","","","","poldrack-single-stim","246","1172324","0.0-3.0-29.0","558afc18fdf99b7dfef4d84e","C3","batch3","tol_feedback","-1","","","","","true","","","","","1000","1000","500","","","","","","-1","none","true","12012","15736","","","","","",""
"","","","","","html-button-response","247","1173199","0.0-3.0-30.0","558afc18fdf99b7dfef4d84e","C3","batch3","tol_trial_num","874.3000000007451","<div class = centerbox><p class = center-block-text>problem <strong>8</strong> out of 25 problems</p></div>","0","","","","","","","","","","","","","","","","","","","","","","","","","",""
"","","","","","single-stim-button","248","1178129","0.0-3.0-31.0-0.0","558afc18fdf99b7dfef4d84e","C3","batch3","tol_tohand","4928","","","","","","","","","tol_peg_3","4928","4928","0","[[0,0,0],[2,3],[0]]","1","[[1,2,0],[3,0],[0]]","7","0","","","","","","4","","","","",""
"","","","","","single-stim-button","249","1179048","0.0-3.0-31.0-1.0","558afc18fdf99b7dfef4d84e","C3","batch3","tol_toboard","918","","","","","","","","","tol_peg_1","918","918","0","[[1,0,0],[2,3],[0]]","1","[[1,2,0],[3,0],[0]]","7","0","","","","","","4","","","","",""
"","","","","","single-stim-button","250","1179619","0.0-3.0-31.1-0.1","558afc18fdf99b7dfef4d84e","C3","batch3","tol_tohand","570","","","","","","","","","tol_peg_2","570","570","0","[[1,0,0],[2,0],[0]]","2","[[1,2,0],[3,0],[0]]","7","0","","","","","","4","","","","",""
"","","","","","single-stim-button","251","1180351","0.0-3.0-31.1-1.1","558afc18fdf99b7dfef4d84e","C3","batch3","tol_toboard","732","","","","","","","","","tol_peg_3","732","732","0","[[1,0,0],[2,0],[3]]","2","[[1,2,0],[3,0],[0]]","7","0","","","","","","4","","","","",""
"","","","","","single-stim-button","252","1180809","0.0-3.0-31.2-0.2","558afc18fdf99b7dfef4d84e","C3","batch3","tol_tohand","456","","","","","","","","","tol_peg_2","456","456","0","[[1,0,0],[0,0],[3]]","3","[[1,2,0],[3,0],[0]]","7","0","","","","","","4","","","","",""
"","","","","","single-stim-button","253","1181210","0.0-3.0-31.2-1.2","558afc18fdf99b7dfef4d84e","C3","batch3","tol_toboard","401","","","","","","","","","tol_peg_1","401","401","0","[[1,2,0],[0,0],[3]]","3","[[1,2,0],[3,0],[0]]","7","0","","","","","","4","","","","",""
"","","","","","single-stim-button","254","1181699","0.0-3.0-31.3-0.3","558afc18fdf99b7dfef4d84e","C3","batch3","tol_tohand","488","","","","","","","","","tol_peg_3","488","488","0","[[1,2,0],[0,0],[0]]","4","[[1,2,0],[3,0],[0]]","7","0","","","","","","4","","","","",""
"","","","","","single-stim-button","255","1182204","0.0-3.0-31.3-1.3","558afc18fdf99b7dfef4d84e","C3","batch3","tol_toboard","504","","","","","","","","","tol_peg_2","504","504","0","[[1,2,0],[3,0],[0]]","4","[[1,2,0],[3,0],[0]]","7","0","","","","","","4","","","","",""
"","","","","","poldrack-single-stim","256","1183213","0.0-3.0-32.0","558afc18fdf99b7dfef4d84e","C3","batch3","tol_feedback","-1","","","","","true","","","","","1000","1000","500","","","","","","-1","none","true","4928","6442","","","","","",""
"","","","","","html-button-response","257","1184157","0.0-3.0-33.0","558afc18fdf99b7dfef4d84e","C3","batch3","tol_trial_num","943.1000000014901","<div class = centerbox><p class = center-block-text>problem <strong>9</strong> out of 25 problems</p></div>","0","","","","","","","","","","","","","","","","","","","","","","","","","",""
"","","","","","single-stim-button","258","1199559","0.0-3.0-34.0-0.0","558afc18fdf99b7dfef4d84e","C3","batch3","tol_tohand","15401","","","","","","","","","tol_peg_3","15401","15401","0","[[3,2,0],[0,0],[0]]","1","[[2,1,0],[3,0],[0]]","8","0","","","","","","6","","","","",""
"","","","","","single-stim-button","259","1200139","0.0-3.0-34.0-1.0","558afc18fdf99b7dfef4d84e","C3","batch3","tol_toboard","579","","","","","","","","","tol_peg_2","579","579","0","[[3,2,0],[1,0],[0]]","1","[[2,1,0],[3,0],[0]]","8","0","","","","","","6","","","","",""
"","","","","","single-stim-button","260","1200775","0.0-3.0-34.1-0.1","558afc18fdf99b7dfef4d84e","C3","batch3","tol_tohand","635","","","","","","","","","tol_peg_1","635","635","0","[[3,0,0],[1,0],[0]]","2","[[2,1,0],[3,0],[0]]","8","0","","","","","","6","","","","",""
"","","","","","single-stim-button","261","1201582","0.0-3.0-34.1-1.1","558afc18fdf99b7dfef4d84e","C3","batch3","tol_toboard","806","","","","","","","","","tol_peg_3","806","806","0","[[3,0,0],[1,0],[2]]","2","[[2,1,0],[3,0],[0]]","8","0","","","","","","6","","","","",""
"","","","","","single-stim-button","262","1202107","0.0-3.0-34.2-0.2","558afc18fdf99b7dfef4d84e","C3","batch3","tol_tohand","524","","","","","","","","","tol_peg_1","524","524","0","[[0,0,0],[1,0],[2]]","3","[[2,1,0],[3,0],[0]]","8","0","","","","","","6","","","","",""
"","","","","","single-stim-button","263","1202760","0.0-3.0-34.2-1.2","558afc18fdf99b7dfef4d84e","C3","batch3","tol_toboard","652","","","","","","","","","tol_peg_2","652","652","0","[[0,0,0],[1,3],[2]]","3","[[2,1,0],[3,0],[0]]","8","0","","","","","","6","","","","",""
"","","","","","single-stim-button","264","1203238","0.0-3.0-34.3-0.3","558afc18fdf99b7dfef4d84e","C3","batch3","tol_tohand","476","","","","","","","","","tol_peg_3","476","476","0","[[0,0,0],[1,3],[0]]","4","[[2,1,0],[3,0],[0]]","8","0","","","","","","6","","","","",""
"","","","","","single-stim-button","265","1203927","0.0-3.0-34.3-1.3","558afc18fdf99b7dfef4d84e","C3","batch3","tol_toboard","689","","","","","","","","","tol_peg_1","689","689","0","[[2,0,0],[1,3],[0]]","4","[[2,1,0],[3,0],[0]]","8","0","","","","","","6","","","","",""
"","","","","","single-stim-button","266","1204489","0.0-3.0-34.4-0.4","558afc18fdf99b7dfef4d84e","C3","batch3","tol_tohand","561","","","","","","","","","tol_peg_2","561","561","0","[[2,0,0],[1,0],[0]]","5","[[2,1,0],[3,0],[0]]","8","0","","","","","","6","","","","",""
"","","","","","single-stim-button","267","1204940","0.0-3.0-34.4-1.4","558afc18fdf99b7dfef4d84e","C3","batch3","tol_toboard","450","","","","","","","","","tol_peg_3","450","450","0","[[2,0,0],[1,0],[3]]","5","[[2,1,0],[3,0],[0]]","8","0","","","","","","6","","","","",""
"","","","","","single-stim-button","268","1205419","0.0-3.0-34.5-0.5","558afc18fdf99b7dfef4d84e","C3","batch3","tol_tohand","479","","","","","","","","","tol_peg_2","479","479","0","[[2,0,0],[0,0],[3]]","6","[[2,1,0],[3,0],[0]]","8","0","","","","","","6","","","","",""
"","","","","","single-stim-button","269","1205904","0.0-3.0-34.5-1.5","558afc18fdf99b7dfef4d84e","C3","batch3","tol_toboard","484","","","","","","","","","tol_peg_1","484","484","0","[[2,1,0],[0,0],[3]]","6","[[2,1,0],[3,0],[0]]","8","0","","","","","","6","","","","",""
"","","","","","single-stim-button","270","1206366","0.0-3.0-34.6-0.6","558afc18fdf99b7dfef4d84e","C3","batch3","tol_tohand","462","","","","","","","","","tol_peg_3","462","462","0","[[2,1,0],[0,0],[0]]","7","[[2,1,0],[3,0],[0]]","8","0","","","","","","6","","","","",""
"","","","","","single-stim-button","271","1206790","0.0-3.0-34.6-1.6","558afc18fdf99b7dfef4d84e","C3","batch3","tol_toboard","423","","","","","","","","","tol_peg_2","423","423","0","[[2,1,0],[3,0],[0]]","7","[[2,1,0],[3,0],[0]]","8","0","","","","","","6","","","","",""
"","","","","","poldrack-single-stim","272","1207792","0.0-3.0-35.0","558afc18fdf99b7dfef4d84e","C3","batch3","tol_feedback","-1","","","","","true","","","","","1000","1000","500","","","","","","-1","none","true","15401","18538","","","","","",""
"","","","","","html-button-response","273","1208333","0.0-3.0-36.0","558afc18fdf99b7dfef4d84e","C3","batch3","tol_trial_num","540","<div class = centerbox><p class = center-block-text>problem <strong>10</strong> out of 25 problems</p></div>","0","","","","","","","","","","","","","","","","","","","","","","","","","",""
"","","","","","single-stim-button","274","1213437","0.0-3.0-37.0-0.0","558afc18fdf99b7dfef4d84e","C3","batch3","tol_tohand","5102","","","","","","","","","tol_peg_2","5102","5102","0","[[3,0,0],[0,0],[2]]","1","[[3,0,0],[2,1],[0]]","9","0","","","","","","3","","","","",""
"","","","","","single-stim-button","275","1213895","0.0-3.0-37.0-1.0","558afc18fdf99b7dfef4d84e","C3","batch3","tol_toboard","457","","","","","","","","","tol_peg_1","457","457","0","[[3,1,0],[0,0],[2]]","1","[[3,0,0],[2,1],[0]]","9","0","","","","","","3","","","","",""
"","","","","","single-stim-button","276","1214393","0.0-3.0-37.1-0.1","558afc18fdf99b7dfef4d84e","C3","batch3","tol_tohand","497","","","","","","","","","tol_peg_3","497","497","0","[[3,1,0],[0,0],[0]]","2","[[3,0,0],[2,1],[0]]","9","0","","","","","","3","","","","",""
"","","","","","single-stim-button","277","1214914","0.0-3.0-37.1-1.1","558afc18fdf99b7dfef4d84e","C3","batch3","tol_toboard","521","","","","","","","","","tol_peg_2","521","521","0","[[3,1,0],[2,0],[0]]","2","[[3,0,0],[2,1],[0]]","9","0","","","","","","3","","","","",""
"","","","","","single-stim-button","278","1215403","0.0-3.0-37.2-0.2","558afc18fdf99b7dfef4d84e","C3","batch3","tol_tohand","488","","","","","","","","","tol_peg_1","488","488","0","[[3,0,0],[2,0],[0]]","3","[[3,0,0],[2,1],[0]]","9","0","","","","","","3","","","","",""
"","","","","","single-stim-button","279","1215794","0.0-3.0-37.2-1.2","558afc18fdf99b7dfef4d84e","C3","batch3","tol_toboard","389","","","","","","","","","tol_peg_2","389","389","0","[[3,0,0],[2,1],[0]]","3","[[3,0,0],[2,1],[0]]","9","0","","","","","","3","","","","",""
"","","","","","poldrack-single-stim","280","1216795","0.0-3.0-38.0","558afc18fdf99b7dfef4d84e","C3","batch3","tol_feedback","-1","","","","","true","","","","","1000","1000","500","","","","","","-1","none","true","5102","6087","","","","","",""
"","","","","","html-button-response","281","1217440","0.0-3.0-39.0","558afc18fdf99b7dfef4d84e","C3","batch3","tol_trial_num","644.7999999988824","<div class = centerbox><p class = center-block-text>problem <strong>11</strong> out of 25 problems</p></div>","0","","","","","","","","","","","","","","","","","","","","","","","","","",""
"","","","","","single-stim-button","282","1221833","0.0-3.0-40.0-0.0","558afc18fdf99b7dfef4d84e","C3","batch3","tol_tohand","4392","","","","","","","","","tol_peg_1","4392","4392","0","[[1,0,0],[3,0],[0]]","1","[[2,0,0],[1,3],[0]]","10","0","","","","","","6","","","","",""
"","","","","","single-stim-button","283","1226848","0.0-3.0-40.0-1.0","558afc18fdf99b7dfef4d84e","C3","batch3","tol_toboard","5013","","","","","","","","","tol_peg_1","5013","5013","0","[[1,2,0],[3,0],[0]]","1","[[2,0,0],[1,3],[0]]","10","0","","","","","","6","","","","",""
"","","","","","single-stim-button","284","1227278","0.0-3.0-40.1-0.1","558afc18fdf99b7dfef4d84e","C3","batch3","tol_tohand","429","","","","","","","","","tol_peg_2","429","429","0","[[1,2,0],[0,0],[0]]","2","[[2,0,0],[1,3],[0]]","10","0","","","","","","6","","","","",""
"","","","","","single-stim-button","285","1227865","0.0-3.0-40.1-1.1","558afc18fdf99b7dfef4d84e","C3","batch3","tol_toboard","586","","","","","","","","","tol_peg_3","586","586","0","[[1,2,0],[0,0],[3]]","2","[[2,0,0],[1,3],[0]]","10","0","","","","","","6","","","","",""
"","","","","","single-stim-button","286","1241988","0.0-3.0-40.2-0.2","558afc18fdf99b7dfef4d84e","C3","batch3","tol_tohand","14123","","","","","","","","","tol_peg_3","14123","14123","0","[[1,2,0],[0,0],[0]]","3","[[2,0,0],[1,3],[0]]","10","0","","","","","","6","","","","",""
"","","","","","single-stim-button","287","1242454","0.0-3.0-40.2-1.2","558afc18fdf99b7dfef4d84e","C3","batch3","tol_toboard","465","","","","","","","","","tol_peg_2","465","465","0","[[1,2,0],[3,0],[0]]","3","[[2,0,0],[1,3],[0]]","10","0","","","","","","6","","","","",""
"","","","","","single-stim-button","288","1242890","0.0-3.0-40.3-0.3","558afc18fdf99b7dfef4d84e","C3","batch3","tol_tohand","434","","","","","","","","","tol_peg_1","434","434","0","[[1,0,0],[3,0],[0]]","4","[[2,0,0],[1,3],[0]]","10","0","","","","","","6","","","","",""
"","","","","","single-stim-button","289","1243388","0.0-3.0-40.3-1.3","558afc18fdf99b7dfef4d84e","C3","batch3","tol_toboard","498","","","","","","","","","tol_peg_3","498","498","0","[[1,0,0],[3,0],[2]]","4","[[2,0,0],[1,3],[0]]","10","0","","","","","","6","","","","",""
"","","","","","single-stim-button","290","1251779","0.0-3.0-40.4-0.4","558afc18fdf99b7dfef4d84e","C3","batch3","tol_tohand","8390","","","","","","","","","tol_peg_1","8390","8390","0","[[0,0,0],[3,0],[2]]","5","[[2,0,0],[1,3],[0]]","10","0","","","","","","6","","","","",""
"","","","","","single-stim-button","291","1252186","0.0-3.0-40.4-1.4","558afc18fdf99b7dfef4d84e","C3","batch3","tol_toboard","406","","","","","","","","","tol_peg_2","406","406","0","[[0,0,0],[3,1],[2]]","5","[[2,0,0],[1,3],[0]]","10","0","","","","","","6","","","","",""
"","","","","","single-stim-button","292","1252649","0.0-3.0-40.5-0.5","558afc18fdf99b7dfef4d84e","C3","batch3","tol_tohand","462","","","","","","","","","tol_peg_3","462","462","0","[[0,0,0],[3,1],[0]]","6","[[2,0,0],[1,3],[0]]","10","0","","","","","","6","","","","",""
"","","","","","single-stim-button","293","1253234","0.0-3.0-40.5-1.5","558afc18fdf99b7dfef4d84e","C3","batch3","tol_toboard","584","","","","","","","","","tol_peg_1","584","584","0","[[2,0,0],[3,1],[0]]","6","[[2,0,0],[1,3],[0]]","10","0","","","","","","6","","","","",""
"","","","","","single-stim-button","294","1254787","0.0-3.0-40.6-0.6","558afc18fdf99b7dfef4d84e","C3","batch3","tol_tohand","1552","","","","","","","","","tol_peg_2","1552","1552","0","[[2,0,0],[3,0],[0]]","7","[[2,0,0],[1,3],[0]]","10","0","","","","","","6","","","","",""
"","","","","","single-stim-button","295","1256599","0.0-3.0-40.6-1.6","558afc18fdf99b7dfef4d84e","C3","batch3","tol_toboard","1811","","","","","","","","","tol_peg_3","1811","1811","0","[[2,0,0],[3,0],[1]]","7","[[2,0,0],[1,3],[0]]","10","0","","","","","","6","","","","",""
"","","","","","single-stim-button","296","1257415","0.0-3.0-40.7-0.7","558afc18fdf99b7dfef4d84e","C3","batch3","tol_tohand","815","","","","","","","","","tol_peg_2","815","815","0","[[2,0,0],[0,0],[1]]","8","[[2,0,0],[1,3],[0]]","10","0","","","","","","6","","","","",""
"","","","","","single-stim-button","297","1257844","0.0-3.0-40.7-1.7","558afc18fdf99b7dfef4d84e","C3","batch3","tol_toboard","428","","","","","","","","","tol_peg_1","428","428","0","[[2,3,0],[0,0],[1]]","8","[[2,0,0],[1,3],[0]]","10","0","","","","","","6","","","","",""
"","","","","","single-stim-button","298","1258295","0.0-3.0-40.8-0.8","558afc18fdf99b7dfef4d84e","C3","batch3","tol_tohand","450","","","","","","","","","tol_peg_3","450","450","0","[[2,3,0],[0,0],[0]]","9","[[2,0,0],[1,3],[0]]","10","0","","","","","","6","","","","",""
"","","","","","single-stim-button","299","1258776","0.0-3.0-40.8-1.8","558afc18fdf99b7dfef4d84e","C3","batch3","tol_toboard","480","","","","","","","","","tol_peg_2","480","480","0","[[2,3,0],[1,0],[0]]","9","[[2,0,0],[1,3],[0]]","10","0","","","","","","6","","","","",""
"","","","","","single-stim-button","300","1259569","0.0-3.0-40.9-0.9","558afc18fdf99b7dfef4d84e","C3","batch3","tol_tohand","792","","","","","","","","","tol_peg_1","792","792","0","[[2,0,0],[1,0],[0]]","10","[[2,0,0],[1,3],[0]]","10","0","","","","","","6","","","","",""
"","","","","","single-stim-button","301","1259927","0.0-3.0-40.9-1.9","558afc18fdf99b7dfef4d84e","C3","batch3","tol_toboard","357","","","","","","","","","tol_peg_2","357","357","0","[[2,0,0],[1,3],[0]]","10","[[2,0,0],[1,3],[0]]","10","0","","","","","","6","","","","",""
"","","","","","poldrack-single-stim","302","1260932","0.0-3.0-41.0","558afc18fdf99b7dfef4d84e","C3","batch3","tol_feedback","-1","","","","","true","","","","","1000","1000","500","","","","","","-1","none","true","4392","31839","","","","","",""
"","","","","","html-button-response","303","1261547","0.0-3.0-42.0","558afc18fdf99b7dfef4d84e","C3","batch3","tol_trial_num","613.5","<div class = centerbox><p class = center-block-text>problem <strong>12</strong> out of 25 problems</p></div>","0","","","","","","","","","","","","","","","","","","","","","","","","","",""
"","","","","","single-stim-button","304","1292420","0.0-3.0-43.0-0.0","558afc18fdf99b7dfef4d84e","C3","batch3","tol_tohand","30871","","","","","","","","","tol_peg_1","30871","30871","0","[[1,0,0],[3,0],[0]]","1","[[2,3,0],[0,0],[1]]","11","0","","","","","","4","","","","",""
"","","","","","single-stim-button","305","1292944","0.0-3.0-43.0-1.0","558afc18fdf99b7dfef4d84e","C3","batch3","tol_toboard","524","","","","","","","","","tol_peg_2","524","524","0","[[1,0,0],[3,2],[0]]","1","[[2,3,0],[0,0],[1]]","11","0","","","","","","4","","","","",""
"","","","","","single-stim-button","306","1293331","0.0-3.0-43.1-0.1","558afc18fdf99b7dfef4d84e","C3","batch3","tol_tohand","385","","","","","","","","","tol_peg_1","385","385","0","[[0,0,0],[3,2],[0]]","2","[[2,3,0],[0,0],[1]]","11","0","","","","","","4","","","","",""
"","","","","","single-stim-button","307","1294229","0.0-3.0-43.1-1.1","558afc18fdf99b7dfef4d84e","C3","batch3","tol_toboard","897","","","","","","","","","tol_peg_3","897","897","0","[[0,0,0],[3,2],[1]]","2","[[2,3,0],[0,0],[1]]","11","0","","","","","","4","","","","",""
"","","","","","single-stim-button","308","1295020","0.0-3.0-43.2-0.2","558afc18fdf99b7dfef4d84e","C3","batch3","tol_tohand","790","","","","","","","","","tol_peg_2","790","790","0","[[0,0,0],[3,0],[1]]","3","[[2,3,0],[0,0],[1]]","11","0","","","","","","4","","","","",""
"","","","","","single-stim-button","309","1295382","0.0-3.0-43.2-1.2","558afc18fdf99b7dfef4d84e","C3","batch3","tol_toboard","361","","","","","","","","","tol_peg_1","361","361","0","[[2,0,0],[3,0],[1]]","3","[[2,3,0],[0,0],[1]]","11","0","","","","","","4","","","","",""
"","","","","","single-stim-button","310","1295781","0.0-3.0-43.3-0.3","558afc18fdf99b7dfef4d84e","C3","batch3","tol_tohand","399","","","","","","","","","tol_peg_2","399","399","0","[[2,0,0],[0,0],[1]]","4","[[2,3,0],[0,0],[1]]","11","0","","","","","","4","","","","",""
"","","","","","single-stim-button","311","1296390","0.0-3.0-43.3-1.3","558afc18fdf99b7dfef4d84e","C3","batch3","tol_toboard","607","","","","","","","","","tol_peg_1","607","607","0","[[2,3,0],[0,0],[1]]","4","[[2,3,0],[0,0],[1]]","11","0","","","","","","4","","","","",""
"","","","","","poldrack-single-stim","312","1297391","0.0-3.0-44.0","558afc18fdf99b7dfef4d84e","C3","batch3","tol_feedback","-1","","","","","true","","","","","1000","1000","500","","","","","","-1","none","true","30871","32445","","","","","",""
"","","","","","html-button-response","313","1298020","0.0-3.0-45.0","558afc18fdf99b7dfef4d84e","C3","batch3","tol_trial_num","628.5999999996275","<div class = centerbox><p class = center-block-text>problem <strong>13</strong> out of 25 problems</p></div>","0","","","","","","","","","","","","","","","","","","","","","","","","","",""
"","","","","","single-stim-button","314","1312590","0.0-3.0-46.0-0.0","558afc18fdf99b7dfef4d84e","C3","batch3","tol_tohand","14569","","","","","","","","","tol_peg_2","14569","14569","0","[[1,2,0],[0,0],[0]]","1","[[0,0,0],[2,3],[1]]","12","0","","","","","","4","","","","",""
"","","","","","single-stim-button","315","1313196","0.0-3.0-46.0-1.0","558afc18fdf99b7dfef4d84e","C3","batch3","tol_toboard","605","","","","","","","","","tol_peg_3","605","605","0","[[1,2,0],[0,0],[3]]","1","[[0,0,0],[2,3],[1]]","12","0","","","","","","4","","","","",""
"","","","","","single-stim-button","316","1313688","0.0-3.0-46.1-0.1","558afc18fdf99b7dfef4d84e","C3","batch3","tol_tohand","491","","","","","","","","","tol_peg_1","491","491","0","[[1,0,0],[0,0],[3]]","2","[[0,0,0],[2,3],[1]]","12","0","","","","","","4","","","","",""
"","","","","","single-stim-button","317","1314416","0.0-3.0-46.1-1.1","558afc18fdf99b7dfef4d84e","C3","batch3","tol_toboard","727","","","","","","","","","tol_peg_2","727","727","0","[[1,0,0],[2,0],[3]]","2","[[0,0,0],[2,3],[1]]","12","0","","","","","","4","","","","",""
"","","","","","single-stim-button","318","1314799","0.0-3.0-46.2-0.2","558afc18fdf99b7dfef4d84e","C3","batch3","tol_tohand","382","","","","","","","","","tol_peg_3","382","382","0","[[1,0,0],[2,0],[0]]","3","[[0,0,0],[2,3],[1]]","12","0","","","","","","4","","","","",""
"","","","","","single-stim-button","319","1315145","0.0-3.0-46.2-1.2","558afc18fdf99b7dfef4d84e","C3","batch3","tol_toboard","344","","","","","","","","","tol_peg_2","344","344","0","[[1,0,0],[2,3],[0]]","3","[[0,0,0],[2,3],[1]]","12","0","","","","","","4","","","","",""
"","","","","","single-stim-button","320","1315464","0.0-3.0-46.3-0.3","558afc18fdf99b7dfef4d84e","C3","batch3","tol_tohand","319","","","","","","","","","tol_peg_1","319","319","0","[[0,0,0],[2,3],[0]]","4","[[0,0,0],[2,3],[1]]","12","0","","","","","","4","","","","",""
"","","","","","single-stim-button","321","1316026","0.0-3.0-46.3-1.3","558afc18fdf99b7dfef4d84e","C3","batch3","tol_toboard","561","","","","","","","","","tol_peg_3","561","561","0","[[0,0,0],[2,3],[1]]","4","[[0,0,0],[2,3],[1]]","12","0","","","","","","4","","","","",""
"","","","","","poldrack-single-stim","322","1317029","0.0-3.0-47.0","558afc18fdf99b7dfef4d84e","C3","batch3","tol_feedback","-1","","","","","true","","","","","1000","1000","500","","","","","","-1","none","true","14569","15761","","","","","",""
"","","","","","html-button-response","323","1319266","0.0-3.0-48.0","558afc18fdf99b7dfef4d84e","C3","batch3","attention_check","2236.4000000003725","<p class = block-text>How many balls are in your board<br></p>","1","","","true","","","","","","","","","","","","","","","","","","","","","","",""
"","","","","","html-button-response","324","1320016","0.0-3.0-49.0","558afc18fdf99b7dfef4d84e","C3","batch3","tol_trial_num","748.5999999996275","<div class = centerbox><p class = center-block-text>problem <strong>14</strong> out of 25 problems</p></div>","0","","","","","","","","","","","","","","","","","","","","","","","","","",""
"","","","","","single-stim-button","325","1328435","0.0-3.0-50.0-0.0","558afc18fdf99b7dfef4d84e","C3","batch3","tol_tohand","8418","","","","","","","","","tol_peg_1","8418","8418","0","[[2,0,0],[3,0],[0]]","1","[[1,2,0],[3,0],[0]]","13","0","","","","","","4","","","","",""
"","","","","","single-stim-button","326","1328949","0.0-3.0-50.0-1.0","558afc18fdf99b7dfef4d84e","C3","batch3","tol_toboard","513","","","","","","","","","tol_peg_3","513","513","0","[[2,0,0],[3,0],[1]]","1","[[1,2,0],[3,0],[0]]","13","0","","","","","","4","","","","",""
"","","","","","single-stim-button","327","1329411","0.0-3.0-50.1-0.1","558afc18fdf99b7dfef4d84e","C3","batch3","tol_tohand","461","","","","","","","","","tol_peg_1","461","461","0","[[0,0,0],[3,0],[1]]","2","[[1,2,0],[3,0],[0]]","13","0","","","","","","4","","","","",""
"","","","","","single-stim-button","328","1329739","0.0-3.0-50.1-1.1","558afc18fdf99b7dfef4d84e","C3","batch3","tol_toboard","327","","","","","","","","","tol_peg_2","327","327","0","[[0,0,0],[3,2],[1]]","2","[[1,2,0],[3,0],[0]]","13","0","","","","","","4","","","","",""
"","","","","","single-stim-button","329","1330093","0.0-3.0-50.2-0.2","558afc18fdf99b7dfef4d84e","C3","batch3","tol_tohand","353","","","","","","","","","tol_peg_3","353","353","0","[[0,0,0],[3,2],[0]]","3","[[1,2,0],[3,0],[0]]","13","0","","","","","","4","","","","",""
"","","","","","single-stim-button","330","1330693","0.0-3.0-50.2-1.2","558afc18fdf99b7dfef4d84e","C3","batch3","tol_toboard","599","","","","","","","","","tol_peg_1","599","599","0","[[1,0,0],[3,2],[0]]","3","[[1,2,0],[3,0],[0]]","13","0","","","","","","4","","","","",""
"","","","","","single-stim-button","331","1331412","0.0-3.0-50.3-0.3","558afc18fdf99b7dfef4d84e","C3","batch3","tol_tohand","718","","","","","","","","","tol_peg_2","718","718","0","[[1,0,0],[3,0],[0]]","4","[[1,2,0],[3,0],[0]]","13","0","","","","","","4","","","","",""
"","","","","","single-stim-button","332","1331792","0.0-3.0-50.3-1.3","558afc18fdf99b7dfef4d84e","C3","batch3","tol_toboard","380","","","","","","","","","tol_peg_1","380","380","0","[[1,2,0],[3,0],[0]]","4","[[1,2,0],[3,0],[0]]","13","0","","","","","","4","","","","",""
"","","","","","poldrack-single-stim","333","1332795","0.0-3.0-51.0","558afc18fdf99b7dfef4d84e","C3","batch3","tol_feedback","-1","","","","","true","","","","","1000","1000","500","","","","","","-1","none","true","8418","9950","","","","","",""
"","","","","","html-button-response","334","1333329","0.0-3.0-52.0","558afc18fdf99b7dfef4d84e","C3","batch3","tol_trial_num","532.6999999992549","<div class = centerbox><p class = center-block-text>problem <strong>15</strong> out of 25 problems</p></div>","0","","","","","","","","","","","","","","","","","","","","","","","","","",""
"","","","","","single-stim-button","335","1337925","0.0-3.0-53.0-0.0","558afc18fdf99b7dfef4d84e","C3","batch3","tol_tohand","4595","","","","","","","","","tol_peg_1","4595","4595","0","[[1,0,0],[3,0],[0]]","1","[[2,0,0],[3,0],[1]]","14","0","","","","","","3","","","","",""
"","","","","","single-stim-button","336","1338418","0.0-3.0-53.0-1.0","558afc18fdf99b7dfef4d84e","C3","batch3","tol_toboard","492","","","","","","","","","tol_peg_2","492","492","0","[[1,0,0],[3,2],[0]]","1","[[2,0,0],[3,0],[1]]","14","0","","","","","","3","","","","",""
"","","","","","single-stim-button","337","1338818","0.0-3.0-53.1-0.1","558afc18fdf99b7dfef4d84e","C3","batch3","tol_tohand","400","","","","","","","","","tol_peg_1","400","400","0","[[0,0,0],[3,2],[0]]","2","[[2,0,0],[3,0],[1]]","14","0","","","","","","3","","","","",""
"","","","","","single-stim-button","338","1339320","0.0-3.0-53.1-1.1","558afc18fdf99b7dfef4d84e","C3","batch3","tol_toboard","501","","","","","","","","","tol_peg_3","501","501","0","[[0,0,0],[3,2],[1]]","2","[[2,0,0],[3,0],[1]]","14","0","","","","","","3","","","","",""
"","","","","","single-stim-button","339","1339812","0.0-3.0-53.2-0.2","558afc18fdf99b7dfef4d84e","C3","batch3","tol_tohand","492","","","","","","","","","tol_peg_2","492","492","0","[[0,0,0],[3,0],[1]]","3","[[2,0,0],[3,0],[1]]","14","0","","","","","","3","","","","",""
"","","","","","single-stim-button","340","1340362","0.0-3.0-53.2-1.2","558afc18fdf99b7dfef4d84e","C3","batch3","tol_toboard","549","","","","","","","","","tol_peg_1","549","549","0","[[2,0,0],[3,0],[1]]","3","[[2,0,0],[3,0],[1]]","14","0","","","","","","3","","","","",""
"","","","","","poldrack-single-stim","341","1341366","0.0-3.0-54.0","558afc18fdf99b7dfef4d84e","C3","batch3","tol_feedback","-1","","","","","true","","","","","1000","1000","500","","","","","","-1","none","true","4595","5487","","","","","",""
"","","","","","html-button-response","342","1341828","0.0-3.0-55.0","558afc18fdf99b7dfef4d84e","C3","batch3","tol_trial_num","461.19999999925494","<div class = centerbox><p class = center-block-text>problem <strong>16</strong> out of 25 problems</p></div>","0","","","","","","","","","","","","","","","","","","","","","","","","","",""
"","","","","","single-stim-button","343","1353082","0.0-3.0-56.0-0.0","558afc18fdf99b7dfef4d84e","C3","batch3","tol_tohand","11254","","","","","","","","","tol_peg_3","11254","11254","0","[[0,0,0],[2,3],[0]]","1","[[2,3,0],[1,0],[0]]","15","0","","","","","","7","","","","",""
"","","","","","single-stim-button","344","1353895","0.0-3.0-56.0-1.0","558afc18fdf99b7dfef4d84e","C3","batch3","tol_toboard","812","","","","","","","","","tol_peg_1","812","812","0","[[1,0,0],[2,3],[0]]","1","[[2,3,0],[1,0],[0]]","15","0","","","","","","7","","","","",""
"","","","","","single-stim-button","345","1354422","0.0-3.0-56.1-0.1","558afc18fdf99b7dfef4d84e","C3","batch3","tol_tohand","525","","","","","","","","","tol_peg_2","525","525","0","[[1,0,0],[2,0],[0]]","2","[[2,3,0],[1,0],[0]]","15","0","","","","","","7","","","","",""
"","","","","","single-stim-button","346","1357882","0.0-3.0-56.1-1.1","558afc18fdf99b7dfef4d84e","C3","batch3","tol_toboard","3460","","","","","","","","","tol_peg_3","3460","3460","0","[[1,0,0],[2,0],[3]]","2","[[2,3,0],[1,0],[0]]","15","0","","","","","","7","","","","",""
"","","","","","single-stim-button","347","1358765","0.0-3.0-56.2-0.2","558afc18fdf99b7dfef4d84e","C3","batch3","tol_tohand","882","","","","","","","","","tol_peg_1","882","882","0","[[0,0,0],[2,0],[3]]","3","[[2,3,0],[1,0],[0]]","15","0","","","","","","7","","","","",""
"","","","","","single-stim-button","348","1364104","0.0-3.0-56.2-1.2","558afc18fdf99b7dfef4d84e","C3","batch3","tol_toboard","5337","","","","","","","","","tol_peg_1","5337","5337","0","[[1,0,0],[2,0],[3]]","3","[[2,3,0],[1,0],[0]]","15","0","","","","","","7","","","","",""
"","","","","","single-stim-button","349","1372386","0.0-3.0-56.3-0.3","558afc18fdf99b7dfef4d84e","C3","batch3","tol_tohand","8282","","","","","","","","","tol_peg_3","8282","8282","0","[[1,0,0],[2,0],[0]]","4","[[2,3,0],[1,0],[0]]","15","0","","","","","","7","","","","",""
"","","","","","single-stim-button","350","1372945","0.0-3.0-56.3-1.3","558afc18fdf99b7dfef4d84e","C3","batch3","tol_toboard","558","","","","","","","","","tol_peg_1","558","558","0","[[1,3,0],[2,0],[0]]","4","[[2,3,0],[1,0],[0]]","15","0","","","","","","7","","","","",""
"","","","","","single-stim-button","351","1373381","0.0-3.0-56.4-0.4","558afc18fdf99b7dfef4d84e","C3","batch3","tol_tohand","434","","","","","","","","","tol_peg_2","434","434","0","[[1,3,0],[0,0],[0]]","5","[[2,3,0],[1,0],[0]]","15","0","","","","","","7","","","","",""
"","","","","","single-stim-button","352","1373850","0.0-3.0-56.4-1.4","558afc18fdf99b7dfef4d84e","C3","batch3","tol_toboard","469","","","","","","","","","tol_peg_3","469","469","0","[[1,3,0],[0,0],[2]]","5","[[2,3,0],[1,0],[0]]","15","0","","","","","","7","","","","",""
"","","","","","single-stim-button","353","1375193","0.0-3.0-56.5-0.5","558afc18fdf99b7dfef4d84e","C3","batch3","tol_tohand","1343","","","","","","","","","tol_peg_1","1343","1343","0","[[1,0,0],[0,0],[2]]","6","[[2,3,0],[1,0],[0]]","15","0","","","","","","7","","","","",""
"","","","","","single-stim-button","354","1375819","0.0-3.0-56.5-1.5","558afc18fdf99b7dfef4d84e","C3","batch3","tol_toboard","626","","","","","","","","","tol_peg_2","626","626","0","[[1,0,0],[3,0],[2]]","6","[[2,3,0],[1,0],[0]]","15","0","","","","","","7","","","","",""
