"success","timeout","failed_images","failed_audio","failed_video","trial_type","trial_index","time_elapsed","internal_node_id","subject_id","study_id","session_id","task","rt","stimulus","response","item","answer","correct","spm_correct","spm_rt","view_history","fiar_detect_rt","fiar_detect_correct","total_correct_fiar_detect","post_trial_gap","choices","mouse_click","stim_duration","block_duration","timing_post_trial","current_position","tol_num_moves_made","tol_target","tol_problem_id","tol_rt","key_press","possible_responses","tol_correct","preplanning","tol_rt_per_trial","tol_min_moves"
"true","false","[]","[]","[]","preload","0","2855","0.0-0.0","558c2205fdf99b5d984bbb15","F1","batch6","","","","","","","","","","","","","","","","","","","","","","","","","","","","","",""
"true","","","","","fullscreen","1","13007","0.0-1.0-0.0","558c2205fdf99b5d984bbb15","F1","batch6","","","","","","","","","","","","","","","","","","","","","","","","","","","","","",""
"true","","","","","fullscreen","2","16569","0.0-2.0-0.0","558c2205fdf99b5d984bbb15","F1","batch6","spm_fullscreen","","","","","","","","","","","","","","","","","","","","","","","","","","","","",""
"","","","","","html-button-response","3","26779","0.0-2.0-1.0","558c2205fdf99b5d984bbb15","F1","batch6","","10208","<p class = block-text><b>Instructions</b> <br>This is a widely used intelligence test in research. <br>In this test, a figure with a missing piece will be presented.<br>Below the figure are alternative pieces to complete the figure, only one of which is correct.<br> Different figures might involve different principles for obtaining the missing piece<br>Your job is to select the most logical piece to complete the figure.</p>","0","","","","","","","","","","","","","","","","","","","","","","","","","",""
"","","","","","html-keyboard-response","4","27607","0.0-2.0-2.0-0.0","558c2205fdf99b5d984bbb15","F1","batch6","spm_show_trial_num","null","<p class=block-text>Trial 1 out of 60</p>","null","","","","","","","","","","","","","","","","","","","","","","","","","",""
"","","","","","image-button-response","5","40170","0.0-2.0-2.0-1.0","558c2205fdf99b5d984bbb15","F1","batch6","spm_respsonse","12560","img/question_1_1.jpeg","3","mat_01","4","1","1","12560","","","","","","","","","","","","","","","","","","","","",""
"","","","","","html-keyboard-response","6","41257","0.0-2.0-2.0-0.1","558c2205fdf99b5d984bbb15","F1","batch6","spm_show_trial_num","null","<p class=block-text>Trial 2 out of 60</p>","null","","","","","","","","","","","","","","","","","","","","","","","","","",""
"","","","","","image-button-response","7","45696","0.0-2.0-2.0-1.1","558c2205fdf99b5d984bbb15","F1","batch6","spm_respsonse","4436","img/question_1_2.jpeg","4","mat_02","5","1","1","4436","","","","","","","","","","","","","","","","","","","","",""
"","","","","","html-keyboard-response","8","46876","0.0-2.0-2.0-0.2","558c2205fdf99b5d984bbb15","F1","batch6","spm_show_trial_num","null","<p class=block-text>Trial 3 out of 60</p>","null","","","","","","","","","","","","","","","","","","","","","","","","","",""
"","","","","","image-button-response","9","50052","0.0-2.0-2.0-1.2","558c2205fdf99b5d984bbb15","F1","batch6","spm_respsonse","3173","img/question_1_3.jpeg","0","mat_03","1","1","1","3173","","","","","","","","","","","","","","","","","","","","",""
"","","","","","html-keyboard-response","10","51421","0.0-2.0-2.0-0.3","558c2205fdf99b5d984bbb15","F1","batch6","spm_show_trial_num","null","<p class=block-text>Trial 4 out of 60</p>","null","","","","","","","","","","","","","","","","","","","","","","","","","",""
"","","","","","image-button-response","11","56103","0.0-2.0-2.0-1.3","558c2205fdf99b5d984bbb15","F1","batch6","spm_respsonse","4680","img/question_1_4.jpeg","1","mat_04","2","1","1","4680","","","","","","","","","","","","","","","","","","","","",""
"","","","","","html-keyboard-response","12","57196","0.0-2.0-2.0-0.4","558c2205fdf99b5d984bbb15","F1","batch6","spm_show_trial_num","null","<p class=block-text>Trial 5 out of 60</p>","null","","","","","","","","","","","","","","","","","","","","","","","","","",""
"","","","","","image-button-response","13","63336","0.0-2.0-2.0-1.4","558c2205fdf99b5d984bbb15","F1","batch6","spm_respsonse","6138","img/question_1_5.jpeg","5","mat_05","6","1","1","6138","","","","","","","","","","","","","","","","","","","","",""
"","","","","","html-keyboard-response","14","64456","0.0-2.0-2.0-0.5","558c2205fdf99b5d984bbb15","F1","batch6","spm_show_trial_num","null","<p class=block-text>Trial 6 out of 60</p>","null","","","","","","","","","","","","","","","","","","","","","","","","","",""
"","","","","","image-button-response","15","70972","0.0-2.0-2.0-1.5","558c2205fdf99b5d984bbb15","F1","batch6","spm_respsonse","6513","img/question_1_6.jpeg","2","mat_06","3","1","1","6513","","","","","","","","","","","","","","","","","","","","",""
"","","","","","html-keyboard-response","16","72122","0.0-2.0-2.0-0.6","558c2205fdf99b5d984bbb15","F1","batch6","spm_show_trial_num","null","<p class=block-text>Trial 7 out of 60</p>","null","","","","","","","","","","","","","","","","","","","","","","","","","",""
"","","","","","image-button-response","17","78388","0.0-2.0-2.0-1.6","558c2205fdf99b5d984bbb15","F1","batch6","spm_respsonse","6264","img/question_1_7.jpeg","5","mat_07","6","1","1","6264","","","","","","","","","","","","","","","","","","","","",""
"","","","","","html-keyboard-response","18","79510","0.0-2.0-2.0-0.7","558c2205fdf99b5d984bbb15","F1","batch6","spm_show_trial_num","null","<p class=block-text>Trial 8 out of 60</p>","null","","","","","","","","","","","","","","","","","","","","","","","","","",""
"","","","","","image-button-response","19","84837","0.0-2.0-2.0-1.7","558c2205fdf99b5d984bbb15","F1","batch6","spm_respsonse","5326","img/question_1_8.jpeg","1","mat_08","2","1","1","5326","","","","","","","","","","","","","","","","","","","","",""
"","","","","","html-keyboard-response","20","85949","0.0-2.0-2.0-0.8","558c2205fdf99b5d984bbb15","F1","batch6","spm_show_trial_num","null","<p class=block-text>Trial 9 out of 60</p>","null","","","","","","","","","","","","","","","","","","","","","","","","","",""
"","","","","","image-button-response","21","91504","0.0-2.0-2.0-1.8","558c2205fdf99b5d984bbb15","F1","batch6","spm_respsonse","5552","img/question_1_9.jpeg","0","mat_09","1","1","1","5552","","","","","","","","","","","","","","","","","","","","",""
"","","","","","html-keyboard-response","22","92616","0.0-2.0-2.0-0.9","558c2205fdf99b5d984bbb15","F1","batch6","spm_show_trial_num","null","<p class=block-text>Trial 10 out of 60</p>","null","","","","","","","","","","","","","","","","","","","","","","","","","",""
"","","","","","image-button-response","23","99756","0.0-2.0-2.0-1.9","558c2205fdf99b5d984bbb15","F1","batch6","spm_respsonse","7138","img/question_1_10.jpeg","2","mat_10","3","1","1","7138","","","","","","","","","","","","","","","","","","","","",""
"","","","","","html-keyboard-response","24","101011","0.0-2.0-2.0-0.10","558c2205fdf99b5d984bbb15","F1","batch6","spm_show_trial_num","null","<p class=block-text>Trial 11 out of 60</p>","null","","","","","","","","","","","","","","","","","","","","","","","","","",""
"","","","","","image-button-response","25","109825","0.0-2.0-2.0-1.10","558c2205fdf99b5d984bbb15","F1","batch6","spm_respsonse","8811","img/question_1_11.jpeg","3","mat_11","4","1","1","8811","","","","","","","","","","","","","","","","","","","","",""
"","","","","","html-keyboard-response","26","110958","0.0-2.0-2.0-0.11","558c2205fdf99b5d984bbb15","F1","batch6","spm_show_trial_num","null","<p class=block-text>Trial 12 out of 60</p>","null","","","","","","","","","","","","","","","","","","","","","","","","","",""
"","","","","","image-button-response","27","128780","0.0-2.0-2.0-1.11","558c2205fdf99b5d984bbb15","F1","batch6","spm_respsonse","17820","img/question_1_12.jpeg","4","mat_12","5","1","1","17820","","","","","","","","","","","","","","","","","","","","",""
"","","","","","html-keyboard-response","28","129882","0.0-2.0-2.0-0.12","558c2205fdf99b5d984bbb15","F1","batch6","spm_show_trial_num","null","<p class=block-text>Trial 13 out of 60</p>","null","","","","","","","","","","","","","","","","","","","","","","","","","",""
"","","","","","image-button-response","29","133056","0.0-2.0-2.0-1.12","558c2205fdf99b5d984bbb15","F1","batch6","spm_respsonse","3172","img/question_2_1.jpeg","1","mat_13","2","1","1","3172","","","","","","","","","","","","","","","","","","","","",""
"","","","","","html-keyboard-response","30","134204","0.0-2.0-2.0-0.13","558c2205fdf99b5d984bbb15","F1","batch6","spm_show_trial_num","null","<p class=block-text>Trial 14 out of 60</p>","null","","","","","","","","","","","","","","","","","","","","","","","","","",""
"","","","","","image-button-response","31","139015","0.0-2.0-2.0-1.13","558c2205fdf99b5d984bbb15","F1","batch6","spm_respsonse","4809","img/question_2_2.jpeg","5","mat_14","6","1","1","4809","","","","","","","","","","","","","","","","","","","","",""
"","","","","","html-keyboard-response","32","140125","0.0-2.0-2.0-0.14","558c2205fdf99b5d984bbb15","F1","batch6","spm_show_trial_num","null","<p class=block-text>Trial 15 out of 60</p>","null","","","","","","","","","","","","","","","","","","","","","","","","","",""
"","","","","","image-button-response","33","144730","0.0-2.0-2.0-1.14","558c2205fdf99b5d984bbb15","F1","batch6","spm_respsonse","4603","img/question_2_3.jpeg","0","mat_15","1","1","1","4603","","","","","","","","","","","","","","","","","","","","",""
"","","","","","html-keyboard-response","34","145901","0.0-2.0-2.0-0.15","558c2205fdf99b5d984bbb15","F1","batch6","spm_show_trial_num","null","<p class=block-text>Trial 16 out of 60</p>","null","","","","","","","","","","","","","","","","","","","","","","","","","",""
"","","","","","image-button-response","35","154414","0.0-2.0-2.0-1.15","558c2205fdf99b5d984bbb15","F1","batch6","spm_respsonse","8510","img/question_2_4.jpeg","1","mat_16","2","1","1","8510","","","","","","","","","","","","","","","","","","","","",""
"","","","","","html-keyboard-response","36","155490","0.0-2.0-2.0-0.16","558c2205fdf99b5d984bbb15","F1","batch6","spm_show_trial_num","null","<p class=block-text>Trial 17 out of 60</p>","null","","","","","","","","","","","","","","","","","","","","","","","","","",""
"","","","","","image-button-response","37","160328","0.0-2.0-2.0-1.16","558c2205fdf99b5d984bbb15","F1","batch6","spm_respsonse","4835","img/question_2_5.jpeg","0","mat_17","1","1","1","4835","","","","","","","","","","","","","","","","","","","","",""
"","","","","","html-keyboard-response","38","161404","0.0-2.0-2.0-0.17","558c2205fdf99b5d984bbb15","F1","batch6","spm_show_trial_num","null","<p class=block-text>Trial 18 out of 60</p>","null","","","","","","","","","","","","","","","","","","","","","","","","","",""
"","","","","","image-button-response","39","168458","0.0-2.0-2.0-1.17","558c2205fdf99b5d984bbb15","F1","batch6","spm_respsonse","7051","img/question_2_6.jpeg","2","mat_18","3","1","1","7051","","","","","","","","","","","","","","","","","","","","",""
"","","","","","html-keyboard-response","40","169570","0.0-2.0-2.0-0.18","558c2205fdf99b5d984bbb15","F1","batch6","spm_show_trial_num","null","<p class=block-text>Trial 19 out of 60</p>","null","","","","","","","","","","","","","","","","","","","","","","","","","",""
"","","","","","image-button-response","41","174931","0.0-2.0-2.0-1.18","558c2205fdf99b5d984bbb15","F1","batch6","spm_respsonse","5360","img/question_2_7.jpeg","4","mat_19","5","1","1","5360","","","","","","","","","","","","","","","","","","","","",""
"","","","","","html-keyboard-response","42","176005","0.0-2.0-2.0-0.19","558c2205fdf99b5d984bbb15","F1","batch6","spm_show_trial_num","null","<p class=block-text>Trial 20 out of 60</p>","null","","","","","","","","","","","","","","","","","","","","","","","","","",""
"","","","","","image-button-response","43","185449","0.0-2.0-2.0-1.19","558c2205fdf99b5d984bbb15","F1","batch6","spm_respsonse","9443","img/question_2_8.jpeg","5","mat_20","6","1","1","9443","","","","","","","","","","","","","","","","","","","","",""
"","","","","","html-keyboard-response","44","186543","0.0-2.0-2.0-0.20","558c2205fdf99b5d984bbb15","F1","batch6","spm_show_trial_num","null","<p class=block-text>Trial 21 out of 60</p>","null","","","","","","","","","","","","","","","","","","","","","","","","","",""
"","","","","","image-button-response","45","197789","0.0-2.0-2.0-1.20","558c2205fdf99b5d984bbb15","F1","batch6","spm_respsonse","11244","img/question_2_9.jpeg","0","mat_21","4","0","0","11244","","","","","","","","","","","","","","","","","","","","",""
"","","","","","html-keyboard-response","46","198856","0.0-2.0-2.0-0.21","558c2205fdf99b5d984bbb15","F1","batch6","spm_show_trial_num","null","<p class=block-text>Trial 22 out of 60</p>","null","","","","","","","","","","","","","","","","","","","","","","","","","",""
"","","","","","image-button-response","47","203913","0.0-2.0-2.0-1.21","558c2205fdf99b5d984bbb15","F1","batch6","spm_respsonse","5054","img/question_2_10.jpeg","2","mat_22","3","1","1","5054","","","","","","","","","","","","","","","","","","","","",""
"","","","","","html-keyboard-response","48","205022","0.0-2.0-2.0-0.22","558c2205fdf99b5d984bbb15","F1","batch6","spm_show_trial_num","null","<p class=block-text>Trial 23 out of 60</p>","null","","","","","","","","","","","","","","","","","","","","","","","","","",""
"","","","","","image-button-response","49","210882","0.0-2.0-2.0-1.22","558c2205fdf99b5d984bbb15","F1","batch6","spm_respsonse","5858","img/question_2_11.jpeg","3","mat_23","4","1","1","5858","","","","","","","","","","","","","","","","","","","","",""
"","","","","","html-keyboard-response","50","212023","0.0-2.0-2.0-0.23","558c2205fdf99b5d984bbb15","F1","batch6","spm_show_trial_num","null","<p class=block-text>Trial 24 out of 60</p>","null","","","","","","","","","","","","","","","","","","","","","","","","","",""
"","","","","","image-button-response","51","223627","0.0-2.0-2.0-1.23","558c2205fdf99b5d984bbb15","F1","batch6","spm_respsonse","11604","img/question_2_12.jpeg","4","mat_24","5","1","1","11604","","","","","","","","","","","","","","","","","","","","",""
"","","","","","html-button-response","52","225510","0.0-2.0-3.0","558c2205fdf99b5d984bbb15","F1","batch6","attention_check","1630","<p class = block-text>Attention check: Please choose 1<br></p>","0","","","true","","","","","","","","","","","","","","","","","","","","","","",""
"","","","","","html-keyboard-response","53","226348","0.0-2.0-4.0-0.0","558c2205fdf99b5d984bbb15","F1","batch6","spm_show_trial_num","null","<p class=block-text>Trial 25 out of 60</p>","null","","","","","","","","","","","","","","","","","","","","","","","","","",""
"","","","","","image-button-response","54","244763","0.0-2.0-4.0-1.0","558c2205fdf99b5d984bbb15","F1","batch6","spm_respsonse","18411","img/question_3_1.jpeg","7","mat_25","8","1","1","18411","","","","","","","","","","","","","","","","","","","","",""
"","","","","","html-keyboard-response","55","245873","0.0-2.0-4.0-0.1","558c2205fdf99b5d984bbb15","F1","batch6","spm_show_trial_num","null","<p class=block-text>Trial 26 out of 60</p>","null","","","","","","","","","","","","","","","","","","","","","","","","","",""
"","","","","","image-button-response","56","255764","0.0-2.0-4.0-1.1","558c2205fdf99b5d984bbb15","F1","batch6","spm_respsonse","9888","img/question_3_2.jpeg","1","mat_26","2","1","1","9888","","","","","","","","","","","","","","","","","","","","",""
"","","","","","html-keyboard-response","57","256861","0.0-2.0-4.0-0.2","558c2205fdf99b5d984bbb15","F1","batch6","spm_show_trial_num","null","<p class=block-text>Trial 27 out of 60</p>","null","","","","","","","","","","","","","","","","","","","","","","","","","",""
"","","","","","image-button-response","58","264959","0.0-2.0-4.0-1.2","558c2205fdf99b5d984bbb15","F1","batch6","spm_respsonse","8095","img/question_3_3.jpeg","2","mat_27","3","1","1","8095","","","","","","","","","","","","","","","","","","","","",""
"","","","","","html-keyboard-response","59","266040","0.0-2.0-4.0-0.3","558c2205fdf99b5d984bbb15","F1","batch6","spm_show_trial_num","null","<p class=block-text>Trial 28 out of 60</p>","null","","","","","","","","","","","","","","","","","","","","","","","","","",""
"","","","","","image-button-response","60","280658","0.0-2.0-4.0-1.3","558c2205fdf99b5d984bbb15","F1","batch6","spm_respsonse","14617","img/question_3_4.jpeg","2","mat_28","8","0","0","14617","","","","","","","","","","","","","","","","","","","","",""
"","","","","","html-keyboard-response","61","281737","0.0-2.0-4.0-0.4","558c2205fdf99b5d984bbb15","F1","batch6","spm_show_trial_num","null","<p class=block-text>Trial 29 out of 60</p>","null","","","","","","","","","","","","","","","","","","","","","","","","","",""
"","","","","","image-button-response","62","303749","0.0-2.0-4.0-1.4","558c2205fdf99b5d984bbb15","F1","batch6","spm_respsonse","22010","img/question_3_5.jpeg","6","mat_29","7","1","1","22010","","","","","","","","","","","","","","","","","","","","",""
"","","","","","html-keyboard-response","63","305024","0.0-2.0-4.0-0.5","558c2205fdf99b5d984bbb15","F1","batch6","spm_show_trial_num","null","<p class=block-text>Trial 30 out of 60</p>","null","","","","","","","","","","","","","","","","","","","","","","","","","",""
"","","","","","image-button-response","64","315291","0.0-2.0-4.0-1.5","558c2205fdf99b5d984bbb15","F1","batch6","spm_respsonse","10264","img/question_3_6.jpeg","3","mat_30","4","1","1","10264","","","","","","","","","","","","","","","","","","","","",""
"","","","","","html-keyboard-response","65","316375","0.0-2.0-4.0-0.6","558c2205fdf99b5d984bbb15","F1","batch6","spm_show_trial_num","null","<p class=block-text>Trial 31 out of 60</p>","null","","","","","","","","","","","","","","","","","","","","","","","","","",""
"","","","","","image-button-response","66","322547","0.0-2.0-4.0-1.6","558c2205fdf99b5d984bbb15","F1","batch6","spm_respsonse","6169","img/question_3_7.jpeg","4","mat_31","5","1","1","6169","","","","","","","","","","","","","","","","","","","","",""
"","","","","","html-keyboard-response","67","323701","0.0-2.0-4.0-0.7","558c2205fdf99b5d984bbb15","F1","batch6","spm_show_trial_num","null","<p class=block-text>Trial 32 out of 60</p>","null","","","","","","","","","","","","","","","","","","","","","","","","","",""
"","","","","","image-button-response","68","338274","0.0-2.0-4.0-1.7","558c2205fdf99b5d984bbb15","F1","batch6","spm_respsonse","14568","img/question_3_8.jpeg","0","mat_32","1","1","1","14568","","","","","","","","","","","","","","","","","","","","",""
"","","","","","html-keyboard-response","69","339334","0.0-2.0-4.0-0.8","558c2205fdf99b5d984bbb15","F1","batch6","spm_show_trial_num","null","<p class=block-text>Trial 33 out of 60</p>","null","","","","","","","","","","","","","","","","","","","","","","","","","",""
"","","","","","image-button-response","70","347465","0.0-2.0-4.0-1.8","558c2205fdf99b5d984bbb15","F1","batch6","spm_respsonse","8129","img/question_3_9.jpeg","6","mat_33","7","1","1","8129","","","","","","","","","","","","","","","","","","","","",""
"","","","","","html-keyboard-response","71","348543","0.0-2.0-4.0-0.9","558c2205fdf99b5d984bbb15","F1","batch6","spm_show_trial_num","null","<p class=block-text>Trial 34 out of 60</p>","null","","","","","","","","","","","","","","","","","","","","","","","","","",""
"","","","","","image-button-response","72","376009","0.0-2.0-4.0-1.9","558c2205fdf99b5d984bbb15","F1","batch6","spm_respsonse","27464","img/question_3_10.jpeg","5","mat_34","6","1","1","27464","","","","","","","","","","","","","","","","","","","","",""
"","","","","","html-keyboard-response","73","377098","0.0-2.0-4.0-0.10","558c2205fdf99b5d984bbb15","F1","batch6","spm_show_trial_num","null","<p class=block-text>Trial 35 out of 60</p>","null","","","","","","","","","","","","","","","","","","","","","","","","","",""
"","","","","","image-button-response","74","401319","0.0-2.0-4.0-1.10","558c2205fdf99b5d984bbb15","F1","batch6","spm_respsonse","24217","img/question_3_11.jpeg","0","mat_35","1","1","1","24217","","","","","","","","","","","","","","","","","","","","",""
"","","","","","html-keyboard-response","75","402390","0.0-2.0-4.0-0.11","558c2205fdf99b5d984bbb15","F1","batch6","spm_show_trial_num","null","<p class=block-text>Trial 36 out of 60</p>","null","","","","","","","","","","","","","","","","","","","","","","","","","",""
"","","","","","image-button-response","76","422562","0.0-2.0-4.0-1.11","558c2205fdf99b5d984bbb15","F1","batch6","spm_respsonse","20169","img/question_3_12.jpeg","1","mat_36","2","1","1","20169","","","","","","","","","","","","","","","","","","","","",""
"","","","","","html-keyboard-response","77","423668","0.0-2.0-4.0-0.12","558c2205fdf99b5d984bbb15","F1","batch6","spm_show_trial_num","null","<p class=block-text>Trial 37 out of 60</p>","null","","","","","","","","","","","","","","","","","","","","","","","","","",""
"","","","","","image-button-response","78","426637","0.0-2.0-4.0-1.12","558c2205fdf99b5d984bbb15","F1","batch6","spm_respsonse","2966","img/question_4_1.jpeg","2","mat_37","3","1","1","2966","","","","","","","","","","","","","","","","","","","","",""
"","","","","","html-keyboard-response","79","427744","0.0-2.0-4.0-0.13","558c2205fdf99b5d984bbb15","F1","batch6","spm_show_trial_num","null","<p class=block-text>Trial 38 out of 60</p>","null","","","","","","","","","","","","","","","","","","","","","","","","","",""
"","","","","","image-button-response","80","433240","0.0-2.0-4.0-1.13","558c2205fdf99b5d984bbb15","F1","batch6","spm_respsonse","5495","img/question_4_2.jpeg","3","mat_38","4","1","1","5495","","","","","","","","","","","","","","","","","","","","",""
"","","","","","html-keyboard-response","81","434334","0.0-2.0-4.0-0.14","558c2205fdf99b5d984bbb15","F1","batch6","spm_show_trial_num","null","<p class=block-text>Trial 39 out of 60</p>","null","","","","","","","","","","","","","","","","","","","","","","","","","",""
"","","","","","image-button-response","82","444744","0.0-2.0-4.0-1.14","558c2205fdf99b5d984bbb15","F1","batch6","spm_respsonse","10408","img/question_4_3.jpeg","2","mat_39","3","1","1","10408","","","","","","","","","","","","","","","","","","","","",""
"","","","","","html-keyboard-response","83","445889","0.0-2.0-4.0-0.15","558c2205fdf99b5d984bbb15","F1","batch6","spm_show_trial_num","null","<p class=block-text>Trial 40 out of 60</p>","null","","","","","","","","","","","","","","","","","","","","","","","","","",""
"","","","","","image-button-response","84","453535","0.0-2.0-4.0-1.15","558c2205fdf99b5d984bbb15","F1","batch6","spm_respsonse","7644","img/question_4_4.jpeg","6","mat_40","7","1","1","7644","","","","","","","","","","","","","","","","","","","","",""
"","","","","","html-keyboard-response","85","454658","0.0-2.0-4.0-0.16","558c2205fdf99b5d984bbb15","F1","batch6","spm_show_trial_num","null","<p class=block-text>Trial 41 out of 60</p>","null","","","","","","","","","","","","","","","","","","","","","","","","","",""
"","","","","","image-button-response","86","463565","0.0-2.0-4.0-1.16","558c2205fdf99b5d984bbb15","F1","batch6","spm_respsonse","8904","img/question_4_5.jpeg","7","mat_41","8","1","1","8904","","","","","","","","","","","","","","","","","","","","",""
"","","","","","html-keyboard-response","87","464713","0.0-2.0-4.0-0.17","558c2205fdf99b5d984bbb15","F1","batch6","spm_show_trial_num","null","<p class=block-text>Trial 42 out of 60</p>","null","","","","","","","","","","","","","","","","","","","","","","","","","",""
"","","","","","image-button-response","88","474853","0.0-2.0-4.0-1.17","558c2205fdf99b5d984bbb15","F1","batch6","spm_respsonse","10138","img/question_4_6.jpeg","5","mat_42","6","1","1","10138","","","","","","","","","","","","","","","","","","","","",""
"","","","","","html-keyboard-response","89","476180","0.0-2.0-4.0-0.18","558c2205fdf99b5d984bbb15","F1","batch6","spm_show_trial_num","null","<p class=block-text>Trial 43 out of 60</p>","null","","","","","","","","","","","","","","","","","","","","","","","","","",""
"","","","","","image-button-response","90","488979","0.0-2.0-4.0-1.18","558c2205fdf99b5d984bbb15","F1","batch6","spm_respsonse","12796","img/question_4_7.jpeg","4","mat_43","5","1","1","12796","","","","","","","","","","","","","","","","","","","","",""
"","","","","","html-keyboard-response","91","490123","0.0-2.0-4.0-0.19","558c2205fdf99b5d984bbb15","F1","batch6","spm_show_trial_num","null","<p class=block-text>Trial 44 out of 60</p>","null","","","","","","","","","","","","","","","","","","","","","","","","","",""
"","","","","","image-button-response","92","501596","0.0-2.0-4.0-1.19","558c2205fdf99b5d984bbb15","F1","batch6","spm_respsonse","11470","img/question_4_8.jpeg","3","mat_44","4","1","1","11470","","","","","","","","","","","","","","","","","","","","",""
"","","","","","html-keyboard-response","93","502725","0.0-2.0-4.0-0.20","558c2205fdf99b5d984bbb15","F1","batch6","spm_show_trial_num","null","<p class=block-text>Trial 45 out of 60</p>","null","","","","","","","","","","","","","","","","","","","","","","","","","",""
"","","","","","image-button-response","94","517162","0.0-2.0-4.0-1.20","558c2205fdf99b5d984bbb15","F1","batch6","spm_respsonse","14436","img/question_4_9.jpeg","1","mat_45","1","0","0","14436","","","","","","","","","","","","","","","","","","","","",""
"","","","","","html-keyboard-response","95","518371","0.0-2.0-4.0-0.21","558c2205fdf99b5d984bbb15","F1","batch6","spm_show_trial_num","null","<p class=block-text>Trial 46 out of 60</p>","null","","","","","","","","","","","","","","","","","","","","","","","","","",""
"","","","","","image-button-response","96","534949","0.0-2.0-4.0-1.21","558c2205fdf99b5d984bbb15","F1","batch6","spm_respsonse","16575","img/question_4_10.jpeg","1","mat_46","2","1","1","16575","","","","","","","","","","","","","","","","","","","","",""
"","","","","","html-keyboard-response","97","536078","0.0-2.0-4.0-0.22","558c2205fdf99b5d984bbb15","F1","batch6","spm_show_trial_num","null","<p class=block-text>Trial 47 out of 60</p>","null","","","","","","","","","","","","","","","","","","","","","","","","","",""
"","","","","","image-button-response","98","565079","0.0-2.0-4.0-1.22","558c2205fdf99b5d984bbb15","F1","batch6","spm_respsonse","28998","img/question_4_11.jpeg","1","mat_47","5","0","0","28998","","","","","","","","","","","","","","","","","","","","",""
"","","","","","html-keyboard-response","99","566199","0.0-2.0-4.0-0.23","558c2205fdf99b5d984bbb15","F1","batch6","spm_show_trial_num","null","<p class=block-text>Trial 48 out of 60</p>","null","","","","","","","","","","","","","","","","","","","","","","","","","",""
"","","","","","image-button-response","100","578233","0.0-2.0-4.0-1.23","558c2205fdf99b5d984bbb15","F1","batch6","spm_respsonse","12029","img/question_4_12.jpeg","6","mat_48","6","0","0","12029","","","","","","","","","","","","","","","","","","","","",""
"","","","","","html-keyboard-response","101","579389","0.0-2.0-4.0-0.24","558c2205fdf99b5d984bbb15","F1","batch6","spm_show_trial_num","null","<p class=block-text>Trial 49 out of 60</p>","null","","","","","","","","","","","","","","","","","","","","","","","","","",""
"","","","","","image-button-response","102","590865","0.0-2.0-4.0-1.24","558c2205fdf99b5d984bbb15","F1","batch6","spm_respsonse","11473","img/question_5_1.jpeg","6","mat_49","7","1","1","11473","","","","","","","","","","","","","","","","","","","","",""
"","","","","","html-keyboard-response","103","591970","0.0-2.0-4.0-0.25","558c2205fdf99b5d984bbb15","F1","batch6","spm_show_trial_num","null","<p class=block-text>Trial 50 out of 60</p>","null","","","","","","","","","","","","","","","","","","","","","","","","","",""
"","","","","","image-button-response","104","605296","0.0-2.0-4.0-1.25","558c2205fdf99b5d984bbb15","F1","batch6","spm_respsonse","13323","img/question_5_2.jpeg","5","mat_50","6","1","1","13323","","","","","","","","","","","","","","","","","","","","",""
"","","","","","html-keyboard-response","105","606490","0.0-2.0-4.0-0.26","558c2205fdf99b5d984bbb15","F1","batch6","spm_show_trial_num","null","<p class=block-text>Trial 51 out of 60</p>","null","","","","","","","","","","","","","","","","","","","","","","","","","",""
"","","","","","image-button-response","106","620065","0.0-2.0-4.0-1.26","558c2205fdf99b5d984bbb15","F1","batch6","spm_respsonse","13573","img/question_5_3.jpeg","7","mat_51","8","1","1","13573","","","","","","","","","","","","","","","","","","","","",""
"","","","","","html-keyboard-response","107","621146","0.0-2.0-4.0-0.27","558c2205fdf99b5d984bbb15","F1","batch6","spm_show_trial_num","null","<p class=block-text>Trial 52 out of 60</p>","null","","","","","","","","","","","","","","","","","","","","","","","","","",""
"","","","","","image-button-response","108","636759","0.0-2.0-4.0-1.27","558c2205fdf99b5d984bbb15","F1","batch6","spm_respsonse","15609","img/question_5_4.jpeg","1","mat_52","2","1","1","15609","","","","","","","","","","","","","","","","","","","","",""
"","","","","","html-keyboard-response","109","637818","0.0-2.0-4.0-0.28","558c2205fdf99b5d984bbb15","F1","batch6","spm_show_trial_num","null","<p class=block-text>Trial 53 out of 60</p>","null","","","","","","","","","","","","","","","","","","","","","","","","","",""
"","","","","","image-button-response","110","658484","0.0-2.0-4.0-1.28","558c2205fdf99b5d984bbb15","F1","batch6","spm_respsonse","20662","img/question_5_5.jpeg","6","mat_53","1","0","0","20662","","","","","","","","","","","","","","","","","","","","",""
"","","","","","html-keyboard-response","111","659572","0.0-2.0-4.0-0.29","558c2205fdf99b5d984bbb15","F1","batch6","spm_show_trial_num","null","<p class=block-text>Trial 54 out of 60</p>","null","","","","","","","","","","","","","","","","","","","","","","","","","",""
"","","","","","image-button-response","112","678665","0.0-2.0-4.0-1.29","558c2205fdf99b5d984bbb15","F1","batch6","spm_respsonse","19093","img/question_5_6.jpeg","4","mat_54","5","1","1","19093","","","","","","","","","","","","","","","","","","","","",""
"","","","","","html-keyboard-response","113","679756","0.0-2.0-4.0-0.30","558c2205fdf99b5d984bbb15","F1","batch6","spm_show_trial_num","null","<p class=block-text>Trial 55 out of 60</p>","null","","","","","","","","","","","","","","","","","","","","","","","","","",""
"","","","","","image-button-response","114","714382","0.0-2.0-4.0-1.30","558c2205fdf99b5d984bbb15","F1","batch6","spm_respsonse","34625","img/question_5_7.jpeg","0","mat_55","1","1","1","34625","","","","","","","","","","","","","","","","","","","","",""
"","","","","","html-keyboard-response","115","715525","0.0-2.0-4.0-0.31","558c2205fdf99b5d984bbb15","F1","batch6","spm_show_trial_num","null","<p class=block-text>Trial 56 out of 60</p>","null","","","","","","","","","","","","","","","","","","","","","","","","","",""
"","","","","","image-button-response","116","726385","0.0-2.0-4.0-1.31","558c2205fdf99b5d984bbb15","F1","batch6","spm_respsonse","10858","img/question_5_8.jpeg","5","mat_56","6","1","1","10858","","","","","","","","","","","","","","","","","","","","",""
"","","","","","html-keyboard-response","117","727478","0.0-2.0-4.0-0.32","558c2205fdf99b5d984bbb15","F1","batch6","spm_show_trial_num","null","<p class=block-text>Trial 57 out of 60</p>","null","","","","","","","","","","","","","","","","","","","","","","","","","",""
"","","","","","image-button-response","118","748774","0.0-2.0-4.0-1.32","558c2205fdf99b5d984bbb15","F1","batch6","spm_respsonse","21294","img/question_5_9.jpeg","2","mat_57","3","1","1","21294","","","","","","","","","","","","","","","","","","","","",""
"","","","","","html-keyboard-response","119","749847","0.0-2.0-4.0-0.33","558c2205fdf99b5d984bbb15","F1","batch6","spm_show_trial_num","null","<p class=block-text>Trial 58 out of 60</p>","null","","","","","","","","","","","","","","","","","","","","","","","","","",""
"","","","","","image-button-response","120","775054","0.0-2.0-4.0-1.33","558c2205fdf99b5d984bbb15","F1","batch6","spm_respsonse","25206","img/question_5_10.jpeg","1","mat_58","2","1","1","25206","","","","","","","","","","","","","","","","","","","","",""
"","","","","","html-keyboard-response","121","776131","0.0-2.0-4.0-0.34","558c2205fdf99b5d984bbb15","F1","batch6","spm_show_trial_num","null","<p class=block-text>Trial 59 out of 60</p>","null","","","","","","","","","","","","","","","","","","","","","","","","","",""
"","","","","","image-button-response","122","798563","0.0-2.0-4.0-1.34","558c2205fdf99b5d984bbb15","F1","batch6","spm_respsonse","22431","img/question_5_11.jpeg","3","mat_59","4","1","1","22431","","","","","","","","","","","","","","","","","","","","",""
"","","","","","html-keyboard-response","123","799649","0.0-2.0-4.0-0.35","558c2205fdf99b5d984bbb15","F1","batch6","spm_show_trial_num","null","<p class=block-text>Trial 60 out of 60</p>","null","","","","","","","","","","","","","","","","","","","","","","","","","",""
"","","","","","image-button-response","124","819660","0.0-2.0-4.0-1.35","558c2205fdf99b5d984bbb15","F1","batch6","spm_respsonse","20010","img/question_5_12.jpeg","1","mat_60","5","0","0","20010","","","","","","","","","","","","","","","","","","","","",""
"","","","","","html-button-response","125","822246","0.0-2.0-5.0","558c2205fdf99b5d984bbb15","F1","batch6","spm_goodbye","2317","<p class= block-text>This concludes the Standard Progressive Matrix game. Thank you for your responses!<br> When you are ready, click the button continue</p>","0","","","","","","","","","","","","","","","","","","","","","","","","","",""
"true","","","","","fullscreen","126","825144","0.0-3.0-0.0","558c2205fdf99b5d984bbb15","F1","batch6","","","","","","","","","","","","","","","","","","","","","","","","","","","","","",""
"","","","","","instructions","127","841466","0.0-3.0-1.0-0.0","558c2205fdf99b5d984bbb15","F1","batch6","","16321","","","","","","","","[{""page_index"":0,""viewing_time"":8640},{""page_index"":1,""viewing_time"":7681}]","","","","","","","","","","","","","","","","","","","",""
"","","","","","html-button-response","128","842657","0.0-3.0-1.0-1.0-0.0","558c2205fdf99b5d984bbb15","F1","batch6","pattern_enter_quiz","1191","<p class=block-text> Let's answer a few questions <br>","0","","","","","","","","","","","","","","","","","","","","","","","","","",""
"","","","","","html-button-response","129","846002","0.0-3.0-1.0-1.0-1.0","558c2205fdf99b5d984bbb15","F1","batch6","pattern_quiz","3344","<p class = block-text>True or False: You will have as much time as you want to make each choice. <br></p>","0","","","false","","","","","","","","","","","","","","","","","","","","","","",""
"","","","","","html-button-response","130","847429","0.0-3.0-1.0-1.0-2.0","558c2205fdf99b5d984bbb15","F1","batch6","pattern_quiz_feedback","1426","<p class = block-text>Incorrect. Remember, You should make your choice as fast as you can.</p>","0","","","","","","","","","","","","","","","","","","","","","","","","","",""
"","","","","","html-button-response","131","852100","0.0-3.0-1.0-1.0-3.0","558c2205fdf99b5d984bbb15","F1","batch6","pattern_quiz","4668","<p class = block-text>True or False: You will look for 4 pieces in black or white color connected in a row either horizontally, vertically or diagonally. <br></p>","0","","","true","","","","","","","","","","","","","","","","","","","","","","",""
"","","","","","html-button-response","132","853105","0.0-3.0-1.0-1.0-4.0","558c2205fdf99b5d984bbb15","F1","batch6","pattern_quiz_feedback","1004","<p class = block-text>Correct! </p>","0","","","","","","","","","","","","","","","","","","","","","","","","","",""
"","","","","","html-button-response","133","855634","0.0-3.0-1.0-2.0-0.0","558c2205fdf99b5d984bbb15","F1","batch6","","2528","<p class = block-text>You made too many incorrect choices.</p><p class = block-text>You will now repeat the instruction and quiz</p>","0","","","","","","","","","","","","","","","","","","","","","","","","","",""
"","","","","","instructions","134","860474","0.0-3.0-1.1-0.1","558c2205fdf99b5d984bbb15","F1","batch6","","4839","","","","","","","","[{""page_index"":0,""viewing_time"":3433},{""page_index"":1,""viewing_time"":1406}]","","","","","","","","","","","","","","","","","","","",""
"","","","","","html-button-response","135","861534","0.0-3.0-1.1-1.1-0.1","558c2205fdf99b5d984bbb15","F1","batch6","pattern_enter_quiz","1059","<p class=block-text> Let's answer a few questions <br>","0","","","","","","","","","","","","","","","","","","","","","","","","","",""
"","","","","","html-button-response","136","863045","0.0-3.0-1.1-1.1-1.1","558c2205fdf99b5d984bbb15","F1","batch6","pattern_quiz","1509","<p class = block-text>True or False: You will have as much time as you want to make each choice. <br></p>","1","","","true","","","","","","","","","","","","","","","","","","","","","","",""
"","","","","","html-button-response","137","864092","0.0-3.0-1.1-1.1-2.1","558c2205fdf99b5d984bbb15","F1","batch6","pattern_quiz_feedback","1046","<p class = block-text>Correct! You should make your choice <strong> as fast as you can</strong>.</p>","0","","","","","","","","","","","","","","","","","","","","","","","","","",""
"","","","","","html-button-response","138","868008","0.0-3.0-1.1-1.1-3.1","558c2205fdf99b5d984bbb15","F1","batch6","pattern_quiz","3915","<p class = block-text>True or False: You will look for 4 pieces in black or white color connected in a row either horizontally, vertically or diagonally. <br></p>","0","","","true","","","","","","","","","","","","","","","","","","","","","","",""
"","","","","","html-button-response","139","868643","0.0-3.0-1.1-1.1-4.1","558c2205fdf99b5d984bbb15","F1","batch6","pattern_quiz_feedback","634","<p class = block-text>Correct! </p>","0","","","","","","","","","","","","","","","","","","","","","","","","","",""
"","","","","","html-button-response","140","870313","0.0-3.0-2.0","558c2205fdf99b5d984bbb15","F1","batch6","pattern_enter_practice","1668","<p class=block-text> Now that you've understood the game, let's do a few practice trials before we start!<br> <br>","0","","","","","","","","","","","","","","","","","","","","","","","","","",""
"","","","","","image-keyboard-response","141","871462","0.0-3.0-3.0-0.0","558c2205fdf99b5d984bbb15","F1","batch6","pattern_practice","1142","stim/prac_yes_16_ver_w1.png","f","","f","true","","","","","","","","","","","","","","","","","","","","","","",""
"","","","","","html-keyboard-response","142","872487","0.0-3.0-3.0-1.0","558c2205fdf99b5d984bbb15","F1","batch6","pattern_feedback","null","<p style=""font-size:30px;color:green;"">Correct!</p>","null","","","","","","","","","","","","","","","","","","","","","","","","","",""
"","","","","","image-keyboard-response","143","874446","0.0-3.0-3.0-0.1","558c2205fdf99b5d984bbb15","F1","batch6","pattern_practice","1952","stim/prac_no_18_1.png","j","","j","true","","","","","","","","","","","","","","","","","","","","","","",""
"","","","","","html-keyboard-response","144","875475","0.0-3.0-3.0-1.1","558c2205fdf99b5d984bbb15","F1","batch6","pattern_feedback","null","<p style=""font-size:30px;color:green;"">Correct!</p>","null","","","","","","","","","","","","","","","","","","","","","","","","","",""
"","","","","","image-keyboard-response","145","877243","0.0-3.0-3.0-0.2","558c2205fdf99b5d984bbb15","F1","batch6","pattern_practice","1761","stim/prac_yes_20_dia_b1.png","j","","f","false","","","","","","","","","","","","","","","","","","","","","","",""
"","","","","","html-keyboard-response","146","878455","0.0-3.0-3.0-1.2","558c2205fdf99b5d984bbb15","F1","batch6","pattern_feedback","null","<p style=""font-size:30px;color:red;"">Wrong.</p>","null","","","","","","","","","","","","","","","","","","","","","","","","","",""
"","","","","","image-keyboard-response","147","879349","0.0-3.0-3.0-0.3","558c2205fdf99b5d984bbb15","F1","batch6","pattern_practice","886","stim/prac_yes_18_hor_w1.png","f","","f","true","","","","","","","","","","","","","","","","","","","","","","",""
"","","","","","html-keyboard-response","148","880387","0.0-3.0-3.0-1.3","558c2205fdf99b5d984bbb15","F1","batch6","pattern_feedback","null","<p style=""font-size:30px;color:green;"">Correct!</p>","null","","","","","","","","","","","","","","","","","","","","","","","","","",""
"","","","","","image-keyboard-response","149","882193","0.0-3.0-3.0-0.4","558c2205fdf99b5d984bbb15","F1","batch6","pattern_practice","1798","stim/prac_no_16_1.png","j","","j","true","","","","","","","","","","","","","","","","","","","","","","",""
"","","","","","html-keyboard-response","150","883281","0.0-3.0-3.0-1.4","558c2205fdf99b5d984bbb15","F1","batch6","pattern_feedback","null","<p style=""font-size:30px;color:green;"">Correct!</p>","null","","","","","","","","","","","","","","","","","","","","","","","","","",""
"","","","","","html-button-response","151","889070","0.0-3.0-4.0","558c2205fdf99b5d984bbb15","F1","batch6","pattern_enter_official_trials","5789","<p class=block-text> Good job! You are done with practice trials!<br>
        You responded correctly on 80% of the trials.<br>
        Press the button below to start official trials. Now you won't see any feedback about your response</p>","0","","","","","","","","","","","","","","","","","","","","","","","","","",""
"","","","","","html-keyboard-response","152","889945","0.0-3.0-5.0-0.0","558c2205fdf99b5d984bbb15","F1","batch6","pattern_show_trial_num","null","<p class=block-text>Trial 1 out of 78</p>","null","","","","","","","","","","","","","","","","","","","","","","","","","",""
"","","","","","image-keyboard-response","153","892426","0.0-3.0-5.0-1.0","558c2205fdf99b5d984bbb15","F1","batch6","pattern_response","2475","stim/no_39_1_w.png","j","pattern_21","j","true","","","","2475","true","1","","","","","","","","","","","","","","","","",""
"","","","","","html-keyboard-response","154","893777","0.0-3.0-5.0-0.1","558c2205fdf99b5d984bbb15","F1","batch6","pattern_show_trial_num","null","<p class=block-text>Trial 2 out of 78</p>","null","","","","","","","","","","","","","","","","","","","","","","","","","",""
"","","","","","image-keyboard-response","155","896714","0.0-3.0-5.0-1.1","558c2205fdf99b5d984bbb15","F1","batch6","pattern_response","2930","stim/no_28_2.png","j","pattern_11","j","true","","","","2930","true","2","","","","","","","","","","","","","","","","",""
"","","","","","html-keyboard-response","156","898054","0.0-3.0-5.0-0.2","558c2205fdf99b5d984bbb15","F1","batch6","pattern_show_trial_num","null","<p class=block-text>Trial 3 out of 78</p>","null","","","","","","","","","","","","","","","","","","","","","","","","","",""
"","","","","","image-keyboard-response","157","899577","0.0-3.0-5.0-1.2","558c2205fdf99b5d984bbb15","F1","batch6","pattern_response","1516","stim/yes_49_hor_w1_b.png","f","pattern_70","f","true","","","","1516","true","3","","","","","","","","","","","","","","","","",""
"","","","","","html-keyboard-response","158","900925","0.0-3.0-5.0-0.3","558c2205fdf99b5d984bbb15","F1","batch6","pattern_show_trial_num","null","<p class=block-text>Trial 4 out of 78</p>","null","","","","","","","","","","","","","","","","","","","","","","","","","",""
"","","","","","image-keyboard-response","159","901739","0.0-3.0-5.0-1.3","558c2205fdf99b5d984bbb15","F1","batch6","pattern_response","807","stim/yes_29_hor_b1_b.png","f","pattern_52","f","true","","","","807","true","4","","","","","","","","","","","","","","","","",""
"","","","","","html-keyboard-response","160","903080","0.0-3.0-5.0-0.4","558c2205fdf99b5d984bbb15","F1","batch6","pattern_show_trial_num","null","<p class=block-text>Trial 5 out of 78</p>","null","","","","","","","","","","","","","","","","","","","","","","","","","",""
"","","","","","image-keyboard-response","161","903989","0.0-3.0-5.0-1.4","558c2205fdf99b5d984bbb15","F1","batch6","pattern_response","902","stim/yes_39_hor_w1_w.png","f","pattern_62","f","true","","","","902","true","5","","","","","","","","","","","","","","","","",""
"","","","","","html-keyboard-response","162","905483","0.0-3.0-5.0-0.5","558c2205fdf99b5d984bbb15","F1","batch6","pattern_show_trial_num","null","<p class=block-text>Trial 6 out of 78</p>","null","","","","","","","","","","","","","","","","","","","","","","","","","",""
"","","","","","image-keyboard-response","163","906600","0.0-3.0-5.0-1.5","558c2205fdf99b5d984bbb15","F1","batch6","pattern_response","1109","stim/yes_70_ver_b1.png","f","pattern_80","f","true","","","","1109","true","6","","","","","","","","","","","","","","","","",""
"","","","","","html-keyboard-response","164","907936","0.0-3.0-5.0-0.6","558c2205fdf99b5d984bbb15","F1","batch6","pattern_show_trial_num","null","<p class=block-text>Trial 7 out of 78</p>","null","","","","","","","","","","","","","","","","","","","","","","","","","",""
"","","","","","image-keyboard-response","165","911639","0.0-3.0-5.0-1.6","558c2205fdf99b5d984bbb15","F1","batch6","pattern_response","3696","stim/no_33_1_b.png","j","pattern_15","j","true","","","","3696","true","7","","","","","","","","","","","","","","","","",""
"","","","","","html-keyboard-response","166","912997","0.0-3.0-5.0-0.7","558c2205fdf99b5d984bbb15","F1","batch6","pattern_show_trial_num","null","<p class=block-text>Trial 8 out of 78</p>","null","","","","","","","","","","","","","","","","","","","","","","","","","",""
"","","","","","image-keyboard-response","167","916656","0.0-3.0-5.0-1.7","558c2205fdf99b5d984bbb15","F1","batch6","pattern_response","3652","stim/yes_63_dia_b1.png","f","pattern_78","f","true","","","","3652","true","8","","","","","","","","","","","","","","","","",""
"","","","","","html-keyboard-response","168","918135","0.0-3.0-5.0-0.8","558c2205fdf99b5d984bbb15","F1","batch6","pattern_show_trial_num","null","<p class=block-text>Trial 9 out of 78</p>","null","","","","","","","","","","","","","","","","","","","","","","","","","",""
"","","","","","image-keyboard-response","169","921555","0.0-3.0-5.0-1.8","558c2205fdf99b5d984bbb15","F1","batch6","pattern_response","3413","stim/yes_42_dia_w1_w.png","j","pattern_64","f","false","","","","3413","false","8","","","","","","","","","","","","","","","","",""
"","","","","","html-keyboard-response","170","922988","0.0-3.0-5.0-0.9","558c2205fdf99b5d984bbb15","F1","batch6","pattern_show_trial_num","null","<p class=block-text>Trial 10 out of 78</p>","null","","","","","","","","","","","","","","","","","","","","","","","","","",""
"","","","","","image-keyboard-response","171","924079","0.0-3.0-5.0-1.9","558c2205fdf99b5d984bbb15","F1","batch6","pattern_response","1084","stim/yes_30_ver_b1_b.png","f","pattern_54","f","true","","","","1084","true","9","","","","","","","","","","","","","","","","",""
"","","","","","html-keyboard-response","172","925454","0.0-3.0-5.0-0.10","558c2205fdf99b5d984bbb15","F1","batch6","pattern_show_trial_num","null","<p class=block-text>Trial 11 out of 78</p>","null","","","","","","","","","","","","","","","","","","","","","","","","","",""
"","","","","","image-keyboard-response","173","928805","0.0-3.0-5.0-1.10","558c2205fdf99b5d984bbb15","F1","batch6","pattern_response","3345","stim/no_36_1_b.png","j","pattern_17","j","true","","","","3345","true","10","","","","","","","","","","","","","","","","",""
"","","","","","html-keyboard-response","174","930131","0.0-3.0-5.0-0.11","558c2205fdf99b5d984bbb15","F1","batch6","pattern_show_trial_num","null","<p class=block-text>Trial 12 out of 78</p>","null","","","","","","","","","","","","","","","","","","","","","","","","","",""
"","","","","","image-keyboard-response","175","934058","0.0-3.0-5.0-1.11","558c2205fdf99b5d984bbb15","F1","batch6","pattern_response","3920","stim/no_37_2_w.png","j","pattern_19","j","true","","","","3920","true","11","","","","","","","","","","","","","","","","",""
"","","","","","html-keyboard-response","176","935444","0.0-3.0-5.0-0.12","558c2205fdf99b5d984bbb15","F1","batch6","pattern_show_trial_num","null","<p class=block-text>Trial 13 out of 78</p>","null","","","","","","","","","","","","","","","","","","","","","","","","","",""
"","","","","","image-keyboard-response","177","936272","0.0-3.0-5.0-1.12","558c2205fdf99b5d984bbb15","F1","batch6","pattern_response","821","stim/yes_46_ver_b1_b.png","f","pattern_68","f","true","","","","821","true","12","","","","","","","","","","","","","","","","",""
"","","","","","html-keyboard-response","178","937765","0.0-3.0-5.0-0.13","558c2205fdf99b5d984bbb15","F1","batch6","pattern_show_trial_num","null","<p class=block-text>Trial 14 out of 78</p>","null","","","","","","","","","","","","","","","","","","","","","","","","","",""
"","","","","","image-keyboard-response","179","943248","0.0-3.0-5.0-1.13","558c2205fdf99b5d984bbb15","F1","batch6","pattern_response","5477","stim/no_51_1.png","j","pattern_31","j","true","","","","5477","true","13","","","","","","","","","","","","","","","","",""
"","","","","","html-keyboard-response","180","944608","0.0-3.0-5.0-0.14","558c2205fdf99b5d984bbb15","F1","batch6","pattern_show_trial_num","null","<p class=block-text>Trial 15 out of 78</p>","null","","","","","","","","","","","","","","","","","","","","","","","","","",""
"","","","","","image-keyboard-response","181","945582","0.0-3.0-5.0-1.14","558c2205fdf99b5d984bbb15","F1","batch6","pattern_response","967","stim/yes_37_hor_w1_w.png","f","pattern_60","f","true","","","","967","true","14","","","","","","","","","","","","","","","","",""
"","","","","","html-keyboard-response","182","946939","0.0-3.0-5.0-0.15","558c2205fdf99b5d984bbb15","F1","batch6","pattern_show_trial_num","null","<p class=block-text>Trial 16 out of 78</p>","null","","","","","","","","","","","","","","","","","","","","","","","","","",""
"","","","","","image-keyboard-response","183","948181","0.0-3.0-5.0-1.15","558c2205fdf99b5d984bbb15","F1","batch6","pattern_response","1236","stim/yes_44_ver_w1_w.png","f","pattern_66","f","true","","","","1236","true","15","","","","","","","","","","","","","","","","",""
"","","","","","html-keyboard-response","184","949528","0.0-3.0-5.0-0.16","558c2205fdf99b5d984bbb15","F1","batch6","pattern_show_trial_num","null","<p class=block-text>Trial 17 out of 78</p>","null","","","","","","","","","","","","","","","","","","","","","","","","","",""
"","","","","","image-keyboard-response","185","950634","0.0-3.0-5.0-1.16","558c2205fdf99b5d984bbb15","F1","batch6","pattern_response","1100","stim/no_15_1_w.png","j","pattern_03","j","true","","","","1100","true","16","","","","","","","","","","","","","","","","",""
"","","","","","html-keyboard-response","186","952046","0.0-3.0-5.0-0.17","558c2205fdf99b5d984bbb15","F1","batch6","pattern_show_trial_num","null","<p class=block-text>Trial 18 out of 78</p>","null","","","","","","","","","","","","","","","","","","","","","","","","","",""
"","","","","","image-keyboard-response","187","955234","0.0-3.0-5.0-1.17","558c2205fdf99b5d984bbb15","F1","batch6","pattern_response","3182","stim/no_25_1_b.png","j","pattern_09","j","true","","","","3182","true","17","","","","","","","","","","","","","","","","",""
"","","","","","html-keyboard-response","188","956578","0.0-3.0-5.0-0.18","558c2205fdf99b5d984bbb15","F1","batch6","pattern_show_trial_num","null","<p class=block-text>Trial 19 out of 78</p>","null","","","","","","","","","","","","","","","","","","","","","","","","","",""
"","","","","","image-keyboard-response","189","957622","0.0-3.0-5.0-1.18","558c2205fdf99b5d984bbb15","F1","batch6","pattern_response","1029","stim/yes_23_ver_b1.png","f","pattern_48","f","true","","","","1029","true","18","","","","","","","","","","","","","","","","",""
"","","","","","html-keyboard-response","190","959059","0.0-3.0-5.0-0.19","558c2205fdf99b5d984bbb15","F1","batch6","pattern_show_trial_num","null","<p class=block-text>Trial 20 out of 78</p>","null","","","","","","","","","","","","","","","","","","","","","","","","","",""
"","","","","","image-keyboard-response","191","965827","0.0-3.0-5.0-1.19","558c2205fdf99b5d984bbb15","F1","batch6","pattern_response","6761","stim/no_67_1.png","j","pattern_39","j","true","","","","6761","true","19","","","","","","","","","","","","","","","","",""
"","","","","","html-keyboard-response","192","967152","0.0-3.0-5.0-0.20","558c2205fdf99b5d984bbb15","F1","batch6","pattern_show_trial_num","null","<p class=block-text>Trial 21 out of 78</p>","null","","","","","","","","","","","","","","","","","","","","","","","","","",""
"","","","","","image-keyboard-response","193","968116","0.0-3.0-5.0-1.20","558c2205fdf99b5d984bbb15","F1","batch6","pattern_response","958","stim/yes_15_dia_b1u_b.png","f","pattern_44","f","true","","","","958","true","20","","","","","","","","","","","","","","","","",""
"","","","","","html-keyboard-response","194","969490","0.0-3.0-5.0-0.21","558c2205fdf99b5d984bbb15","F1","batch6","pattern_show_trial_num","null","<p class=block-text>Trial 22 out of 78</p>","null","","","","","","","","","","","","","","","","","","","","","","","","","",""
"","","","","","image-keyboard-response","195","975122","0.0-3.0-5.0-1.21","558c2205fdf99b5d984bbb15","F1","batch6","pattern_response","5623","stim/no_58_1_w.png","j","pattern_35","j","true","","","","5623","true","21","","","","","","","","","","","","","","","","",""
"","","","","","html-keyboard-response","196","976481","0.0-3.0-5.0-0.22","558c2205fdf99b5d984bbb15","F1","batch6","pattern_show_trial_num","null","<p class=block-text>Trial 23 out of 78</p>","null","","","","","","","","","","","","","","","","","","","","","","","","","",""
"","","","","","image-keyboard-response","197","980799","0.0-3.0-5.0-1.22","558c2205fdf99b5d984bbb15","F1","batch6","pattern_response","4312","stim/yes_51_dia_b1.png","j","pattern_72","f","false","","","","4312","false","21","","","","","","","","","","","","","","","","",""
"","","","","","html-keyboard-response","198","982170","0.0-3.0-5.0-0.23","558c2205fdf99b5d984bbb15","F1","batch6","pattern_show_trial_num","null","<p class=block-text>Trial 24 out of 78</p>","null","","","","","","","","","","","","","","","","","","","","","","","","","",""
"","","","","","image-keyboard-response","199","983865","0.0-3.0-5.0-1.23","558c2205fdf99b5d984bbb15","F1","batch6","pattern_response","1690","stim/no_30_1_b.png","j","pattern_13","j","true","","","","1690","true","22","","","","","","","","","","","","","","","","",""
"","","","","","html-keyboard-response","200","985196","0.0-3.0-5.0-0.24","558c2205fdf99b5d984bbb15","F1","batch6","pattern_show_trial_num","null","<p class=block-text>Trial 25 out of 78</p>","null","","","","","","","","","","","","","","","","","","","","","","","","","",""
"","","","","","image-keyboard-response","201","988966","0.0-3.0-5.0-1.24","558c2205fdf99b5d984bbb15","F1","batch6","pattern_response","3763","stim/no_49_2_b.png","j","pattern_29","j","true","","","","3763","true","23","","","","","","","","","","","","","","","","",""
"","","","","","html-keyboard-response","202","990284","0.0-3.0-5.0-0.25","558c2205fdf99b5d984bbb15","F1","batch6","pattern_show_trial_num","null","<p class=block-text>Trial 26 out of 78</p>","null","","","","","","","","","","","","","","","","","","","","","","","","","",""
"","","","","","image-keyboard-response","203","992094","0.0-3.0-5.0-1.25","558c2205fdf99b5d984bbb15","F1","batch6","pattern_response","1804","stim/yes_53_ver_b1_b.png","f","pattern_74","f","true","","","","1804","true","24","","","","","","","","","","","","","","","","",""
"","","","","","html-keyboard-response","204","993490","0.0-3.0-5.0-0.26","558c2205fdf99b5d984bbb15","F1","batch6","pattern_show_trial_num","null","<p class=block-text>Trial 27 out of 78</p>","null","","","","","","","","","","","","","","","","","","","","","","","","","",""
"","","","","","image-keyboard-response","205","994986","0.0-3.0-5.0-1.26","558c2205fdf99b5d984bbb15","F1","batch6","pattern_response","1489","stim/no_22_1_b.png","j","pattern_07","j","true","","","","1489","true","25","","","","","","","","","","","","","","","","",""
"","","","","","html-keyboard-response","206","996350","0.0-3.0-5.0-0.27","558c2205fdf99b5d984bbb15","F1","batch6","pattern_show_trial_num","null","<p class=block-text>Trial 28 out of 78</p>","null","","","","","","","","","","","","","","","","","","","","","","","","","",""
"","","","","","image-keyboard-response","207","997760","0.0-3.0-5.0-1.27","558c2205fdf99b5d984bbb15","F1","batch6","pattern_response","1402","stim/yes_26_dia_w2_w.png","f","pattern_50","f","true","","","","1402","true","26","","","","","","","","","","","","","","","","",""
"","","","","","html-keyboard-response","208","999138","0.0-3.0-5.0-0.28","558c2205fdf99b5d984bbb15","F1","batch6","pattern_show_trial_num","null","<p class=block-text>Trial 29 out of 78</p>","null","","","","","","","","","","","","","","","","","","","","","","","","","",""
"","","","","","image-keyboard-response","209","999885","0.0-3.0-5.0-1.28","558c2205fdf99b5d984bbb15","F1","batch6","pattern_response","740","stim/yes_17_ver_b1_b.png","f","pattern_46","f","true","","","","740","true","27","","","","","","","","","","","","","","","","",""
"","","","","","html-keyboard-response","210","1001228","0.0-3.0-5.0-0.29","558c2205fdf99b5d984bbb15","F1","batch6","pattern_show_trial_num","null","<p class=block-text>Trial 30 out of 78</p>","null","","","","","","","","","","","","","","","","","","","","","","","","","",""
"","","","","","image-keyboard-response","211","1005459","0.0-3.0-5.0-1.29","558c2205fdf99b5d984bbb15","F1","batch6","pattern_response","4223","stim/no_47_1_b.png","j","pattern_27","j","true","","","","4223","true","28","","","","","","","","","","","","","","","","",""
"","","","","","html-keyboard-response","212","1006802","0.0-3.0-5.0-0.30","558c2205fdf99b5d984bbb15","F1","batch6","pattern_show_trial_num","null","<p class=block-text>Trial 31 out of 78</p>","null","","","","","","","","","","","","","","","","","","","","","","","","","",""
"","","","","","image-keyboard-response","213","1007538","0.0-3.0-5.0-1.30","558c2205fdf99b5d984bbb15","F1","batch6","pattern_response","731","stim/yes_12_hor_w1_w.png","f","pattern_42","f","true","","","","731","true","29","","","","","","","","","","","","","","","","",""
"","","","","","html-keyboard-response","214","1008898","0.0-3.0-5.0-0.31","558c2205fdf99b5d984bbb15","F1","batch6","pattern_show_trial_num","null","<p class=block-text>Trial 32 out of 78</p>","null","","","","","","","","","","","","","","","","","","","","","","","","","",""
"","","","","","image-keyboard-response","215","1012955","0.0-3.0-5.0-1.31","558c2205fdf99b5d984bbb15","F1","batch6","pattern_response","4049","stim/no_43_2_b.png","j","pattern_23","j","true","","","","4049","true","30","","","","","","","","","","","","","","","","",""
"","","","","","html-keyboard-response","216","1014294","0.0-3.0-5.0-0.32","558c2205fdf99b5d984bbb15","F1","batch6","pattern_show_trial_num","null","<p class=block-text>Trial 33 out of 78</p>","null","","","","","","","","","","","","","","","","","","","","","","","","","",""
"","","","","","image-keyboard-response","217","1019549","0.0-3.0-5.0-1.32","558c2205fdf99b5d984bbb15","F1","batch6","pattern_response","5248","stim/yes_58_dia_w1_w.png","j","pattern_76","f","false","","","","5248","false","30","","","","","","","","","","","","","","","","",""
"","","","","","html-keyboard-response","218","1020888","0.0-3.0-5.0-0.33","558c2205fdf99b5d984bbb15","F1","batch6","pattern_show_trial_num","null","<p class=block-text>Trial 34 out of 78</p>","null","","","","","","","","","","","","","","","","","","","","","","","","","",""
"","","","","","image-keyboard-response","219","1021938","0.0-3.0-5.0-1.33","558c2205fdf99b5d984bbb15","F1","batch6","pattern_response","1043","stim/no_12_1.png","j","pattern_01","j","true","","","","1043","true","31","","","","","","","","","","","","","","","","",""
"","","","","","html-keyboard-response","220","1023261","0.0-3.0-5.0-0.34","558c2205fdf99b5d984bbb15","F1","batch6","pattern_show_trial_num","null","<p class=block-text>Trial 35 out of 78</p>","null","","","","","","","","","","","","","","","","","","","","","","","","","",""
"","","","","","image-keyboard-response","221","1025563","0.0-3.0-5.0-1.34","558c2205fdf99b5d984bbb15","F1","batch6","pattern_response","2295","stim/no_45_1_w.png","j","pattern_25","j","true","","","","2295","true","32","","","","","","","","","","","","","","","","",""
"","","","","","html-keyboard-response","222","1026983","0.0-3.0-5.0-0.35","558c2205fdf99b5d984bbb15","F1","batch6","pattern_show_trial_num","null","<p class=block-text>Trial 36 out of 78</p>","null","","","","","","","","","","","","","","","","","","","","","","","","","",""
"","","","","","image-keyboard-response","223","1027977","0.0-3.0-5.0-1.35","558c2205fdf99b5d984bbb15","F1","batch6","pattern_response","987","stim/yes_36_ver_w1_w.png","f","pattern_58","f","true","","","","987","true","33","","","","","","","","","","","","","","","","",""
"","","","","","html-keyboard-response","224","1029359","0.0-3.0-5.0-0.36","558c2205fdf99b5d984bbb15","F1","batch6","pattern_show_trial_num","null","<p class=block-text>Trial 37 out of 78</p>","null","","","","","","","","","","","","","","","","","","","","","","","","","",""
"","","","","","image-keyboard-response","225","1030588","0.0-3.0-5.0-1.36","558c2205fdf99b5d984bbb15","F1","batch6","pattern_response","1222","stim/yes_33_dia_w1_w.png","j","pattern_56","f","false","","","","1222","false","33","","","","","","","","","","","","","","","","",""
"","","","","","html-keyboard-response","226","1031933","0.0-3.0-5.0-0.37","558c2205fdf99b5d984bbb15","F1","batch6","pattern_show_trial_num","null","<p class=block-text>Trial 38 out of 78</p>","null","","","","","","","","","","","","","","","","","","","","","","","","","",""
"","","","","","image-keyboard-response","227","1032758","0.0-3.0-5.0-1.37","558c2205fdf99b5d984bbb15","F1","batch6","pattern_response","818","stim/no_18_1_b.png","j","pattern_05","j","true","","","","818","true","34","","","","","","","","","","","","","","","","",""
"","","","","","html-keyboard-response","228","1034173","0.0-3.0-5.0-0.38","558c2205fdf99b5d984bbb15","F1","batch6","pattern_show_trial_num","null","<p class=block-text>Trial 39 out of 78</p>","null","","","","","","","","","","","","","","","","","","","","","","","","","",""
"","","","","","image-keyboard-response","229","1038167","0.0-3.0-5.0-1.38","558c2205fdf99b5d984bbb15","F1","batch6","pattern_response","3987","stim/no_53_1_b.png","j","pattern_33","j","true","","","","3987","true","35","","","","","","","","","","","","","","","","",""
"","","","","","image-keyboard-response","230","1041087","0.0-3.0-6.0","558c2205fdf99b5d984bbb15","F1","batch6","attention_check","2365","stim/empty_board.png","j","","j","true","","","","","","","500","[""f"",""j""]","","","","","","","","","","","","","","",""
"","","","","","html-keyboard-response","231","1041908","0.0-3.0-7.0-0.0","558c2205fdf99b5d984bbb15","F1","batch6","pattern_show_trial_num","null","<p class=block-text>Trial 40 out of 78</p>","null","","","","","","","","","","","","","","","","","","","","","","","","","",""
"","","","","","image-keyboard-response","232","1043556","0.0-3.0-7.0-1.0","558c2205fdf99b5d984bbb15","F1","batch6","pattern_response","1641","stim/yes_67_hor_b1.png","f","pattern_79","f","true","","","","1641","true","36","","","","","","","","","","","","","","","","",""
"","","","","","html-keyboard-response","233","1044902","0.0-3.0-7.0-0.1","558c2205fdf99b5d984bbb15","F1","batch6","pattern_show_trial_num","null","<p class=block-text>Trial 41 out of 78</p>","null","","","","","","","","","","","","","","","","","","","","","","","","","",""
"","","","","","image-keyboard-response","234","1045747","0.0-3.0-7.0-1.1","558c2205fdf99b5d984bbb15","F1","batch6","pattern_response","839","stim/yes_25_hor_b1_b.png","f","pattern_49","f","true","","","","839","true","37","","","","","","","","","","","","","","","","",""
"","","","","","html-keyboard-response","235","1047131","0.0-3.0-7.0-0.2","558c2205fdf99b5d984bbb15","F1","batch6","pattern_show_trial_num","null","<p class=block-text>Trial 42 out of 78</p>","null","","","","","","","","","","","","","","","","","","","","","","","","","",""
"","","","","","image-keyboard-response","236","1053616","0.0-3.0-7.0-1.2","558c2205fdf99b5d984bbb15","F1","batch6","pattern_response","6478","stim/no_48_1_w.png","j","pattern_28","j","true","","","","6478","true","38","","","","","","","","","","","","","","","","",""
"","","","","","html-keyboard-response","237","1054947","0.0-3.0-7.0-0.3","558c2205fdf99b5d984bbb15","F1","batch6","pattern_show_trial_num","null","<p class=block-text>Trial 43 out of 78</p>","null","","","","","","","","","","","","","","","","","","","","","","","","","",""
"","","","","","image-keyboard-response","238","1055778","0.0-3.0-7.0-1.3","558c2205fdf99b5d984bbb15","F1","batch6","pattern_response","826","stim/no_13_2_b.png","j","pattern_02","j","true","","","","826","true","39","","","","","","","","","","","","","","","","",""
"","","","","","html-keyboard-response","239","1057132","0.0-3.0-7.0-0.4","558c2205fdf99b5d984bbb15","F1","batch6","pattern_show_trial_num","null","<p class=block-text>Trial 44 out of 78</p>","null","","","","","","","","","","","","","","","","","","","","","","","","","",""
"","","","","","image-keyboard-response","240","1057826","0.0-3.0-7.0-1.4","558c2205fdf99b5d984bbb15","F1","batch6","pattern_response","688","stim/yes_14_hor_b1_w.png","f","pattern_43","f","true","","","","688","true","40","","","","","","","","","","","","","","","","",""
"","","","","","html-keyboard-response","241","1059190","0.0-3.0-7.0-0.5","558c2205fdf99b5d984bbb15","F1","batch6","pattern_show_trial_num","null","<p class=block-text>Trial 45 out of 78</p>","null","","","","","","","","","","","","","","","","","","","","","","","","","",""
"","","","","","image-keyboard-response","242","1063232","0.0-3.0-7.0-1.5","558c2205fdf99b5d984bbb15","F1","batch6","pattern_response","4035","stim/no_46_1_b.png","j","pattern_26","j","true","","","","4035","true","41","","","","","","","","","","","","","","","","",""
"","","","","","html-keyboard-response","243","1064635","0.0-3.0-7.0-0.6","558c2205fdf99b5d984bbb15","F1","batch6","pattern_show_trial_num","null","<p class=block-text>Trial 46 out of 78</p>","null","","","","","","","","","","","","","","","","","","","","","","","","","",""
"","","","","","image-keyboard-response","244","1067450","0.0-3.0-7.0-1.6","558c2205fdf99b5d984bbb15","F1","batch6","pattern_response","2808","stim/no_42_1_w.png","j","pattern_22","j","true","","","","2808","true","42","","","","","","","","","","","","","","","","",""
"","","","","","html-keyboard-response","245","1068800","0.0-3.0-7.0-0.7","558c2205fdf99b5d984bbb15","F1","batch6","pattern_show_trial_num","null","<p class=block-text>Trial 47 out of 78</p>","null","","","","","","","","","","","","","","","","","","","","","","","","","",""
"","","","","","image-keyboard-response","246","1069963","0.0-3.0-7.0-1.7","558c2205fdf99b5d984bbb15","F1","batch6","pattern_response","1156","stim/yes_17_dia_w1.png","j","pattern_45","f","false","","","","1156","false","42","","","","","","","","","","","","","","","","",""
"","","","","","html-keyboard-response","247","1071532","0.0-3.0-7.0-0.8","558c2205fdf99b5d984bbb15","F1","batch6","pattern_show_trial_num","null","<p class=block-text>Trial 48 out of 78</p>","null","","","","","","","","","","","","","","","","","","","","","","","","","",""
"","","","","","image-keyboard-response","248","1073005","0.0-3.0-7.0-1.8","558c2205fdf99b5d984bbb15","F1","batch6","pattern_response","1467","stim/yes_31_hor_b1.png","f","pattern_55","f","true","","","","1467","true","43","","","","","","","","","","","","","","","","",""
"","","","","","html-keyboard-response","249","1074373","0.0-3.0-7.0-0.9","558c2205fdf99b5d984bbb15","F1","batch6","pattern_show_trial_num","null","<p class=block-text>Trial 49 out of 78</p>","null","","","","","","","","","","","","","","","","","","","","","","","","","",""
"","","","","","image-keyboard-response","250","1080339","0.0-3.0-7.0-1.9","558c2205fdf99b5d984bbb15","F1","batch6","pattern_response","5959","stim/no_70_2.png","j","pattern_40","j","true","","","","5959","true","44","","","","","","","","","","","","","","","","",""
"","","","","","html-keyboard-response","251","1081777","0.0-3.0-7.0-0.10","558c2205fdf99b5d984bbb15","F1","batch6","pattern_show_trial_num","null","<p class=block-text>Trial 50 out of 78</p>","null","","","","","","","","","","","","","","","","","","","","","","","","","",""
"","","","","","image-keyboard-response","252","1082689","0.0-3.0-7.0-1.10","558c2205fdf99b5d984bbb15","F1","batch6","pattern_response","906","stim/no_17_1_w.png","j","pattern_04","j","true","","","","906","true","45","","","","","","","","","","","","","","","","",""
"","","","","","html-keyboard-response","253","1084158","0.0-3.0-7.0-0.11","558c2205fdf99b5d984bbb15","F1","batch6","pattern_show_trial_num","null","<p class=block-text>Trial 51 out of 78</p>","null","","","","","","","","","","","","","","","","","","","","","","","","","",""
"","","","","","image-keyboard-response","254","1087120","0.0-3.0-7.0-1.11","558c2205fdf99b5d984bbb15","F1","batch6","pattern_response","2955","stim/no_50_1.png","j","pattern_30","j","true","","","","2955","true","46","","","","","","","","","","","","","","","","",""
"","","","","","html-keyboard-response","255","1088444","0.0-3.0-7.0-0.12","558c2205fdf99b5d984bbb15","F1","batch6","pattern_show_trial_num","null","<p class=block-text>Trial 52 out of 78</p>","null","","","","","","","","","","","","","","","","","","","","","","","","","",""
"","","","","","image-keyboard-response","256","1091166","0.0-3.0-7.0-1.12","558c2205fdf99b5d984bbb15","F1","batch6","pattern_response","2716","stim/no_52_1.png","j","pattern_32","j","true","","","","2716","true","47","","","","","","","","","","","","","","","","",""
"","","","","","html-keyboard-response","257","1092569","0.0-3.0-7.0-0.13","558c2205fdf99b5d984bbb15","F1","batch6","pattern_show_trial_num","null","<p class=block-text>Trial 53 out of 78</p>","null","","","","","","","","","","","","","","","","","","","","","","","","","",""
"","","","","","image-keyboard-response","258","1098221","0.0-3.0-7.0-1.13","558c2205fdf99b5d984bbb15","F1","batch6","pattern_response","5646","stim/no_62_1_w.png","j","pattern_36","j","true","","","","5646","true","48","","","","","","","","","","","","","","","","",""
"","","","","","html-keyboard-response","259","1099610","0.0-3.0-7.0-0.14","558c2205fdf99b5d984bbb15","F1","batch6","pattern_show_trial_num","null","<p class=block-text>Trial 54 out of 78</p>","null","","","","","","","","","","","","","","","","","","","","","","","","","",""
"","","","","","image-keyboard-response","260","1101602","0.0-3.0-7.0-1.14","558c2205fdf99b5d984bbb15","F1","batch6","pattern_response","1986","stim/no_29_1_b.png","j","pattern_12","j","true","","","","1986","true","49","","","","","","","","","","","","","","","","",""
"","","","","","html-keyboard-response","261","1102967","0.0-3.0-7.0-0.15","558c2205fdf99b5d984bbb15","F1","batch6","pattern_show_trial_num","null","<p class=block-text>Trial 55 out of 78</p>","null","","","","","","","","","","","","","","","","","","","","","","","","","",""
"","","","","","image-keyboard-response","262","1107036","0.0-3.0-7.0-1.15","558c2205fdf99b5d984bbb15","F1","batch6","pattern_response","4064","stim/yes_48_dia_w1_w.png","f","pattern_69","f","true","","","","4064","true","50","","","","","","","","","","","","","","","","",""
"","","","","","html-keyboard-response","263","1108411","0.0-3.0-7.0-0.16","558c2205fdf99b5d984bbb15","F1","batch6","pattern_show_trial_num","null","<p class=block-text>Trial 56 out of 78</p>","null","","","","","","","","","","","","","","","","","","","","","","","","","",""
"","","","","","image-keyboard-response","264","1109515","0.0-3.0-7.0-1.16","558c2205fdf99b5d984bbb15","F1","batch6","pattern_response","1098","stim/yes_28_ver_b1.png","f","pattern_51","f","true","","","","1098","true","51","","","","","","","","","","","","","","","","",""
"","","","","","html-keyboard-response","265","1110861","0.0-3.0-7.0-0.17","558c2205fdf99b5d984bbb15","F1","batch6","pattern_show_trial_num","null","<p class=block-text>Trial 57 out of 78</p>","null","","","","","","","","","","","","","","","","","","","","","","","","","",""
"","","","","","image-keyboard-response","266","1115963","0.0-3.0-7.0-1.17","558c2205fdf99b5d984bbb15","F1","batch6","pattern_response","5096","stim/no_55_1_w.png","j","pattern_34","j","true","","","","5096","true","52","","","","","","","","","","","","","","","","",""
"","","","","","html-keyboard-response","267","1117347","0.0-3.0-7.0-0.18","558c2205fdf99b5d984bbb15","F1","batch6","pattern_show_trial_num","null","<p class=block-text>Trial 58 out of 78</p>","null","","","","","","","","","","","","","","","","","","","","","","","","","",""
"","","","","","image-keyboard-response","268","1124275","0.0-3.0-7.0-1.18","558c2205fdf99b5d984bbb15","F1","batch6","pattern_response","6922","stim/no_65_1_b.png","j","pattern_38","j","true","","","","6922","true","53","","","","","","","","","","","","","","","","",""
"","","","","","html-keyboard-response","269","1125724","0.0-3.0-7.0-0.19","558c2205fdf99b5d984bbb15","F1","batch6","pattern_show_trial_num","null","<p class=block-text>Trial 59 out of 78</p>","null","","","","","","","","","","","","","","","","","","","","","","","","","",""
"","","","","","image-keyboard-response","270","1126871","0.0-3.0-7.0-1.19","558c2205fdf99b5d984bbb15","F1","batch6","pattern_response","1140","stim/yes_38_hor_b1_b.png","f","pattern_61","f","true","","","","1140","true","54","","","","","","","","","","","","","","","","",""
"","","","","","html-keyboard-response","271","1128306","0.0-3.0-7.0-0.20","558c2205fdf99b5d984bbb15","F1","batch6","pattern_show_trial_num","null","<p class=block-text>Trial 60 out of 78</p>","null","","","","","","","","","","","","","","","","","","","","","","","","","",""
"","","","","","image-keyboard-response","272","1129374","0.0-3.0-7.0-1.20","558c2205fdf99b5d984bbb15","F1","batch6","pattern_response","1062","stim/yes_55_hor_w1_w.png","f","pattern_75","f","true","","","","1062","true","55","","","","","","","","","","","","","","","","",""
"","","","","","html-keyboard-response","273","1130713","0.0-3.0-7.0-0.21","558c2205fdf99b5d984bbb15","F1","batch6","pattern_show_trial_num","null","<p class=block-text>Trial 61 out of 78</p>","null","","","","","","","","","","","","","","","","","","","","","","","","","",""
"","","","","","image-keyboard-response","274","1133124","0.0-3.0-7.0-1.21","558c2205fdf99b5d984bbb15","F1","batch6","pattern_response","2404","stim/yes_35_dia_b1.png","j","pattern_57","f","false","","","","2404","false","55","","","","","","","","","","","","","","","","",""
"","","","","","html-keyboard-response","275","1134484","0.0-3.0-7.0-0.22","558c2205fdf99b5d984bbb15","F1","batch6","pattern_show_trial_num","null","<p class=block-text>Trial 62 out of 78</p>","null","","","","","","","","","","","","","","","","","","","","","","","","","",""
"","","","","","image-keyboard-response","276","1137892","0.0-3.0-7.0-1.22","558c2205fdf99b5d984bbb15","F1","batch6","pattern_response","3403","stim/no_34_1_b.png","j","pattern_16","j","true","","","","3403","true","56","","","","","","","","","","","","","","","","",""
"","","","","","html-keyboard-response","277","1139289","0.0-3.0-7.0-0.23","558c2205fdf99b5d984bbb15","F1","batch6","pattern_show_trial_num","null","<p class=block-text>Trial 63 out of 78</p>","null","","","","","","","","","","","","","","","","","","","","","","","","","",""
"","","","","","image-keyboard-response","278","1140486","0.0-3.0-7.0-1.23","558c2205fdf99b5d984bbb15","F1","batch6","pattern_response","1190","stim/yes_22_ver_w1.png","j","pattern_47","f","false","","","","1190","false","56","","","","","","","","","","","","","","","","",""
"","","","","","html-keyboard-response","279","1141818","0.0-3.0-7.0-0.24","558c2205fdf99b5d984bbb15","F1","batch6","pattern_show_trial_num","null","<p class=block-text>Trial 64 out of 78</p>","null","","","","","","","","","","","","","","","","","","","","","","","","","",""
"","","","","","image-keyboard-response","280","1142954","0.0-3.0-7.0-1.24","558c2205fdf99b5d984bbb15","F1","batch6","pattern_response","1128","stim/yes_43_ver_w1_w.png","f","pattern_65","f","true","","","","1128","true","57","","","","","","","","","","","","","","","","",""
"","","","","","html-keyboard-response","281","1144290","0.0-3.0-7.0-0.25","558c2205fdf99b5d984bbb15","F1","batch6","pattern_show_trial_num","null","<p class=block-text>Trial 65 out of 78</p>","null","","","","","","","","","","","","","","","","","","","","","","","","","",""
"","","","","","image-keyboard-response","282","1147923","0.0-3.0-7.0-1.25","558c2205fdf99b5d984bbb15","F1","batch6","pattern_response","3627","stim/yes_37_dia_w1.png","f","pattern_59","f","true","","","","3627","true","58","","","","","","","","","","","","","","","","",""
"","","","","","html-keyboard-response","283","1149260","0.0-3.0-7.0-0.26","558c2205fdf99b5d984bbb15","F1","batch6","pattern_show_trial_num","null","<p class=block-text>Trial 66 out of 78</p>","null","","","","","","","","","","","","","","","","","","","","","","","","","",""
"","","","","","image-keyboard-response","284","1150773","0.0-3.0-7.0-1.26","558c2205fdf99b5d984bbb15","F1","batch6","pattern_response","1507","stim/yes_52_ver_w1.png","f","pattern_73","f","true","","","","1507","true","59","","","","","","","","","","","","","","","","",""
"","","","","","html-keyboard-response","285","1152122","0.0-3.0-7.0-0.27","558c2205fdf99b5d984bbb15","F1","batch6","pattern_show_trial_num","null","<p class=block-text>Trial 67 out of 78</p>","null","","","","","","","","","","","","","","","","","","","","","","","","","",""
"","","","","","image-keyboard-response","286","1153723","0.0-3.0-7.0-1.27","558c2205fdf99b5d984bbb15","F1","batch6","pattern_response","1593","stim/no_23_1.png","j","pattern_08","j","true","","","","1593","true","60","","","","","","","","","","","","","","","","",""
"","","","","","html-keyboard-response","287","1155053","0.0-3.0-7.0-0.28","558c2205fdf99b5d984bbb15","F1","batch6","pattern_show_trial_num","null","<p class=block-text>Trial 68 out of 78</p>","null","","","","","","","","","","","","","","","","","","","","","","","","","",""
"","","","","","image-keyboard-response","288","1158982","0.0-3.0-7.0-1.28","558c2205fdf99b5d984bbb15","F1","batch6","pattern_response","3923","stim/no_38_1_b.png","j","pattern_20","j","true","","","","3923","true","61","","","","","","","","","","","","","","","","",""
"","","","","","html-keyboard-response","289","1160326","0.0-3.0-7.0-0.29","558c2205fdf99b5d984bbb15","F1","batch6","pattern_show_trial_num","null","<p class=block-text>Trial 69 out of 78</p>","null","","","","","","","","","","","","","","","","","","","","","","","","","",""
"","","","","","image-keyboard-response","290","1161274","0.0-3.0-7.0-1.29","558c2205fdf99b5d984bbb15","F1","batch6","pattern_response","940","stim/no_20_1_w.png","j","pattern_06","j","true","","","","940","true","62","","","","","","","","","","","","","","","","",""
"","","","","","html-keyboard-response","291","1162642","0.0-3.0-7.0-0.30","558c2205fdf99b5d984bbb15","F1","batch6","pattern_show_trial_num","null","<p class=block-text>Trial 70 out of 78</p>","null","","","","","","","","","","","","","","","","","","","","","","","","","",""
"","","","","","image-keyboard-response","292","1164407","0.0-3.0-7.0-1.30","558c2205fdf99b5d984bbb15","F1","batch6","pattern_response","1756","stim/no_32_1_w.png","j","pattern_14","j","true","","","","1756","true","63","","","","","","","","","","","","","","","","",""
"","","","","","html-keyboard-response","293","1165812","0.0-3.0-7.0-0.31","558c2205fdf99b5d984bbb15","F1","batch6","pattern_show_trial_num","null","<p class=block-text>Trial 71 out of 78</p>","null","","","","","","","","","","","","","","","","","","","","","","","","","",""
"","","","","","image-keyboard-response","294","1167479","0.0-3.0-7.0-1.31","558c2205fdf99b5d984bbb15","F1","batch6","pattern_response","1661","stim/yes_60_ver_b1_b.png","f","pattern_77","f","true","","","","1661","true","64","","","","","","","","","","","","","","","","",""
"","","","","","html-keyboard-response","295","1168835","0.0-3.0-7.0-0.32","558c2205fdf99b5d984bbb15","F1","batch6","pattern_show_trial_num","null","<p class=block-text>Trial 72 out of 78</p>","null","","","","","","","","","","","","","","","","","","","","","","","","","",""
"","","","","","image-keyboard-response","296","1172091","0.0-3.0-7.0-1.32","558c2205fdf99b5d984bbb15","F1","batch6","pattern_response","3250","stim/no_36_2_w.png","j","pattern_18","j","true","","","","3250","true","65","","","","","","","","","","","","","","","","",""
"","","","","","html-keyboard-response","297","1173525","0.0-3.0-7.0-0.33","558c2205fdf99b5d984bbb15","F1","batch6","pattern_show_trial_num","null","<p class=block-text>Trial 73 out of 78</p>","null","","","","","","","","","","","","","","","","","","","","","","","","","",""
"","","","","","image-keyboard-response","298","1174734","0.0-3.0-7.0-1.33","558c2205fdf99b5d984bbb15","F1","batch6","pattern_response","1201","stim/yes_29_ver_w1.png","f","pattern_53","f","true","","","","1201","true","66","","","","","","","","","","","","","","","","",""
"","","","","","html-keyboard-response","299","1176101","0.0-3.0-7.0-0.34","558c2205fdf99b5d984bbb15","F1","batch6","pattern_show_trial_num","null","<p class=block-text>Trial 74 out of 78</p>","null","","","","","","","","","","","","","","","","","","","","","","","","","",""
"","","","","","image-keyboard-response","300","1177922","0.0-3.0-7.0-1.34","558c2205fdf99b5d984bbb15","F1","batch6","pattern_response","1815","stim/yes_45_hor_b2_b.png","f","pattern_67","f","true","","","","1815","true","67","","","","","","","","","","","","","","","","",""
"","","","","","html-keyboard-response","301","1179366","0.0-3.0-7.0-0.35","558c2205fdf99b5d984bbb15","F1","batch6","pattern_show_trial_num","null","<p class=block-text>Trial 75 out of 78</p>","null","","","","","","","","","","","","","","","","","","","","","","","","","",""
"","","","","","image-keyboard-response","302","1185266","0.0-3.0-7.0-1.35","558c2205fdf99b5d984bbb15","F1","batch6","pattern_response","5893","stim/no_44_1.png","j","pattern_24","j","true","","","","5893","true","68","","","","","","","","","","","","","","","","",""
"","","","","","html-keyboard-response","303","1186672","0.0-3.0-7.0-0.36","558c2205fdf99b5d984bbb15","F1","batch6","pattern_show_trial_num","null","<p class=block-text>Trial 76 out of 78</p>","null","","","","","","","","","","","","","","","","","","","","","","","","","",""
"","","","","","image-keyboard-response","304","1191915","0.0-3.0-7.0-1.36","558c2205fdf99b5d984bbb15","F1","batch6","pattern_response","5236","stim/yes_50_dia_w1.png","j","pattern_71","f","false","","","","5236","false","68","","","","","","","","","","","","","","","","",""
"","","","","","html-keyboard-response","305","1193228","0.0-3.0-7.0-0.37","558c2205fdf99b5d984bbb15","F1","batch6","pattern_show_trial_num","null","<p class=block-text>Trial 77 out of 78</p>","null","","","","","","","","","","","","","","","","","","","","","","","","","",""
"","","","","","image-keyboard-response","306","1197346","0.0-3.0-7.0-1.37","558c2205fdf99b5d984bbb15","F1","batch6","pattern_response","4111","stim/yes_40_dia_b1_b.png","j","pattern_63","f","false","","","","4111","false","68","","","","","","","","","","","","","","","","",""
"","","","","","html-keyboard-response","307","1198690","0.0-3.0-7.0-0.38","558c2205fdf99b5d984bbb15","F1","batch6","pattern_show_trial_num","null","<p class=block-text>Trial 78 out of 78</p>","null","","","","","","","","","","","","","","","","","","","","","","","","","",""
"","","","","","image-keyboard-response","308","1200139","0.0-3.0-7.0-1.38","558c2205fdf99b5d984bbb15","F1","batch6","pattern_response","1443","stim/no_26_1_w.png","j","pattern_10","j","true","","","","1443","true","69","","","","","","","","","","","","","","","","",""
"","","","","","html-button-response","309","1205508","0.0-3.0-8.0","558c2205fdf99b5d984bbb15","F1","batch6","","4853","<p class = block-text>This concludes the 4-in-a-row detection game.Thank you for your responses!<br>
            You responded correctly on 88% of the trials.<br>
            When you are ready, press ""Continue"" button to continue </p>","0","","","","","","","","","","","","","","","","","","","","","","","","","",""
"true","","","","","fullscreen","310","1208302","0.0-4.0-0.0","558c2205fdf99b5d984bbb15","F1","batch6","","","","","","","","","","","","","","","","","","","","","","","","","","","","","",""
"","","","","","instructions","311","1248210","0.0-4.0-1.0-0.0-0.0","558c2205fdf99b5d984bbb15","F1","batch6","tol-instructions","39907","","","","","","","","[{""page_index"":0,""viewing_time"":8234},{""page_index"":1,""viewing_time"":4206},{""page_index"":2,""viewing_time"":2379},{""page_index"":3,""viewing_time"":14010},{""page_index"":4,""viewing_time"":3984},{""page_index"":5,""viewing_time"":4657},{""page_index"":6,""viewing_time"":2437}]","","","","","","","","","","","","","","","","","","","",""
"","","","","","html-button-response","312","1249189","0.0-4.0-1.0-1.0-0.0","558c2205fdf99b5d984bbb15","F1","batch6","tol_enter_quiz","977","<p class=block-text> Let's answer a few questions <br>","0","","","","","","","","","","","","","","","","","","","","","","","","","",""
"","","","","","html-button-response","313","1254116","0.0-4.0-1.0-1.0-1.0","558c2205fdf99b5d984bbb15","F1","batch6","tol_quiz","4926","<p class = block-text>True or False: You can only move the ball on top of a peg. <br></p>","1","","","false","","","","","","","","","","","","","","","","","","","","","","",""
"","","","","","html-button-response","314","1255676","0.0-4.0-1.0-1.0-2.0","558c2205fdf99b5d984bbb15","F1","batch6","tol_quiz_feedback","1559","<p class = block-text>Incorrect. Remember, you can only move the ball on top of a peg.</p>","0","","","","","","","","","","","","","","","","","","","","","","","","","",""
"","","","","","html-button-response","315","1258882","0.0-4.0-1.0-1.0-3.0","558c2205fdf99b5d984bbb15","F1","batch6","tol_quiz","3204","<p class = block-text>True or False: You should try to match your board with the target board with fewest moves possible. <br></p>","0","","","true","","","","","","","","","","","","","","","","","","","","","","",""
"","","","","","html-button-response","316","1259641","0.0-4.0-1.0-1.0-4.0","558c2205fdf99b5d984bbb15","F1","batch6","tol_quiz_feedback","758","<p class = block-text>Correct! </p>","0","","","","","","","","","","","","","","","","","","","","","","","","","",""
"","","","","","html-button-response","317","1260569","0.0-4.0-1.0-2.0-0.0","558c2205fdf99b5d984bbb15","F1","batch6","","927","<p class = block-text>You made too many incorrect choices.</p><p class = block-text>You will now repeat the instructions and quiz</p>","0","","","","","","","","","","","","","","","","","","","","","","","","","",""
"","","","","","instructions","318","1268312","0.0-4.0-1.1-0.1-0.1","558c2205fdf99b5d984bbb15","F1","batch6","tol-instructions","7743","","","","","","","","[{""page_index"":0,""viewing_time"":1188},{""page_index"":1,""viewing_time"":1511},{""page_index"":2,""viewing_time"":933},{""page_index"":3,""viewing_time"":796},{""page_index"":4,""viewing_time"":599},{""page_index"":5,""viewing_time"":544},{""page_index"":6,""viewing_time"":2172}]","","","","","","","","","","","","","","","","","","","",""
"","","","","","html-button-response","319","1269175","0.0-4.0-1.1-1.1-0.1","558c2205fdf99b5d984bbb15","F1","batch6","tol_enter_quiz","862","<p class=block-text> Let's answer a few questions <br>","0","","","","","","","","","","","","","","","","","","","","","","","","","",""
"","","","","","html-button-response","320","1270632","0.0-4.0-1.1-1.1-1.1","558c2205fdf99b5d984bbb15","F1","batch6","tol_quiz","1456","<p class = block-text>True or False: You can only move the ball on top of a peg. <br></p>","0","","","true","","","","","","","","","","","","","","","","","","","","","","",""
"","","","","","html-button-response","321","1271680","0.0-4.0-1.1-1.1-2.1","558c2205fdf99b5d984bbb15","F1","batch6","tol_quiz_feedback","1045","<p class = block-text>Correct! You can only move the ball on top of a peg.</p>","0","","","","","","","","","","","","","","","","","","","","","","","","","",""
"","","","","","html-button-response","322","1272862","0.0-4.0-1.1-1.1-3.1","558c2205fdf99b5d984bbb15","F1","batch6","tol_quiz","1182","<p class = block-text>True or False: You should try to match your board with the target board with fewest moves possible. <br></p>","0","","","true","","","","","","","","","","","","","","","","","","","","","","",""
"","","","","","html-button-response","323","1273682","0.0-4.0-1.1-1.1-4.1","558c2205fdf99b5d984bbb15","F1","batch6","tol_quiz_feedback","819","<p class = block-text>Correct! </p>","0","","","","","","","","","","","","","","","","","","","","","","","","","",""
"","","","","","html-button-response","324","1275467","0.0-4.0-2.0","558c2205fdf99b5d984bbb15","F1","batch6","","1782","<p class=block-text> Now that you've understood the game, let's practice a few easier examples before we start!<br> <br>","0","","","","","","","","","","","","","","","","","","","","","","","","","",""
"","","","","","single-stim-button","325","1278034","0.0-4.0-3.0-0.0","558c2205fdf99b5d984bbb15","F1","batch6","tol_practice","2565","","","","","","","","","","","","","","tol_peg_2","2565","2565","0","[[1,2,0],[0,0],[0]]","1","[[1,2,0],[0,0],[3]]","practice","2565","","","","","",""
"","","","","","single-stim-button","326","1279460","0.0-4.0-3.0-1.0","558c2205fdf99b5d984bbb15","F1","batch6","tol_practice","1424","","","","","","","","","","","","","","tol_peg_3","1424","1424","0","[[1,2,0],[0,0],[3]]","1","[[1,2,0],[0,0],[3]]","practice","1424","","","","","",""
"","","","","","poldrack-single-stim","327","1280565","0.0-4.0-4.0","558c2205fdf99b5d984bbb15","F1","batch6","tol_feedback","-1","","","","","true","","","","","","","","","","1000","1000","500","","","","","","-1","none","true","","0",""
"","","","","","single-stim-button","328","1284934","0.0-4.0-5.0-0.0","558c2205fdf99b5d984bbb15","F1","batch6","tol_practice","4369","","","","","","","","","","","","","","tol_peg_1","4369","4369","0","[[1,0,0],[3,0],[0]]","2","[[0,0,0],[3,1],[2]]","practice","4369","","","","","",""
"","","","","","single-stim-button","329","1286807","0.0-4.0-5.0-1.0","558c2205fdf99b5d984bbb15","F1","batch6","tol_practice","1870","","","","","","","","","","","","","","tol_peg_3","1870","1870","0","[[1,0,0],[3,0],[2]]","2","[[0,0,0],[3,1],[2]]","practice","1870","","","","","",""
"","","","","","single-stim-button","330","1287638","0.0-4.0-5.1-0.1","558c2205fdf99b5d984bbb15","F1","batch6","tol_practice","829","","","","","","","","","","","","","","tol_peg_1","829","829","0","[[0,0,0],[3,0],[2]]","3","[[0,0,0],[3,1],[2]]","practice","829","","","","","",""
"","","","","","single-stim-button","331","1288274","0.0-4.0-5.1-1.1","558c2205fdf99b5d984bbb15","F1","batch6","tol_practice","636","","","","","","","","","","","","","","tol_peg_2","636","636","0","[[0,0,0],[3,1],[2]]","3","[[0,0,0],[3,1],[2]]","practice","636","","","","","",""
"","","","","","poldrack-single-stim","332","1289350","0.0-4.0-6.0","558c2205fdf99b5d984bbb15","F1","batch6","tol_feedback","-1","","","","","true","","","","","","","","","","1000","1000","500","","","","","","-1","none","true","","0",""
"","","","","","single-stim-button","333","1293334","0.0-4.0-7.0-0.0","558c2205fdf99b5d984bbb15","F1","batch6","tol_practice","3983","","","","","","","","","","","","","","tol_peg_2","3983","3983","0","[[1,2,0],[0,0],[0]]","4","[[1,0,0],[2,0],[3]]","practice","3983","","","","","",""
"","","","","","single-stim-button","334","1294318","0.0-4.0-7.0-1.0","558c2205fdf99b5d984bbb15","F1","batch6","tol_practice","983","","","","","","","","","","","","","","tol_peg_3","983","983","0","[[1,2,0],[0,0],[3]]","4","[[1,0,0],[2,0],[3]]","practice","983","","","","","",""
"","","","","","single-stim-button","335","1295600","0.0-4.0-7.1-0.1","558c2205fdf99b5d984bbb15","F1","batch6","tol_practice","1281","","","","","","","","","","","","","","tol_peg_1","1281","1281","0","[[1,0,0],[0,0],[3]]","5","[[1,0,0],[2,0],[3]]","practice","1281","","","","","",""
"","","","","","single-stim-button","336","1296661","0.0-4.0-7.1-1.1","558c2205fdf99b5d984bbb15","F1","batch6","tol_practice","1061","","","","","","","","","","","","","","tol_peg_2","1061","1061","0","[[1,0,0],[2,0],[3]]","5","[[1,0,0],[2,0],[3]]","practice","1061","","","","","",""
"","","","","","poldrack-single-stim","337","1297724","0.0-4.0-8.0","558c2205fdf99b5d984bbb15","F1","batch6","tol_feedback","-1","","","","","true","","","","","","","","","","1000","1000","500","","","","","","-1","none","true","","0",""
"","","","","","html-button-response","338","1300390","0.0-4.0-9.0","558c2205fdf99b5d984bbb15","F1","batch6","tol_instruction","2666","<div class = centerbox><p class = center-block-text>Great job! You are done with practice trials<br>You are about to start official trials.<br> <br> Problem <strong>1</strong> out of 25 problems</p></div>","0","","","","","","","","","","","","","","","","","","","","","","","","","",""
"","","","","","single-stim-button","339","1307918","0.0-4.0-10.0-0.0","558c2205fdf99b5d984bbb15","F1","batch6","tol_tohand","6523","","","","","","","","","","","","","","tol_peg_1","6523","6523","0","[[1,0,0],[3,0],[0]]","1","[[1,3,0],[2,0],[0]]","0","0","","","","","","3"
"","","","","","single-stim-button","340","1308956","0.0-4.0-10.0-1.0","558c2205fdf99b5d984bbb15","F1","batch6","tol_toboard","1038","","","","","","","","","","","","","","tol_peg_3","1038","1038","0","[[1,0,0],[3,0],[2]]","1","[[1,3,0],[2,0],[0]]","0","0","","","","","","3"
"","","","","","single-stim-button","341","1309474","0.0-4.0-10.1-0.1","558c2205fdf99b5d984bbb15","F1","batch6","tol_tohand","517","","","","","","","","","","","","","","tol_peg_2","517","517","0","[[1,0,0],[0,0],[2]]","2","[[1,3,0],[2,0],[0]]","0","0","","","","","","3"
"","","","","","single-stim-button","342","1311008","0.0-4.0-10.1-1.1","558c2205fdf99b5d984bbb15","F1","batch6","tol_toboard","1534","","","","","","","","","","","","","","tol_peg_1","1534","1534","0","[[1,3,0],[0,0],[2]]","2","[[1,3,0],[2,0],[0]]","0","0","","","","","","3"
"","","","","","single-stim-button","343","1312153","0.0-4.0-10.2-0.2","558c2205fdf99b5d984bbb15","F1","batch6","tol_tohand","1145","","","","","","","","","","","","","","tol_peg_3","1145","1145","0","[[1,3,0],[0,0],[0]]","3","[[1,3,0],[2,0],[0]]","0","0","","","","","","3"
"","","","","","single-stim-button","344","1312942","0.0-4.0-10.2-1.2","558c2205fdf99b5d984bbb15","F1","batch6","tol_toboard","787","","","","","","","","","","","","","","tol_peg_2","787","787","0","[[1,3,0],[2,0],[0]]","3","[[1,3,0],[2,0],[0]]","0","0","","","","","","3"
"","","","","","poldrack-single-stim","345","1314060","0.0-4.0-11.0","558c2205fdf99b5d984bbb15","F1","batch6","tol_feedback","-1","","","","","true","","","","","","","","","","1000","1000","500","","","","","","-1","none","true","6523","8185",""
"","","","","","html-button-response","346","1315294","0.0-4.0-12.0","558c2205fdf99b5d984bbb15","F1","batch6","tol_trial_num","1235","<div class = centerbox><p class = center-block-text>problem <strong>2</strong> out of 25 problems</p></div>","0","","","","","","","","","","","","","","","","","","","","","","","","","",""
"","","","","","single-stim-button","347","1320198","0.0-4.0-13.0-0.0","558c2205fdf99b5d984bbb15","F1","batch6","tol_tohand","4903","","","","","","","","","","","","","","tol_peg_1","4903","4903","0","[[1,0,0],[3,0],[0]]","1","[[2,1,3],[0,0],[0]]","1","0","","","","","","5"
"","","","","","single-stim-button","348","1321681","0.0-4.0-13.0-1.0","558c2205fdf99b5d984bbb15","F1","batch6","tol_toboard","1483","","","","","","","","","","","","","","tol_peg_3","1483","1483","0","[[1,0,0],[3,0],[2]]","1","[[2,1,3],[0,0],[0]]","1","0","","","","","","5"
"","","","","","single-stim-button","349","1323324","0.0-4.0-13.1-0.1","558c2205fdf99b5d984bbb15","F1","batch6","tol_tohand","1643","","","","","","","","","","","","","","tol_peg_1","1643","1643","0","[[0,0,0],[3,0],[2]]","2","[[2,1,3],[0,0],[0]]","1","0","","","","","","5"
"","","","","","single-stim-button","350","1327749","0.0-4.0-13.1-1.1","558c2205fdf99b5d984bbb15","F1","batch6","tol_toboard","4424","","","","","","","","","","","","","","tol_peg_1","4424","4424","0","[[1,0,0],[3,0],[2]]","2","[[2,1,3],[0,0],[0]]","1","0","","","","","","5"
"","","","","","single-stim-button","351","1329949","0.0-4.0-13.2-0.2","558c2205fdf99b5d984bbb15","F1","batch6","tol_tohand","2200","","","","","","","","","","","","","","tol_peg_3","2200","2200","0","[[1,0,0],[3,0],[0]]","3","[[2,1,3],[0,0],[0]]","1","0","","","","","","5"
"","","","","","single-stim-button","352","1331720","0.0-4.0-13.2-1.2","558c2205fdf99b5d984bbb15","F1","batch6","tol_toboard","1771","","","","","","","","","","","","","","tol_peg_1","1771","1771","0","[[1,2,0],[3,0],[0]]","3","[[2,1,3],[0,0],[0]]","1","0","","","","","","5"
"","","","","","single-stim-button","353","1332241","0.0-4.0-13.3-0.3","558c2205fdf99b5d984bbb15","F1","batch6","tol_tohand","521","","","","","","","","","","","","","","tol_peg_2","521","521","0","[[1,2,0],[0,0],[0]]","4","[[2,1,3],[0,0],[0]]","1","0","","","","","","5"
"","","","","","single-stim-button","354","1333190","0.0-4.0-13.3-1.3","558c2205fdf99b5d984bbb15","F1","batch6","tol_toboard","949","","","","","","","","","","","","","","tol_peg_3","949","949","0","[[1,2,0],[0,0],[3]]","4","[[2,1,3],[0,0],[0]]","1","0","","","","","","5"
"","","","","","single-stim-button","355","1333872","0.0-4.0-13.4-0.4","558c2205fdf99b5d984bbb15","F1","batch6","tol_tohand","682","","","","","","","","","","","","","","tol_peg_1","682","682","0","[[1,0,0],[0,0],[3]]","5","[[2,1,3],[0,0],[0]]","1","0","","","","","","5"
"","","","","","single-stim-button","356","1334703","0.0-4.0-13.4-1.4","558c2205fdf99b5d984bbb15","F1","batch6","tol_toboard","830","","","","","","","","","","","","","","tol_peg_2","830","830","0","[[1,0,0],[2,0],[3]]","5","[[2,1,3],[0,0],[0]]","1","0","","","","","","5"
