"success","timeout","failed_images","failed_audio","failed_video","trial_type","trial_index","time_elapsed","internal_node_id","subject_id","study_id","session_id","task","rt","stimulus","response","item","answer","correct","spm_correct","spm_rt","view_history","mouse_click","stim_duration","block_duration","timing_post_trial","current_position","tol_num_moves_made","tol_target","tol_problem_id","tol_rt","key_press","possible_responses","tol_correct","preplanning","tol_rt_per_trial","tol_min_moves","fiar_detect_rt","fiar_detect_correct","total_correct_fiar_detect","post_trial_gap","choices"
"true","false","[]","[]","[]","preload","0","13138","0.0-0.0","558ffe16fdf99b3f7aada34d","B2","batch2","","","","","","","","","","","","","","","","","","","","","","","","","","","","","",""
"true","","","","","fullscreen","1","39022","0.0-1.0-0.0","558ffe16fdf99b3f7aada34d","B2","batch2","","","","","","","","","","","","","","","","","","","","","","","","","","","","","",""
"true","","","","","fullscreen","2","51478","0.0-2.0-0.0","558ffe16fdf99b3f7aada34d","B2","batch2","spm_fullscreen","","","","","","","","","","","","","","","","","","","","","","","","","","","","",""
"","","","","","html-button-response","3","71885","0.0-2.0-1.0","558ffe16fdf99b3f7aada34d","B2","batch2","","20398.79999999993","<p class = block-text><b>Instructions</b> <br>This is a widely used intelligence test in research. <br>In this test, a figure with a missing piece will be presented.<br>Below the figure are alternative pieces to complete the figure, only one of which is correct.<br> Different figures might involve different principles for obtaining the missing piece<br>Your job is to select the most logical piece to complete the figure.</p>","0","","","","","","","","","","","","","","","","","","","","","","","","","",""
"","","","","","html-keyboard-response","4","72693","0.0-2.0-2.0-0.0","558ffe16fdf99b3f7aada34d","B2","batch2","spm_show_trial_num","null","<p class=block-text>Trial 1 out of 60</p>","null","","","","","","","","","","","","","","","","","","","","","","","","","",""
"","","","","","image-button-response","5","84638","0.0-2.0-2.0-1.0","558ffe16fdf99b3f7aada34d","B2","batch2","spm_respsonse","11903","img/question_1_1.jpeg","3","mat_01","4","1","1","11903","","","","","","","","","","","","","","","","","","","","",""
"","","","","","html-keyboard-response","6","85702","0.0-2.0-2.0-0.1","558ffe16fdf99b3f7aada34d","B2","batch2","spm_show_trial_num","null","<p class=block-text>Trial 2 out of 60</p>","null","","","","","","","","","","","","","","","","","","","","","","","","","",""
"","","","","","image-button-response","7","89491","0.0-2.0-2.0-1.1","558ffe16fdf99b3f7aada34d","B2","batch2","spm_respsonse","3778","img/question_1_2.jpeg","4","mat_02","5","1","1","3778","","","","","","","","","","","","","","","","","","","","",""
"","","","","","html-keyboard-response","8","90558","0.0-2.0-2.0-0.2","558ffe16fdf99b3f7aada34d","B2","batch2","spm_show_trial_num","null","<p class=block-text>Trial 3 out of 60</p>","null","","","","","","","","","","","","","","","","","","","","","","","","","",""
"","","","","","image-button-response","9","93840","0.0-2.0-2.0-1.2","558ffe16fdf99b3f7aada34d","B2","batch2","spm_respsonse","3266.70000000007","img/question_1_3.jpeg","0","mat_03","1","1","1","3266.70000000007","","","","","","","","","","","","","","","","","","","","",""
"","","","","","html-keyboard-response","10","94902","0.0-2.0-2.0-0.3","558ffe16fdf99b3f7aada34d","B2","batch2","spm_show_trial_num","null","<p class=block-text>Trial 4 out of 60</p>","null","","","","","","","","","","","","","","","","","","","","","","","","","",""
"","","","","","image-button-response","11","98673","0.0-2.0-2.0-1.3","558ffe16fdf99b3f7aada34d","B2","batch2","spm_respsonse","3758.100000000093","img/question_1_4.jpeg","3","mat_04","2","0","0","3758.100000000093","","","","","","","","","","","","","","","","","","","","",""
"","","","","","html-keyboard-response","12","99733","0.0-2.0-2.0-0.4","558ffe16fdf99b3f7aada34d","B2","batch2","spm_show_trial_num","null","<p class=block-text>Trial 5 out of 60</p>","null","","","","","","","","","","","","","","","","","","","","","","","","","",""
"","","","","","image-button-response","13","103111","0.0-2.0-2.0-1.4","558ffe16fdf99b3f7aada34d","B2","batch2","spm_respsonse","3356.5","img/question_1_5.jpeg","5","mat_05","6","1","1","3356.5","","","","","","","","","","","","","","","","","","","","",""
"","","","","","html-keyboard-response","14","104173","0.0-2.0-2.0-0.5","558ffe16fdf99b3f7aada34d","B2","batch2","spm_show_trial_num","null","<p class=block-text>Trial 6 out of 60</p>","null","","","","","","","","","","","","","","","","","","","","","","","","","",""
"","","","","","image-button-response","15","109722","0.0-2.0-2.0-1.5","558ffe16fdf99b3f7aada34d","B2","batch2","spm_respsonse","5537","img/question_1_6.jpeg","2","mat_06","3","1","1","5537","","","","","","","","","","","","","","","","","","","","",""
"","","","","","html-keyboard-response","16","110790","0.0-2.0-2.0-0.6","558ffe16fdf99b3f7aada34d","B2","batch2","spm_show_trial_num","null","<p class=block-text>Trial 7 out of 60</p>","null","","","","","","","","","","","","","","","","","","","","","","","","","",""
"","","","","","image-button-response","17","116501","0.0-2.0-2.0-1.6","558ffe16fdf99b3f7aada34d","B2","batch2","spm_respsonse","5695.20000000007","img/question_1_7.jpeg","4","mat_07","6","0","0","5695.20000000007","","","","","","","","","","","","","","","","","","","","",""
"","","","","","html-keyboard-response","18","117565","0.0-2.0-2.0-0.7","558ffe16fdf99b3f7aada34d","B2","batch2","spm_show_trial_num","null","<p class=block-text>Trial 8 out of 60</p>","null","","","","","","","","","","","","","","","","","","","","","","","","","",""
"","","","","","image-button-response","19","125025","0.0-2.0-2.0-1.7","558ffe16fdf99b3f7aada34d","B2","batch2","spm_respsonse","7446.399999999907","img/question_1_8.jpeg","1","mat_08","2","1","1","7446.399999999907","","","","","","","","","","","","","","","","","","","","",""
"","","","","","html-keyboard-response","20","126086","0.0-2.0-2.0-0.8","558ffe16fdf99b3f7aada34d","B2","batch2","spm_show_trial_num","null","<p class=block-text>Trial 9 out of 60</p>","null","","","","","","","","","","","","","","","","","","","","","","","","","",""
"","","","","","image-button-response","21","129820","0.0-2.0-2.0-1.8","558ffe16fdf99b3f7aada34d","B2","batch2","spm_respsonse","3718.600000000093","img/question_1_9.jpeg","0","mat_09","1","1","1","3718.600000000093","","","","","","","","","","","","","","","","","","","","",""
"","","","","","html-keyboard-response","22","130885","0.0-2.0-2.0-0.9","558ffe16fdf99b3f7aada34d","B2","batch2","spm_show_trial_num","null","<p class=block-text>Trial 10 out of 60</p>","null","","","","","","","","","","","","","","","","","","","","","","","","","",""
"","","","","","image-button-response","23","137940","0.0-2.0-2.0-1.9","558ffe16fdf99b3f7aada34d","B2","batch2","spm_respsonse","7044.79999999993","img/question_1_10.jpeg","2","mat_10","3","1","1","7044.79999999993","","","","","","","","","","","","","","","","","","","","",""
"","","","","","html-keyboard-response","24","139005","0.0-2.0-2.0-0.10","558ffe16fdf99b3f7aada34d","B2","batch2","spm_show_trial_num","null","<p class=block-text>Trial 11 out of 60</p>","null","","","","","","","","","","","","","","","","","","","","","","","","","",""
"","","","","","image-button-response","25","154725","0.0-2.0-2.0-1.10","558ffe16fdf99b3f7aada34d","B2","batch2","spm_respsonse","15711.400000000023","img/question_1_11.jpeg","3","mat_11","4","1","1","15711.400000000023","","","","","","","","","","","","","","","","","","","","",""
"","","","","","html-keyboard-response","26","155790","0.0-2.0-2.0-0.11","558ffe16fdf99b3f7aada34d","B2","batch2","spm_show_trial_num","null","<p class=block-text>Trial 12 out of 60</p>","null","","","","","","","","","","","","","","","","","","","","","","","","","",""
"","","","","","image-button-response","27","174454","0.0-2.0-2.0-1.11","558ffe16fdf99b3f7aada34d","B2","batch2","spm_respsonse","18650.400000000023","img/question_1_12.jpeg","5","mat_12","5","0","0","18650.400000000023","","","","","","","","","","","","","","","","","","","","",""
"","","","","","html-keyboard-response","28","175517","0.0-2.0-2.0-0.12","558ffe16fdf99b3f7aada34d","B2","batch2","spm_show_trial_num","null","<p class=block-text>Trial 13 out of 60</p>","null","","","","","","","","","","","","","","","","","","","","","","","","","",""
"","","","","","image-button-response","29","179546","0.0-2.0-2.0-1.12","558ffe16fdf99b3f7aada34d","B2","batch2","spm_respsonse","4013.6999999999534","img/question_2_1.jpeg","1","mat_13","2","1","1","4013.6999999999534","","","","","","","","","","","","","","","","","","","","",""
"","","","","","html-keyboard-response","30","180614","0.0-2.0-2.0-0.13","558ffe16fdf99b3f7aada34d","B2","batch2","spm_show_trial_num","null","<p class=block-text>Trial 14 out of 60</p>","null","","","","","","","","","","","","","","","","","","","","","","","","","",""
"","","","","","image-button-response","31","189519","0.0-2.0-2.0-1.13","558ffe16fdf99b3f7aada34d","B2","batch2","spm_respsonse","8892","img/question_2_2.jpeg","5","mat_14","6","1","1","8892","","","","","","","","","","","","","","","","","","","","",""
"","","","","","html-keyboard-response","32","190581","0.0-2.0-2.0-0.14","558ffe16fdf99b3f7aada34d","B2","batch2","spm_show_trial_num","null","<p class=block-text>Trial 15 out of 60</p>","null","","","","","","","","","","","","","","","","","","","","","","","","","",""
"","","","","","image-button-response","33","194547","0.0-2.0-2.0-1.14","558ffe16fdf99b3f7aada34d","B2","batch2","spm_respsonse","3944.5","img/question_2_3.jpeg","0","mat_15","1","1","1","3944.5","","","","","","","","","","","","","","","","","","","","",""
"","","","","","html-keyboard-response","34","195614","0.0-2.0-2.0-0.15","558ffe16fdf99b3f7aada34d","B2","batch2","spm_show_trial_num","null","<p class=block-text>Trial 16 out of 60</p>","null","","","","","","","","","","","","","","","","","","","","","","","","","",""
"","","","","","image-button-response","35","199443","0.0-2.0-2.0-1.15","558ffe16fdf99b3f7aada34d","B2","batch2","spm_respsonse","3815.3000000000466","img/question_2_4.jpeg","1","mat_16","2","1","1","3815.3000000000466","","","","","","","","","","","","","","","","","","","","",""
"","","","","","html-keyboard-response","36","200509","0.0-2.0-2.0-0.16","558ffe16fdf99b3f7aada34d","B2","batch2","spm_show_trial_num","null","<p class=block-text>Trial 17 out of 60</p>","null","","","","","","","","","","","","","","","","","","","","","","","","","",""
"","","","","","image-button-response","37","205549","0.0-2.0-2.0-1.16","558ffe16fdf99b3f7aada34d","B2","batch2","spm_respsonse","5034.5","img/question_2_5.jpeg","0","mat_17","1","1","1","5034.5","","","","","","","","","","","","","","","","","","","","",""
"","","","","","html-keyboard-response","38","206624","0.0-2.0-2.0-0.17","558ffe16fdf99b3f7aada34d","B2","batch2","spm_show_trial_num","null","<p class=block-text>Trial 18 out of 60</p>","null","","","","","","","","","","","","","","","","","","","","","","","","","",""
"","","","","","image-button-response","39","211956","0.0-2.0-2.0-1.17","558ffe16fdf99b3f7aada34d","B2","batch2","spm_respsonse","5318.400000000023","img/question_2_6.jpeg","2","mat_18","3","1","1","5318.400000000023","","","","","","","","","","","","","","","","","","","","",""
"","","","","","html-keyboard-response","40","213022","0.0-2.0-2.0-0.18","558ffe16fdf99b3f7aada34d","B2","batch2","spm_show_trial_num","null","<p class=block-text>Trial 19 out of 60</p>","null","","","","","","","","","","","","","","","","","","","","","","","","","",""
"","","","","","image-button-response","41","217846","0.0-2.0-2.0-1.18","558ffe16fdf99b3f7aada34d","B2","batch2","spm_respsonse","4808.800000000047","img/question_2_7.jpeg","4","mat_19","5","1","1","4808.800000000047","","","","","","","","","","","","","","","","","","","","",""
"","","","","","html-keyboard-response","42","218910","0.0-2.0-2.0-0.19","558ffe16fdf99b3f7aada34d","B2","batch2","spm_show_trial_num","null","<p class=block-text>Trial 20 out of 60</p>","null","","","","","","","","","","","","","","","","","","","","","","","","","",""
"","","","","","image-button-response","43","225715","0.0-2.0-2.0-1.19","558ffe16fdf99b3f7aada34d","B2","batch2","spm_respsonse","6789.300000000047","img/question_2_8.jpeg","5","mat_20","6","1","1","6789.300000000047","","","","","","","","","","","","","","","","","","","","",""
"","","","","","html-keyboard-response","44","226782","0.0-2.0-2.0-0.20","558ffe16fdf99b3f7aada34d","B2","batch2","spm_show_trial_num","null","<p class=block-text>Trial 21 out of 60</p>","null","","","","","","","","","","","","","","","","","","","","","","","","","",""
"","","","","","image-button-response","45","230603","0.0-2.0-2.0-1.20","558ffe16fdf99b3f7aada34d","B2","batch2","spm_respsonse","3807.0999999999767","img/question_2_9.jpeg","3","mat_21","4","1","1","3807.0999999999767","","","","","","","","","","","","","","","","","","","","",""
"","","","","","html-keyboard-response","46","231669","0.0-2.0-2.0-0.21","558ffe16fdf99b3f7aada34d","B2","batch2","spm_show_trial_num","null","<p class=block-text>Trial 22 out of 60</p>","null","","","","","","","","","","","","","","","","","","","","","","","","","",""
"","","","","","image-button-response","47","237447","0.0-2.0-2.0-1.21","558ffe16fdf99b3f7aada34d","B2","batch2","spm_respsonse","5768.5","img/question_2_10.jpeg","2","mat_22","3","1","1","5768.5","","","","","","","","","","","","","","","","","","","","",""
"","","","","","html-keyboard-response","48","238509","0.0-2.0-2.0-0.22","558ffe16fdf99b3f7aada34d","B2","batch2","spm_show_trial_num","null","<p class=block-text>Trial 23 out of 60</p>","null","","","","","","","","","","","","","","","","","","","","","","","","","",""
"","","","","","image-button-response","49","243286","0.0-2.0-2.0-1.22","558ffe16fdf99b3f7aada34d","B2","batch2","spm_respsonse","4771.199999999953","img/question_2_11.jpeg","3","mat_23","4","1","1","4771.199999999953","","","","","","","","","","","","","","","","","","","","",""
"","","","","","html-keyboard-response","50","244350","0.0-2.0-2.0-0.23","558ffe16fdf99b3f7aada34d","B2","batch2","spm_show_trial_num","null","<p class=block-text>Trial 24 out of 60</p>","null","","","","","","","","","","","","","","","","","","","","","","","","","",""
"","","","","","image-button-response","51","253798","0.0-2.0-2.0-1.23","558ffe16fdf99b3f7aada34d","B2","batch2","spm_respsonse","9434.699999999953","img/question_2_12.jpeg","4","mat_24","5","1","1","9434.699999999953","","","","","","","","","","","","","","","","","","","","",""
"","","","","","html-button-response","52","257704","0.0-2.0-3.0","558ffe16fdf99b3f7aada34d","B2","batch2","attention_check","3635.70000000007","<p class = block-text>Attention check: Please choose 1<br></p>","0","","","true","","","","","","","","","","","","","","","","","","","","","","",""
"","","","","","html-keyboard-response","53","258517","0.0-2.0-4.0-0.0","558ffe16fdf99b3f7aada34d","B2","batch2","spm_show_trial_num","null","<p class=block-text>Trial 25 out of 60</p>","null","","","","","","","","","","","","","","","","","","","","","","","","","",""
"","","","","","image-button-response","54","265948","0.0-2.0-4.0-1.0","558ffe16fdf99b3f7aada34d","B2","batch2","spm_respsonse","7417.5","img/question_3_1.jpeg","7","mat_25","8","1","1","7417.5","","","","","","","","","","","","","","","","","","","","",""
"","","","","","html-keyboard-response","55","267013","0.0-2.0-4.0-0.1","558ffe16fdf99b3f7aada34d","B2","batch2","spm_show_trial_num","null","<p class=block-text>Trial 26 out of 60</p>","null","","","","","","","","","","","","","","","","","","","","","","","","","",""
"","","","","","image-button-response","56","274885","0.0-2.0-4.0-1.1","558ffe16fdf99b3f7aada34d","B2","batch2","spm_respsonse","7864.300000000047","img/question_3_2.jpeg","1","mat_26","2","1","1","7864.300000000047","","","","","","","","","","","","","","","","","","","","",""
"","","","","","html-keyboard-response","57","275950","0.0-2.0-4.0-0.2","558ffe16fdf99b3f7aada34d","B2","batch2","spm_show_trial_num","null","<p class=block-text>Trial 27 out of 60</p>","null","","","","","","","","","","","","","","","","","","","","","","","","","",""
"","","","","","image-button-response","58","284654","0.0-2.0-4.0-1.2","558ffe16fdf99b3f7aada34d","B2","batch2","spm_respsonse","8691.400000000023","img/question_3_3.jpeg","2","mat_27","3","1","1","8691.400000000023","","","","","","","","","","","","","","","","","","","","",""
"","","","","","html-keyboard-response","59","285717","0.0-2.0-4.0-0.3","558ffe16fdf99b3f7aada34d","B2","batch2","spm_show_trial_num","null","<p class=block-text>Trial 28 out of 60</p>","null","","","","","","","","","","","","","","","","","","","","","","","","","",""
"","","","","","image-button-response","60","303930","0.0-2.0-4.0-1.3","558ffe16fdf99b3f7aada34d","B2","batch2","spm_respsonse","18202.29999999993","img/question_3_4.jpeg","7","mat_28","8","1","1","18202.29999999993","","","","","","","","","","","","","","","","","","","","",""
"","","","","","html-keyboard-response","61","304998","0.0-2.0-4.0-0.4","558ffe16fdf99b3f7aada34d","B2","batch2","spm_show_trial_num","null","<p class=block-text>Trial 29 out of 60</p>","null","","","","","","","","","","","","","","","","","","","","","","","","","",""
"","","","","","image-button-response","62","314434","0.0-2.0-4.0-1.4","558ffe16fdf99b3f7aada34d","B2","batch2","spm_respsonse","9421.5","img/question_3_5.jpeg","6","mat_29","7","1","1","9421.5","","","","","","","","","","","","","","","","","","","","",""
"","","","","","html-keyboard-response","63","315502","0.0-2.0-4.0-0.5","558ffe16fdf99b3f7aada34d","B2","batch2","spm_show_trial_num","null","<p class=block-text>Trial 30 out of 60</p>","null","","","","","","","","","","","","","","","","","","","","","","","","","",""
"","","","","","image-button-response","64","324778","0.0-2.0-4.0-1.5","558ffe16fdf99b3f7aada34d","B2","batch2","spm_respsonse","9256.900000000023","img/question_3_6.jpeg","3","mat_30","4","1","1","9256.900000000023","","","","","","","","","","","","","","","","","","","","",""
"","","","","","html-keyboard-response","65","325838","0.0-2.0-4.0-0.6","558ffe16fdf99b3f7aada34d","B2","batch2","spm_show_trial_num","null","<p class=block-text>Trial 31 out of 60</p>","null","","","","","","","","","","","","","","","","","","","","","","","","","",""
"","","","","","image-button-response","66","333907","0.0-2.0-4.0-1.6","558ffe16fdf99b3f7aada34d","B2","batch2","spm_respsonse","8050.099999999977","img/question_3_7.jpeg","4","mat_31","5","1","1","8050.099999999977","","","","","","","","","","","","","","","","","","","","",""
"","","","","","html-keyboard-response","67","334974","0.0-2.0-4.0-0.7","558ffe16fdf99b3f7aada34d","B2","batch2","spm_show_trial_num","null","<p class=block-text>Trial 32 out of 60</p>","null","","","","","","","","","","","","","","","","","","","","","","","","","",""
"","","","","","image-button-response","68","346396","0.0-2.0-4.0-1.7","558ffe16fdf99b3f7aada34d","B2","batch2","spm_respsonse","11407","img/question_3_8.jpeg","0","mat_32","1","1","1","11407","","","","","","","","","","","","","","","","","","","","",""
"","","","","","html-keyboard-response","69","347463","0.0-2.0-4.0-0.8","558ffe16fdf99b3f7aada34d","B2","batch2","spm_show_trial_num","null","<p class=block-text>Trial 33 out of 60</p>","null","","","","","","","","","","","","","","","","","","","","","","","","","",""
"","","","","","image-button-response","70","355162","0.0-2.0-4.0-1.8","558ffe16fdf99b3f7aada34d","B2","batch2","spm_respsonse","7680.599999999977","img/question_3_9.jpeg","6","mat_33","7","1","1","7680.599999999977","","","","","","","","","","","","","","","","","","","","",""
"","","","","","html-keyboard-response","71","356229","0.0-2.0-4.0-0.9","558ffe16fdf99b3f7aada34d","B2","batch2","spm_show_trial_num","null","<p class=block-text>Trial 34 out of 60</p>","null","","","","","","","","","","","","","","","","","","","","","","","","","",""
"","","","","","image-button-response","72","366701","0.0-2.0-4.0-1.9","558ffe16fdf99b3f7aada34d","B2","batch2","spm_respsonse","10463","img/question_3_10.jpeg","5","mat_34","6","1","1","10463","","","","","","","","","","","","","","","","","","","","",""
"","","","","","html-keyboard-response","73","367765","0.0-2.0-4.0-0.10","558ffe16fdf99b3f7aada34d","B2","batch2","spm_show_trial_num","null","<p class=block-text>Trial 35 out of 60</p>","null","","","","","","","","","","","","","","","","","","","","","","","","","",""
"","","","","","image-button-response","74","383158","0.0-2.0-4.0-1.10","558ffe16fdf99b3f7aada34d","B2","batch2","spm_respsonse","15385.099999999977","img/question_3_11.jpeg","0","mat_35","1","1","1","15385.099999999977","","","","","","","","","","","","","","","","","","","","",""
"","","","","","html-keyboard-response","75","384221","0.0-2.0-4.0-0.11","558ffe16fdf99b3f7aada34d","B2","batch2","spm_show_trial_num","null","<p class=block-text>Trial 36 out of 60</p>","null","","","","","","","","","","","","","","","","","","","","","","","","","",""
"","","","","","image-button-response","76","404747","0.0-2.0-4.0-1.11","558ffe16fdf99b3f7aada34d","B2","batch2","spm_respsonse","20512.79999999993","img/question_3_12.jpeg","0","mat_36","2","0","0","20512.79999999993","","","","","","","","","","","","","","","","","","","","",""
"","","","","","html-keyboard-response","77","405814","0.0-2.0-4.0-0.12","558ffe16fdf99b3f7aada34d","B2","batch2","spm_show_trial_num","null","<p class=block-text>Trial 37 out of 60</p>","null","","","","","","","","","","","","","","","","","","","","","","","","","",""
"","","","","","image-button-response","78","410272","0.0-2.0-4.0-1.12","558ffe16fdf99b3f7aada34d","B2","batch2","spm_respsonse","4443.300000000047","img/question_4_1.jpeg","2","mat_37","3","1","1","4443.300000000047","","","","","","","","","","","","","","","","","","","","",""
"","","","","","html-keyboard-response","79","411333","0.0-2.0-4.0-0.13","558ffe16fdf99b3f7aada34d","B2","batch2","spm_show_trial_num","null","<p class=block-text>Trial 38 out of 60</p>","null","","","","","","","","","","","","","","","","","","","","","","","","","",""
"","","","","","image-button-response","80","416000","0.0-2.0-4.0-1.13","558ffe16fdf99b3f7aada34d","B2","batch2","spm_respsonse","4653.5","img/question_4_2.jpeg","3","mat_38","4","1","1","4653.5","","","","","","","","","","","","","","","","","","","","",""
"","","","","","html-keyboard-response","81","417061","0.0-2.0-4.0-0.14","558ffe16fdf99b3f7aada34d","B2","batch2","spm_show_trial_num","null","<p class=block-text>Trial 39 out of 60</p>","null","","","","","","","","","","","","","","","","","","","","","","","","","",""
"","","","","","image-button-response","82","421778","0.0-2.0-4.0-1.14","558ffe16fdf99b3f7aada34d","B2","batch2","spm_respsonse","4704","img/question_4_3.jpeg","2","mat_39","3","1","1","4704","","","","","","","","","","","","","","","","","","","","",""
"","","","","","html-keyboard-response","83","422838","0.0-2.0-4.0-0.15","558ffe16fdf99b3f7aada34d","B2","batch2","spm_show_trial_num","null","<p class=block-text>Trial 40 out of 60</p>","null","","","","","","","","","","","","","","","","","","","","","","","","","",""
"","","","","","image-button-response","84","434188","0.0-2.0-4.0-1.15","558ffe16fdf99b3f7aada34d","B2","batch2","spm_respsonse","11331","img/question_4_4.jpeg","6","mat_40","7","1","1","11331","","","","","","","","","","","","","","","","","","","","",""
"","","","","","html-keyboard-response","85","435253","0.0-2.0-4.0-0.16","558ffe16fdf99b3f7aada34d","B2","batch2","spm_show_trial_num","null","<p class=block-text>Trial 41 out of 60</p>","null","","","","","","","","","","","","","","","","","","","","","","","","","",""
"","","","","","image-button-response","86","446027","0.0-2.0-4.0-1.16","558ffe16fdf99b3f7aada34d","B2","batch2","spm_respsonse","10761.800000000047","img/question_4_5.jpeg","7","mat_41","8","1","1","10761.800000000047","","","","","","","","","","","","","","","","","","","","",""
"","","","","","html-keyboard-response","87","447093","0.0-2.0-4.0-0.17","558ffe16fdf99b3f7aada34d","B2","batch2","spm_show_trial_num","null","<p class=block-text>Trial 42 out of 60</p>","null","","","","","","","","","","","","","","","","","","","","","","","","","",""
"","","","","","image-button-response","88","458107","0.0-2.0-4.0-1.17","558ffe16fdf99b3f7aada34d","B2","batch2","spm_respsonse","11006.5","img/question_4_6.jpeg","5","mat_42","6","1","1","11006.5","","","","","","","","","","","","","","","","","","","","",""
"","","","","","html-keyboard-response","89","459174","0.0-2.0-4.0-0.18","558ffe16fdf99b3f7aada34d","B2","batch2","spm_show_trial_num","null","<p class=block-text>Trial 43 out of 60</p>","null","","","","","","","","","","","","","","","","","","","","","","","","","",""
"","","","","","image-button-response","90","468642","0.0-2.0-4.0-1.18","558ffe16fdf99b3f7aada34d","B2","batch2","spm_respsonse","9444","img/question_4_7.jpeg","4","mat_43","5","1","1","9444","","","","","","","","","","","","","","","","","","","","",""
"","","","","","html-keyboard-response","91","469709","0.0-2.0-4.0-0.19","558ffe16fdf99b3f7aada34d","B2","batch2","spm_show_trial_num","null","<p class=block-text>Trial 44 out of 60</p>","null","","","","","","","","","","","","","","","","","","","","","","","","","",""
"","","","","","image-button-response","92","477904","0.0-2.0-4.0-1.19","558ffe16fdf99b3f7aada34d","B2","batch2","spm_respsonse","8185.29999999993","img/question_4_8.jpeg","3","mat_44","4","1","1","8185.29999999993","","","","","","","","","","","","","","","","","","","","",""
"","","","","","html-keyboard-response","93","478973","0.0-2.0-4.0-0.20","558ffe16fdf99b3f7aada34d","B2","batch2","spm_show_trial_num","null","<p class=block-text>Trial 45 out of 60</p>","null","","","","","","","","","","","","","","","","","","","","","","","","","",""
"","","","","","image-button-response","94","488696","0.0-2.0-4.0-1.20","558ffe16fdf99b3f7aada34d","B2","batch2","spm_respsonse","9713.199999999953","img/question_4_9.jpeg","0","mat_45","1","1","1","9713.199999999953","","","","","","","","","","","","","","","","","","","","",""
"","","","","","html-keyboard-response","95","489766","0.0-2.0-4.0-0.21","558ffe16fdf99b3f7aada34d","B2","batch2","spm_show_trial_num","null","<p class=block-text>Trial 46 out of 60</p>","null","","","","","","","","","","","","","","","","","","","","","","","","","",""
"","","","","","image-button-response","96","510237","0.0-2.0-4.0-1.21","558ffe16fdf99b3f7aada34d","B2","batch2","spm_respsonse","20458.699999999953","img/question_4_10.jpeg","1","mat_46","2","1","1","20458.699999999953","","","","","","","","","","","","","","","","","","","","",""
"","","","","","html-keyboard-response","97","511301","0.0-2.0-4.0-0.22","558ffe16fdf99b3f7aada34d","B2","batch2","spm_show_trial_num","null","<p class=block-text>Trial 47 out of 60</p>","null","","","","","","","","","","","","","","","","","","","","","","","","","",""
"","","","","","image-button-response","98","552065","0.0-2.0-4.0-1.22","558ffe16fdf99b3f7aada34d","B2","batch2","spm_respsonse","40754.20000000007","img/question_4_11.jpeg","5","mat_47","5","0","0","40754.20000000007","","","","","","","","","","","","","","","","","","","","",""
"","","","","","html-keyboard-response","99","553126","0.0-2.0-4.0-0.23","558ffe16fdf99b3f7aada34d","B2","batch2","spm_show_trial_num","null","<p class=block-text>Trial 48 out of 60</p>","null","","","","","","","","","","","","","","","","","","","","","","","","","",""
"","","","","","image-button-response","100","568818","0.0-2.0-4.0-1.23","558ffe16fdf99b3f7aada34d","B2","batch2","spm_respsonse","15674","img/question_4_12.jpeg","5","mat_48","6","1","1","15674","","","","","","","","","","","","","","","","","","","","",""
"","","","","","html-keyboard-response","101","569885","0.0-2.0-4.0-0.24","558ffe16fdf99b3f7aada34d","B2","batch2","spm_show_trial_num","null","<p class=block-text>Trial 49 out of 60</p>","null","","","","","","","","","","","","","","","","","","","","","","","","","",""
"","","","","","image-button-response","102","581170","0.0-2.0-4.0-1.24","558ffe16fdf99b3f7aada34d","B2","batch2","spm_respsonse","11269.5","img/question_5_1.jpeg","6","mat_49","7","1","1","11269.5","","","","","","","","","","","","","","","","","","","","",""
"","","","","","html-keyboard-response","103","582238","0.0-2.0-4.0-0.25","558ffe16fdf99b3f7aada34d","B2","batch2","spm_show_trial_num","null","<p class=block-text>Trial 50 out of 60</p>","null","","","","","","","","","","","","","","","","","","","","","","","","","",""
"","","","","","image-button-response","104","594075","0.0-2.0-4.0-1.25","558ffe16fdf99b3f7aada34d","B2","batch2","spm_respsonse","11823.699999999953","img/question_5_2.jpeg","5","mat_50","6","1","1","11823.699999999953","","","","","","","","","","","","","","","","","","","","",""
"","","","","","html-keyboard-response","105","595150","0.0-2.0-4.0-0.26","558ffe16fdf99b3f7aada34d","B2","batch2","spm_show_trial_num","null","<p class=block-text>Trial 51 out of 60</p>","null","","","","","","","","","","","","","","","","","","","","","","","","","",""
"","","","","","image-button-response","106","608011","0.0-2.0-4.0-1.26","558ffe16fdf99b3f7aada34d","B2","batch2","spm_respsonse","12846.59999999986","img/question_5_3.jpeg","4","mat_51","8","0","0","12846.59999999986","","","","","","","","","","","","","","","","","","","","",""
"","","","","","html-keyboard-response","107","609077","0.0-2.0-4.0-0.27","558ffe16fdf99b3f7aada34d","B2","batch2","spm_show_trial_num","null","<p class=block-text>Trial 52 out of 60</p>","null","","","","","","","","","","","","","","","","","","","","","","","","","",""
"","","","","","image-button-response","108","618564","0.0-2.0-4.0-1.27","558ffe16fdf99b3f7aada34d","B2","batch2","spm_respsonse","9476.299999999814","img/question_5_4.jpeg","1","mat_52","2","1","1","9476.299999999814","","","","","","","","","","","","","","","","","","","","",""
"","","","","","html-keyboard-response","109","619629","0.0-2.0-4.0-0.28","558ffe16fdf99b3f7aada34d","B2","batch2","spm_show_trial_num","null","<p class=block-text>Trial 53 out of 60</p>","null","","","","","","","","","","","","","","","","","","","","","","","","","",""
"","","","","","image-button-response","110","644805","0.0-2.0-4.0-1.28","558ffe16fdf99b3f7aada34d","B2","batch2","spm_respsonse","25164.399999999907","img/question_5_5.jpeg","0","mat_53","1","1","1","25164.399999999907","","","","","","","","","","","","","","","","","","","","",""
"","","","","","html-keyboard-response","111","645870","0.0-2.0-4.0-0.29","558ffe16fdf99b3f7aada34d","B2","batch2","spm_show_trial_num","null","<p class=block-text>Trial 54 out of 60</p>","null","","","","","","","","","","","","","","","","","","","","","","","","","",""
"","","","","","image-button-response","112","657551","0.0-2.0-4.0-1.29","558ffe16fdf99b3f7aada34d","B2","batch2","spm_respsonse","11663.699999999953","img/question_5_6.jpeg","4","mat_54","5","1","1","11663.699999999953","","","","","","","","","","","","","","","","","","","","",""
"","","","","","html-keyboard-response","113","658613","0.0-2.0-4.0-0.30","558ffe16fdf99b3f7aada34d","B2","batch2","spm_show_trial_num","null","<p class=block-text>Trial 55 out of 60</p>","null","","","","","","","","","","","","","","","","","","","","","","","","","",""
"","","","","","image-button-response","114","676757","0.0-2.0-4.0-1.30","558ffe16fdf99b3f7aada34d","B2","batch2","spm_respsonse","18133.300000000047","img/question_5_7.jpeg","5","mat_55","1","0","0","18133.300000000047","","","","","","","","","","","","","","","","","","","","",""
"","","","","","html-keyboard-response","115","677822","0.0-2.0-4.0-0.31","558ffe16fdf99b3f7aada34d","B2","batch2","spm_show_trial_num","null","<p class=block-text>Trial 56 out of 60</p>","null","","","","","","","","","","","","","","","","","","","","","","","","","",""
"","","","","","image-button-response","116","690919","0.0-2.0-4.0-1.31","558ffe16fdf99b3f7aada34d","B2","batch2","spm_respsonse","13082.90000000014","img/question_5_8.jpeg","5","mat_56","6","1","1","13082.90000000014","","","","","","","","","","","","","","","","","","","","",""
"","","","","","html-keyboard-response","117","691982","0.0-2.0-4.0-0.32","558ffe16fdf99b3f7aada34d","B2","batch2","spm_show_trial_num","null","<p class=block-text>Trial 57 out of 60</p>","null","","","","","","","","","","","","","","","","","","","","","","","","","",""
"","","","","","image-button-response","118","698845","0.0-2.0-4.0-1.32","558ffe16fdf99b3f7aada34d","B2","batch2","spm_respsonse","6846.800000000047","img/question_5_9.jpeg","4","mat_57","3","0","0","6846.800000000047","","","","","","","","","","","","","","","","","","","","",""
"","","","","","html-keyboard-response","119","699909","0.0-2.0-4.0-0.33","558ffe16fdf99b3f7aada34d","B2","batch2","spm_show_trial_num","null","<p class=block-text>Trial 58 out of 60</p>","null","","","","","","","","","","","","","","","","","","","","","","","","","",""
"","","","","","image-button-response","120","720797","0.0-2.0-4.0-1.33","558ffe16fdf99b3f7aada34d","B2","batch2","spm_respsonse","20876.5","img/question_5_10.jpeg","1","mat_58","2","1","1","20876.5","","","","","","","","","","","","","","","","","","","","",""
"","","","","","html-keyboard-response","121","721861","0.0-2.0-4.0-0.34","558ffe16fdf99b3f7aada34d","B2","batch2","spm_show_trial_num","null","<p class=block-text>Trial 59 out of 60</p>","null","","","","","","","","","","","","","","","","","","","","","","","","","",""
"","","","","","image-button-response","122","739055","0.0-2.0-4.0-1.34","558ffe16fdf99b3f7aada34d","B2","batch2","spm_respsonse","17180.699999999953","img/question_5_11.jpeg","4","mat_59","4","0","0","17180.699999999953","","","","","","","","","","","","","","","","","","","","",""
"","","","","","html-keyboard-response","123","740117","0.0-2.0-4.0-0.35","558ffe16fdf99b3f7aada34d","B2","batch2","spm_show_trial_num","null","<p class=block-text>Trial 60 out of 60</p>","null","","","","","","","","","","","","","","","","","","","","","","","","","",""
"","","","","","image-button-response","124","748205","0.0-2.0-4.0-1.35","558ffe16fdf99b3f7aada34d","B2","batch2","spm_respsonse","8076.90000000014","img/question_5_12.jpeg","4","mat_60","5","1","1","8076.90000000014","","","","","","","","","","","","","","","","","","","","",""
"","","","","","html-button-response","125","752222","0.0-2.0-5.0","558ffe16fdf99b3f7aada34d","B2","batch2","spm_goodbye","3757.600000000093","<p class= block-text>This concludes the Standard Progressive Matrix game. Thank you for your responses!<br> When you are ready, click the button continue</p>","0","","","","","","","","","","","","","","","","","","","","","","","","","",""
"true","","","","","fullscreen","126","756981","0.0-3.0-0.0","558ffe16fdf99b3f7aada34d","B2","batch2","","","","","","","","","","","","","","","","","","","","","","","","","","","","","",""
"","","","","","instructions","127","824940","0.0-3.0-1.0-0.0-0.0","558ffe16fdf99b3f7aada34d","B2","batch2","tol-instructions","67955.80000000005","","","","","","","","[{""page_index"":0,""viewing_time"":14320.800000000047},{""page_index"":1,""viewing_time"":6883.300000000047},{""page_index"":2,""viewing_time"":9568.399999999907},{""page_index"":3,""viewing_time"":9478.200000000186},{""page_index"":4,""viewing_time"":7320.299999999814},{""page_index"":5,""viewing_time"":13347.90000000014},{""page_index"":6,""viewing_time"":7035.5}]","","","","","","","","","","","","","","","","","","","",""
"","","","","","html-button-response","128","827331","0.0-3.0-1.0-1.0-0.0","558ffe16fdf99b3f7aada34d","B2","batch2","tol_enter_quiz","2386.7000000001863","<p class=block-text> Let's answer a few questions <br>","0","","","","","","","","","","","","","","","","","","","","","","","","","",""
"","","","","","html-button-response","129","832489","0.0-3.0-1.0-1.0-1.0","558ffe16fdf99b3f7aada34d","B2","batch2","tol_quiz","5153.09999999986","<p class = block-text>True or False: You can only move the ball on top of a peg. <br></p>","0","","","true","","","","","","","","","","","","","","","","","","","","","","",""
"","","","","","html-button-response","130","833765","0.0-3.0-1.0-1.0-2.0","558ffe16fdf99b3f7aada34d","B2","batch2","tol_quiz_feedback","1268.6000000000931","<p class = block-text>Correct! You can only move the ball on top of a peg.</p>","0","","","","","","","","","","","","","","","","","","","","","","","","","",""
"","","","","","html-button-response","131","841721","0.0-3.0-1.0-1.0-3.0","558ffe16fdf99b3f7aada34d","B2","batch2","tol_quiz","7950.09999999986","<p class = block-text>True or False: You should try to match your board with the target board with fewest moves possible. <br></p>","0","","","true","","","","","","","","","","","","","","","","","","","","","","",""
"","","","","","html-button-response","132","842644","0.0-3.0-1.0-1.0-4.0","558ffe16fdf99b3f7aada34d","B2","batch2","tol_quiz_feedback","918.1999999999534","<p class = block-text>Correct! </p>","0","","","","","","","","","","","","","","","","","","","","","","","","","",""
"","","","","","html-button-response","133","847448","0.0-3.0-2.0","558ffe16fdf99b3f7aada34d","B2","batch2","","4799.100000000093","<p class=block-text> Now that you've understood the game, let's practice a few easier examples before we start!<br> <br>","0","","","","","","","","","","","","","","","","","","","","","","","","","",""
"","","","","","single-stim-button","134","850133","0.0-3.0-3.0-0.0","558ffe16fdf99b3f7aada34d","B2","batch2","tol_practice","2674","","","","","","","","","tol_peg_2","2674","2674","0","[[1,2,0],[0,0],[0]]","1","[[1,2,0],[0,0],[3]]","practice","2674","","","","","","","","","","",""
"","","","","","single-stim-button","135","851249","0.0-3.0-3.0-1.0","558ffe16fdf99b3f7aada34d","B2","batch2","tol_practice","1104","","","","","","","","","tol_peg_3","1104","1104","0","[[1,2,0],[0,0],[3]]","1","[[1,2,0],[0,0],[3]]","practice","1104","","","","","","","","","","",""
"","","","","","poldrack-single-stim","136","852263","0.0-3.0-4.0","558ffe16fdf99b3f7aada34d","B2","batch2","tol_feedback","-1","","","","","true","","","","","1000","1000","500","","","","","","-1","none","true","","0","","","","","",""
"","","","","","single-stim-button","137","855963","0.0-3.0-5.0-0.0","558ffe16fdf99b3f7aada34d","B2","batch2","tol_practice","3695","","","","","","","","","tol_peg_1","3695","3695","0","[[1,0,0],[3,0],[0]]","2","[[0,0,0],[3,1],[2]]","practice","3695","","","","","","","","","","",""
"","","","","","single-stim-button","138","857301","0.0-3.0-5.0-1.0","558ffe16fdf99b3f7aada34d","B2","batch2","tol_practice","1332","","","","","","","","","tol_peg_3","1332","1332","0","[[1,0,0],[3,0],[2]]","2","[[0,0,0],[3,1],[2]]","practice","1332","","","","","","","","","","",""
"","","","","","single-stim-button","139","857990","0.0-3.0-5.1-0.1","558ffe16fdf99b3f7aada34d","B2","batch2","tol_practice","685","","","","","","","","","tol_peg_1","685","685","0","[[0,0,0],[3,0],[2]]","3","[[0,0,0],[3,1],[2]]","practice","685","","","","","","","","","","",""
"","","","","","single-stim-button","140","858472","0.0-3.0-5.1-1.1","558ffe16fdf99b3f7aada34d","B2","batch2","tol_practice","476","","","","","","","","","tol_peg_2","476","476","0","[[0,0,0],[3,1],[2]]","3","[[0,0,0],[3,1],[2]]","practice","476","","","","","","","","","","",""
"","","","","","poldrack-single-stim","141","859481","0.0-3.0-6.0","558ffe16fdf99b3f7aada34d","B2","batch2","tol_feedback","-1","","","","","true","","","","","1000","1000","500","","","","","","-1","none","true","","0","","","","","",""
"","","","","","single-stim-button","142","861231","0.0-3.0-7.0-0.0","558ffe16fdf99b3f7aada34d","B2","batch2","tol_practice","1745","","","","","","","","","tol_peg_2","1745","1745","0","[[1,2,0],[0,0],[0]]","4","[[1,0,0],[2,0],[3]]","practice","1745","","","","","","","","","","",""
"","","","","","single-stim-button","143","861670","0.0-3.0-7.0-1.0","558ffe16fdf99b3f7aada34d","B2","batch2","tol_practice","434","","","","","","","","","tol_peg_3","434","434","0","[[1,2,0],[0,0],[3]]","4","[[1,0,0],[2,0],[3]]","practice","434","","","","","","","","","","",""
"","","","","","single-stim-button","144","862235","0.0-3.0-7.1-0.1","558ffe16fdf99b3f7aada34d","B2","batch2","tol_practice","545","","","","","","","","","tol_peg_1","545","545","0","[[1,0,0],[0,0],[3]]","5","[[1,0,0],[2,0],[3]]","practice","545","","","","","","","","","","",""
"","","","","","single-stim-button","145","862653","0.0-3.0-7.1-1.1","558ffe16fdf99b3f7aada34d","B2","batch2","tol_practice","414","","","","","","","","","tol_peg_2","414","414","0","[[1,0,0],[2,0],[3]]","5","[[1,0,0],[2,0],[3]]","practice","414","","","","","","","","","","",""
"","","","","","poldrack-single-stim","146","863663","0.0-3.0-8.0","558ffe16fdf99b3f7aada34d","B2","batch2","tol_feedback","-1","","","","","true","","","","","1000","1000","500","","","","","","-1","none","true","","0","","","","","",""
"","","","","","html-button-response","147","871884","0.0-3.0-9.0","558ffe16fdf99b3f7aada34d","B2","batch2","tol_instruction","8217.5","<div class = centerbox><p class = center-block-text>Great job! You are done with practice trials<br>You are about to start official trials.<br> <br> Problem <strong>1</strong> out of 25 problems</p></div>","0","","","","","","","","","","","","","","","","","","","","","","","","","",""
"","","","","","single-stim-button","148","877750","0.0-3.0-10.0-0.0","558ffe16fdf99b3f7aada34d","B2","batch2","tol_tohand","4850","","","","","","","","","tol_peg_2","4850","4850","0","[[1,2,0],[0,0],[0]]","1","[[1,3,0],[2,0],[0]]","0","0","","","","","","3","","","","",""
"","","","","","single-stim-button","149","878212","0.0-3.0-10.0-1.0","558ffe16fdf99b3f7aada34d","B2","batch2","tol_toboard","456","","","","","","","","","tol_peg_3","456","456","0","[[1,2,0],[0,0],[3]]","1","[[1,3,0],[2,0],[0]]","0","0","","","","","","3","","","","",""
"","","","","","single-stim-button","150","878766","0.0-3.0-10.1-0.1","558ffe16fdf99b3f7aada34d","B2","batch2","tol_tohand","548","","","","","","","","","tol_peg_1","548","548","0","[[1,0,0],[0,0],[3]]","2","[[1,3,0],[2,0],[0]]","0","0","","","","","","3","","","","",""
"","","","","","single-stim-button","151","879130","0.0-3.0-10.1-1.1","558ffe16fdf99b3f7aada34d","B2","batch2","tol_toboard","357","","","","","","","","","tol_peg_2","357","357","0","[[1,0,0],[2,0],[3]]","2","[[1,3,0],[2,0],[0]]","0","0","","","","","","3","","","","",""
"","","","","","single-stim-button","152","879560","0.0-3.0-10.2-0.2","558ffe16fdf99b3f7aada34d","B2","batch2","tol_tohand","424","","","","","","","","","tol_peg_3","424","424","0","[[1,0,0],[2,0],[0]]","3","[[1,3,0],[2,0],[0]]","0","0","","","","","","3","","","","",""
"","","","","","single-stim-button","153","880045","0.0-3.0-10.2-1.2","558ffe16fdf99b3f7aada34d","B2","batch2","tol_toboard","480","","","","","","","","","tol_peg_1","480","480","0","[[1,3,0],[2,0],[0]]","3","[[1,3,0],[2,0],[0]]","0","0","","","","","","3","","","","",""
"","","","","","poldrack-single-stim","154","881057","0.0-3.0-11.0","558ffe16fdf99b3f7aada34d","B2","batch2","tol_feedback","-1","","","","","true","","","","","1000","1000","500","","","","","","-1","none","true","4850","5822","","","","","",""
"","","","","","html-button-response","155","882032","0.0-3.0-12.0","558ffe16fdf99b3f7aada34d","B2","batch2","tol_trial_num","967.6999999999534","<div class = centerbox><p class = center-block-text>problem <strong>2</strong> out of 25 problems</p></div>","0","","","","","","","","","","","","","","","","","","","","","","","","","",""
"","","","","","single-stim-button","156","884964","0.0-3.0-13.0-0.0","558ffe16fdf99b3f7aada34d","B2","batch2","tol_tohand","2923","","","","","","","","","tol_peg_1","2923","2923","0","[[1,0,0],[3,0],[0]]","1","[[2,1,3],[0,0],[0]]","1","0","","","","","","5","","","","",""
"","","","","","single-stim-button","157","885464","0.0-3.0-13.0-1.0","558ffe16fdf99b3f7aada34d","B2","batch2","tol_toboard","492","","","","","","","","","tol_peg_3","492","492","0","[[1,0,0],[3,0],[2]]","1","[[2,1,3],[0,0],[0]]","1","0","","","","","","5","","","","",""
"","","","","","single-stim-button","158","885845","0.0-3.0-13.1-0.1","558ffe16fdf99b3f7aada34d","B2","batch2","tol_tohand","376","","","","","","","","","tol_peg_2","376","376","0","[[1,0,0],[0,0],[2]]","2","[[2,1,3],[0,0],[0]]","1","0","","","","","","5","","","","",""
"","","","","","single-stim-button","159","886214","0.0-3.0-13.1-1.1","558ffe16fdf99b3f7aada34d","B2","batch2","tol_toboard","363","","","","","","","","","tol_peg_1","363","363","0","[[1,3,0],[0,0],[2]]","2","[[2,1,3],[0,0],[0]]","1","0","","","","","","5","","","","",""
"","","","","","single-stim-button","160","886628","0.0-3.0-13.2-0.2","558ffe16fdf99b3f7aada34d","B2","batch2","tol_tohand","408","","","","","","","","","tol_peg_3","408","408","0","[[1,3,0],[0,0],[0]]","3","[[2,1,3],[0,0],[0]]","1","0","","","","","","5","","","","",""
"","","","","","single-stim-button","161","887049","0.0-3.0-13.2-1.2","558ffe16fdf99b3f7aada34d","B2","batch2","tol_toboard","417","","","","","","","","","tol_peg_1","417","417","0","[[1,3,2],[0,0],[0]]","3","[[2,1,3],[0,0],[0]]","1","0","","","","","","5","","","","",""
"","","","","","single-stim-button","162","889067","0.0-3.0-13.3-0.3","558ffe16fdf99b3f7aada34d","B2","batch2","tol_tohand","2013","","","","","","","","","tol_peg_1","2013","2013","0","[[1,3,0],[0,0],[0]]","4","[[2,1,3],[0,0],[0]]","1","0","","","","","","5","","","","",""
"","","","","","single-stim-button","163","890137","0.0-3.0-13.3-1.3","558ffe16fdf99b3f7aada34d","B2","batch2","tol_toboard","1065","","","","","","","","","tol_peg_2","1065","1065","0","[[1,3,0],[2,0],[0]]","4","[[2,1,3],[0,0],[0]]","1","0","","","","","","5","","","","",""
"","","","","","single-stim-button","164","890599","0.0-3.0-13.4-0.4","558ffe16fdf99b3f7aada34d","B2","batch2","tol_tohand","454","","","","","","","","","tol_peg_1","454","454","0","[[1,0,0],[2,0],[0]]","5","[[2,1,3],[0,0],[0]]","1","0","","","","","","5","","","","",""
"","","","","","single-stim-button","165","892952","0.0-3.0-13.4-1.4","558ffe16fdf99b3f7aada34d","B2","batch2","tol_toboard","2346","","","","","","","","","tol_peg_2","2346","2346","0","[[1,0,0],[2,3],[0]]","5","[[2,1,3],[0,0],[0]]","1","0","","","","","","5","","","","",""
"","","","","","single-stim-button","166","893366","0.0-3.0-13.5-0.5","558ffe16fdf99b3f7aada34d","B2","batch2","tol_tohand","409","","","","","","","","","tol_peg_1","409","409","0","[[0,0,0],[2,3],[0]]","6","[[2,1,3],[0,0],[0]]","1","0","","","","","","5","","","","",""
"","","","","","single-stim-button","167","895064","0.0-3.0-13.5-1.5","558ffe16fdf99b3f7aada34d","B2","batch2","tol_toboard","1693","","","","","","","","","tol_peg_3","1693","1693","0","[[0,0,0],[2,3],[1]]","6","[[2,1,3],[0,0],[0]]","1","0","","","","","","5","","","","",""
"","","","","","single-stim-button","168","895512","0.0-3.0-13.6-0.6","558ffe16fdf99b3f7aada34d","B2","batch2","tol_tohand","443","","","","","","","","","tol_peg_2","443","443","0","[[0,0,0],[2,0],[1]]","7","[[2,1,3],[0,0],[0]]","1","0","","","","","","5","","","","",""
"","","","","","single-stim-button","169","896263","0.0-3.0-13.6-1.6","558ffe16fdf99b3f7aada34d","B2","batch2","tol_toboard","748","","","","","","","","","tol_peg_2","748","748","0","[[0,0,0],[2,3],[1]]","7","[[2,1,3],[0,0],[0]]","1","0","","","","","","5","","","","",""
"","","","","","single-stim-button","170","903010","0.0-3.0-13.7-0.7","558ffe16fdf99b3f7aada34d","B2","batch2","tol_tohand","6740","","","","","","","","","tol_peg_2","6740","6740","0","[[0,0,0],[2,0],[1]]","8","[[2,1,3],[0,0],[0]]","1","0","","","","","","5","","","","",""
"","","","","","single-stim-button","171","904408","0.0-3.0-13.7-1.7","558ffe16fdf99b3f7aada34d","B2","batch2","tol_toboard","1392","","","","","","","","","tol_peg_1","1392","1392","0","[[3,0,0],[2,0],[1]]","8","[[2,1,3],[0,0],[0]]","1","0","","","","","","5","","","","",""
"","","","","","single-stim-button","172","906275","0.0-3.0-13.8-0.8","558ffe16fdf99b3f7aada34d","B2","batch2","tol_tohand","1862","","","","","","","","","tol_peg_2","1862","1862","0","[[3,0,0],[0,0],[1]]","9","[[2,1,3],[0,0],[0]]","1","0","","","","","","5","","","","",""
"","","","","","single-stim-button","173","906833","0.0-3.0-13.8-1.8","558ffe16fdf99b3f7aada34d","B2","batch2","tol_toboard","553","","","","","","","","","tol_peg_1","553","553","0","[[3,2,0],[0,0],[1]]","9","[[2,1,3],[0,0],[0]]","1","0","","","","","","5","","","","",""
"","","","","","single-stim-button","174","908220","0.0-3.0-13.9-0.9","558ffe16fdf99b3f7aada34d","B2","batch2","tol_tohand","1383","","","","","","","","","tol_peg_3","1383","1383","0","[[3,2,0],[0,0],[0]]","10","[[2,1,3],[0,0],[0]]","1","0","","","","","","5","","","","",""
"","","","","","single-stim-button","175","908810","0.0-3.0-13.9-1.9","558ffe16fdf99b3f7aada34d","B2","batch2","tol_toboard","581","","","","","","","","","tol_peg_2","581","581","0","[[3,2,0],[1,0],[0]]","10","[[2,1,3],[0,0],[0]]","1","0","","","","","","5","","","","",""
"","","","","","single-stim-button","176","909324","0.0-3.0-13.10-0.10","558ffe16fdf99b3f7aada34d","B2","batch2","tol_tohand","509","","","","","","","","","tol_peg_1","509","509","0","[[3,0,0],[1,0],[0]]","11","[[2,1,3],[0,0],[0]]","1","0","","","","","","5","","","","",""
"","","","","","single-stim-button","177","909814","0.0-3.0-13.10-1.10","558ffe16fdf99b3f7aada34d","B2","batch2","tol_toboard","484","","","","","","","","","tol_peg_3","484","484","0","[[3,0,0],[1,0],[2]]","11","[[2,1,3],[0,0],[0]]","1","0","","","","","","5","","","","",""
"","","","","","single-stim-button","178","910353","0.0-3.0-13.11-0.11","558ffe16fdf99b3f7aada34d","B2","batch2","tol_tohand","533","","","","","","","","","tol_peg_1","533","533","0","[[0,0,0],[1,0],[2]]","12","[[2,1,3],[0,0],[0]]","1","0","","","","","","5","","","","",""
"","","","","","single-stim-button","179","910751","0.0-3.0-13.11-1.11","558ffe16fdf99b3f7aada34d","B2","batch2","tol_toboard","394","","","","","","","","","tol_peg_2","394","394","0","[[0,0,0],[1,3],[2]]","12","[[2,1,3],[0,0],[0]]","1","0","","","","","","5","","","","",""
"","","","","","single-stim-button","180","911201","0.0-3.0-13.12-0.12","558ffe16fdf99b3f7aada34d","B2","batch2","tol_tohand","447","","","","","","","","","tol_peg_3","447","447","0","[[0,0,0],[1,3],[0]]","13","[[2,1,3],[0,0],[0]]","1","0","","","","","","5","","","","",""
"","","","","","single-stim-button","181","911736","0.0-3.0-13.12-1.12","558ffe16fdf99b3f7aada34d","B2","batch2","tol_toboard","531","","","","","","","","","tol_peg_1","531","531","0","[[2,0,0],[1,3],[0]]","13","[[2,1,3],[0,0],[0]]","1","0","","","","","","5","","","","",""
"","","","","","single-stim-button","182","912533","0.0-3.0-13.13-0.13","558ffe16fdf99b3f7aada34d","B2","batch2","tol_tohand","794","","","","","","","","","tol_peg_2","794","794","0","[[2,0,0],[1,0],[0]]","14","[[2,1,3],[0,0],[0]]","1","0","","","","","","5","","","","",""
"","","","","","single-stim-button","183","912920","0.0-3.0-13.13-1.13","558ffe16fdf99b3f7aada34d","B2","batch2","tol_toboard","380","","","","","","","","","tol_peg_3","380","380","0","[[2,0,0],[1,0],[3]]","14","[[2,1,3],[0,0],[0]]","1","0","","","","","","5","","","","",""
"","","","","","single-stim-button","184","913375","0.0-3.0-13.14-0.14","558ffe16fdf99b3f7aada34d","B2","batch2","tol_tohand","448","","","","","","","","","tol_peg_2","448","448","0","[[2,0,0],[0,0],[3]]","15","[[2,1,3],[0,0],[0]]","1","0","","","","","","5","","","","",""
"","","","","","single-stim-button","185","913804","0.0-3.0-13.14-1.14","558ffe16fdf99b3f7aada34d","B2","batch2","tol_toboard","425","","","","","","","","","tol_peg_1","425","425","0","[[2,1,0],[0,0],[3]]","15","[[2,1,3],[0,0],[0]]","1","0","","","","","","5","","","","",""
"","","","","","single-stim-button","186","914351","0.0-3.0-13.15-0.15","558ffe16fdf99b3f7aada34d","B2","batch2","tol_tohand","542","","","","","","","","","tol_peg_3","542","542","0","[[2,1,0],[0,0],[0]]","16","[[2,1,3],[0,0],[0]]","1","0","","","","","","5","","","","",""
"","","","","","single-stim-button","187","914831","0.0-3.0-13.15-1.15","558ffe16fdf99b3f7aada34d","B2","batch2","tol_toboard","475","","","","","","","","","tol_peg_1","475","475","0","[[2,1,3],[0,0],[0]]","16","[[2,1,3],[0,0],[0]]","1","0","","","","","","5","","","","",""
"","","","","","poldrack-single-stim","188","915841","0.0-3.0-14.0","558ffe16fdf99b3f7aada34d","B2","batch2","tol_feedback","-1","","","","","true","","","","","1000","1000","500","","","","","","-1","none","true","2923","20284","","","","","",""
"","","","","","html-button-response","189","916791","0.0-3.0-15.0","558ffe16fdf99b3f7aada34d","B2","batch2","tol_trial_num","942.1999999999534","<div class = centerbox><p class = center-block-text>problem <strong>3</strong> out of 25 problems</p></div>","0","","","","","","","","","","","","","","","","","","","","","","","","","",""
"","","","","","single-stim-button","190","920131","0.0-3.0-16.0-0.0","558ffe16fdf99b3f7aada34d","B2","batch2","tol_tohand","3334","","","","","","","","","tol_peg_1","3334","3334","0","[[2,0,0],[0,0],[1]]","1","[[1,2,0],[3,0],[0]]","2","0","","","","","","4","","","","",""
"","","","","","single-stim-button","191","920682","0.0-3.0-16.0-1.0","558ffe16fdf99b3f7aada34d","B2","batch2","tol_toboard","548","","","","","","","","","tol_peg_2","548","548","0","[[2,0,0],[3,0],[1]]","1","[[1,2,0],[3,0],[0]]","2","0","","","","","","4","","","","",""
"","","","","","single-stim-button","192","921186","0.0-3.0-16.1-0.1","558ffe16fdf99b3f7aada34d","B2","batch2","tol_tohand","498","","","","","","","","","tol_peg_1","498","498","0","[[0,0,0],[3,0],[1]]","2","[[1,2,0],[3,0],[0]]","2","0","","","","","","4","","","","",""
"","","","","","single-stim-button","193","921534","0.0-3.0-16.1-1.1","558ffe16fdf99b3f7aada34d","B2","batch2","tol_toboard","344","","","","","","","","","tol_peg_2","344","344","0","[[0,0,0],[3,2],[1]]","2","[[1,2,0],[3,0],[0]]","2","0","","","","","","4","","","","",""
"","","","","","single-stim-button","194","921953","0.0-3.0-16.2-0.2","558ffe16fdf99b3f7aada34d","B2","batch2","tol_tohand","415","","","","","","","","","tol_peg_3","415","415","0","[[0,0,0],[3,2],[0]]","3","[[1,2,0],[3,0],[0]]","2","0","","","","","","4","","","","",""
"","","","","","single-stim-button","195","922416","0.0-3.0-16.2-1.2","558ffe16fdf99b3f7aada34d","B2","batch2","tol_toboard","458","","","","","","","","","tol_peg_1","458","458","0","[[1,0,0],[3,2],[0]]","3","[[1,2,0],[3,0],[0]]","2","0","","","","","","4","","","","",""
"","","","","","single-stim-button","196","922819","0.0-3.0-16.3-0.3","558ffe16fdf99b3f7aada34d","B2","batch2","tol_tohand","397","","","","","","","","","tol_peg_2","397","397","0","[[1,0,0],[3,0],[0]]","4","[[1,2,0],[3,0],[0]]","2","0","","","","","","4","","","","",""
"","","","","","single-stim-button","197","923177","0.0-3.0-16.3-1.3","558ffe16fdf99b3f7aada34d","B2","batch2","tol_toboard","352","","","","","","","","","tol_peg_1","352","352","0","[[1,2,0],[3,0],[0]]","4","[[1,2,0],[3,0],[0]]","2","0","","","","","","4","","","","",""
"","","","","","poldrack-single-stim","198","924192","0.0-3.0-17.0","558ffe16fdf99b3f7aada34d","B2","batch2","tol_feedback","-1","","","","","true","","","","","1000","1000","500","","","","","","-1","none","true","3334","4644","","","","","",""
"","","","","","html-button-response","199","931316","0.0-3.0-18.0","558ffe16fdf99b3f7aada34d","B2","batch2","tol_trial_num","7118.5","<div class = centerbox><p class = center-block-text>problem <strong>4</strong> out of 25 problems</p></div>","0","","","","","","","","","","","","","","","","","","","","","","","","","",""
"","","","","","single-stim-button","200","934677","0.0-3.0-19.0-0.0","558ffe16fdf99b3f7aada34d","B2","batch2","tol_tohand","3356","","","","","","","","","tol_peg_2","3356","3356","0","[[3,0,0],[2,0],[0]]","1","[[3,0,0],[1,0],[2]]","3","0","","","","","","3","","","","",""
"","","","","","single-stim-button","201","935026","0.0-3.0-19.0-1.0","558ffe16fdf99b3f7aada34d","B2","batch2","tol_toboard","341","","","","","","","","","tol_peg_1","341","341","0","[[3,1,0],[2,0],[0]]","1","[[3,0,0],[1,0],[2]]","3","0","","","","","","3","","","","",""
"","","","","","single-stim-button","202","935492","0.0-3.0-19.1-0.1","558ffe16fdf99b3f7aada34d","B2","batch2","tol_tohand","459","","","","","","","","","tol_peg_2","459","459","0","[[3,1,0],[0,0],[0]]","2","[[3,0,0],[1,0],[2]]","3","0","","","","","","3","","","","",""
"","","","","","single-stim-button","203","935976","0.0-3.0-19.1-1.1","558ffe16fdf99b3f7aada34d","B2","batch2","tol_toboard","478","","","","","","","","","tol_peg_3","478","478","0","[[3,1,0],[0,0],[2]]","2","[[3,0,0],[1,0],[2]]","3","0","","","","","","3","","","","",""
"","","","","","single-stim-button","204","936511","0.0-3.0-19.2-0.2","558ffe16fdf99b3f7aada34d","B2","batch2","tol_tohand","529","","","","","","","","","tol_peg_1","529","529","0","[[3,0,0],[0,0],[2]]","3","[[3,0,0],[1,0],[2]]","3","0","","","","","","3","","","","",""
"","","","","","single-stim-button","205","936904","0.0-3.0-19.2-1.2","558ffe16fdf99b3f7aada34d","B2","batch2","tol_toboard","387","","","","","","","","","tol_peg_2","387","387","0","[[3,0,0],[1,0],[2]]","3","[[3,0,0],[1,0],[2]]","3","0","","","","","","3","","","","",""
"","","","","","poldrack-single-stim","206","937912","0.0-3.0-20.0","558ffe16fdf99b3f7aada34d","B2","batch2","tol_feedback","-1","","","","","true","","","","","1000","1000","500","","","","","","-1","none","true","3356","4344","","","","","",""
"","","","","","html-button-response","207","944372","0.0-3.0-21.0","558ffe16fdf99b3f7aada34d","B2","batch2","tol_trial_num","6454.800000000047","<div class = centerbox><p class = center-block-text>problem <strong>5</strong> out of 25 problems</p></div>","0","","","","","","","","","","","","","","","","","","","","","","","","","",""
"","","","","","single-stim-button","208","949924","0.0-3.0-22.0-0.0","558ffe16fdf99b3f7aada34d","B2","batch2","tol_tohand","5545","","","","","","","","","tol_peg_3","5545","5545","0","[[1,0,0],[2,0],[0]]","1","[[0,0,0],[1,2],[3]]","4","0","","","","","","7","","","","",""
"","","","","","single-stim-button","209","950401","0.0-3.0-22.0-1.0","558ffe16fdf99b3f7aada34d","B2","batch2","tol_toboard","470","","","","","","","","","tol_peg_1","470","470","0","[[1,3,0],[2,0],[0]]","1","[[0,0,0],[1,2],[3]]","4","0","","","","","","7","","","","",""
"","","","","","single-stim-button","210","950814","0.0-3.0-22.1-0.1","558ffe16fdf99b3f7aada34d","B2","batch2","tol_tohand","408","","","","","","","","","tol_peg_2","408","408","0","[[1,3,0],[0,0],[0]]","2","[[0,0,0],[1,2],[3]]","4","0","","","","","","7","","","","",""
"","","","","","single-stim-button","211","951212","0.0-3.0-22.1-1.1","558ffe16fdf99b3f7aada34d","B2","batch2","tol_toboard","392","","","","","","","","","tol_peg_3","392","392","0","[[1,3,0],[0,0],[2]]","2","[[0,0,0],[1,2],[3]]","4","0","","","","","","7","","","","",""
"","","","","","single-stim-button","212","954393","0.0-3.0-22.2-0.2","558ffe16fdf99b3f7aada34d","B2","batch2","tol_tohand","3175","","","","","","","","","tol_peg_1","3175","3175","0","[[1,0,0],[0,0],[2]]","3","[[0,0,0],[1,2],[3]]","4","0","","","","","","7","","","","",""
"","","","","","single-stim-button","213","956031","0.0-3.0-22.2-1.2","558ffe16fdf99b3f7aada34d","B2","batch2","tol_toboard","1631","","","","","","","","","tol_peg_2","1631","1631","0","[[1,0,0],[3,0],[2]]","3","[[0,0,0],[1,2],[3]]","4","0","","","","","","7","","","","",""
"","","","","","single-stim-button","214","956498","0.0-3.0-22.3-0.3","558ffe16fdf99b3f7aada34d","B2","batch2","tol_tohand","461","","","","","","","","","tol_peg_1","461","461","0","[[0,0,0],[3,0],[2]]","4","[[0,0,0],[1,2],[3]]","4","0","","","","","","7","","","","",""
"","","","","","single-stim-button","215","956921","0.0-3.0-22.3-1.3","558ffe16fdf99b3f7aada34d","B2","batch2","tol_toboard","421","","","","","","","","","tol_peg_2","421","421","0","[[0,0,0],[3,1],[2]]","4","[[0,0,0],[1,2],[3]]","4","0","","","","","","7","","","","",""
"","","","","","single-stim-button","216","957381","0.0-3.0-22.4-0.4","558ffe16fdf99b3f7aada34d","B2","batch2","tol_tohand","458","","","","","","","","","tol_peg_3","458","458","0","[[0,0,0],[3,1],[0]]","5","[[0,0,0],[1,2],[3]]","4","0","","","","","","7","","","","",""
"","","","","","single-stim-button","217","958324","0.0-3.0-22.4-1.4","558ffe16fdf99b3f7aada34d","B2","batch2","tol_toboard","941","","","","","","","","","tol_peg_1","941","941","0","[[2,0,0],[3,1],[0]]","5","[[0,0,0],[1,2],[3]]","4","0","","","","","","7","","","","",""
"","","","","","single-stim-button","218","959192","0.0-3.0-22.5-0.5","558ffe16fdf99b3f7aada34d","B2","batch2","tol_tohand","865","","","","","","","","","tol_peg_2","865","865","0","[[2,0,0],[3,0],[0]]","6","[[0,0,0],[1,2],[3]]","4","0","","","","","","7","","","","",""
"","","","","","single-stim-button","219","959478","0.0-3.0-22.5-1.5","558ffe16fdf99b3f7aada34d","B2","batch2","tol_toboard","281","","","","","","","","","tol_peg_1","281","281","0","[[2,1,0],[3,0],[0]]","6","[[0,0,0],[1,2],[3]]","4","0","","","","","","7","","","","",""
"","","","","","single-stim-button","220","959936","0.0-3.0-22.6-0.6","558ffe16fdf99b3f7aada34d","B2","batch2","tol_tohand","455","","","","","","","","","tol_peg_2","455","455","0","[[2,1,0],[0,0],[0]]","7","[[0,0,0],[1,2],[3]]","4","0","","","","","","7","","","","",""
"","","","","","single-stim-button","221","960446","0.0-3.0-22.6-1.6","558ffe16fdf99b3f7aada34d","B2","batch2","tol_toboard","502","","","","","","","","","tol_peg_3","502","502","0","[[2,1,0],[0,0],[3]]","7","[[0,0,0],[1,2],[3]]","4","0","","","","","","7","","","","",""
"","","","","","single-stim-button","222","960922","0.0-3.0-22.7-0.7","558ffe16fdf99b3f7aada34d","B2","batch2","tol_tohand","470","","","","","","","","","tol_peg_1","470","470","0","[[2,0,0],[0,0],[3]]","8","[[0,0,0],[1,2],[3]]","4","0","","","","","","7","","","","",""
"","","","","","single-stim-button","223","961677","0.0-3.0-22.7-1.7","558ffe16fdf99b3f7aada34d","B2","batch2","tol_toboard","751","","","","","","","","","tol_peg_1","751","751","0","[[2,1,0],[0,0],[3]]","8","[[0,0,0],[1,2],[3]]","4","0","","","","","","7","","","","",""
"","","","","","single-stim-button","224","962596","0.0-3.0-22.8-0.8","558ffe16fdf99b3f7aada34d","B2","batch2","tol_tohand","910","","","","","","","","","tol_peg_1","910","910","0","[[2,0,0],[0,0],[3]]","9","[[0,0,0],[1,2],[3]]","4","0","","","","","","7","","","","",""
"","","","","","single-stim-button","225","962958","0.0-3.0-22.8-1.8","558ffe16fdf99b3f7aada34d","B2","batch2","tol_toboard","358","","","","","","","","","tol_peg_2","358","358","0","[[2,0,0],[1,0],[3]]","9","[[0,0,0],[1,2],[3]]","4","0","","","","","","7","","","","",""
"","","","","","single-stim-button","226","963434","0.0-3.0-22.9-0.9","558ffe16fdf99b3f7aada34d","B2","batch2","tol_tohand","470","","","","","","","","","tol_peg_1","470","470","0","[[0,0,0],[1,0],[3]]","10","[[0,0,0],[1,2],[3]]","4","0","","","","","","7","","","","",""
"","","","","","single-stim-button","227","963891","0.0-3.0-22.9-1.9","558ffe16fdf99b3f7aada34d","B2","batch2","tol_toboard","450","","","","","","","","","tol_peg_2","450","450","0","[[0,0,0],[1,2],[3]]","10","[[0,0,0],[1,2],[3]]","4","0","","","","","","7","","","","",""
"","","","","","poldrack-single-stim","228","964904","0.0-3.0-23.0","558ffe16fdf99b3f7aada34d","B2","batch2","tol_feedback","-1","","","","","true","","","","","1000","1000","500","","","","","","-1","none","true","5545","13217","","","","","",""
"","","","","","html-button-response","229","965970","0.0-3.0-24.0","558ffe16fdf99b3f7aada34d","B2","batch2","tol_trial_num","1055.3000000000466","<div class = centerbox><p class = center-block-text>problem <strong>6</strong> out of 25 problems</p></div>","0","","","","","","","","","","","","","","","","","","","","","","","","","",""
"","","","","","single-stim-button","230","977382","0.0-3.0-25.0-0.0","558ffe16fdf99b3f7aada34d","B2","batch2","tol_tohand","11409","","","","","","","","","tol_peg_3","11409","11409","0","[[0,0,0],[1,2],[0]]","1","[[1,0,0],[2,3],[0]]","5","0","","","","","","6","","","","",""
"","","","","","single-stim-button","231","978032","0.0-3.0-25.0-1.0","558ffe16fdf99b3f7aada34d","B2","batch2","tol_toboard","646","","","","","","","","","tol_peg_1","646","646","0","[[3,0,0],[1,2],[0]]","1","[[1,0,0],[2,3],[0]]","5","0","","","","","","6","","","","",""
"","","","","","single-stim-button","232","978578","0.0-3.0-25.1-0.1","558ffe16fdf99b3f7aada34d","B2","batch2","tol_tohand","540","","","","","","","","","tol_peg_2","540","540","0","[[3,0,0],[1,0],[0]]","2","[[1,0,0],[2,3],[0]]","5","0","","","","","","6","","","","",""
"","","","","","single-stim-button","233","979161","0.0-3.0-25.1-1.1","558ffe16fdf99b3f7aada34d","B2","batch2","tol_toboard","577","","","","","","","","","tol_peg_3","577","577","0","[[3,0,0],[1,0],[2]]","2","[[1,0,0],[2,3],[0]]","5","0","","","","","","6","","","","",""
"","","","","","single-stim-button","234","980686","0.0-3.0-25.2-0.2","558ffe16fdf99b3f7aada34d","B2","batch2","tol_tohand","1520","","","","","","","","","tol_peg_2","1520","1520","0","[[3,0,0],[0,0],[2]]","3","[[1,0,0],[2,3],[0]]","5","0","","","","","","6","","","","",""
"","","","","","single-stim-button","235","981034","0.0-3.0-25.2-1.2","558ffe16fdf99b3f7aada34d","B2","batch2","tol_toboard","343","","","","","","","","","tol_peg_1","343","343","0","[[3,1,0],[0,0],[2]]","3","[[1,0,0],[2,3],[0]]","5","0","","","","","","6","","","","",""
"","","","","","single-stim-button","236","981496","0.0-3.0-25.3-0.3","558ffe16fdf99b3f7aada34d","B2","batch2","tol_tohand","455","","","","","","","","","tol_peg_3","455","455","0","[[3,1,0],[0,0],[0]]","4","[[1,0,0],[2,3],[0]]","5","0","","","","","","6","","","","",""
"","","","","","single-stim-button","237","981844","0.0-3.0-25.3-1.3","558ffe16fdf99b3f7aada34d","B2","batch2","tol_toboard","343","","","","","","","","","tol_peg_2","343","343","0","[[3,1,0],[2,0],[0]]","4","[[1,0,0],[2,3],[0]]","5","0","","","","","","6","","","","",""
"","","","","","single-stim-button","238","982276","0.0-3.0-25.4-0.4","558ffe16fdf99b3f7aada34d","B2","batch2","tol_tohand","425","","","","","","","","","tol_peg_1","425","425","0","[[3,0,0],[2,0],[0]]","5","[[1,0,0],[2,3],[0]]","5","0","","","","","","6","","","","",""
"","","","","","single-stim-button","239","982719","0.0-3.0-25.4-1.4","558ffe16fdf99b3f7aada34d","B2","batch2","tol_toboard","437","","","","","","","","","tol_peg_3","437","437","0","[[3,0,0],[2,0],[1]]","5","[[1,0,0],[2,3],[0]]","5","0","","","","","","6","","","","",""
"","","","","","single-stim-button","240","983193","0.0-3.0-25.5-0.5","558ffe16fdf99b3f7aada34d","B2","batch2","tol_tohand","468","","","","","","","","","tol_peg_1","468","468","0","[[0,0,0],[2,0],[1]]","6","[[1,0,0],[2,3],[0]]","5","0","","","","","","6","","","","",""
"","","","","","single-stim-button","241","983566","0.0-3.0-25.5-1.5","558ffe16fdf99b3f7aada34d","B2","batch2","tol_toboard","367","","","","","","","","","tol_peg_2","367","367","0","[[0,0,0],[2,3],[1]]","6","[[1,0,0],[2,3],[0]]","5","0","","","","","","6","","","","",""
"","","","","","single-stim-button","242","984011","0.0-3.0-25.6-0.6","558ffe16fdf99b3f7aada34d","B2","batch2","tol_tohand","439","","","","","","","","","tol_peg_3","439","439","0","[[0,0,0],[2,3],[0]]","7","[[1,0,0],[2,3],[0]]","5","0","","","","","","6","","","","",""
"","","","","","single-stim-button","243","984501","0.0-3.0-25.6-1.6","558ffe16fdf99b3f7aada34d","B2","batch2","tol_toboard","485","","","","","","","","","tol_peg_1","485","485","0","[[1,0,0],[2,3],[0]]","7","[[1,0,0],[2,3],[0]]","5","0","","","","","","6","","","","",""
"","","","","","poldrack-single-stim","244","985513","0.0-3.0-26.0","558ffe16fdf99b3f7aada34d","B2","batch2","tol_feedback","-1","","","","","true","","","","","1000","1000","500","","","","","","-1","none","true","11409","15256","","","","","",""
"","","","","","html-button-response","245","986419","0.0-3.0-27.0","558ffe16fdf99b3f7aada34d","B2","batch2","tol_trial_num","901.1999999999534","<div class = centerbox><p class = center-block-text>problem <strong>7</strong> out of 25 problems</p></div>","0","","","","","","","","","","","","","","","","","","","","","","","","","",""
"","","","","","single-stim-button","246","997136","0.0-3.0-28.0-0.0","558ffe16fdf99b3f7aada34d","B2","batch2","tol_tohand","10712","","","","","","","","","tol_peg_1","10712","10712","0","[[2,0,0],[0,0],[3]]","1","[[1,2,0],[3,0],[0]]","6","0","","","","","","5","","","","",""
"","","","","","single-stim-button","247","997765","0.0-3.0-28.0-1.0","558ffe16fdf99b3f7aada34d","B2","batch2","tol_toboard","621","","","","","","","","","tol_peg_2","621","621","0","[[2,0,0],[1,0],[3]]","1","[[1,2,0],[3,0],[0]]","6","0","","","","","","5","","","","",""
"","","","","","single-stim-button","248","998277","0.0-3.0-28.1-0.1","558ffe16fdf99b3f7aada34d","B2","batch2","tol_tohand","503","","","","","","","","","tol_peg_3","503","503","0","[[2,0,0],[1,0],[0]]","2","[[1,2,0],[3,0],[0]]","6","0","","","","","","5","","","","",""
"","","","","","single-stim-button","249","998821","0.0-3.0-28.1-1.1","558ffe16fdf99b3f7aada34d","B2","batch2","tol_toboard","540","","","","","","","","","tol_peg_1","540","540","0","[[2,3,0],[1,0],[0]]","2","[[1,2,0],[3,0],[0]]","6","0","","","","","","5","","","","",""
"","","","","","single-stim-button","250","999323","0.0-3.0-28.2-0.2","558ffe16fdf99b3f7aada34d","B2","batch2","tol_tohand","497","","","","","","","","","tol_peg_2","497","497","0","[[2,3,0],[0,0],[0]]","3","[[1,2,0],[3,0],[0]]","6","0","","","","","","5","","","","",""
"","","","","","single-stim-button","251","999781","0.0-3.0-28.2-1.2","558ffe16fdf99b3f7aada34d","B2","batch2","tol_toboard","453","","","","","","","","","tol_peg_3","453","453","0","[[2,3,0],[0,0],[1]]","3","[[1,2,0],[3,0],[0]]","6","0","","","","","","5","","","","",""
"","","","","","single-stim-button","252","1000297","0.0-3.0-28.3-0.3","558ffe16fdf99b3f7aada34d","B2","batch2","tol_tohand","510","","","","","","","","","tol_peg_1","510","510","0","[[2,0,0],[0,0],[1]]","4","[[1,2,0],[3,0],[0]]","6","0","","","","","","5","","","","",""
"","","","","","single-stim-button","253","1000934","0.0-3.0-28.3-1.3","558ffe16fdf99b3f7aada34d","B2","batch2","tol_toboard","633","","","","","","","","","tol_peg_2","633","633","0","[[2,0,0],[3,0],[1]]","4","[[1,2,0],[3,0],[0]]","6","0","","","","","","5","","","","",""
"","","","","","single-stim-button","254","1001587","0.0-3.0-28.4-0.4","558ffe16fdf99b3f7aada34d","B2","batch2","tol_tohand","647","","","","","","","","","tol_peg_1","647","647","0","[[0,0,0],[3,0],[1]]","5","[[1,2,0],[3,0],[0]]","6","0","","","","","","5","","","","",""
"","","","","","single-stim-button","255","1002026","0.0-3.0-28.4-1.4","558ffe16fdf99b3f7aada34d","B2","batch2","tol_toboard","434","","","","","","","","","tol_peg_2","434","434","0","[[0,0,0],[3,2],[1]]","5","[[1,2,0],[3,0],[0]]","6","0","","","","","","5","","","","",""
"","","","","","single-stim-button","256","1002490","0.0-3.0-28.5-0.5","558ffe16fdf99b3f7aada34d","B2","batch2","tol_tohand","459","","","","","","","","","tol_peg_3","459","459","0","[[0,0,0],[3,2],[0]]","6","[[1,2,0],[3,0],[0]]","6","0","","","","","","5","","","","",""
"","","","","","single-stim-button","257","1002985","0.0-3.0-28.5-1.5","558ffe16fdf99b3f7aada34d","B2","batch2","tol_toboard","489","","","","","","","","","tol_peg_1","489","489","0","[[1,0,0],[3,2],[0]]","6","[[1,2,0],[3,0],[0]]","6","0","","","","","","5","","","","",""
"","","","","","single-stim-button","258","1003466","0.0-3.0-28.6-0.6","558ffe16fdf99b3f7aada34d","B2","batch2","tol_tohand","474","","","","","","","","","tol_peg_2","474","474","0","[[1,0,0],[3,0],[0]]","7","[[1,2,0],[3,0],[0]]","6","0","","","","","","5","","","","",""
"","","","","","single-stim-button","259","1003868","0.0-3.0-28.6-1.6","558ffe16fdf99b3f7aada34d","B2","batch2","tol_toboard","397","","","","","","","","","tol_peg_1","397","397","0","[[1,2,0],[3,0],[0]]","7","[[1,2,0],[3,0],[0]]","6","0","","","","","","5","","","","",""
"","","","","","poldrack-single-stim","260","1004880","0.0-3.0-29.0","558ffe16fdf99b3f7aada34d","B2","batch2","tol_feedback","-1","","","","","true","","","","","1000","1000","500","","","","","","-1","none","true","10712","13802","","","","","",""
"","","","","","html-button-response","261","1005819","0.0-3.0-30.0","558ffe16fdf99b3f7aada34d","B2","batch2","tol_trial_num","932.8999999999069","<div class = centerbox><p class = center-block-text>problem <strong>8</strong> out of 25 problems</p></div>","0","","","","","","","","","","","","","","","","","","","","","","","","","",""
"","","","","","single-stim-button","262","1011250","0.0-3.0-31.0-0.0","558ffe16fdf99b3f7aada34d","B2","batch2","tol_tohand","5422","","","","","","","","","tol_peg_3","5422","5422","0","[[0,0,0],[2,3],[0]]","1","[[1,2,0],[3,0],[0]]","7","0","","","","","","4","","","","",""
"","","","","","single-stim-button","263","1011713","0.0-3.0-31.0-1.0","558ffe16fdf99b3f7aada34d","B2","batch2","tol_toboard","457","","","","","","","","","tol_peg_1","457","457","0","[[1,0,0],[2,3],[0]]","1","[[1,2,0],[3,0],[0]]","7","0","","","","","","4","","","","",""
"","","","","","single-stim-button","264","1012239","0.0-3.0-31.1-0.1","558ffe16fdf99b3f7aada34d","B2","batch2","tol_tohand","521","","","","","","","","","tol_peg_2","521","521","0","[[1,0,0],[2,0],[0]]","2","[[1,2,0],[3,0],[0]]","7","0","","","","","","4","","","","",""
"","","","","","single-stim-button","265","1012726","0.0-3.0-31.1-1.1","558ffe16fdf99b3f7aada34d","B2","batch2","tol_toboard","479","","","","","","","","","tol_peg_3","479","479","0","[[1,0,0],[2,0],[3]]","2","[[1,2,0],[3,0],[0]]","7","0","","","","","","4","","","","",""
"","","","","","single-stim-button","266","1013154","0.0-3.0-31.2-0.2","558ffe16fdf99b3f7aada34d","B2","batch2","tol_tohand","423","","","","","","","","","tol_peg_2","423","423","0","[[1,0,0],[0,0],[3]]","3","[[1,2,0],[3,0],[0]]","7","0","","","","","","4","","","","",""
"","","","","","single-stim-button","267","1013457","0.0-3.0-31.2-1.2","558ffe16fdf99b3f7aada34d","B2","batch2","tol_toboard","299","","","","","","","","","tol_peg_1","299","299","0","[[1,2,0],[0,0],[3]]","3","[[1,2,0],[3,0],[0]]","7","0","","","","","","4","","","","",""
"","","","","","single-stim-button","268","1013894","0.0-3.0-31.3-0.3","558ffe16fdf99b3f7aada34d","B2","batch2","tol_tohand","425","","","","","","","","","tol_peg_3","425","425","0","[[1,2,0],[0,0],[0]]","4","[[1,2,0],[3,0],[0]]","7","0","","","","","","4","","","","",""
"","","","","","single-stim-button","269","1014194","0.0-3.0-31.3-1.3","558ffe16fdf99b3f7aada34d","B2","batch2","tol_toboard","296","","","","","","","","","tol_peg_2","296","296","0","[[1,2,0],[3,0],[0]]","4","[[1,2,0],[3,0],[0]]","7","0","","","","","","4","","","","",""
"","","","","","poldrack-single-stim","270","1015200","0.0-3.0-32.0","558ffe16fdf99b3f7aada34d","B2","batch2","tol_feedback","-1","","","","","true","","","","","1000","1000","500","","","","","","-1","none","true","5422","6791","","","","","",""
"","","","","","html-button-response","271","1015978","0.0-3.0-33.0","558ffe16fdf99b3f7aada34d","B2","batch2","tol_trial_num","772","<div class = centerbox><p class = center-block-text>problem <strong>9</strong> out of 25 problems</p></div>","0","","","","","","","","","","","","","","","","","","","","","","","","","",""
"","","","","","single-stim-button","272","1020736","0.0-3.0-34.0-0.0","558ffe16fdf99b3f7aada34d","B2","batch2","tol_tohand","4748","","","","","","","","","tol_peg_1","4748","4748","0","[[3,0,0],[0,0],[1]]","1","[[2,1,0],[3,0],[0]]","8","0","","","","","","6","","","","",""
"","","","","","single-stim-button","273","1024778","0.0-3.0-34.0-1.0","558ffe16fdf99b3f7aada34d","B2","batch2","tol_toboard","4036","","","","","","","","","tol_peg_2","4036","4036","0","[[3,0,0],[2,0],[1]]","1","[[2,1,0],[3,0],[0]]","8","0","","","","","","6","","","","",""
"","","","","","single-stim-button","274","1026158","0.0-3.0-34.1-0.1","558ffe16fdf99b3f7aada34d","B2","batch2","tol_tohand","1373","","","","","","","","","tol_peg_3","1373","1373","0","[[3,0,0],[2,0],[0]]","2","[[2,1,0],[3,0],[0]]","8","0","","","","","","6","","","","",""
"","","","","","single-stim-button","275","1026604","0.0-3.0-34.1-1.1","558ffe16fdf99b3f7aada34d","B2","batch2","tol_toboard","441","","","","","","","","","tol_peg_2","441","441","0","[[3,0,0],[2,1],[0]]","2","[[2,1,0],[3,0],[0]]","8","0","","","","","","6","","","","",""
"","","","","","single-stim-button","276","1027062","0.0-3.0-34.2-0.2","558ffe16fdf99b3f7aada34d","B2","batch2","tol_tohand","453","","","","","","","","","tol_peg_1","453","453","0","[[0,0,0],[2,1],[0]]","3","[[2,1,0],[3,0],[0]]","8","0","","","","","","6","","","","",""
"","","","","","single-stim-button","277","1027585","0.0-3.0-34.2-1.2","558ffe16fdf99b3f7aada34d","B2","batch2","tol_toboard","519","","","","","","","","","tol_peg_3","519","519","0","[[0,0,0],[2,1],[3]]","3","[[2,1,0],[3,0],[0]]","8","0","","","","","","6","","","","",""
"","","","","","single-stim-button","278","1033877","0.0-3.0-34.3-0.3","558ffe16fdf99b3f7aada34d","B2","batch2","tol_tohand","6287","","","","","","","","","tol_peg_3","6287","6287","0","[[0,0,0],[2,1],[0]]","4","[[2,1,0],[3,0],[0]]","8","0","","","","","","6","","","","",""
"","","","","","single-stim-button","279","1034346","0.0-3.0-34.3-1.3","558ffe16fdf99b3f7aada34d","B2","batch2","tol_toboard","463","","","","","","","","","tol_peg_1","463","463","0","[[3,0,0],[2,1],[0]]","4","[[2,1,0],[3,0],[0]]","8","0","","","","","","6","","","","",""
"","","","","","single-stim-button","280","1034846","0.0-3.0-34.4-0.4","558ffe16fdf99b3f7aada34d","B2","batch2","tol_tohand","492","","","","","","","","","tol_peg_2","492","492","0","[[3,0,0],[2,0],[0]]","5","[[2,1,0],[3,0],[0]]","8","0","","","","","","6","","","","",""
"","","","","","single-stim-button","281","1035634","0.0-3.0-34.4-1.4","558ffe16fdf99b3f7aada34d","B2","batch2","tol_toboard","783","","","","","","","","","tol_peg_3","783","783","0","[[3,0,0],[2,0],[1]]","5","[[2,1,0],[3,0],[0]]","8","0","","","","","","6","","","","",""
"","","","","","single-stim-button","282","1036041","0.0-3.0-34.5-0.5","558ffe16fdf99b3f7aada34d","B2","batch2","tol_tohand","400","","","","","","","","","tol_peg_2","400","400","0","[[3,0,0],[0,0],[1]]","6","[[2,1,0],[3,0],[0]]","8","0","","","","","","6","","","","",""
"","","","","","single-stim-button","283","1036399","0.0-3.0-34.5-1.5","558ffe16fdf99b3f7aada34d","B2","batch2","tol_toboard","352","","","","","","","","","tol_peg_1","352","352","0","[[3,2,0],[0,0],[1]]","6","[[2,1,0],[3,0],[0]]","8","0","","","","","","6","","","","",""
"","","","","","single-stim-button","284","1036965","0.0-3.0-34.6-0.6","558ffe16fdf99b3f7aada34d","B2","batch2","tol_tohand","559","","","","","","","","","tol_peg_3","559","559","0","[[3,2,0],[0,0],[0]]","7","[[2,1,0],[3,0],[0]]","8","0","","","","","","6","","","","",""
"","","","","","single-stim-button","285","1037411","0.0-3.0-34.6-1.6","558ffe16fdf99b3f7aada34d","B2","batch2","tol_toboard","442","","","","","","","","","tol_peg_2","442","442","0","[[3,2,0],[1,0],[0]]","7","[[2,1,0],[3,0],[0]]","8","0","","","","","","6","","","","",""
"","","","","","single-stim-button","286","1037882","0.0-3.0-34.7-0.7","558ffe16fdf99b3f7aada34d","B2","batch2","tol_tohand","465","","","","","","","","","tol_peg_1","465","465","0","[[3,0,0],[1,0],[0]]","8","[[2,1,0],[3,0],[0]]","8","0","","","","","","6","","","","",""
"","","","","","single-stim-button","287","1038293","0.0-3.0-34.7-1.7","558ffe16fdf99b3f7aada34d","B2","batch2","tol_toboard","407","","","","","","","","","tol_peg_2","407","407","0","[[3,0,0],[1,2],[0]]","8","[[2,1,0],[3,0],[0]]","8","0","","","","","","6","","","","",""
"","","","","","single-stim-button","288","1038681","0.0-3.0-34.8-0.8","558ffe16fdf99b3f7aada34d","B2","batch2","tol_tohand","383","","","","","","","","","tol_peg_1","383","383","0","[[0,0,0],[1,2],[0]]","9","[[2,1,0],[3,0],[0]]","8","0","","","","","","6","","","","",""
"","","","","","single-stim-button","289","1039114","0.0-3.0-34.8-1.8","558ffe16fdf99b3f7aada34d","B2","batch2","tol_toboard","429","","","","","","","","","tol_peg_3","429","429","0","[[0,0,0],[1,2],[3]]","9","[[2,1,0],[3,0],[0]]","8","0","","","","","","6","","","","",""
"","","","","","single-stim-button","290","1039608","0.0-3.0-34.9-0.9","558ffe16fdf99b3f7aada34d","B2","batch2","tol_tohand","489","","","","","","","","","tol_peg_2","489","489","0","[[0,0,0],[1,0],[3]]","10","[[2,1,0],[3,0],[0]]","8","0","","","","","","6","","","","",""
"","","","","","single-stim-button","291","1040035","0.0-3.0-34.9-1.9","558ffe16fdf99b3f7aada34d","B2","batch2","tol_toboard","420","","","","","","","","","tol_peg_1","420","420","0","[[2,0,0],[1,0],[3]]","10","[[2,1,0],[3,0],[0]]","8","0","","","","","","6","","","","",""
"","","","","","single-stim-button","292","1040453","0.0-3.0-34.10-0.10","558ffe16fdf99b3f7aada34d","B2","batch2","tol_tohand","413","","","","","","","","","tol_peg_2","413","413","0","[[2,0,0],[0,0],[3]]","11","[[2,1,0],[3,0],[0]]","8","0","","","","","","6","","","","",""
"","","","","","single-stim-button","293","1040788","0.0-3.0-34.10-1.10","558ffe16fdf99b3f7aada34d","B2","batch2","tol_toboard","328","","","","","","","","","tol_peg_1","328","328","0","[[2,1,0],[0,0],[3]]","11","[[2,1,0],[3,0],[0]]","8","0","","","","","","6","","","","",""
"","","","","","single-stim-button","294","1041297","0.0-3.0-34.11-0.11","558ffe16fdf99b3f7aada34d","B2","batch2","tol_tohand","504","","","","","","","","","tol_peg_3","504","504","0","[[2,1,0],[0,0],[0]]","12","[[2,1,0],[3,0],[0]]","8","0","","","","","","6","","","","",""
"","","","","","single-stim-button","295","1041636","0.0-3.0-34.11-1.11","558ffe16fdf99b3f7aada34d","B2","batch2","tol_toboard","333","","","","","","","","","tol_peg_2","333","333","0","[[2,1,0],[3,0],[0]]","12","[[2,1,0],[3,0],[0]]","8","0","","","","","","6","","","","",""
"","","","","","poldrack-single-stim","296","1042648","0.0-3.0-35.0","558ffe16fdf99b3f7aada34d","B2","batch2","tol_feedback","-1","","","","","true","","","","","1000","1000","500","","","","","","-1","none","true","4748","16566","","","","","",""
"","","","","","html-button-response","297","1043358","0.0-3.0-36.0","558ffe16fdf99b3f7aada34d","B2","batch2","tol_trial_num","705","<div class = centerbox><p class = center-block-text>problem <strong>10</strong> out of 25 problems</p></div>","0","","","","","","","","","","","","","","","","","","","","","","","","","",""
"","","","","","single-stim-button","298","1047101","0.0-3.0-37.0-0.0","558ffe16fdf99b3f7aada34d","B2","batch2","tol_tohand","3739","","","","","","","","","tol_peg_2","3739","3739","0","[[3,0,0],[0,0],[2]]","1","[[3,0,0],[2,1],[0]]","9","0","","","","","","3","","","","",""
"","","","","","single-stim-button","299","1048480","0.0-3.0-37.0-1.0","558ffe16fdf99b3f7aada34d","B2","batch2","tol_toboard","1376","","","","","","","","","tol_peg_1","1376","1376","0","[[3,1,0],[0,0],[2]]","1","[[3,0,0],[2,1],[0]]","9","0","","","","","","3","","","","",""
"","","","","","single-stim-button","300","1049137","0.0-3.0-37.1-0.1","558ffe16fdf99b3f7aada34d","B2","batch2","tol_tohand","652","","","","","","","","","tol_peg_3","652","652","0","[[3,1,0],[0,0],[0]]","2","[[3,0,0],[2,1],[0]]","9","0","","","","","","3","","","","",""
"","","","","","single-stim-button","301","1049544","0.0-3.0-37.1-1.1","558ffe16fdf99b3f7aada34d","B2","batch2","tol_toboard","403","","","","","","","","","tol_peg_2","403","403","0","[[3,1,0],[2,0],[0]]","2","[[3,0,0],[2,1],[0]]","9","0","","","","","","3","","","","",""
"","","","","","single-stim-button","302","1050052","0.0-3.0-37.2-0.2","558ffe16fdf99b3f7aada34d","B2","batch2","tol_tohand","503","","","","","","","","","tol_peg_1","503","503","0","[[3,0,0],[2,0],[0]]","3","[[3,0,0],[2,1],[0]]","9","0","","","","","","3","","","","",""
"","","","","","single-stim-button","303","1050742","0.0-3.0-37.2-1.2","558ffe16fdf99b3f7aada34d","B2","batch2","tol_toboard","685","","","","","","","","","tol_peg_2","685","685","0","[[3,0,0],[2,1],[0]]","3","[[3,0,0],[2,1],[0]]","9","0","","","","","","3","","","","",""
"","","","","","poldrack-single-stim","304","1051753","0.0-3.0-38.0","558ffe16fdf99b3f7aada34d","B2","batch2","tol_feedback","-1","","","","","true","","","","","1000","1000","500","","","","","","-1","none","true","3739","4894","","","","","",""
"","","","","","html-button-response","305","1052999","0.0-3.0-39.0","558ffe16fdf99b3f7aada34d","B2","batch2","tol_trial_num","1238.8000000002794","<div class = centerbox><p class = center-block-text>problem <strong>11</strong> out of 25 problems</p></div>","0","","","","","","","","","","","","","","","","","","","","","","","","","",""
"","","","","","single-stim-button","306","1055223","0.0-3.0-40.0-0.0","558ffe16fdf99b3f7aada34d","B2","batch2","tol_tohand","2218","","","","","","","","","tol_peg_2","2218","2218","0","[[1,2,0],[0,0],[0]]","1","[[2,0,0],[1,3],[0]]","10","0","","","","","","6","","","","",""
"","","","","","single-stim-button","307","1056850","0.0-3.0-40.0-1.0","558ffe16fdf99b3f7aada34d","B2","batch2","tol_toboard","1622","","","","","","","","","tol_peg_2","1622","1622","0","[[1,2,0],[3,0],[0]]","1","[[2,0,0],[1,3],[0]]","10","0","","","","","","6","","","","",""
"","","","","","single-stim-button","308","1057590","0.0-3.0-40.1-0.1","558ffe16fdf99b3f7aada34d","B2","batch2","tol_tohand","735","","","","","","","","","tol_peg_1","735","735","0","[[1,0,0],[3,0],[0]]","2","[[2,0,0],[1,3],[0]]","10","0","","","","","","6","","","","",""
"","","","","","single-stim-button","309","1062105","0.0-3.0-40.1-1.1","558ffe16fdf99b3f7aada34d","B2","batch2","tol_toboard","4511","","","","","","","","","tol_peg_3","4511","4511","0","[[1,0,0],[3,0],[2]]","2","[[2,0,0],[1,3],[0]]","10","0","","","","","","6","","","","",""
"","","","","","single-stim-button","310","1062642","0.0-3.0-40.2-0.2","558ffe16fdf99b3f7aada34d","B2","batch2","tol_tohand","530","","","","","","","","","tol_peg_1","530","530","0","[[0,0,0],[3,0],[2]]","3","[[2,0,0],[1,3],[0]]","10","0","","","","","","6","","","","",""
"","","","","","single-stim-button","311","1063014","0.0-3.0-40.2-1.2","558ffe16fdf99b3f7aada34d","B2","batch2","tol_toboard","365","","","","","","","","","tol_peg_2","365","365","0","[[0,0,0],[3,1],[2]]","3","[[2,0,0],[1,3],[0]]","10","0","","","","","","6","","","","",""
"","","","","","single-stim-button","312","1063479","0.0-3.0-40.3-0.3","558ffe16fdf99b3f7aada34d","B2","batch2","tol_tohand","457","","","","","","","","","tol_peg_3","457","457","0","[[0,0,0],[3,1],[0]]","4","[[2,0,0],[1,3],[0]]","10","0","","","","","","6","","","","",""
"","","","","","single-stim-button","313","1064202","0.0-3.0-40.3-1.3","558ffe16fdf99b3f7aada34d","B2","batch2","tol_toboard","717","","","","","","","","","tol_peg_1","717","717","0","[[2,0,0],[3,1],[0]]","4","[[2,0,0],[1,3],[0]]","10","0","","","","","","6","","","","",""
"","","","","","single-stim-button","314","1064910","0.0-3.0-40.4-0.4","558ffe16fdf99b3f7aada34d","B2","batch2","tol_tohand","702","","","","","","","","","tol_peg_2","702","702","0","[[2,0,0],[3,0],[0]]","5","[[2,0,0],[1,3],[0]]","10","0","","","","","","6","","","","",""
"","","","","","single-stim-button","315","1066258","0.0-3.0-40.4-1.4","558ffe16fdf99b3f7aada34d","B2","batch2","tol_toboard","1343","","","","","","","","","tol_peg_1","1343","1343","0","[[2,1,0],[3,0],[0]]","5","[[2,0,0],[1,3],[0]]","10","0","","","","","","6","","","","",""
"","","","","","single-stim-button","316","1066815","0.0-3.0-40.5-0.5","558ffe16fdf99b3f7aada34d","B2","batch2","tol_tohand","552","","","","","","","","","tol_peg_2","552","552","0","[[2,1,0],[0,0],[0]]","6","[[2,0,0],[1,3],[0]]","10","0","","","","","","6","","","","",""
"","","","","","single-stim-button","317","1067418","0.0-3.0-40.5-1.5","558ffe16fdf99b3f7aada34d","B2","batch2","tol_toboard","593","","","","","","","","","tol_peg_3","593","593","0","[[2,1,0],[0,0],[3]]","6","[[2,0,0],[1,3],[0]]","10","0","","","","","","6","","","","",""
"","","","","","single-stim-button","318","1067921","0.0-3.0-40.6-0.6","558ffe16fdf99b3f7aada34d","B2","batch2","tol_tohand","498","","","","","","","","","tol_peg_1","498","498","0","[[2,0,0],[0,0],[3]]","7","[[2,0,0],[1,3],[0]]","10","0","","","","","","6","","","","",""
"","","","","","single-stim-button","319","1068393","0.0-3.0-40.6-1.6","558ffe16fdf99b3f7aada34d","B2","batch2","tol_toboard","465","","","","","","","","","tol_peg_2","465","465","0","[[2,0,0],[1,0],[3]]","7","[[2,0,0],[1,3],[0]]","10","0","","","","","","6","","","","",""
"","","","","","single-stim-button","320","1068926","0.0-3.0-40.7-0.7","558ffe16fdf99b3f7aada34d","B2","batch2","tol_tohand","529","","","","","","","","","tol_peg_3","529","529","0","[[2,0,0],[1,0],[0]]","8","[[2,0,0],[1,3],[0]]","10","0","","","","","","6","","","","",""
"","","","","","single-stim-button","321","1069371","0.0-3.0-40.7-1.7","558ffe16fdf99b3f7aada34d","B2","batch2","tol_toboard","437","","","","","","","","","tol_peg_2","437","437","0","[[2,0,0],[1,3],[0]]","8","[[2,0,0],[1,3],[0]]","10","0","","","","","","6","","","","",""
"","","","","","poldrack-single-stim","322","1070385","0.0-3.0-41.0","558ffe16fdf99b3f7aada34d","B2","batch2","tol_feedback","-1","","","","","true","","","","","1000","1000","500","","","","","","-1","none","true","2218","6221","","","","","",""
"","","","","","html-button-response","323","1071123","0.0-3.0-42.0","558ffe16fdf99b3f7aada34d","B2","batch2","tol_trial_num","731.6999999997206","<div class = centerbox><p class = center-block-text>problem <strong>12</strong> out of 25 problems</p></div>","0","","","","","","","","","","","","","","","","","","","","","","","","","",""
"","","","","","single-stim-button","324","1074284","0.0-3.0-43.0-0.0","558ffe16fdf99b3f7aada34d","B2","batch2","tol_tohand","3154","","","","","","","","","tol_peg_1","3154","3154","0","[[1,0,0],[3,0],[0]]","1","[[2,3,0],[0,0],[1]]","11","0","","","","","","4","","","","",""
"","","","","","single-stim-button","325","1074719","0.0-3.0-43.0-1.0","558ffe16fdf99b3f7aada34d","B2","batch2","tol_toboard","429","","","","","","","","","tol_peg_2","429","429","0","[[1,0,0],[3,2],[0]]","1","[[2,3,0],[0,0],[1]]","11","0","","","","","","4","","","","",""
"","","","","","single-stim-button","326","1075124","0.0-3.0-43.1-0.1","558ffe16fdf99b3f7aada34d","B2","batch2","tol_tohand","399","","","","","","","","","tol_peg_1","399","399","0","[[0,0,0],[3,2],[0]]","2","[[2,3,0],[0,0],[1]]","11","0","","","","","","4","","","","",""
"","","","","","single-stim-button","327","1077353","0.0-3.0-43.1-1.1","558ffe16fdf99b3f7aada34d","B2","batch2","tol_toboard","2224","","","","","","","","","tol_peg_1","2224","2224","0","[[1,0,0],[3,2],[0]]","2","[[2,3,0],[0,0],[1]]","11","0","","","","","","4","","","","",""
"","","","","","single-stim-button","328","1078570","0.0-3.0-43.2-0.2","558ffe16fdf99b3f7aada34d","B2","batch2","tol_tohand","1213","","","","","","","","","tol_peg_2","1213","1213","0","[[1,0,0],[3,0],[0]]","3","[[2,3,0],[0,0],[1]]","11","0","","","","","","4","","","","",""
"","","","","","single-stim-button","329","1079310","0.0-3.0-43.2-1.2","558ffe16fdf99b3f7aada34d","B2","batch2","tol_toboard","736","","","","","","","","","tol_peg_3","736","736","0","[[1,0,0],[3,0],[2]]","3","[[2,3,0],[0,0],[1]]","11","0","","","","","","4","","","","",""
"","","","","","single-stim-button","330","1080828","0.0-3.0-43.3-0.3","558ffe16fdf99b3f7aada34d","B2","batch2","tol_tohand","1513","","","","","","","","","tol_peg_1","1513","1513","0","[[0,0,0],[3,0],[2]]","4","[[2,3,0],[0,0],[1]]","11","0","","","","","","4","","","","",""
"","","","","","single-stim-button","331","1081246","0.0-3.0-43.3-1.3","558ffe16fdf99b3f7aada34d","B2","batch2","tol_toboard","411","","","","","","","","","tol_peg_2","411","411","0","[[0,0,0],[3,1],[2]]","4","[[2,3,0],[0,0],[1]]","11","0","","","","","","4","","","","",""
"","","","","","single-stim-button","332","1081678","0.0-3.0-43.4-0.4","558ffe16fdf99b3f7aada34d","B2","batch2","tol_tohand","427","","","","","","","","","tol_peg_3","427","427","0","[[0,0,0],[3,1],[0]]","5","[[2,3,0],[0,0],[1]]","11","0","","","","","","4","","","","",""
"","","","","","single-stim-button","333","1082143","0.0-3.0-43.4-1.4","558ffe16fdf99b3f7aada34d","B2","batch2","tol_toboard","462","","","","","","","","","tol_peg_1","462","462","0","[[2,0,0],[3,1],[0]]","5","[[2,3,0],[0,0],[1]]","11","0","","","","","","4","","","","",""
"","","","","","single-stim-button","334","1082549","0.0-3.0-43.5-0.5","558ffe16fdf99b3f7aada34d","B2","batch2","tol_tohand","400","","","","","","","","","tol_peg_2","400","400","0","[[2,0,0],[3,0],[0]]","6","[[2,3,0],[0,0],[1]]","11","0","","","","","","4","","","","",""
"","","","","","single-stim-button","335","1082879","0.0-3.0-43.5-1.5","558ffe16fdf99b3f7aada34d","B2","batch2","tol_toboard","327","","","","","","","","","tol_peg_3","327","327","0","[[2,0,0],[3,0],[1]]","6","[[2,3,0],[0,0],[1]]","11","0","","","","","","4","","","","",""
"","","","","","single-stim-button","336","1083281","0.0-3.0-43.6-0.6","558ffe16fdf99b3f7aada34d","B2","batch2","tol_tohand","397","","","","","","","","","tol_peg_2","397","397","0","[[2,0,0],[0,0],[1]]","7","[[2,3,0],[0,0],[1]]","11","0","","","","","","4","","","","",""
"","","","","","single-stim-button","337","1083608","0.0-3.0-43.6-1.6","558ffe16fdf99b3f7aada34d","B2","batch2","tol_toboard","322","","","","","","","","","tol_peg_1","322","322","0","[[2,3,0],[0,0],[1]]","7","[[2,3,0],[0,0],[1]]","11","0","","","","","","4","","","","",""
"","","","","","poldrack-single-stim","338","1084615","0.0-3.0-44.0","558ffe16fdf99b3f7aada34d","B2","batch2","tol_feedback","-1","","","","","true","","","","","1000","1000","500","","","","","","-1","none","true","3154","7503","","","","","",""
"","","","","","html-button-response","339","1085420","0.0-3.0-45.0","558ffe16fdf99b3f7aada34d","B2","batch2","tol_trial_num","800.6000000000931","<div class = centerbox><p class = center-block-text>problem <strong>13</strong> out of 25 problems</p></div>","0","","","","","","","","","","","","","","","","","","","","","","","","","",""
"","","","","","single-stim-button","340","1087780","0.0-3.0-46.0-0.0","558ffe16fdf99b3f7aada34d","B2","batch2","tol_tohand","2352","","","","","","","","","tol_peg_2","2352","2352","0","[[1,2,0],[0,0],[0]]","1","[[0,0,0],[2,3],[1]]","12","0","","","","","","4","","","","",""
"","","","","","single-stim-button","341","1089306","0.0-3.0-46.0-1.0","558ffe16fdf99b3f7aada34d","B2","batch2","tol_toboard","1521","","","","","","","","","tol_peg_3","1521","1521","0","[[1,2,0],[0,0],[3]]","1","[[0,0,0],[2,3],[1]]","12","0","","","","","","4","","","","",""
"","","","","","single-stim-button","342","1089827","0.0-3.0-46.1-0.1","558ffe16fdf99b3f7aada34d","B2","batch2","tol_tohand","514","","","","","","","","","tol_peg_1","514","514","0","[[1,0,0],[0,0],[3]]","2","[[0,0,0],[2,3],[1]]","12","0","","","","","","4","","","","",""
"","","","","","single-stim-button","343","1090201","0.0-3.0-46.1-1.1","558ffe16fdf99b3f7aada34d","B2","batch2","tol_toboard","368","","","","","","","","","tol_peg_2","368","368","0","[[1,0,0],[2,0],[3]]","2","[[0,0,0],[2,3],[1]]","12","0","","","","","","4","","","","",""
"","","","","","single-stim-button","344","1091109","0.0-3.0-46.2-0.2","558ffe16fdf99b3f7aada34d","B2","batch2","tol_tohand","902","","","","","","","","","tol_peg_3","902","902","0","[[1,0,0],[2,0],[0]]","3","[[0,0,0],[2,3],[1]]","12","0","","","","","","4","","","","",""
"","","","","","single-stim-button","345","1091445","0.0-3.0-46.2-1.2","558ffe16fdf99b3f7aada34d","B2","batch2","tol_toboard","321","","","","","","","","","tol_peg_2","321","321","0","[[1,0,0],[2,3],[0]]","3","[[0,0,0],[2,3],[1]]","12","0","","","","","","4","","","","",""
"","","","","","single-stim-button","346","1091861","0.0-3.0-46.3-0.3","558ffe16fdf99b3f7aada34d","B2","batch2","tol_tohand","411","","","","","","","","","tol_peg_1","411","411","0","[[0,0,0],[2,3],[0]]","4","[[0,0,0],[2,3],[1]]","12","0","","","","","","4","","","","",""
"","","","","","single-stim-button","347","1092307","0.0-3.0-46.3-1.3","558ffe16fdf99b3f7aada34d","B2","batch2","tol_toboard","442","","","","","","","","","tol_peg_3","442","442","0","[[0,0,0],[2,3],[1]]","4","[[0,0,0],[2,3],[1]]","12","0","","","","","","4","","","","",""
"","","","","","poldrack-single-stim","348","1093319","0.0-3.0-47.0","558ffe16fdf99b3f7aada34d","B2","batch2","tol_feedback","-1","","","","","true","","","","","1000","1000","500","","","","","","-1","none","true","2352","4179","","","","","",""
"","","","","","html-button-response","349","1097614","0.0-3.0-48.0","558ffe16fdf99b3f7aada34d","B2","batch2","attention_check","4288.799999999814","<p class = block-text>How many balls are in your board<br></p>","1","","","true","","","","","","","","","","","","","","","","","","","","","","",""
"","","","","","html-button-response","350","1098709","0.0-3.0-49.0","558ffe16fdf99b3f7aada34d","B2","batch2","tol_trial_num","1088.8999999999069","<div class = centerbox><p class = center-block-text>problem <strong>14</strong> out of 25 problems</p></div>","0","","","","","","","","","","","","","","","","","","","","","","","","","",""
"","","","","","single-stim-button","351","1101485","0.0-3.0-50.0-0.0","558ffe16fdf99b3f7aada34d","B2","batch2","tol_tohand","2771","","","","","","","","","tol_peg_1","2771","2771","0","[[2,0,0],[3,0],[0]]","1","[[1,2,0],[3,0],[0]]","13","0","","","","","","4","","","","",""
"","","","","","single-stim-button","352","1101982","0.0-3.0-50.0-1.0","558ffe16fdf99b3f7aada34d","B2","batch2","tol_toboard","493","","","","","","","","","tol_peg_2","493","493","0","[[2,0,0],[3,1],[0]]","1","[[1,2,0],[3,0],[0]]","13","0","","","","","","4","","","","",""
"","","","","","single-stim-button","353","1102417","0.0-3.0-50.1-0.1","558ffe16fdf99b3f7aada34d","B2","batch2","tol_tohand","431","","","","","","","","","tol_peg_1","431","431","0","[[0,0,0],[3,1],[0]]","2","[[1,2,0],[3,0],[0]]","13","0","","","","","","4","","","","",""
"","","","","","single-stim-button","354","1102840","0.0-3.0-50.1-1.1","558ffe16fdf99b3f7aada34d","B2","batch2","tol_toboard","417","","","","","","","","","tol_peg_3","417","417","0","[[0,0,0],[3,1],[2]]","2","[[1,2,0],[3,0],[0]]","13","0","","","","","","4","","","","",""
"","","","","","single-stim-button","355","1103284","0.0-3.0-50.2-0.2","558ffe16fdf99b3f7aada34d","B2","batch2","tol_tohand","440","","","","","","","","","tol_peg_2","440","440","0","[[0,0,0],[3,0],[2]]","3","[[1,2,0],[3,0],[0]]","13","0","","","","","","4","","","","",""
