"success","timeout","failed_images","failed_audio","failed_video","trial_type","trial_index","time_elapsed","internal_node_id","subject_id","study_id","session_id","view_history","rt","task","stimulus","response","correct","mouse_click","stim_duration","block_duration","timing_post_trial","current_position","tol_num_moves_made","tol_target","tol_problem_id","tol_rt","key_press","possible_responses","tol_correct","preplanning","tol_rt_per_trial","tol_min_moves","item","answer","spm_correct","spm_rt","fiar_detect_rt","fiar_detect_correct","total_correct_fiar_detect","post_trial_gap","choices"
"true","false","[]","[]","[]","preload","0","1415","0.0-0.0","559002fefdf99b3f7aada38f","E1","batch5","","","","","","","","","","","","","","","","","","","","","","","","","","","","","",""
"true","","","","","fullscreen","1","59345","0.0-1.0-0.0","559002fefdf99b3f7aada38f","E1","batch5","","","","","","","","","","","","","","","","","","","","","","","","","","","","","",""
"true","","","","","fullscreen","2","63040","0.0-2.0-0.0","559002fefdf99b3f7aada38f","E1","batch5","","","","","","","","","","","","","","","","","","","","","","","","","","","","","",""
"","","","","","instructions","3","124247","0.0-2.0-1.0-0.0-0.0","559002fefdf99b3f7aada38f","E1","batch5","[{""page_index"":0,""viewing_time"":14613.100000023842},{""page_index"":1,""viewing_time"":7783.799999952316},{""page_index"":2,""viewing_time"":6395},{""page_index"":3,""viewing_time"":10785.200000047684},{""page_index"":4,""viewing_time"":9896.699999928474},{""page_index"":5,""viewing_time"":6933.600000023842},{""page_index"":6,""viewing_time"":4798.5}]","61206.200000047684","tol-instructions","","","","","","","","","","","","","","","","","","","","","","","","","","",""
"","","","","","html-button-response","4","125651","0.0-2.0-1.0-1.0-0.0","559002fefdf99b3f7aada38f","E1","batch5","","1402.7000000476837","tol_enter_quiz","<p class=block-text> Let's answer a few questions <br>","0","","","","","","","","","","","","","","","","","","","","","","","","",""
"","","","","","html-button-response","5","132830","0.0-2.0-1.0-1.0-1.0","559002fefdf99b3f7aada38f","E1","batch5","","7178.299999952316","tol_quiz","<p class = block-text>True or False: You can only move the ball on top of a peg. <br></p>","0","true","","","","","","","","","","","","","","","","","","","","","","","",""
"","","","","","html-button-response","6","134928","0.0-2.0-1.0-1.0-2.0","559002fefdf99b3f7aada38f","E1","batch5","","2096.600000023842","tol_quiz_feedback","<p class = block-text>Correct! You can only move the ball on top of a peg.</p>","0","","","","","","","","","","","","","","","","","","","","","","","","",""
"","","","","","html-button-response","7","140376","0.0-2.0-1.0-1.0-3.0","559002fefdf99b3f7aada38f","E1","batch5","","5446.900000095367","tol_quiz","<p class = block-text>True or False: You should try to match your board with the target board with fewest moves possible. <br></p>","0","true","","","","","","","","","","","","","","","","","","","","","","","",""
"","","","","","html-button-response","8","141332","0.0-2.0-1.0-1.0-4.0","559002fefdf99b3f7aada38f","E1","batch5","","955.6999999284744","tol_quiz_feedback","<p class = block-text>Correct! </p>","0","","","","","","","","","","","","","","","","","","","","","","","","",""
"","","","","","html-button-response","9","144491","0.0-2.0-2.0","559002fefdf99b3f7aada38f","E1","batch5","","3157.5","","<p class=block-text> Now that you've understood the game, let's practice a few easier examples before we start!<br> <br>","0","","","","","","","","","","","","","","","","","","","","","","","","",""
"","","","","","single-stim-button","10","149208","0.0-2.0-3.0-0.0","559002fefdf99b3f7aada38f","E1","batch5","","4715","tol_practice","","","","tol_peg_2","4715","4715","0","[[1,2,0],[0,0],[0]]","1","[[1,2,0],[0,0],[3]]","practice","4715","","","","","","","","","","","","","","",""
"","","","","","single-stim-button","11","157366","0.0-2.0-3.0-1.0","559002fefdf99b3f7aada38f","E1","batch5","","8157","tol_practice","","","","tol_peg_3","8157","8157","0","[[1,2,0],[0,0],[3]]","1","[[1,2,0],[0,0],[3]]","practice","8157","","","","","","","","","","","","","","",""
"","","","","","poldrack-single-stim","12","158381","0.0-2.0-4.0","559002fefdf99b3f7aada38f","E1","batch5","","-1","tol_feedback","","","true","","1000","1000","500","","","","","","-1","none","true","","0","","","","","","","","","",""
"","","","","","single-stim-button","13","163045","0.0-2.0-5.0-0.0","559002fefdf99b3f7aada38f","E1","batch5","","4664","tol_practice","","","","tol_peg_1","4664","4664","0","[[1,0,0],[3,0],[0]]","2","[[0,0,0],[3,1],[2]]","practice","4664","","","","","","","","","","","","","","",""
"","","","","","single-stim-button","14","164481","0.0-2.0-5.0-1.0","559002fefdf99b3f7aada38f","E1","batch5","","1435","tol_practice","","","","tol_peg_3","1435","1435","0","[[1,0,0],[3,0],[2]]","2","[[0,0,0],[3,1],[2]]","practice","1435","","","","","","","","","","","","","","",""
"","","","","","single-stim-button","15","166336","0.0-2.0-5.1-0.1","559002fefdf99b3f7aada38f","E1","batch5","","1854","tol_practice","","","","tol_peg_1","1854","1854","0","[[0,0,0],[3,0],[2]]","3","[[0,0,0],[3,1],[2]]","practice","1854","","","","","","","","","","","","","","",""
"","","","","","single-stim-button","16","167517","0.0-2.0-5.1-1.1","559002fefdf99b3f7aada38f","E1","batch5","","1181","tol_practice","","","","tol_peg_2","1181","1181","0","[[0,0,0],[3,1],[2]]","3","[[0,0,0],[3,1],[2]]","practice","1181","","","","","","","","","","","","","","",""
"","","","","","poldrack-single-stim","17","168528","0.0-2.0-6.0","559002fefdf99b3f7aada38f","E1","batch5","","-1","tol_feedback","","","true","","1000","1000","500","","","","","","-1","none","true","","0","","","","","","","","","",""
"","","","","","single-stim-button","18","172790","0.0-2.0-7.0-0.0","559002fefdf99b3f7aada38f","E1","batch5","","4262","tol_practice","","","","tol_peg_2","4262","4262","0","[[1,2,0],[0,0],[0]]","4","[[1,0,0],[2,0],[3]]","practice","4262","","","","","","","","","","","","","","",""
"","","","","","single-stim-button","19","174142","0.0-2.0-7.0-1.0","559002fefdf99b3f7aada38f","E1","batch5","","1352","tol_practice","","","","tol_peg_3","1352","1352","0","[[1,2,0],[0,0],[3]]","4","[[1,0,0],[2,0],[3]]","practice","1352","","","","","","","","","","","","","","",""
"","","","","","single-stim-button","20","175287","0.0-2.0-7.1-0.1","559002fefdf99b3f7aada38f","E1","batch5","","1145","tol_practice","","","","tol_peg_1","1145","1145","0","[[1,0,0],[0,0],[3]]","5","[[1,0,0],[2,0],[3]]","practice","1145","","","","","","","","","","","","","","",""
"","","","","","single-stim-button","21","176756","0.0-2.0-7.1-1.1","559002fefdf99b3f7aada38f","E1","batch5","","1468","tol_practice","","","","tol_peg_2","1468","1468","0","[[1,0,0],[2,0],[3]]","5","[[1,0,0],[2,0],[3]]","practice","1468","","","","","","","","","","","","","","",""
"","","","","","poldrack-single-stim","22","177763","0.0-2.0-8.0","559002fefdf99b3f7aada38f","E1","batch5","","-1","tol_feedback","","","true","","1000","1000","500","","","","","","-1","none","true","","0","","","","","","","","","",""
"","","","","","html-button-response","23","181404","0.0-2.0-9.0","559002fefdf99b3f7aada38f","E1","batch5","","3639.2000000476837","tol_instruction","<div class = centerbox><p class = center-block-text>Great job! You are done with practice trials<br>You are about to start official trials.<br> <br> Problem <strong>1</strong> out of 25 problems</p></div>","0","","","","","","","","","","","","","","","","","","","","","","","","",""
"","","","","","single-stim-button","24","189407","0.0-2.0-10.0-0.0","559002fefdf99b3f7aada38f","E1","batch5","","6988","tol_tohand","","","","tol_peg_1","6988","6988","0","[[1,0,0],[3,0],[0]]","1","[[1,3,0],[2,0],[0]]","0","0","","","","","","3","","","","","","","","",""
"","","","","","single-stim-button","25","190613","0.0-2.0-10.0-1.0","559002fefdf99b3f7aada38f","E1","batch5","","1206","tol_toboard","","","","tol_peg_3","1206","1206","0","[[1,0,0],[3,0],[2]]","1","[[1,3,0],[2,0],[0]]","0","0","","","","","","3","","","","","","","","",""
"","","","","","single-stim-button","26","192592","0.0-2.0-10.1-0.1","559002fefdf99b3f7aada38f","E1","batch5","","1978","tol_tohand","","","","tol_peg_2","1978","1978","0","[[1,0,0],[0,0],[2]]","2","[[1,3,0],[2,0],[0]]","0","0","","","","","","3","","","","","","","","",""
"","","","","","single-stim-button","27","193583","0.0-2.0-10.1-1.1","559002fefdf99b3f7aada38f","E1","batch5","","991","tol_toboard","","","","tol_peg_1","991","991","0","[[1,3,0],[0,0],[2]]","2","[[1,3,0],[2,0],[0]]","0","0","","","","","","3","","","","","","","","",""
"","","","","","single-stim-button","28","194757","0.0-2.0-10.2-0.2","559002fefdf99b3f7aada38f","E1","batch5","","1173","tol_tohand","","","","tol_peg_3","1173","1173","0","[[1,3,0],[0,0],[0]]","3","[[1,3,0],[2,0],[0]]","0","0","","","","","","3","","","","","","","","",""
"","","","","","single-stim-button","29","196691","0.0-2.0-10.2-1.2","559002fefdf99b3f7aada38f","E1","batch5","","1934","tol_toboard","","","","tol_peg_2","1934","1934","0","[[1,3,0],[2,0],[0]]","3","[[1,3,0],[2,0],[0]]","0","0","","","","","","3","","","","","","","","",""
"","","","","","poldrack-single-stim","30","197701","0.0-2.0-11.0","559002fefdf99b3f7aada38f","E1","batch5","","-1","tol_feedback","","","true","","1000","1000","500","","","","","","-1","none","true","6988","10139","","","","","","","","","",""
"","","","","","html-button-response","31","199156","0.0-2.0-12.0","559002fefdf99b3f7aada38f","E1","batch5","","1453.6000000238419","tol_trial_num","<div class = centerbox><p class = center-block-text>problem <strong>2</strong> out of 25 problems</p></div>","0","","","","","","","","","","","","","","","","","","","","","","","","",""
"","","","","","single-stim-button","32","203299","0.0-2.0-13.0-0.0","559002fefdf99b3f7aada38f","E1","batch5","","4143","tol_tohand","","","","tol_peg_1","4143","4143","0","[[1,0,0],[3,0],[0]]","1","[[2,1,3],[0,0],[0]]","1","0","","","","","","5","","","","","","","","",""
"","","","","","single-stim-button","33","204517","0.0-2.0-13.0-1.0","559002fefdf99b3f7aada38f","E1","batch5","","1217","tol_toboard","","","","tol_peg_3","1217","1217","0","[[1,0,0],[3,0],[2]]","1","[[2,1,3],[0,0],[0]]","1","0","","","","","","5","","","","","","","","",""
"","","","","","single-stim-button","34","211422","0.0-2.0-13.1-0.1","559002fefdf99b3f7aada38f","E1","batch5","","6905","tol_tohand","","","","tol_peg_1","6905","6905","0","[[0,0,0],[3,0],[2]]","2","[[2,1,3],[0,0],[0]]","1","0","","","","","","5","","","","","","","","",""
"","","","","","single-stim-button","35","213287","0.0-2.0-13.1-1.1","559002fefdf99b3f7aada38f","E1","batch5","","1864","tol_toboard","","","","tol_peg_2","1864","1864","0","[[0,0,0],[3,1],[2]]","2","[[2,1,3],[0,0],[0]]","1","0","","","","","","5","","","","","","","","",""
"","","","","","single-stim-button","36","217698","0.0-2.0-13.2-0.2","559002fefdf99b3f7aada38f","E1","batch5","","4410","tol_tohand","","","","tol_peg_3","4410","4410","0","[[0,0,0],[3,1],[0]]","3","[[2,1,3],[0,0],[0]]","1","0","","","","","","5","","","","","","","","",""
"","","","","","single-stim-button","37","219132","0.0-2.0-13.2-1.2","559002fefdf99b3f7aada38f","E1","batch5","","1434","tol_toboard","","","","tol_peg_1","1434","1434","0","[[2,0,0],[3,1],[0]]","3","[[2,1,3],[0,0],[0]]","1","0","","","","","","5","","","","","","","","",""
"","","","","","single-stim-button","38","220527","0.0-2.0-13.3-0.3","559002fefdf99b3f7aada38f","E1","batch5","","1394","tol_tohand","","","","tol_peg_2","1394","1394","0","[[2,0,0],[3,0],[0]]","4","[[2,1,3],[0,0],[0]]","1","0","","","","","","5","","","","","","","","",""
"","","","","","single-stim-button","39","221838","0.0-2.0-13.3-1.3","559002fefdf99b3f7aada38f","E1","batch5","","1311","tol_toboard","","","","tol_peg_1","1311","1311","0","[[2,1,0],[3,0],[0]]","4","[[2,1,3],[0,0],[0]]","1","0","","","","","","5","","","","","","","","",""
"","","","","","single-stim-button","40","223007","0.0-2.0-13.4-0.4","559002fefdf99b3f7aada38f","E1","batch5","","1168","tol_tohand","","","","tol_peg_2","1168","1168","0","[[2,1,0],[0,0],[0]]","5","[[2,1,3],[0,0],[0]]","1","0","","","","","","5","","","","","","","","",""
"","","","","","single-stim-button","41","224159","0.0-2.0-13.4-1.4","559002fefdf99b3f7aada38f","E1","batch5","","1151","tol_toboard","","","","tol_peg_1","1151","1151","0","[[2,1,3],[0,0],[0]]","5","[[2,1,3],[0,0],[0]]","1","0","","","","","","5","","","","","","","","",""
"","","","","","poldrack-single-stim","42","225168","0.0-2.0-14.0","559002fefdf99b3f7aada38f","E1","batch5","","-1","tol_feedback","","","true","","1000","1000","500","","","","","","-1","none","true","4143","18020","","","","","","","","","",""
"","","","","","html-button-response","43","226645","0.0-2.0-15.0","559002fefdf99b3f7aada38f","E1","batch5","","1475.6000000238419","tol_trial_num","<div class = centerbox><p class = center-block-text>problem <strong>3</strong> out of 25 problems</p></div>","0","","","","","","","","","","","","","","","","","","","","","","","","",""
"","","","","","single-stim-button","44","230504","0.0-2.0-16.0-0.0","559002fefdf99b3f7aada38f","E1","batch5","","3859","tol_tohand","","","","tol_peg_1","3859","3859","0","[[2,0,0],[0,0],[1]]","1","[[1,2,0],[3,0],[0]]","2","0","","","","","","4","","","","","","","","",""
"","","","","","single-stim-button","45","231736","0.0-2.0-16.0-1.0","559002fefdf99b3f7aada38f","E1","batch5","","1231","tol_toboard","","","","tol_peg_2","1231","1231","0","[[2,0,0],[3,0],[1]]","1","[[1,2,0],[3,0],[0]]","2","0","","","","","","4","","","","","","","","",""
"","","","","","single-stim-button","46","233647","0.0-2.0-16.1-0.1","559002fefdf99b3f7aada38f","E1","batch5","","1910","tol_tohand","","","","tol_peg_1","1910","1910","0","[[0,0,0],[3,0],[1]]","2","[[1,2,0],[3,0],[0]]","2","0","","","","","","4","","","","","","","","",""
"","","","","","single-stim-button","47","235024","0.0-2.0-16.1-1.1","559002fefdf99b3f7aada38f","E1","batch5","","1377","tol_toboard","","","","tol_peg_2","1377","1377","0","[[0,0,0],[3,2],[1]]","2","[[1,2,0],[3,0],[0]]","2","0","","","","","","4","","","","","","","","",""
"","","","","","single-stim-button","48","237647","0.0-2.0-16.2-0.2","559002fefdf99b3f7aada38f","E1","batch5","","2621","tol_tohand","","","","tol_peg_3","2621","2621","0","[[0,0,0],[3,2],[0]]","3","[[1,2,0],[3,0],[0]]","2","0","","","","","","4","","","","","","","","",""
"","","","","","single-stim-button","49","239008","0.0-2.0-16.2-1.2","559002fefdf99b3f7aada38f","E1","batch5","","1361","tol_toboard","","","","tol_peg_1","1361","1361","0","[[1,0,0],[3,2],[0]]","3","[[1,2,0],[3,0],[0]]","2","0","","","","","","4","","","","","","","","",""
"","","","","","single-stim-button","50","240089","0.0-2.0-16.3-0.3","559002fefdf99b3f7aada38f","E1","batch5","","1079","tol_tohand","","","","tol_peg_2","1079","1079","0","[[1,0,0],[3,0],[0]]","4","[[1,2,0],[3,0],[0]]","2","0","","","","","","4","","","","","","","","",""
"","","","","","single-stim-button","51","241252","0.0-2.0-16.3-1.3","559002fefdf99b3f7aada38f","E1","batch5","","1162","tol_toboard","","","","tol_peg_1","1162","1162","0","[[1,2,0],[3,0],[0]]","4","[[1,2,0],[3,0],[0]]","2","0","","","","","","4","","","","","","","","",""
"","","","","","poldrack-single-stim","52","242263","0.0-2.0-17.0","559002fefdf99b3f7aada38f","E1","batch5","","-1","tol_feedback","","","true","","1000","1000","500","","","","","","-1","none","true","3859","9469","","","","","","","","","",""
"","","","","","html-button-response","53","243610","0.0-2.0-18.0","559002fefdf99b3f7aada38f","E1","batch5","","1346.1000000238419","tol_trial_num","<div class = centerbox><p class = center-block-text>problem <strong>4</strong> out of 25 problems</p></div>","0","","","","","","","","","","","","","","","","","","","","","","","","",""
"","","","","","single-stim-button","54","248336","0.0-2.0-19.0-0.0","559002fefdf99b3f7aada38f","E1","batch5","","4726","tol_tohand","","","","tol_peg_2","4726","4726","0","[[3,0,0],[2,0],[0]]","1","[[3,0,0],[1,0],[2]]","3","0","","","","","","3","","","","","","","","",""
"","","","","","single-stim-button","55","250412","0.0-2.0-19.0-1.0","559002fefdf99b3f7aada38f","E1","batch5","","2075","tol_toboard","","","","tol_peg_3","2075","2075","0","[[3,0,0],[2,0],[1]]","1","[[3,0,0],[1,0],[2]]","3","0","","","","","","3","","","","","","","","",""
"","","","","","single-stim-button","56","251532","0.0-2.0-19.1-0.1","559002fefdf99b3f7aada38f","E1","batch5","","1120","tol_tohand","","","","tol_peg_2","1120","1120","0","[[3,0,0],[0,0],[1]]","2","[[3,0,0],[1,0],[2]]","3","0","","","","","","3","","","","","","","","",""
"","","","","","single-stim-button","57","252602","0.0-2.0-19.1-1.1","559002fefdf99b3f7aada38f","E1","batch5","","1070","tol_toboard","","","","tol_peg_1","1070","1070","0","[[3,2,0],[0,0],[1]]","2","[[3,0,0],[1,0],[2]]","3","0","","","","","","3","","","","","","","","",""
"","","","","","single-stim-button","58","255541","0.0-2.0-19.2-0.2","559002fefdf99b3f7aada38f","E1","batch5","","2938","tol_tohand","","","","tol_peg_3","2938","2938","0","[[3,2,0],[0,0],[0]]","3","[[3,0,0],[1,0],[2]]","3","0","","","","","","3","","","","","","","","",""
"","","","","","single-stim-button","59","256788","0.0-2.0-19.2-1.2","559002fefdf99b3f7aada38f","E1","batch5","","1247","tol_toboard","","","","tol_peg_2","1247","1247","0","[[3,2,0],[1,0],[0]]","3","[[3,0,0],[1,0],[2]]","3","0","","","","","","3","","","","","","","","",""
"","","","","","single-stim-button","60","257930","0.0-2.0-19.3-0.3","559002fefdf99b3f7aada38f","E1","batch5","","1141","tol_tohand","","","","tol_peg_1","1141","1141","0","[[3,0,0],[1,0],[0]]","4","[[3,0,0],[1,0],[2]]","3","0","","","","","","3","","","","","","","","",""
"","","","","","single-stim-button","61","259460","0.0-2.0-19.3-1.3","559002fefdf99b3f7aada38f","E1","batch5","","1529","tol_toboard","","","","tol_peg_3","1529","1529","0","[[3,0,0],[1,0],[2]]","4","[[3,0,0],[1,0],[2]]","3","0","","","","","","3","","","","","","","","",""
"","","","","","poldrack-single-stim","62","260463","0.0-2.0-20.0","559002fefdf99b3f7aada38f","E1","batch5","","-1","tol_feedback","","","true","","1000","1000","500","","","","","","-1","none","true","4726","9925","","","","","","","","","",""
"","","","","","html-button-response","63","261932","0.0-2.0-21.0","559002fefdf99b3f7aada38f","E1","batch5","","1468.1000000238419","tol_trial_num","<div class = centerbox><p class = center-block-text>problem <strong>5</strong> out of 25 problems</p></div>","0","","","","","","","","","","","","","","","","","","","","","","","","",""
"","","","","","single-stim-button","64","276358","0.0-2.0-22.0-0.0","559002fefdf99b3f7aada38f","E1","batch5","","14426","tol_tohand","","","","tol_peg_3","14426","14426","0","[[1,0,0],[2,0],[0]]","1","[[0,0,0],[1,2],[3]]","4","0","","","","","","7","","","","","","","","",""
"","","","","","single-stim-button","65","283208","0.0-2.0-22.0-1.0","559002fefdf99b3f7aada38f","E1","batch5","","6850","tol_toboard","","","","tol_peg_2","6850","6850","0","[[1,0,0],[2,3],[0]]","1","[[0,0,0],[1,2],[3]]","4","0","","","","","","7","","","","","","","","",""
"","","","","","single-stim-button","66","284396","0.0-2.0-22.1-0.1","559002fefdf99b3f7aada38f","E1","batch5","","1186","tol_tohand","","","","tol_peg_1","1186","1186","0","[[0,0,0],[2,3],[0]]","2","[[0,0,0],[1,2],[3]]","4","0","","","","","","7","","","","","","","","",""
"","","","","","single-stim-button","67","285883","0.0-2.0-22.1-1.1","559002fefdf99b3f7aada38f","E1","batch5","","1486","tol_toboard","","","","tol_peg_3","1486","1486","0","[[0,0,0],[2,3],[1]]","2","[[0,0,0],[1,2],[3]]","4","0","","","","","","7","","","","","","","","",""
"","","","","","single-stim-button","68","290817","0.0-2.0-22.2-0.2","559002fefdf99b3f7aada38f","E1","batch5","","4934","tol_tohand","","","","tol_peg_2","4934","4934","0","[[0,0,0],[2,0],[1]]","3","[[0,0,0],[1,2],[3]]","4","0","","","","","","7","","","","","","","","",""
"","","","","","single-stim-button","69","291993","0.0-2.0-22.2-1.2","559002fefdf99b3f7aada38f","E1","batch5","","1175","tol_toboard","","","","tol_peg_1","1175","1175","0","[[3,0,0],[2,0],[1]]","3","[[0,0,0],[1,2],[3]]","4","0","","","","","","7","","","","","","","","",""
"","","","","","single-stim-button","70","294167","0.0-2.0-22.3-0.3","559002fefdf99b3f7aada38f","E1","batch5","","2174","tol_tohand","","","","tol_peg_3","2174","2174","0","[[3,0,0],[2,0],[0]]","4","[[0,0,0],[1,2],[3]]","4","0","","","","","","7","","","","","","","","",""
"","","","","","single-stim-button","71","295359","0.0-2.0-22.3-1.3","559002fefdf99b3f7aada38f","E1","batch5","","1190","tol_toboard","","","","tol_peg_1","1190","1190","0","[[3,1,0],[2,0],[0]]","4","[[0,0,0],[1,2],[3]]","4","0","","","","","","7","","","","","","","","",""
"","","","","","single-stim-button","72","297997","0.0-2.0-22.4-0.4","559002fefdf99b3f7aada38f","E1","batch5","","2638","tol_tohand","","","","tol_peg_2","2638","2638","0","[[3,1,0],[0,0],[0]]","5","[[0,0,0],[1,2],[3]]","4","0","","","","","","7","","","","","","","","",""
"","","","","","single-stim-button","73","299539","0.0-2.0-22.4-1.4","559002fefdf99b3f7aada38f","E1","batch5","","1541","tol_toboard","","","","tol_peg_3","1541","1541","0","[[3,1,0],[0,0],[2]]","5","[[0,0,0],[1,2],[3]]","4","0","","","","","","7","","","","","","","","",""
"","","","","","single-stim-button","74","300828","0.0-2.0-22.5-0.5","559002fefdf99b3f7aada38f","E1","batch5","","1288","tol_tohand","","","","tol_peg_1","1288","1288","0","[[3,0,0],[0,0],[2]]","6","[[0,0,0],[1,2],[3]]","4","0","","","","","","7","","","","","","","","",""
"","","","","","single-stim-button","75","302129","0.0-2.0-22.5-1.5","559002fefdf99b3f7aada38f","E1","batch5","","1300","tol_toboard","","","","tol_peg_2","1300","1300","0","[[3,0,0],[1,0],[2]]","6","[[0,0,0],[1,2],[3]]","4","0","","","","","","7","","","","","","","","",""
"","","","","","single-stim-button","76","303699","0.0-2.0-22.6-0.6","559002fefdf99b3f7aada38f","E1","batch5","","1570","tol_tohand","","","","tol_peg_3","1570","1570","0","[[3,0,0],[1,0],[0]]","7","[[0,0,0],[1,2],[3]]","4","0","","","","","","7","","","","","","","","",""
"","","","","","single-stim-button","77","304784","0.0-2.0-22.6-1.6","559002fefdf99b3f7aada38f","E1","batch5","","1084","tol_toboard","","","","tol_peg_2","1084","1084","0","[[3,0,0],[1,2],[0]]","7","[[0,0,0],[1,2],[3]]","4","0","","","","","","7","","","","","","","","",""
"","","","","","single-stim-button","78","306005","0.0-2.0-22.7-0.7","559002fefdf99b3f7aada38f","E1","batch5","","1219","tol_tohand","","","","tol_peg_1","1219","1219","0","[[0,0,0],[1,2],[0]]","8","[[0,0,0],[1,2],[3]]","4","0","","","","","","7","","","","","","","","",""
"","","","","","single-stim-button","79","307341","0.0-2.0-22.7-1.7","559002fefdf99b3f7aada38f","E1","batch5","","1336","tol_toboard","","","","tol_peg_3","1336","1336","0","[[0,0,0],[1,2],[3]]","8","[[0,0,0],[1,2],[3]]","4","0","","","","","","7","","","","","","","","",""
"","","","","","poldrack-single-stim","80","308354","0.0-2.0-23.0","559002fefdf99b3f7aada38f","E1","batch5","","-1","tol_feedback","","","true","","1000","1000","500","","","","","","-1","none","true","14426","29435","","","","","","","","","",""
"","","","","","html-button-response","81","309538","0.0-2.0-24.0","559002fefdf99b3f7aada38f","E1","batch5","","1183.7000000476837","tol_trial_num","<div class = centerbox><p class = center-block-text>problem <strong>6</strong> out of 25 problems</p></div>","0","","","","","","","","","","","","","","","","","","","","","","","","",""
"","","","","","single-stim-button","82","313576","0.0-2.0-25.0-0.0","559002fefdf99b3f7aada38f","E1","batch5","","4037","tol_tohand","","","","tol_peg_2","4037","4037","0","[[0,0,0],[1,0],[3]]","1","[[1,0,0],[2,3],[0]]","5","0","","","","","","6","","","","","","","","",""
"","","","","","single-stim-button","83","317699","0.0-2.0-25.0-1.0","559002fefdf99b3f7aada38f","E1","batch5","","4122","tol_toboard","","","","tol_peg_1","4122","4122","0","[[2,0,0],[1,0],[3]]","1","[[1,0,0],[2,3],[0]]","5","0","","","","","","6","","","","","","","","",""
"","","","","","single-stim-button","84","319037","0.0-2.0-25.1-0.1","559002fefdf99b3f7aada38f","E1","batch5","","1338","tol_tohand","","","","tol_peg_2","1338","1338","0","[[2,0,0],[0,0],[3]]","2","[[1,0,0],[2,3],[0]]","5","0","","","","","","6","","","","","","","","",""
"","","","","","single-stim-button","85","320349","0.0-2.0-25.1-1.1","559002fefdf99b3f7aada38f","E1","batch5","","1310","tol_toboard","","","","tol_peg_1","1310","1310","0","[[2,1,0],[0,0],[3]]","2","[[1,0,0],[2,3],[0]]","5","0","","","","","","6","","","","","","","","",""
"","","","","","single-stim-button","86","321518","0.0-2.0-25.2-0.2","559002fefdf99b3f7aada38f","E1","batch5","","1169","tol_tohand","","","","tol_peg_3","1169","1169","0","[[2,1,0],[0,0],[0]]","3","[[1,0,0],[2,3],[0]]","5","0","","","","","","6","","","","","","","","",""
"","","","","","single-stim-button","87","323213","0.0-2.0-25.2-1.2","559002fefdf99b3f7aada38f","E1","batch5","","1694","tol_toboard","","","","tol_peg_2","1694","1694","0","[[2,1,0],[3,0],[0]]","3","[[1,0,0],[2,3],[0]]","5","0","","","","","","6","","","","","","","","",""
"","","","","","single-stim-button","88","330127","0.0-2.0-25.3-0.3","559002fefdf99b3f7aada38f","E1","batch5","","6913","tol_tohand","","","","tol_peg_1","6913","6913","0","[[2,0,0],[3,0],[0]]","4","[[1,0,0],[2,3],[0]]","5","0","","","","","","6","","","","","","","","",""
"","","","","","single-stim-button","89","331293","0.0-2.0-25.3-1.3","559002fefdf99b3f7aada38f","E1","batch5","","1165","tol_toboard","","","","tol_peg_2","1165","1165","0","[[2,0,0],[3,1],[0]]","4","[[1,0,0],[2,3],[0]]","5","0","","","","","","6","","","","","","","","",""
"","","","","","single-stim-button","90","332445","0.0-2.0-25.4-0.4","559002fefdf99b3f7aada38f","E1","batch5","","1151","tol_tohand","","","","tol_peg_1","1151","1151","0","[[0,0,0],[3,1],[0]]","5","[[1,0,0],[2,3],[0]]","5","0","","","","","","6","","","","","","","","",""
"","","","","","single-stim-button","91","333771","0.0-2.0-25.4-1.4","559002fefdf99b3f7aada38f","E1","batch5","","1326","tol_toboard","","","","tol_peg_3","1326","1326","0","[[0,0,0],[3,1],[2]]","5","[[1,0,0],[2,3],[0]]","5","0","","","","","","6","","","","","","","","",""
"","","","","","single-stim-button","92","334956","0.0-2.0-25.5-0.5","559002fefdf99b3f7aada38f","E1","batch5","","1184","tol_tohand","","","","tol_peg_2","1184","1184","0","[[0,0,0],[3,0],[2]]","6","[[1,0,0],[2,3],[0]]","5","0","","","","","","6","","","","","","","","",""
"","","","","","single-stim-button","93","336692","0.0-2.0-25.5-1.5","559002fefdf99b3f7aada38f","E1","batch5","","1735","tol_toboard","","","","tol_peg_1","1735","1735","0","[[1,0,0],[3,0],[2]]","6","[[1,0,0],[2,3],[0]]","5","0","","","","","","6","","","","","","","","",""
"","","","","","single-stim-button","94","338131","0.0-2.0-25.6-0.6","559002fefdf99b3f7aada38f","E1","batch5","","1439","tol_tohand","","","","tol_peg_2","1439","1439","0","[[1,0,0],[0,0],[2]]","7","[[1,0,0],[2,3],[0]]","5","0","","","","","","6","","","","","","","","",""
"","","","","","single-stim-button","95","339269","0.0-2.0-25.6-1.6","559002fefdf99b3f7aada38f","E1","batch5","","1138","tol_toboard","","","","tol_peg_1","1138","1138","0","[[1,3,0],[0,0],[2]]","7","[[1,0,0],[2,3],[0]]","5","0","","","","","","6","","","","","","","","",""
"","","","","","single-stim-button","96","340608","0.0-2.0-25.7-0.7","559002fefdf99b3f7aada38f","E1","batch5","","1338","tol_tohand","","","","tol_peg_3","1338","1338","0","[[1,3,0],[0,0],[0]]","8","[[1,0,0],[2,3],[0]]","5","0","","","","","","6","","","","","","","","",""
"","","","","","single-stim-button","97","341502","0.0-2.0-25.7-1.7","559002fefdf99b3f7aada38f","E1","batch5","","894","tol_toboard","","","","tol_peg_2","894","894","0","[[1,3,0],[2,0],[0]]","8","[[1,0,0],[2,3],[0]]","5","0","","","","","","6","","","","","","","","",""
"","","","","","single-stim-button","98","342601","0.0-2.0-25.8-0.8","559002fefdf99b3f7aada38f","E1","batch5","","1098","tol_tohand","","","","tol_peg_1","1098","1098","0","[[1,0,0],[2,0],[0]]","9","[[1,0,0],[2,3],[0]]","5","0","","","","","","6","","","","","","","","",""
"","","","","","single-stim-button","99","343665","0.0-2.0-25.8-1.8","559002fefdf99b3f7aada38f","E1","batch5","","1064","tol_toboard","","","","tol_peg_2","1064","1064","0","[[1,0,0],[2,3],[0]]","9","[[1,0,0],[2,3],[0]]","5","0","","","","","","6","","","","","","","","",""
"","","","","","poldrack-single-stim","100","344681","0.0-2.0-26.0","559002fefdf99b3f7aada38f","E1","batch5","","-1","tol_feedback","","","true","","1000","1000","500","","","","","","-1","none","true","4037","19667","","","","","","","","","",""
"","","","","","html-button-response","101","346059","0.0-2.0-27.0","559002fefdf99b3f7aada38f","E1","batch5","","1377.2000000476837","tol_trial_num","<div class = centerbox><p class = center-block-text>problem <strong>7</strong> out of 25 problems</p></div>","0","","","","","","","","","","","","","","","","","","","","","","","","",""
"","","","","","single-stim-button","102","350957","0.0-2.0-28.0-0.0","559002fefdf99b3f7aada38f","E1","batch5","","4897","tol_tohand","","","","tol_peg_1","4897","4897","0","[[2,0,0],[0,0],[3]]","1","[[1,2,0],[3,0],[0]]","6","0","","","","","","5","","","","","","","","",""
"","","","","","single-stim-button","103","352202","0.0-2.0-28.0-1.0","559002fefdf99b3f7aada38f","E1","batch5","","1244","tol_toboard","","","","tol_peg_2","1244","1244","0","[[2,0,0],[1,0],[3]]","1","[[1,2,0],[3,0],[0]]","6","0","","","","","","5","","","","","","","","",""
"","","","","","single-stim-button","104","353261","0.0-2.0-28.1-0.1","559002fefdf99b3f7aada38f","E1","batch5","","1057","tol_tohand","","","","tol_peg_3","1057","1057","0","[[2,0,0],[1,0],[0]]","2","[[1,2,0],[3,0],[0]]","6","0","","","","","","5","","","","","","","","",""
"","","","","","single-stim-button","105","355555","0.0-2.0-28.1-1.1","559002fefdf99b3f7aada38f","E1","batch5","","2293","tol_toboard","","","","tol_peg_2","2293","2293","0","[[2,0,0],[1,3],[0]]","2","[[1,2,0],[3,0],[0]]","6","0","","","","","","5","","","","","","","","",""
"","","","","","single-stim-button","106","366484","0.0-2.0-28.2-0.2","559002fefdf99b3f7aada38f","E1","batch5","","10928","tol_tohand","","","","tol_peg_1","10928","10928","0","[[0,0,0],[1,3],[0]]","3","[[1,2,0],[3,0],[0]]","6","0","","","","","","5","","","","","","","","",""
"","","","","","single-stim-button","107","368202","0.0-2.0-28.2-1.2","559002fefdf99b3f7aada38f","E1","batch5","","1718","tol_toboard","","","","tol_peg_3","1718","1718","0","[[0,0,0],[1,3],[2]]","3","[[1,2,0],[3,0],[0]]","6","0","","","","","","5","","","","","","","","",""
"","","","","","single-stim-button","108","370241","0.0-2.0-28.3-0.3","559002fefdf99b3f7aada38f","E1","batch5","","2038","tol_tohand","","","","tol_peg_2","2038","2038","0","[[0,0,0],[1,0],[2]]","4","[[1,2,0],[3,0],[0]]","6","0","","","","","","5","","","","","","","","",""
"","","","","","single-stim-button","109","371430","0.0-2.0-28.3-1.3","559002fefdf99b3f7aada38f","E1","batch5","","1189","tol_toboard","","","","tol_peg_1","1189","1189","0","[[3,0,0],[1,0],[2]]","4","[[1,2,0],[3,0],[0]]","6","0","","","","","","5","","","","","","","","",""
"","","","","","single-stim-button","110","372797","0.0-2.0-28.4-0.4","559002fefdf99b3f7aada38f","E1","batch5","","1367","tol_tohand","","","","tol_peg_2","1367","1367","0","[[3,0,0],[0,0],[2]]","5","[[1,2,0],[3,0],[0]]","6","0","","","","","","5","","","","","","","","",""
"","","","","","single-stim-button","111","374001","0.0-2.0-28.4-1.4","559002fefdf99b3f7aada38f","E1","batch5","","1203","tol_toboard","","","","tol_peg_1","1203","1203","0","[[3,1,0],[0,0],[2]]","5","[[1,2,0],[3,0],[0]]","6","0","","","","","","5","","","","","","","","",""
"","","","","","single-stim-button","112","375506","0.0-2.0-28.5-0.5","559002fefdf99b3f7aada38f","E1","batch5","","1504","tol_tohand","","","","tol_peg_3","1504","1504","0","[[3,1,0],[0,0],[0]]","6","[[1,2,0],[3,0],[0]]","6","0","","","","","","5","","","","","","","","",""
"","","","","","single-stim-button","113","376708","0.0-2.0-28.5-1.5","559002fefdf99b3f7aada38f","E1","batch5","","1201","tol_toboard","","","","tol_peg_2","1201","1201","0","[[3,1,0],[2,0],[0]]","6","[[1,2,0],[3,0],[0]]","6","0","","","","","","5","","","","","","","","",""
"","","","","","single-stim-button","114","377845","0.0-2.0-28.6-0.6","559002fefdf99b3f7aada38f","E1","batch5","","1135","tol_tohand","","","","tol_peg_1","1135","1135","0","[[3,0,0],[2,0],[0]]","7","[[1,2,0],[3,0],[0]]","6","0","","","","","","5","","","","","","","","",""
"","","","","","single-stim-button","115","379013","0.0-2.0-28.6-1.6","559002fefdf99b3f7aada38f","E1","batch5","","1168","tol_toboard","","","","tol_peg_2","1168","1168","0","[[3,0,0],[2,1],[0]]","7","[[1,2,0],[3,0],[0]]","6","0","","","","","","5","","","","","","","","",""
"","","","","","single-stim-button","116","380370","0.0-2.0-28.7-0.7","559002fefdf99b3f7aada38f","E1","batch5","","1357","tol_tohand","","","","tol_peg_1","1357","1357","0","[[0,0,0],[2,1],[0]]","8","[[1,2,0],[3,0],[0]]","6","0","","","","","","5","","","","","","","","",""
"","","","","","single-stim-button","117","382278","0.0-2.0-28.7-1.7","559002fefdf99b3f7aada38f","E1","batch5","","1908","tol_toboard","","","","tol_peg_3","1908","1908","0","[[0,0,0],[2,1],[3]]","8","[[1,2,0],[3,0],[0]]","6","0","","","","","","5","","","","","","","","",""
"","","","","","single-stim-button","118","383411","0.0-2.0-28.8-0.8","559002fefdf99b3f7aada38f","E1","batch5","","1132","tol_tohand","","","","tol_peg_2","1132","1132","0","[[0,0,0],[2,0],[3]]","9","[[1,2,0],[3,0],[0]]","6","0","","","","","","5","","","","","","","","",""
"","","","","","single-stim-button","119","384800","0.0-2.0-28.8-1.8","559002fefdf99b3f7aada38f","E1","batch5","","1388","tol_toboard","","","","tol_peg_1","1388","1388","0","[[1,0,0],[2,0],[3]]","9","[[1,2,0],[3,0],[0]]","6","0","","","","","","5","","","","","","","","",""
"","","","","","single-stim-button","120","385896","0.0-2.0-28.9-0.9","559002fefdf99b3f7aada38f","E1","batch5","","1096","tol_tohand","","","","tol_peg_2","1096","1096","0","[[1,0,0],[0,0],[3]]","10","[[1,2,0],[3,0],[0]]","6","0","","","","","","5","","","","","","","","",""
"","","","","","single-stim-button","121","387110","0.0-2.0-28.9-1.9","559002fefdf99b3f7aada38f","E1","batch5","","1213","tol_toboard","","","","tol_peg_1","1213","1213","0","[[1,2,0],[0,0],[3]]","10","[[1,2,0],[3,0],[0]]","6","0","","","","","","5","","","","","","","","",""
"","","","","","single-stim-button","122","388246","0.0-2.0-28.10-0.10","559002fefdf99b3f7aada38f","E1","batch5","","1134","tol_tohand","","","","tol_peg_3","1134","1134","0","[[1,2,0],[0,0],[0]]","11","[[1,2,0],[3,0],[0]]","6","0","","","","","","5","","","","","","","","",""
"","","","","","single-stim-button","123","389327","0.0-2.0-28.10-1.10","559002fefdf99b3f7aada38f","E1","batch5","","1080","tol_toboard","","","","tol_peg_2","1080","1080","0","[[1,2,0],[3,0],[0]]","11","[[1,2,0],[3,0],[0]]","6","0","","","","","","5","","","","","","","","",""
"","","","","","poldrack-single-stim","124","390341","0.0-2.0-29.0","559002fefdf99b3f7aada38f","E1","batch5","","-1","tol_feedback","","","true","","1000","1000","500","","","","","","-1","none","true","4897","27645","","","","","","","","","",""
"","","","","","html-button-response","125","391845","0.0-2.0-30.0","559002fefdf99b3f7aada38f","E1","batch5","","1502.5","tol_trial_num","<div class = centerbox><p class = center-block-text>problem <strong>8</strong> out of 25 problems</p></div>","0","","","","","","","","","","","","","","","","","","","","","","","","",""
"","","","","","single-stim-button","126","394813","0.0-2.0-31.0-0.0","559002fefdf99b3f7aada38f","E1","batch5","","2968","tol_tohand","","","","tol_peg_2","2968","2968","0","[[0,0,0],[2,0],[1]]","1","[[1,2,0],[3,0],[0]]","7","0","","","","","","4","","","","","","","","",""
"","","","","","single-stim-button","127","396124","0.0-2.0-31.0-1.0","559002fefdf99b3f7aada38f","E1","batch5","","1309","tol_toboard","","","","tol_peg_1","1309","1309","0","[[3,0,0],[2,0],[1]]","1","[[1,2,0],[3,0],[0]]","7","0","","","","","","4","","","","","","","","",""
"","","","","","single-stim-button","128","398697","0.0-2.0-31.1-0.1","559002fefdf99b3f7aada38f","E1","batch5","","2572","tol_tohand","","","","tol_peg_3","2572","2572","0","[[3,0,0],[2,0],[0]]","2","[[1,2,0],[3,0],[0]]","7","0","","","","","","4","","","","","","","","",""
"","","","","","single-stim-button","129","399835","0.0-2.0-31.1-1.1","559002fefdf99b3f7aada38f","E1","batch5","","1137","tol_toboard","","","","tol_peg_2","1137","1137","0","[[3,0,0],[2,1],[0]]","2","[[1,2,0],[3,0],[0]]","7","0","","","","","","4","","","","","","","","",""
"","","","","","single-stim-button","130","400960","0.0-2.0-31.2-0.2","559002fefdf99b3f7aada38f","E1","batch5","","1125","tol_tohand","","","","tol_peg_1","1125","1125","0","[[0,0,0],[2,1],[0]]","3","[[1,2,0],[3,0],[0]]","7","0","","","","","","4","","","","","","","","",""
"","","","","","single-stim-button","131","402505","0.0-2.0-31.2-1.2","559002fefdf99b3f7aada38f","E1","batch5","","1544","tol_toboard","","","","tol_peg_3","1544","1544","0","[[0,0,0],[2,1],[3]]","3","[[1,2,0],[3,0],[0]]","7","0","","","","","","4","","","","","","","","",""
"","","","","","single-stim-button","132","403644","0.0-2.0-31.3-0.3","559002fefdf99b3f7aada38f","E1","batch5","","1139","tol_tohand","","","","tol_peg_2","1139","1139","0","[[0,0,0],[2,0],[3]]","4","[[1,2,0],[3,0],[0]]","7","0","","","","","","4","","","","","","","","",""
"","","","","","single-stim-button","133","404971","0.0-2.0-31.3-1.3","559002fefdf99b3f7aada38f","E1","batch5","","1326","tol_toboard","","","","tol_peg_1","1326","1326","0","[[1,0,0],[2,0],[3]]","4","[[1,2,0],[3,0],[0]]","7","0","","","","","","4","","","","","","","","",""
"","","","","","single-stim-button","134","405939","0.0-2.0-31.4-0.4","559002fefdf99b3f7aada38f","E1","batch5","","968","tol_tohand","","","","tol_peg_2","968","968","0","[[1,0,0],[0,0],[3]]","5","[[1,2,0],[3,0],[0]]","7","0","","","","","","4","","","","","","","","",""
"","","","","","single-stim-button","135","407094","0.0-2.0-31.4-1.4","559002fefdf99b3f7aada38f","E1","batch5","","1154","tol_toboard","","","","tol_peg_1","1154","1154","0","[[1,2,0],[0,0],[3]]","5","[[1,2,0],[3,0],[0]]","7","0","","","","","","4","","","","","","","","",""
"","","","","","single-stim-button","136","408219","0.0-2.0-31.5-0.5","559002fefdf99b3f7aada38f","E1","batch5","","1125","tol_tohand","","","","tol_peg_3","1125","1125","0","[[1,2,0],[0,0],[0]]","6","[[1,2,0],[3,0],[0]]","7","0","","","","","","4","","","","","","","","",""
"","","","","","single-stim-button","137","409456","0.0-2.0-31.5-1.5","559002fefdf99b3f7aada38f","E1","batch5","","1236","tol_toboard","","","","tol_peg_2","1236","1236","0","[[1,2,0],[3,0],[0]]","6","[[1,2,0],[3,0],[0]]","7","0","","","","","","4","","","","","","","","",""
"","","","","","poldrack-single-stim","138","410468","0.0-2.0-32.0","559002fefdf99b3f7aada38f","E1","batch5","","-1","tol_feedback","","","true","","1000","1000","500","","","","","","-1","none","true","2968","9897","","","","","","","","","",""
"","","","","","html-button-response","139","412285","0.0-2.0-33.0","559002fefdf99b3f7aada38f","E1","batch5","","1815.6000000238419","tol_trial_num","<div class = centerbox><p class = center-block-text>problem <strong>9</strong> out of 25 problems</p></div>","0","","","","","","","","","","","","","","","","","","","","","","","","",""
"","","","","","single-stim-button","140","416048","0.0-2.0-34.0-0.0","559002fefdf99b3f7aada38f","E1","batch5","","3763","tol_tohand","","","","tol_peg_1","3763","3763","0","[[3,0,0],[0,0],[1]]","1","[[2,1,0],[3,0],[0]]","8","0","","","","","","6","","","","","","","","",""
"","","","","","single-stim-button","141","417246","0.0-2.0-34.0-1.0","559002fefdf99b3f7aada38f","E1","batch5","","1198","tol_toboard","","","","tol_peg_2","1198","1198","0","[[3,0,0],[2,0],[1]]","1","[[2,1,0],[3,0],[0]]","8","0","","","","","","6","","","","","","","","",""
"","","","","","single-stim-button","142","419451","0.0-2.0-34.1-0.1","559002fefdf99b3f7aada38f","E1","batch5","","2203","tol_tohand","","","","tol_peg_3","2203","2203","0","[[3,0,0],[2,0],[0]]","2","[[2,1,0],[3,0],[0]]","8","0","","","","","","6","","","","","","","","",""
"","","","","","single-stim-button","143","420481","0.0-2.0-34.1-1.1","559002fefdf99b3f7aada38f","E1","batch5","","1029","tol_toboard","","","","tol_peg_2","1029","1029","0","[[3,0,0],[2,1],[0]]","2","[[2,1,0],[3,0],[0]]","8","0","","","","","","6","","","","","","","","",""
"","","","","","single-stim-button","144","421647","0.0-2.0-34.2-0.2","559002fefdf99b3f7aada38f","E1","batch5","","1165","tol_tohand","","","","tol_peg_1","1165","1165","0","[[0,0,0],[2,1],[0]]","3","[[2,1,0],[3,0],[0]]","8","0","","","","","","6","","","","","","","","",""
"","","","","","single-stim-button","145","423081","0.0-2.0-34.2-1.2","559002fefdf99b3f7aada38f","E1","batch5","","1434","tol_toboard","","","","tol_peg_3","1434","1434","0","[[0,0,0],[2,1],[3]]","3","[[2,1,0],[3,0],[0]]","8","0","","","","","","6","","","","","","","","",""
"","","","","","single-stim-button","146","423390","0.0-2.0-34.3-0.3","559002fefdf99b3f7aada38f","E1","batch5","","308","tol_tohand","","","","tol_peg_3","308","308","0","[[0,0,0],[2,1],[0]]","4","[[2,1,0],[3,0],[0]]","8","0","","","","","","6","","","","","","","","",""
"","","","","","single-stim-button","147","424705","0.0-2.0-34.3-1.3","559002fefdf99b3f7aada38f","E1","batch5","","1315","tol_toboard","","","","tol_peg_3","1315","1315","0","[[0,0,0],[2,1],[3]]","4","[[2,1,0],[3,0],[0]]","8","0","","","","","","6","","","","","","","","",""
"","","","","","single-stim-button","148","427585","0.0-2.0-34.4-0.4","559002fefdf99b3f7aada38f","E1","batch5","","2880","tol_tohand","","","","tol_peg_2","2880","2880","0","[[0,0,0],[2,0],[3]]","5","[[2,1,0],[3,0],[0]]","8","0","","","","","","6","","","","","","","","",""
"","","","","","single-stim-button","149","428777","0.0-2.0-34.4-1.4","559002fefdf99b3f7aada38f","E1","batch5","","1191","tol_toboard","","","","tol_peg_1","1191","1191","0","[[1,0,0],[2,0],[3]]","5","[[2,1,0],[3,0],[0]]","8","0","","","","","","6","","","","","","","","",""
"","","","","","single-stim-button","150","431407","0.0-2.0-34.5-0.5","559002fefdf99b3f7aada38f","E1","batch5","","2629","tol_tohand","","","","tol_peg_2","2629","2629","0","[[1,0,0],[0,0],[3]]","6","[[2,1,0],[3,0],[0]]","8","0","","","","","","6","","","","","","","","",""
"","","","","","single-stim-button","151","432530","0.0-2.0-34.5-1.5","559002fefdf99b3f7aada38f","E1","batch5","","1123","tol_toboard","","","","tol_peg_1","1123","1123","0","[[1,2,0],[0,0],[3]]","6","[[2,1,0],[3,0],[0]]","8","0","","","","","","6","","","","","","","","",""
"","","","","","single-stim-button","152","434278","0.0-2.0-34.6-0.6","559002fefdf99b3f7aada38f","E1","batch5","","1748","tol_tohand","","","","tol_peg_3","1748","1748","0","[[1,2,0],[0,0],[0]]","7","[[2,1,0],[3,0],[0]]","8","0","","","","","","6","","","","","","","","",""
"","","","","","single-stim-button","153","435442","0.0-2.0-34.6-1.6","559002fefdf99b3f7aada38f","E1","batch5","","1162","tol_toboard","","","","tol_peg_2","1162","1162","0","[[1,2,0],[3,0],[0]]","7","[[2,1,0],[3,0],[0]]","8","0","","","","","","6","","","","","","","","",""
"","","","","","single-stim-button","154","437132","0.0-2.0-34.7-0.7","559002fefdf99b3f7aada38f","E1","batch5","","1690","tol_tohand","","","","tol_peg_1","1690","1690","0","[[1,0,0],[3,0],[0]]","8","[[2,1,0],[3,0],[0]]","8","0","","","","","","6","","","","","","","","",""
"","","","","","single-stim-button","155","438292","0.0-2.0-34.7-1.7","559002fefdf99b3f7aada38f","E1","batch5","","1160","tol_toboard","","","","tol_peg_2","1160","1160","0","[[1,0,0],[3,2],[0]]","8","[[2,1,0],[3,0],[0]]","8","0","","","","","","6","","","","","","","","",""
"","","","","","single-stim-button","156","439339","0.0-2.0-34.8-0.8","559002fefdf99b3f7aada38f","E1","batch5","","1046","tol_tohand","","","","tol_peg_1","1046","1046","0","[[0,0,0],[3,2],[0]]","9","[[2,1,0],[3,0],[0]]","8","0","","","","","","6","","","","","","","","",""
"","","","","","single-stim-button","157","441235","0.0-2.0-34.8-1.8","559002fefdf99b3f7aada38f","E1","batch5","","1895","tol_toboard","","","","tol_peg_3","1895","1895","0","[[0,0,0],[3,2],[1]]","9","[[2,1,0],[3,0],[0]]","8","0","","","","","","6","","","","","","","","",""
"","","","","","single-stim-button","158","443294","0.0-2.0-34.9-0.9","559002fefdf99b3f7aada38f","E1","batch5","","2057","tol_tohand","","","","tol_peg_2","2057","2057","0","[[0,0,0],[3,0],[1]]","10","[[2,1,0],[3,0],[0]]","8","0","","","","","","6","","","","","","","","",""
"","","","","","single-stim-button","159","443710","0.0-2.0-34.9-1.9","559002fefdf99b3f7aada38f","E1","batch5","","416","tol_toboard","","","","tol_peg_2","416","416","0","[[0,0,0],[3,2],[1]]","10","[[2,1,0],[3,0],[0]]","8","0","","","","","","6","","","","","","","","",""
"","","","","","single-stim-button","160","444442","0.0-2.0-34.10-0.10","559002fefdf99b3f7aada38f","E1","batch5","","731","tol_tohand","","","","tol_peg_2","731","731","0","[[0,0,0],[3,0],[1]]","11","[[2,1,0],[3,0],[0]]","8","0","","","","","","6","","","","","","","","",""
"","","","","","single-stim-button","161","445831","0.0-2.0-34.10-1.10","559002fefdf99b3f7aada38f","E1","batch5","","1388","tol_toboard","","","","tol_peg_1","1388","1388","0","[[2,0,0],[3,0],[1]]","11","[[2,1,0],[3,0],[0]]","8","0","","","","","","6","","","","","","","","",""
"","","","","","single-stim-button","162","446909","0.0-2.0-34.11-0.11","559002fefdf99b3f7aada38f","E1","batch5","","1078","tol_tohand","","","","tol_peg_3","1078","1078","0","[[2,0,0],[3,0],[0]]","12","[[2,1,0],[3,0],[0]]","8","0","","","","","","6","","","","","","","","",""
"","","","","","single-stim-button","163","448221","0.0-2.0-34.11-1.11","559002fefdf99b3f7aada38f","E1","batch5","","1311","tol_toboard","","","","tol_peg_1","1311","1311","0","[[2,1,0],[3,0],[0]]","12","[[2,1,0],[3,0],[0]]","8","0","","","","","","6","","","","","","","","",""
"","","","","","poldrack-single-stim","164","449224","0.0-2.0-35.0","559002fefdf99b3f7aada38f","E1","batch5","","-1","tol_feedback","","","true","","1000","1000","500","","","","","","-1","none","true","3763","21298","","","","","","","","","",""
"","","","","","html-button-response","165","450638","0.0-2.0-36.0","559002fefdf99b3f7aada38f","E1","batch5","","1413.1000000238419","tol_trial_num","<div class = centerbox><p class = center-block-text>problem <strong>10</strong> out of 25 problems</p></div>","0","","","","","","","","","","","","","","","","","","","","","","","","",""
"","","","","","single-stim-button","166","454757","0.0-2.0-37.0-0.0","559002fefdf99b3f7aada38f","E1","batch5","","4119","tol_tohand","","","","tol_peg_2","4119","4119","0","[[3,0,0],[0,0],[2]]","1","[[3,0,0],[2,1],[0]]","9","0","","","","","","3","","","","","","","","",""
"","","","","","single-stim-button","167","456169","0.0-2.0-37.0-1.0","559002fefdf99b3f7aada38f","E1","batch5","","1411","tol_toboard","","","","tol_peg_1","1411","1411","0","[[3,1,0],[0,0],[2]]","1","[[3,0,0],[2,1],[0]]","9","0","","","","","","3","","","","","","","","",""
"","","","","","single-stim-button","168","457454","0.0-2.0-37.1-0.1","559002fefdf99b3f7aada38f","E1","batch5","","1284","tol_tohand","","","","tol_peg_3","1284","1284","0","[[3,1,0],[0,0],[0]]","2","[[3,0,0],[2,1],[0]]","9","0","","","","","","3","","","","","","","","",""
"","","","","","single-stim-button","169","458606","0.0-2.0-37.1-1.1","559002fefdf99b3f7aada38f","E1","batch5","","1152","tol_toboard","","","","tol_peg_2","1152","1152","0","[[3,1,0],[2,0],[0]]","2","[[3,0,0],[2,1],[0]]","9","0","","","","","","3","","","","","","","","",""
"","","","","","single-stim-button","170","459657","0.0-2.0-37.2-0.2","559002fefdf99b3f7aada38f","E1","batch5","","1049","tol_tohand","","","","tol_peg_1","1049","1049","0","[[3,0,0],[2,0],[0]]","3","[[3,0,0],[2,1],[0]]","9","0","","","","","","3","","","","","","","","",""
"","","","","","single-stim-button","171","460737","0.0-2.0-37.2-1.2","559002fefdf99b3f7aada38f","E1","batch5","","1080","tol_toboard","","","","tol_peg_2","1080","1080","0","[[3,0,0],[2,1],[0]]","3","[[3,0,0],[2,1],[0]]","9","0","","","","","","3","","","","","","","","",""
"","","","","","poldrack-single-stim","172","461739","0.0-2.0-38.0","559002fefdf99b3f7aada38f","E1","batch5","","-1","tol_feedback","","","true","","1000","1000","500","","","","","","-1","none","true","4119","6452","","","","","","","","","",""
"","","","","","html-button-response","173","463210","0.0-2.0-39.0","559002fefdf99b3f7aada38f","E1","batch5","","1470","tol_trial_num","<div class = centerbox><p class = center-block-text>problem <strong>11</strong> out of 25 problems</p></div>","0","","","","","","","","","","","","","","","","","","","","","","","","",""
"","","","","","single-stim-button","174","467944","0.0-2.0-40.0-0.0","559002fefdf99b3f7aada38f","E1","batch5","","4733","tol_tohand","","","","tol_peg_2","4733","4733","0","[[1,2,0],[0,0],[0]]","1","[[2,0,0],[1,3],[0]]","10","0","","","","","","6","","","","","","","","",""
"","","","","","single-stim-button","175","470358","0.0-2.0-40.0-1.0","559002fefdf99b3f7aada38f","E1","batch5","","2414","tol_toboard","","","","tol_peg_3","2414","2414","0","[[1,2,0],[0,0],[3]]","1","[[2,0,0],[1,3],[0]]","10","0","","","","","","6","","","","","","","","",""
"","","","","","single-stim-button","176","472452","0.0-2.0-40.1-0.1","559002fefdf99b3f7aada38f","E1","batch5","","2094","tol_tohand","","","","tol_peg_1","2094","2094","0","[[1,0,0],[0,0],[3]]","2","[[2,0,0],[1,3],[0]]","10","0","","","","","","6","","","","","","","","",""
"","","","","","single-stim-button","177","473923","0.0-2.0-40.1-1.1","559002fefdf99b3f7aada38f","E1","batch5","","1471","tol_toboard","","","","tol_peg_2","1471","1471","0","[[1,0,0],[2,0],[3]]","2","[[2,0,0],[1,3],[0]]","10","0","","","","","","6","","","","","","","","",""
"","","","","","single-stim-button","178","475833","0.0-2.0-40.2-0.2","559002fefdf99b3f7aada38f","E1","batch5","","1909","tol_tohand","","","","tol_peg_3","1909","1909","0","[[1,0,0],[2,0],[0]]","3","[[2,0,0],[1,3],[0]]","10","0","","","","","","6","","","","","","","","",""
"","","","","","single-stim-button","179","477067","0.0-2.0-40.2-1.2","559002fefdf99b3f7aada38f","E1","batch5","","1233","tol_toboard","","","","tol_peg_1","1233","1233","0","[[1,3,0],[2,0],[0]]","3","[[2,0,0],[1,3],[0]]","10","0","","","","","","6","","","","","","","","",""
"","","","","","single-stim-button","180","478193","0.0-2.0-40.3-0.3","559002fefdf99b3f7aada38f","E1","batch5","","1126","tol_tohand","","","","tol_peg_2","1126","1126","0","[[1,3,0],[0,0],[0]]","4","[[2,0,0],[1,3],[0]]","10","0","","","","","","6","","","","","","","","",""
"","","","","","single-stim-button","181","479819","0.0-2.0-40.3-1.3","559002fefdf99b3f7aada38f","E1","batch5","","1626","tol_toboard","","","","tol_peg_3","1626","1626","0","[[1,3,0],[0,0],[2]]","4","[[2,0,0],[1,3],[0]]","10","0","","","","","","6","","","","","","","","",""
"","","","","","single-stim-button","182","481458","0.0-2.0-40.4-0.4","559002fefdf99b3f7aada38f","E1","batch5","","1638","tol_tohand","","","","tol_peg_1","1638","1638","0","[[1,0,0],[0,0],[2]]","5","[[2,0,0],[1,3],[0]]","10","0","","","","","","6","","","","","","","","",""
"","","","","","single-stim-button","183","483000","0.0-2.0-40.4-1.4","559002fefdf99b3f7aada38f","E1","batch5","","1542","tol_toboard","","","","tol_peg_2","1542","1542","0","[[1,0,0],[3,0],[2]]","5","[[2,0,0],[1,3],[0]]","10","0","","","","","","6","","","","","","","","",""
"","","","","","single-stim-button","184","484956","0.0-2.0-40.5-0.5","559002fefdf99b3f7aada38f","E1","batch5","","1954","tol_tohand","","","","tol_peg_1","1954","1954","0","[[0,0,0],[3,0],[2]]","6","[[2,0,0],[1,3],[0]]","10","0","","","","","","6","","","","","","","","",""
"","","","","","single-stim-button","185","486479","0.0-2.0-40.5-1.5","559002fefdf99b3f7aada38f","E1","batch5","","1523","tol_toboard","","","","tol_peg_2","1523","1523","0","[[0,0,0],[3,1],[2]]","6","[[2,0,0],[1,3],[0]]","10","0","","","","","","6","","","","","","","","",""
"","","","","","single-stim-button","186","487738","0.0-2.0-40.6-0.6","559002fefdf99b3f7aada38f","E1","batch5","","1259","tol_tohand","","","","tol_peg_3","1259","1259","0","[[0,0,0],[3,1],[0]]","7","[[2,0,0],[1,3],[0]]","10","0","","","","","","6","","","","","","","","",""
"","","","","","single-stim-button","187","488980","0.0-2.0-40.6-1.6","559002fefdf99b3f7aada38f","E1","batch5","","1242","tol_toboard","","","","tol_peg_1","1242","1242","0","[[2,0,0],[3,1],[0]]","7","[[2,0,0],[1,3],[0]]","10","0","","","","","","6","","","","","","","","",""
"","","","","","single-stim-button","188","490228","0.0-2.0-40.7-0.7","559002fefdf99b3f7aada38f","E1","batch5","","1248","tol_tohand","","","","tol_peg_2","1248","1248","0","[[2,0,0],[3,0],[0]]","8","[[2,0,0],[1,3],[0]]","10","0","","","","","","6","","","","","","","","",""
"","","","","","single-stim-button","189","491610","0.0-2.0-40.7-1.7","559002fefdf99b3f7aada38f","E1","batch5","","1382","tol_toboard","","","","tol_peg_3","1382","1382","0","[[2,0,0],[3,0],[1]]","8","[[2,0,0],[1,3],[0]]","10","0","","","","","","6","","","","","","","","",""
"","","","","","single-stim-button","190","493010","0.0-2.0-40.8-0.8","559002fefdf99b3f7aada38f","E1","batch5","","1400","tol_tohand","","","","tol_peg_2","1400","1400","0","[[2,0,0],[0,0],[1]]","9","[[2,0,0],[1,3],[0]]","10","0","","","","","","6","","","","","","","","",""
"","","","","","single-stim-button","191","494072","0.0-2.0-40.8-1.8","559002fefdf99b3f7aada38f","E1","batch5","","1062","tol_toboard","","","","tol_peg_1","1062","1062","0","[[2,3,0],[0,0],[1]]","9","[[2,0,0],[1,3],[0]]","10","0","","","","","","6","","","","","","","","",""
"","","","","","single-stim-button","192","495067","0.0-2.0-40.9-0.9","559002fefdf99b3f7aada38f","E1","batch5","","993","tol_tohand","","","","tol_peg_3","993","993","0","[[2,3,0],[0,0],[0]]","10","[[2,0,0],[1,3],[0]]","10","0","","","","","","6","","","","","","","","",""
"","","","","","single-stim-button","193","496191","0.0-2.0-40.9-1.9","559002fefdf99b3f7aada38f","E1","batch5","","1123","tol_toboard","","","","tol_peg_2","1123","1123","0","[[2,3,0],[1,0],[0]]","10","[[2,0,0],[1,3],[0]]","10","0","","","","","","6","","","","","","","","",""
"","","","","","single-stim-button","194","497812","0.0-2.0-40.10-0.10","559002fefdf99b3f7aada38f","E1","batch5","","1621","tol_tohand","","","","tol_peg_1","1621","1621","0","[[2,0,0],[1,0],[0]]","11","[[2,0,0],[1,3],[0]]","10","0","","","","","","6","","","","","","","","",""
"","","","","","single-stim-button","195","499372","0.0-2.0-40.10-1.10","559002fefdf99b3f7aada38f","E1","batch5","","1559","tol_toboard","","","","tol_peg_2","1559","1559","0","[[2,0,0],[1,3],[0]]","11","[[2,0,0],[1,3],[0]]","10","0","","","","","","6","","","","","","","","",""
"","","","","","poldrack-single-stim","196","500384","0.0-2.0-41.0","559002fefdf99b3f7aada38f","E1","batch5","","-1","tol_feedback","","","true","","1000","1000","500","","","","","","-1","none","true","4733","19975","","","","","","","","","",""
"","","","","","html-button-response","197","501665","0.0-2.0-42.0","559002fefdf99b3f7aada38f","E1","batch5","","1279.8999999761581","tol_trial_num","<div class = centerbox><p class = center-block-text>problem <strong>12</strong> out of 25 problems</p></div>","0","","","","","","","","","","","","","","","","","","","","","","","","",""
"","","","","","single-stim-button","198","507305","0.0-2.0-43.0-0.0","559002fefdf99b3f7aada38f","E1","batch5","","5639","tol_tohand","","","","tol_peg_1","5639","5639","0","[[1,0,0],[3,0],[0]]","1","[[2,3,0],[0,0],[1]]","11","0","","","","","","4","","","","","","","","",""
"","","","","","single-stim-button","199","508713","0.0-2.0-43.0-1.0","559002fefdf99b3f7aada38f","E1","batch5","","1408","tol_toboard","","","","tol_peg_3","1408","1408","0","[[1,0,0],[3,0],[2]]","1","[[2,3,0],[0,0],[1]]","11","0","","","","","","4","","","","","","","","",""
"","","","","","single-stim-button","200","509799","0.0-2.0-43.1-0.1","559002fefdf99b3f7aada38f","E1","batch5","","1085","tol_tohand","","","","tol_peg_1","1085","1085","0","[[0,0,0],[3,0],[2]]","2","[[2,3,0],[0,0],[1]]","11","0","","","","","","4","","","","","","","","",""
"","","","","","single-stim-button","201","511342","0.0-2.0-43.1-1.1","559002fefdf99b3f7aada38f","E1","batch5","","1542","tol_toboard","","","","tol_peg_2","1542","1542","0","[[0,0,0],[3,1],[2]]","2","[[2,3,0],[0,0],[1]]","11","0","","","","","","4","","","","","","","","",""
"","","","","","single-stim-button","202","512402","0.0-2.0-43.2-0.2","559002fefdf99b3f7aada38f","E1","batch5","","1060","tol_tohand","","","","tol_peg_3","1060","1060","0","[[0,0,0],[3,1],[0]]","3","[[2,3,0],[0,0],[1]]","11","0","","","","","","4","","","","","","","","",""
"","","","","","single-stim-button","203","513807","0.0-2.0-43.2-1.2","559002fefdf99b3f7aada38f","E1","batch5","","1405","tol_toboard","","","","tol_peg_1","1405","1405","0","[[2,0,0],[3,1],[0]]","3","[[2,3,0],[0,0],[1]]","11","0","","","","","","4","","","","","","","","",""
"","","","","","single-stim-button","204","515050","0.0-2.0-43.3-0.3","559002fefdf99b3f7aada38f","E1","batch5","","1243","tol_tohand","","","","tol_peg_2","1243","1243","0","[[2,0,0],[3,0],[0]]","4","[[2,3,0],[0,0],[1]]","11","0","","","","","","4","","","","","","","","",""
"","","","","","single-stim-button","205","516516","0.0-2.0-43.3-1.3","559002fefdf99b3f7aada38f","E1","batch5","","1465","tol_toboard","","","","tol_peg_3","1465","1465","0","[[2,0,0],[3,0],[1]]","4","[[2,3,0],[0,0],[1]]","11","0","","","","","","4","","","","","","","","",""
"","","","","","single-stim-button","206","517688","0.0-2.0-43.4-0.4","559002fefdf99b3f7aada38f","E1","batch5","","1172","tol_tohand","","","","tol_peg_2","1172","1172","0","[[2,0,0],[0,0],[1]]","5","[[2,3,0],[0,0],[1]]","11","0","","","","","","4","","","","","","","","",""
"","","","","","single-stim-button","207","518766","0.0-2.0-43.4-1.4","559002fefdf99b3f7aada38f","E1","batch5","","1078","tol_toboard","","","","tol_peg_1","1078","1078","0","[[2,3,0],[0,0],[1]]","5","[[2,3,0],[0,0],[1]]","11","0","","","","","","4","","","","","","","","",""
"","","","","","poldrack-single-stim","208","519776","0.0-2.0-44.0","559002fefdf99b3f7aada38f","E1","batch5","","-1","tol_feedback","","","true","","1000","1000","500","","","","","","-1","none","true","5639","10199","","","","","","","","","",""
"","","","","","html-button-response","209","521306","0.0-2.0-45.0","559002fefdf99b3f7aada38f","E1","batch5","","1529.6999999284744","tol_trial_num","<div class = centerbox><p class = center-block-text>problem <strong>13</strong> out of 25 problems</p></div>","0","","","","","","","","","","","","","","","","","","","","","","","","",""
"","","","","","single-stim-button","210","524512","0.0-2.0-46.0-0.0","559002fefdf99b3f7aada38f","E1","batch5","","3205","tol_tohand","","","","tol_peg_1","3205","3205","0","[[1,0,0],[3,0],[0]]","1","[[0,0,0],[2,3],[1]]","12","0","","","","","","4","","","","","","","","",""
"","","","","","single-stim-button","211","526854","0.0-2.0-46.0-1.0","559002fefdf99b3f7aada38f","E1","batch5","","2341","tol_toboard","","","","tol_peg_2","2341","2341","0","[[1,0,0],[3,2],[0]]","1","[[0,0,0],[2,3],[1]]","12","0","","","","","","4","","","","","","","","",""
"","","","","","single-stim-button","212","527824","0.0-2.0-46.1-0.1","559002fefdf99b3f7aada38f","E1","batch5","","969","tol_tohand","","","","tol_peg_1","969","969","0","[[0,0,0],[3,2],[0]]","2","[[0,0,0],[2,3],[1]]","12","0","","","","","","4","","","","","","","","",""
"","","","","","single-stim-button","213","529086","0.0-2.0-46.1-1.1","559002fefdf99b3f7aada38f","E1","batch5","","1262","tol_toboard","","","","tol_peg_3","1262","1262","0","[[0,0,0],[3,2],[1]]","2","[[0,0,0],[2,3],[1]]","12","0","","","","","","4","","","","","","","","",""
"","","","","","single-stim-button","214","537293","0.0-2.0-46.2-0.2","559002fefdf99b3f7aada38f","E1","batch5","","8206","tol_tohand","","","","tol_peg_2","8206","8206","0","[[0,0,0],[3,0],[1]]","3","[[0,0,0],[2,3],[1]]","12","0","","","","","","4","","","","","","","","",""
"","","","","","single-stim-button","215","538587","0.0-2.0-46.2-1.2","559002fefdf99b3f7aada38f","E1","batch5","","1293","tol_toboard","","","","tol_peg_1","1293","1293","0","[[2,0,0],[3,0],[1]]","3","[[0,0,0],[2,3],[1]]","12","0","","","","","","4","","","","","","","","",""
"","","","","","single-stim-button","216","539841","0.0-2.0-46.3-0.3","559002fefdf99b3f7aada38f","E1","batch5","","1254","tol_tohand","","","","tol_peg_2","1254","1254","0","[[2,0,0],[0,0],[1]]","4","[[0,0,0],[2,3],[1]]","12","0","","","","","","4","","","","","","","","",""
"","","","","","single-stim-button","217","541259","0.0-2.0-46.3-1.3","559002fefdf99b3f7aada38f","E1","batch5","","1417","tol_toboard","","","","tol_peg_1","1417","1417","0","[[2,3,0],[0,0],[1]]","4","[[0,0,0],[2,3],[1]]","12","0","","","","","","4","","","","","","","","",""
"","","","","","single-stim-button","218","544301","0.0-2.0-46.4-0.4","559002fefdf99b3f7aada38f","E1","batch5","","3041","tol_tohand","","","","tol_peg_3","3041","3041","0","[[2,3,0],[0,0],[0]]","5","[[0,0,0],[2,3],[1]]","12","0","","","","","","4","","","","","","","","",""
"","","","","","single-stim-button","219","546063","0.0-2.0-46.4-1.4","559002fefdf99b3f7aada38f","E1","batch5","","1762","tol_toboard","","","","tol_peg_2","1762","1762","0","[[2,3,0],[1,0],[0]]","5","[[0,0,0],[2,3],[1]]","12","0","","","","","","4","","","","","","","","",""
"","","","","","single-stim-button","220","547280","0.0-2.0-46.5-0.5","559002fefdf99b3f7aada38f","E1","batch5","","1217","tol_tohand","","","","tol_peg_1","1217","1217","0","[[2,0,0],[1,0],[0]]","6","[[0,0,0],[2,3],[1]]","12","0","","","","","","4","","","","","","","","",""
"","","","","","single-stim-button","221","549970","0.0-2.0-46.5-1.5","559002fefdf99b3f7aada38f","E1","batch5","","2688","tol_toboard","","","","tol_peg_3","2688","2688","0","[[2,0,0],[1,0],[3]]","6","[[0,0,0],[2,3],[1]]","12","0","","","","","","4","","","","","","","","",""
"","","","","","single-stim-button","222","551373","0.0-2.0-46.6-0.6","559002fefdf99b3f7aada38f","E1","batch5","","1402","tol_tohand","","","","tol_peg_1","1402","1402","0","[[0,0,0],[1,0],[3]]","7","[[0,0,0],[2,3],[1]]","12","0","","","","","","4","","","","","","","","",""
"","","","","","single-stim-button","223","553216","0.0-2.0-46.6-1.6","559002fefdf99b3f7aada38f","E1","batch5","","1843","tol_toboard","","","","tol_peg_2","1843","1843","0","[[0,0,0],[1,2],[3]]","7","[[0,0,0],[2,3],[1]]","12","0","","","","","","4","","","","","","","","",""
"","","","","","single-stim-button","224","555235","0.0-2.0-46.7-0.7","559002fefdf99b3f7aada38f","E1","batch5","","2019","tol_tohand","","","","tol_peg_3","2019","2019","0","[[0,0,0],[1,2],[0]]","8","[[0,0,0],[2,3],[1]]","12","0","","","","","","4","","","","","","","","",""
"","","","","","single-stim-button","225","556484","0.0-2.0-46.7-1.7","559002fefdf99b3f7aada38f","E1","batch5","","1248","tol_toboard","","","","tol_peg_1","1248","1248","0","[[3,0,0],[1,2],[0]]","8","[[0,0,0],[2,3],[1]]","12","0","","","","","","4","","","","","","","","",""
"","","","","","single-stim-button","226","558862","0.0-2.0-46.8-0.8","559002fefdf99b3f7aada38f","E1","batch5","","2376","tol_tohand","","","","tol_peg_2","2376","2376","0","[[3,0,0],[1,0],[0]]","9","[[0,0,0],[2,3],[1]]","12","0","","","","","","4","","","","","","","","",""
"","","","","","single-stim-button","227","560031","0.0-2.0-46.8-1.8","559002fefdf99b3f7aada38f","E1","batch5","","1168","tol_toboard","","","","tol_peg_3","1168","1168","0","[[3,0,0],[1,0],[2]]","9","[[0,0,0],[2,3],[1]]","12","0","","","","","","4","","","","","","","","",""
"","","","","","single-stim-button","228","561013","0.0-2.0-46.9-0.9","559002fefdf99b3f7aada38f","E1","batch5","","981","tol_tohand","","","","tol_peg_2","981","981","0","[[3,0,0],[0,0],[2]]","10","[[0,0,0],[2,3],[1]]","12","0","","","","","","4","","","","","","","","",""
"","","","","","single-stim-button","229","562414","0.0-2.0-46.9-1.9","559002fefdf99b3f7aada38f","E1","batch5","","1400","tol_toboard","","","","tol_peg_1","1400","1400","0","[[3,1,0],[0,0],[2]]","10","[[0,0,0],[2,3],[1]]","12","0","","","","","","4","","","","","","","","",""
"","","","","","single-stim-button","230","563643","0.0-2.0-46.10-0.10","559002fefdf99b3f7aada38f","E1","batch5","","1228","tol_tohand","","","","tol_peg_3","1228","1228","0","[[3,1,0],[0,0],[0]]","11","[[0,0,0],[2,3],[1]]","12","0","","","","","","4","","","","","","","","",""
"","","","","","single-stim-button","231","565186","0.0-2.0-46.10-1.10","559002fefdf99b3f7aada38f","E1","batch5","","1543","tol_toboard","","","","tol_peg_2","1543","1543","0","[[3,1,0],[2,0],[0]]","11","[[0,0,0],[2,3],[1]]","12","0","","","","","","4","","","","","","","","",""
"","","","","","single-stim-button","232","567343","0.0-2.0-46.11-0.11","559002fefdf99b3f7aada38f","E1","batch5","","2156","tol_tohand","","","","tol_peg_1","2156","2156","0","[[3,0,0],[2,0],[0]]","12","[[0,0,0],[2,3],[1]]","12","0","","","","","","4","","","","","","","","",""
"","","","","","single-stim-button","233","568734","0.0-2.0-46.11-1.11","559002fefdf99b3f7aada38f","E1","batch5","","1391","tol_toboard","","","","tol_peg_3","1391","1391","0","[[3,0,0],[2,0],[1]]","12","[[0,0,0],[2,3],[1]]","12","0","","","","","","4","","","","","","","","",""
"","","","","","single-stim-button","234","569731","0.0-2.0-46.12-0.12","559002fefdf99b3f7aada38f","E1","batch5","","997","tol_tohand","","","","tol_peg_1","997","997","0","[[0,0,0],[2,0],[1]]","13","[[0,0,0],[2,3],[1]]","12","0","","","","","","4","","","","","","","","",""
"","","","","","single-stim-button","235","570917","0.0-2.0-46.12-1.12","559002fefdf99b3f7aada38f","E1","batch5","","1185","tol_toboard","","","","tol_peg_2","1185","1185","0","[[0,0,0],[2,3],[1]]","13","[[0,0,0],[2,3],[1]]","12","0","","","","","","4","","","","","","","","",""
"","","","","","poldrack-single-stim","236","571926","0.0-2.0-47.0","559002fefdf99b3f7aada38f","E1","batch5","","-1","tol_feedback","","","true","","1000","1000","500","","","","","","-1","none","true","3205","29051","","","","","","","","","",""
"","","","","","html-button-response","237","577748","0.0-2.0-48.0","559002fefdf99b3f7aada38f","E1","batch5","","5821","attention_check","<p class = block-text>How many balls are in your board<br></p>","1","true","","","","","","","","","","","","","","","","","","","","","","","",""
"","","","","","html-button-response","238","580205","0.0-2.0-49.0","559002fefdf99b3f7aada38f","E1","batch5","","2455.5999999046326","tol_trial_num","<div class = centerbox><p class = center-block-text>problem <strong>14</strong> out of 25 problems</p></div>","0","","","","","","","","","","","","","","","","","","","","","","","","",""
"","","","","","single-stim-button","239","583615","0.0-2.0-50.0-0.0","559002fefdf99b3f7aada38f","E1","batch5","","3410","tol_tohand","","","","tol_peg_1","3410","3410","0","[[2,0,0],[3,0],[0]]","1","[[1,2,0],[3,0],[0]]","13","0","","","","","","4","","","","","","","","",""
"","","","","","single-stim-button","240","585726","0.0-2.0-50.0-1.0","559002fefdf99b3f7aada38f","E1","batch5","","2111","tol_toboard","","","","tol_peg_3","2111","2111","0","[[2,0,0],[3,0],[1]]","1","[[1,2,0],[3,0],[0]]","13","0","","","","","","4","","","","","","","","",""
"","","","","","single-stim-button","241","587315","0.0-2.0-50.1-0.1","559002fefdf99b3f7aada38f","E1","batch5","","1588","tol_tohand","","","","tol_peg_1","1588","1588","0","[[0,0,0],[3,0],[1]]","2","[[1,2,0],[3,0],[0]]","13","0","","","","","","4","","","","","","","","",""
"","","","","","single-stim-button","242","588331","0.0-2.0-50.1-1.1","559002fefdf99b3f7aada38f","E1","batch5","","1015","tol_toboard","","","","tol_peg_2","1015","1015","0","[[0,0,0],[3,2],[1]]","2","[[1,2,0],[3,0],[0]]","13","0","","","","","","4","","","","","","","","",""
"","","","","","single-stim-button","243","589405","0.0-2.0-50.2-0.2","559002fefdf99b3f7aada38f","E1","batch5","","1073","tol_tohand","","","","tol_peg_3","1073","1073","0","[[0,0,0],[3,2],[0]]","3","[[1,2,0],[3,0],[0]]","13","0","","","","","","4","","","","","","","","",""
"","","","","","single-stim-button","244","591245","0.0-2.0-50.2-1.2","559002fefdf99b3f7aada38f","E1","batch5","","1840","tol_toboard","","","","tol_peg_1","1840","1840","0","[[1,0,0],[3,2],[0]]","3","[[1,2,0],[3,0],[0]]","13","0","","","","","","4","","","","","","","","",""
"","","","","","single-stim-button","245","592301","0.0-2.0-50.3-0.3","559002fefdf99b3f7aada38f","E1","batch5","","1056","tol_tohand","","","","tol_peg_2","1056","1056","0","[[1,0,0],[3,0],[0]]","4","[[1,2,0],[3,0],[0]]","13","0","","","","","","4","","","","","","","","",""
"","","","","","single-stim-button","246","593526","0.0-2.0-50.3-1.3","559002fefdf99b3f7aada38f","E1","batch5","","1224","tol_toboard","","","","tol_peg_1","1224","1224","0","[[1,2,0],[3,0],[0]]","4","[[1,2,0],[3,0],[0]]","13","0","","","","","","4","","","","","","","","",""
"","","","","","poldrack-single-stim","247","594528","0.0-2.0-51.0","559002fefdf99b3f7aada38f","E1","batch5","","-1","tol_feedback","","","true","","1000","1000","500","","","","","","-1","none","true","3410","7127","","","","","","","","","",""
"","","","","","html-button-response","248","596049","0.0-2.0-52.0","559002fefdf99b3f7aada38f","E1","batch5","","1519.8999999761581","tol_trial_num","<div class = centerbox><p class = center-block-text>problem <strong>15</strong> out of 25 problems</p></div>","0","","","","","","","","","","","","","","","","","","","","","","","","",""
"","","","","","single-stim-button","249","601846","0.0-2.0-53.0-0.0","559002fefdf99b3f7aada38f","E1","batch5","","5796","tol_tohand","","","","tol_peg_1","5796","5796","0","[[1,0,0],[3,0],[0]]","1","[[2,0,0],[3,0],[1]]","14","0","","","","","","3","","","","","","","","",""
"","","","","","single-stim-button","250","603075","0.0-2.0-53.0-1.0","559002fefdf99b3f7aada38f","E1","batch5","","1229","tol_toboard","","","","tol_peg_2","1229","1229","0","[[1,0,0],[3,2],[0]]","1","[[2,0,0],[3,0],[1]]","14","0","","","","","","3","","","","","","","","",""
"","","","","","single-stim-button","251","604264","0.0-2.0-53.1-0.1","559002fefdf99b3f7aada38f","E1","batch5","","1187","tol_tohand","","","","tol_peg_1","1187","1187","0","[[0,0,0],[3,2],[0]]","2","[[2,0,0],[3,0],[1]]","14","0","","","","","","3","","","","","","","","",""
"","","","","","single-stim-button","252","605653","0.0-2.0-53.1-1.1","559002fefdf99b3f7aada38f","E1","batch5","","1389","tol_toboard","","","","tol_peg_3","1389","1389","0","[[0,0,0],[3,2],[1]]","2","[[2,0,0],[3,0],[1]]","14","0","","","","","","3","","","","","","","","",""
"","","","","","single-stim-button","253","606586","0.0-2.0-53.2-0.2","559002fefdf99b3f7aada38f","E1","batch5","","932","tol_tohand","","","","tol_peg_2","932","932","0","[[0,0,0],[3,0],[1]]","3","[[2,0,0],[3,0],[1]]","14","0","","","","","","3","","","","","","","","",""
"","","","","","single-stim-button","254","607756","0.0-2.0-53.2-1.2","559002fefdf99b3f7aada38f","E1","batch5","","1169","tol_toboard","","","","tol_peg_1","1169","1169","0","[[2,0,0],[3,0],[1]]","3","[[2,0,0],[3,0],[1]]","14","0","","","","","","3","","","","","","","","",""
"","","","","","poldrack-single-stim","255","608758","0.0-2.0-54.0","559002fefdf99b3f7aada38f","E1","batch5","","-1","tol_feedback","","","true","","1000","1000","500","","","","","","-1","none","true","5796","7915","","","","","","","","","",""
"","","","","","html-button-response","256","610233","0.0-2.0-55.0","559002fefdf99b3f7aada38f","E1","batch5","","1474.1999999284744","tol_trial_num","<div class = centerbox><p class = center-block-text>problem <strong>16</strong> out of 25 problems</p></div>","0","","","","","","","","","","","","","","","","","","","","","","","","",""
"","","","","","single-stim-button","257","615391","0.0-2.0-56.0-0.0","559002fefdf99b3f7aada38f","E1","batch5","","5158","tol_tohand","","","","tol_peg_3","5158","5158","0","[[0,0,0],[2,3],[0]]","1","[[2,3,0],[1,0],[0]]","15","0","","","","","","7","","","","","","","","",""
"","","","","","single-stim-button","258","616632","0.0-2.0-56.0-1.0","559002fefdf99b3f7aada38f","E1","batch5","","1240","tol_toboard","","","","tol_peg_1","1240","1240","0","[[1,0,0],[2,3],[0]]","1","[[2,3,0],[1,0],[0]]","15","0","","","","","","7","","","","","","","","",""
"","","","","","single-stim-button","259","617645","0.0-2.0-56.1-0.1","559002fefdf99b3f7aada38f","E1","batch5","","1012","tol_tohand","","","","tol_peg_2","1012","1012","0","[[1,0,0],[2,0],[0]]","2","[[2,3,0],[1,0],[0]]","15","0","","","","","","7","","","","","","","","",""
"","","","","","single-stim-button","260","619016","0.0-2.0-56.1-1.1","559002fefdf99b3f7aada38f","E1","batch5","","1370","tol_toboard","","","","tol_peg_3","1370","1370","0","[[1,0,0],[2,0],[3]]","2","[[2,3,0],[1,0],[0]]","15","0","","","","","","7","","","","","","","","",""
"","","","","","single-stim-button","261","620976","0.0-2.0-56.2-0.2","559002fefdf99b3f7aada38f","E1","batch5","","1959","tol_tohand","","","","tol_peg_1","1959","1959","0","[[0,0,0],[2,0],[3]]","3","[[2,3,0],[1,0],[0]]","15","0","","","","","","7","","","","","","","","",""
"","","","","","single-stim-button","262","625437","0.0-2.0-56.2-1.2","559002fefdf99b3f7aada38f","E1","batch5","","4461","tol_toboard","","","","tol_peg_2","4461","4461","0","[[0,0,0],[2,1],[3]]","3","[[2,3,0],[1,0],[0]]","15","0","","","","","","7","","","","","","","","",""
"","","","","","single-stim-button","263","627420","0.0-2.0-56.3-0.3","559002fefdf99b3f7aada38f","E1","batch5","","1982","tol_tohand","","","","tol_peg_3","1982","1982","0","[[0,0,0],[2,1],[0]]","4","[[2,3,0],[1,0],[0]]","15","0","","","","","","7","","","","","","","","",""
"","","","","","single-stim-button","264","628602","0.0-2.0-56.3-1.3","559002fefdf99b3f7aada38f","E1","batch5","","1180","tol_toboard","","","","tol_peg_1","1180","1180","0","[[3,0,0],[2,1],[0]]","4","[[2,3,0],[1,0],[0]]","15","0","","","","","","7","","","","","","","","",""
"","","","","","single-stim-button","265","629738","0.0-2.0-56.4-0.4","559002fefdf99b3f7aada38f","E1","batch5","","1136","tol_tohand","","","","tol_peg_2","1136","1136","0","[[3,0,0],[2,0],[0]]","5","[[2,3,0],[1,0],[0]]","15","0","","","","","","7","","","","","","","","",""
"","","","","","single-stim-button","266","630910","0.0-2.0-56.4-1.4","559002fefdf99b3f7aada38f","E1","batch5","","1171","tol_toboard","","","","tol_peg_3","1171","1171","0","[[3,0,0],[2,0],[1]]","5","[[2,3,0],[1,0],[0]]","15","0","","","","","","7","","","","","","","","",""
"","","","","","single-stim-button","267","632226","0.0-2.0-56.5-0.5","559002fefdf99b3f7aada38f","E1","batch5","","1315","tol_tohand","","","","tol_peg_1","1315","1315","0","[[0,0,0],[2,0],[1]]","6","[[2,3,0],[1,0],[0]]","15","0","","","","","","7","","","","","","","","",""
"","","","","","single-stim-button","268","640175","0.0-2.0-56.5-1.5","559002fefdf99b3f7aada38f","E1","batch5","","7949","tol_toboard","","","","tol_peg_2","7949","7949","0","[[0,0,0],[2,3],[1]]","6","[[2,3,0],[1,0],[0]]","15","0","","","","","","7","","","","","","","","",""
"","","","","","single-stim-button","269","643109","0.0-2.0-56.6-0.6","559002fefdf99b3f7aada38f","E1","batch5","","2932","tol_tohand","","","","tol_peg_3","2932","2932","0","[[0,0,0],[2,3],[0]]","7","[[2,3,0],[1,0],[0]]","15","0","","","","","","7","","","","","","","","",""
"","","","","","single-stim-button","270","645238","0.0-2.0-56.6-1.6","559002fefdf99b3f7aada38f","E1","batch5","","2129","tol_toboard","","","","tol_peg_1","2129","2129","0","[[1,0,0],[2,3],[0]]","7","[[2,3,0],[1,0],[0]]","15","0","","","","","","7","","","","","","","","",""
"","","","","","single-stim-button","271","646499","0.0-2.0-56.7-0.7","559002fefdf99b3f7aada38f","E1","batch5","","1260","tol_tohand","","","","tol_peg_2","1260","1260","0","[[1,0,0],[2,0],[0]]","8","[[2,3,0],[1,0],[0]]","15","0","","","","","","7","","","","","","","","",""
"","","","","","single-stim-button","272","650968","0.0-2.0-56.7-1.7","559002fefdf99b3f7aada38f","E1","batch5","","4468","tol_toboard","","","","tol_peg_3","4468","4468","0","[[1,0,0],[2,0],[3]]","8","[[2,3,0],[1,0],[0]]","15","0","","","","","","7","","","","","","","","",""
"","","","","","single-stim-button","273","652500","0.0-2.0-56.8-0.8","559002fefdf99b3f7aada38f","E1","batch5","","1531","tol_tohand","","","","tol_peg_2","1531","1531","0","[[1,0,0],[0,0],[3]]","9","[[2,3,0],[1,0],[0]]","15","0","","","","","","7","","","","","","","","",""
"","","","","","single-stim-button","274","653764","0.0-2.0-56.8-1.8","559002fefdf99b3f7aada38f","E1","batch5","","1264","tol_toboard","","","","tol_peg_1","1264","1264","0","[[1,2,0],[0,0],[3]]","9","[[2,3,0],[1,0],[0]]","15","0","","","","","","7","","","","","","","","",""
"","","","","","single-stim-button","275","658413","0.0-2.0-56.9-0.9","559002fefdf99b3f7aada38f","E1","batch5","","4647","tol_tohand","","","","tol_peg_3","4647","4647","0","[[1,2,0],[0,0],[0]]","10","[[2,3,0],[1,0],[0]]","15","0","","","","","","7","","","","","","","","",""
"","","","","","single-stim-button","276","659877","0.0-2.0-56.9-1.9","559002fefdf99b3f7aada38f","E1","batch5","","1463","tol_toboard","","","","tol_peg_2","1463","1463","0","[[1,2,0],[3,0],[0]]","10","[[2,3,0],[1,0],[0]]","15","0","","","","","","7","","","","","","","","",""
"","","","","","single-stim-button","277","662492","0.0-2.0-56.10-0.10","559002fefdf99b3f7aada38f","E1","batch5","","2615","tol_tohand","","","","tol_peg_1","2615","2615","0","[[1,0,0],[3,0],[0]]","11","[[2,3,0],[1,0],[0]]","15","0","","","","","","7","","","","","","","","",""
"","","","","","single-stim-button","278","663833","0.0-2.0-56.10-1.10","559002fefdf99b3f7aada38f","E1","batch5","","1341","tol_toboard","","","","tol_peg_3","1341","1341","0","[[1,0,0],[3,0],[2]]","11","[[2,3,0],[1,0],[0]]","15","0","","","","","","7","","","","","","","","",""
"","","","","","single-stim-button","279","664910","0.0-2.0-56.11-0.11","559002fefdf99b3f7aada38f","E1","batch5","","1077","tol_tohand","","","","tol_peg_1","1077","1077","0","[[0,0,0],[3,0],[2]]","12","[[2,3,0],[1,0],[0]]","15","0","","","","","","7","","","","","","","","",""
"","","","","","single-stim-button","280","666403","0.0-2.0-56.11-1.11","559002fefdf99b3f7aada38f","E1","batch5","","1493","tol_toboard","","","","tol_peg_2","1493","1493","0","[[0,0,0],[3,1],[2]]","12","[[2,3,0],[1,0],[0]]","15","0","","","","","","7","","","","","","","","",""
"","","","","","single-stim-button","281","667697","0.0-2.0-56.12-0.12","559002fefdf99b3f7aada38f","E1","batch5","","1292","tol_tohand","","","","tol_peg_3","1292","1292","0","[[0,0,0],[3,1],[0]]","13","[[2,3,0],[1,0],[0]]","15","0","","","","","","7","","","","","","","","",""
"","","","","","single-stim-button","282","669225","0.0-2.0-56.12-1.12","559002fefdf99b3f7aada38f","E1","batch5","","1527","tol_toboard","","","","tol_peg_1","1527","1527","0","[[2,0,0],[3,1],[0]]","13","[[2,3,0],[1,0],[0]]","15","0","","","","","","7","","","","","","","","",""
"","","","","","single-stim-button","283","670362","0.0-2.0-56.13-0.13","559002fefdf99b3f7aada38f","E1","batch5","","1136","tol_tohand","","","","tol_peg_2","1136","1136","0","[[2,0,0],[3,0],[0]]","14","[[2,3,0],[1,0],[0]]","15","0","","","","","","7","","","","","","","","",""
"","","","","","single-stim-button","284","671578","0.0-2.0-56.13-1.13","559002fefdf99b3f7aada38f","E1","batch5","","1216","tol_toboard","","","","tol_peg_3","1216","1216","0","[[2,0,0],[3,0],[1]]","14","[[2,3,0],[1,0],[0]]","15","0","","","","","","7","","","","","","","","",""
"","","","","","single-stim-button","285","672562","0.0-2.0-56.14-0.14","559002fefdf99b3f7aada38f","E1","batch5","","984","tol_tohand","","","","tol_peg_2","984","984","0","[[2,0,0],[0,0],[1]]","15","[[2,3,0],[1,0],[0]]","15","0","","","","","","7","","","","","","","","",""
"","","","","","single-stim-button","286","673843","0.0-2.0-56.14-1.14","559002fefdf99b3f7aada38f","E1","batch5","","1280","tol_toboard","","","","tol_peg_1","1280","1280","0","[[2,3,0],[0,0],[1]]","15","[[2,3,0],[1,0],[0]]","15","0","","","","","","7","","","","","","","","",""
"","","","","","single-stim-button","287","674932","0.0-2.0-56.15-0.15","559002fefdf99b3f7aada38f","E1","batch5","","1089","tol_tohand","","","","tol_peg_3","1089","1089","0","[[2,3,0],[0,0],[0]]","16","[[2,3,0],[1,0],[0]]","15","0","","","","","","7","","","","","","","","",""
"","","","","","single-stim-button","288","676070","0.0-2.0-56.15-1.15","559002fefdf99b3f7aada38f","E1","batch5","","1137","tol_toboard","","","","tol_peg_2","1137","1137","0","[[2,3,0],[1,0],[0]]","16","[[2,3,0],[1,0],[0]]","15","0","","","","","","7","","","","","","","","",""
"","","","","","poldrack-single-stim","289","677083","0.0-2.0-57.0","559002fefdf99b3f7aada38f","E1","batch5","","-1","tol_feedback","","","true","","1000","1000","500","","","","","","-1","none","true","5158","31125","","","","","","","","","",""
"","","","","","html-button-response","290","678629","0.0-2.0-58.0","559002fefdf99b3f7aada38f","E1","batch5","","1544.8999999761581","tol_trial_num","<div class = centerbox><p class = center-block-text>problem <strong>17</strong> out of 25 problems</p></div>","0","","","","","","","","","","","","","","","","","","","","","","","","",""
"","","","","","single-stim-button","291","687087","0.0-2.0-59.0-0.0","559002fefdf99b3f7aada38f","E1","batch5","","8458","tol_tohand","","","","tol_peg_1","8458","8458","0","[[1,0,0],[3,0],[0]]","1","[[3,1,0],[2,0],[0]]","16","0","","","","","","5","","","","","","","","",""
"","","","","","single-stim-button","292","688441","0.0-2.0-59.0-1.0","559002fefdf99b3f7aada38f","E1","batch5","","1353","tol_toboard","","","","tol_peg_2","1353","1353","0","[[1,0,0],[3,2],[0]]","1","[[3,1,0],[2,0],[0]]","16","0","","","","","","5","","","","","","","","",""
"","","","","","single-stim-button","293","689377","0.0-2.0-59.1-0.1","559002fefdf99b3f7aada38f","E1","batch5","","936","tol_tohand","","","","tol_peg_1","936","936","0","[[0,0,0],[3,2],[0]]","2","[[3,1,0],[2,0],[0]]","16","0","","","","","","5","","","","","","","","",""
"","","","","","single-stim-button","294","690738","0.0-2.0-59.1-1.1","559002fefdf99b3f7aada38f","E1","batch5","","1359","tol_toboard","","","","tol_peg_3","1359","1359","0","[[0,0,0],[3,2],[1]]","2","[[3,1,0],[2,0],[0]]","16","0","","","","","","5","","","","","","","","",""
"","","","","","single-stim-button","295","695695","0.0-2.0-59.2-0.2","559002fefdf99b3f7aada38f","E1","batch5","","4957","tol_tohand","","","","tol_peg_2","4957","4957","0","[[0,0,0],[3,0],[1]]","3","[[3,1,0],[2,0],[0]]","16","0","","","","","","5","","","","","","","","",""
"","","","","","single-stim-button","296","696973","0.0-2.0-59.2-1.2","559002fefdf99b3f7aada38f","E1","batch5","","1278","tol_toboard","","","","tol_peg_1","1278","1278","0","[[2,0,0],[3,0],[1]]","3","[[3,1,0],[2,0],[0]]","16","0","","","","","","5","","","","","","","","",""
"","","","","","single-stim-button","297","698644","0.0-2.0-59.3-0.3","559002fefdf99b3f7aada38f","E1","batch5","","1671","tol_tohand","","","","tol_peg_2","1671","1671","0","[[2,0,0],[0,0],[1]]","4","[[3,1,0],[2,0],[0]]","16","0","","","","","","5","","","","","","","","",""
"","","","","","single-stim-button","298","699801","0.0-2.0-59.3-1.3","559002fefdf99b3f7aada38f","E1","batch5","","1156","tol_toboard","","","","tol_peg_1","1156","1156","0","[[2,3,0],[0,0],[1]]","4","[[3,1,0],[2,0],[0]]","16","0","","","","","","5","","","","","","","","",""
"","","","","","single-stim-button","299","702711","0.0-2.0-59.4-0.4","559002fefdf99b3f7aada38f","E1","batch5","","2909","tol_tohand","","","","tol_peg_3","2909","2909","0","[[2,3,0],[0,0],[0]]","5","[[3,1,0],[2,0],[0]]","16","0","","","","","","5","","","","","","","","",""
"","","","","","single-stim-button","300","704414","0.0-2.0-59.4-1.4","559002fefdf99b3f7aada38f","E1","batch5","","1702","tol_toboard","","","","tol_peg_2","1702","1702","0","[[2,3,0],[1,0],[0]]","5","[[3,1,0],[2,0],[0]]","16","0","","","","","","5","","","","","","","","",""
"","","","","","single-stim-button","301","705582","0.0-2.0-59.5-0.5","559002fefdf99b3f7aada38f","E1","batch5","","1168","tol_tohand","","","","tol_peg_1","1168","1168","0","[[2,0,0],[1,0],[0]]","6","[[3,1,0],[2,0],[0]]","16","0","","","","","","5","","","","","","","","",""
"","","","","","single-stim-button","302","711804","0.0-2.0-59.5-1.5","559002fefdf99b3f7aada38f","E1","batch5","","6221","tol_toboard","","","","tol_peg_3","6221","6221","0","[[2,0,0],[1,0],[3]]","6","[[3,1,0],[2,0],[0]]","16","0","","","","","","5","","","","","","","","",""
"","","","","","single-stim-button","303","713156","0.0-2.0-59.6-0.6","559002fefdf99b3f7aada38f","E1","batch5","","1350","tol_tohand","","","","tol_peg_1","1350","1350","0","[[0,0,0],[1,0],[3]]","7","[[3,1,0],[2,0],[0]]","16","0","","","","","","5","","","","","","","","",""
"","","","","","single-stim-button","304","714599","0.0-2.0-59.6-1.6","559002fefdf99b3f7aada38f","E1","batch5","","1443","tol_toboard","","","","tol_peg_2","1443","1443","0","[[0,0,0],[1,2],[3]]","7","[[3,1,0],[2,0],[0]]","16","0","","","","","","5","","","","","","","","",""
"","","","","","single-stim-button","305","715674","0.0-2.0-59.7-0.7","559002fefdf99b3f7aada38f","E1","batch5","","1074","tol_tohand","","","","tol_peg_3","1074","1074","0","[[0,0,0],[1,2],[0]]","8","[[3,1,0],[2,0],[0]]","16","0","","","","","","5","","","","","","","","",""
"","","","","","single-stim-button","306","716955","0.0-2.0-59.7-1.7","559002fefdf99b3f7aada38f","E1","batch5","","1280","tol_toboard","","","","tol_peg_1","1280","1280","0","[[3,0,0],[1,2],[0]]","8","[[3,1,0],[2,0],[0]]","16","0","","","","","","5","","","","","","","","",""
"","","","","","single-stim-button","307","719326","0.0-2.0-59.8-0.8","559002fefdf99b3f7aada38f","E1","batch5","","2371","tol_tohand","","","","tol_peg_2","2371","2371","0","[[3,0,0],[1,0],[0]]","9","[[3,1,0],[2,0],[0]]","16","0","","","","","","5","","","","","","","","",""
"","","","","","single-stim-button","308","720231","0.0-2.0-59.8-1.8","559002fefdf99b3f7aada38f","E1","batch5","","905","tol_toboard","","","","tol_peg_3","905","905","0","[[3,0,0],[1,0],[2]]","9","[[3,1,0],[2,0],[0]]","16","0","","","","","","5","","","","","","","","",""
"","","","","","single-stim-button","309","720478","0.0-2.0-59.9-0.9","559002fefdf99b3f7aada38f","E1","batch5","","247","tol_tohand","","","","tol_peg_3","247","247","0","[[3,0,0],[1,0],[0]]","10","[[3,1,0],[2,0],[0]]","16","0","","","","","","5","","","","","","","","",""
"","","","","","single-stim-button","310","721419","0.0-2.0-59.9-1.9","559002fefdf99b3f7aada38f","E1","batch5","","939","tol_toboard","","","","tol_peg_3","939","939","0","[[3,0,0],[1,0],[2]]","10","[[3,1,0],[2,0],[0]]","16","0","","","","","","5","","","","","","","","",""
"","","","","","single-stim-button","311","722668","0.0-2.0-59.10-0.10","559002fefdf99b3f7aada38f","E1","batch5","","1249","tol_tohand","","","","tol_peg_2","1249","1249","0","[[3,0,0],[0,0],[2]]","11","[[3,1,0],[2,0],[0]]","16","0","","","","","","5","","","","","","","","",""
"","","","","","single-stim-button","312","723663","0.0-2.0-59.10-1.10","559002fefdf99b3f7aada38f","E1","batch5","","994","tol_toboard","","","","tol_peg_1","994","994","0","[[3,1,0],[0,0],[2]]","11","[[3,1,0],[2,0],[0]]","16","0","","","","","","5","","","","","","","","",""
"","","","","","single-stim-button","313","724616","0.0-2.0-59.11-0.11","559002fefdf99b3f7aada38f","E1","batch5","","953","tol_tohand","","","","tol_peg_3","953","953","0","[[3,1,0],[0,0],[0]]","12","[[3,1,0],[2,0],[0]]","16","0","","","","","","5","","","","","","","","",""
"","","","","","single-stim-button","314","725633","0.0-2.0-59.11-1.11","559002fefdf99b3f7aada38f","E1","batch5","","1017","tol_toboard","","","","tol_peg_2","1017","1017","0","[[3,1,0],[2,0],[0]]","12","[[3,1,0],[2,0],[0]]","16","0","","","","","","5","","","","","","","","",""
"","","","","","poldrack-single-stim","315","726644","0.0-2.0-60.0","559002fefdf99b3f7aada38f","E1","batch5","","-1","tol_feedback","","","true","","1000","1000","500","","","","","","-1","none","true","8458","27343","","","","","","","","","",""
"","","","","","html-button-response","316","727874","0.0-2.0-61.0","559002fefdf99b3f7aada38f","E1","batch5","","1229.3999999761581","tol_trial_num","<div class = centerbox><p class = center-block-text>problem <strong>18</strong> out of 25 problems</p></div>","0","","","","","","","","","","","","","","","","","","","","","","","","",""
"","","","","","single-stim-button","317","731208","0.0-2.0-62.0-0.0","559002fefdf99b3f7aada38f","E1","batch5","","3334","tol_tohand","","","","tol_peg_1","3334","3334","0","[[1,0,0],[3,0],[0]]","1","[[3,0,0],[2,0],[1]]","17","0","","","","","","5","","","","","","","","",""
"","","","","","single-stim-button","318","732924","0.0-2.0-62.0-1.0","559002fefdf99b3f7aada38f","E1","batch5","","1714","tol_toboard","","","","tol_peg_3","1714","1714","0","[[1,0,0],[3,0],[2]]","1","[[3,0,0],[2,0],[1]]","17","0","","","","","","5","","","","","","","","",""
"","","","","","single-stim-button","319","735912","0.0-2.0-62.1-0.1","559002fefdf99b3f7aada38f","E1","batch5","","2987","tol_tohand","","","","tol_peg_2","2987","2987","0","[[1,0,0],[0,0],[2]]","2","[[3,0,0],[2,0],[1]]","17","0","","","","","","5","","","","","","","","",""
"","","","","","single-stim-button","320","737054","0.0-2.0-62.1-1.1","559002fefdf99b3f7aada38f","E1","batch5","","1142","tol_toboard","","","","tol_peg_1","1142","1142","0","[[1,3,0],[0,0],[2]]","2","[[3,0,0],[2,0],[1]]","17","0","","","","","","5","","","","","","","","",""
"","","","","","single-stim-button","321","739882","0.0-2.0-62.2-0.2","559002fefdf99b3f7aada38f","E1","batch5","","2827","tol_tohand","","","","tol_peg_3","2827","2827","0","[[1,3,0],[0,0],[0]]","3","[[3,0,0],[2,0],[1]]","17","0","","","","","","5","","","","","","","","",""
"","","","","","single-stim-button","322","741352","0.0-2.0-62.2-1.2","559002fefdf99b3f7aada38f","E1","batch5","","1470","tol_toboard","","","","tol_peg_2","1470","1470","0","[[1,3,0],[2,0],[0]]","3","[[3,0,0],[2,0],[1]]","17","0","","","","","","5","","","","","","","","",""
"","","","","","single-stim-button","323","742631","0.0-2.0-62.3-0.3","559002fefdf99b3f7aada38f","E1","batch5","","1278","tol_tohand","","","","tol_peg_1","1278","1278","0","[[1,0,0],[2,0],[0]]","4","[[3,0,0],[2,0],[1]]","17","0","","","","","","5","","","","","","","","",""
"","","","","","single-stim-button","324","743887","0.0-2.0-62.3-1.3","559002fefdf99b3f7aada38f","E1","batch5","","1255","tol_toboard","","","","tol_peg_3","1255","1255","0","[[1,0,0],[2,0],[3]]","4","[[3,0,0],[2,0],[1]]","17","0","","","","","","5","","","","","","","","",""
"","","","","","single-stim-button","325","744984","0.0-2.0-62.4-0.4","559002fefdf99b3f7aada38f","E1","batch5","","1097","tol_tohand","","","","tol_peg_1","1097","1097","0","[[0,0,0],[2,0],[3]]","5","[[3,0,0],[2,0],[1]]","17","0","","","","","","5","","","","","","","","",""
"","","","","","single-stim-button","326","746092","0.0-2.0-62.4-1.4","559002fefdf99b3f7aada38f","E1","batch5","","1107","tol_toboard","","","","tol_peg_2","1107","1107","0","[[0,0,0],[2,1],[3]]","5","[[3,0,0],[2,0],[1]]","17","0","","","","","","5","","","","","","","","",""
"","","","","","single-stim-button","327","747260","0.0-2.0-62.5-0.5","559002fefdf99b3f7aada38f","E1","batch5","","1166","tol_tohand","","","","tol_peg_3","1166","1166","0","[[0,0,0],[2,1],[0]]","6","[[3,0,0],[2,0],[1]]","17","0","","","","","","5","","","","","","","","",""
"","","","","","single-stim-button","328","748937","0.0-2.0-62.5-1.5","559002fefdf99b3f7aada38f","E1","batch5","","1677","tol_toboard","","","","tol_peg_1","1677","1677","0","[[3,0,0],[2,1],[0]]","6","[[3,0,0],[2,0],[1]]","17","0","","","","","","5","","","","","","","","",""
"","","","","","single-stim-button","329","750091","0.0-2.0-62.6-0.6","559002fefdf99b3f7aada38f","E1","batch5","","1153","tol_tohand","","","","tol_peg_2","1153","1153","0","[[3,0,0],[2,0],[0]]","7","[[3,0,0],[2,0],[1]]","17","0","","","","","","5","","","","","","","","",""
"","","","","","single-stim-button","330","751293","0.0-2.0-62.6-1.6","559002fefdf99b3f7aada38f","E1","batch5","","1202","tol_toboard","","","","tol_peg_3","1202","1202","0","[[3,0,0],[2,0],[1]]","7","[[3,0,0],[2,0],[1]]","17","0","","","","","","5","","","","","","","","",""
"","","","","","poldrack-single-stim","331","752305","0.0-2.0-63.0","559002fefdf99b3f7aada38f","E1","batch5","","-1","tol_feedback","","","true","","1000","1000","500","","","","","","-1","none","true","3334","13842","","","","","","","","","",""
"","","","","","html-button-response","332","753509","0.0-2.0-64.0","559002fefdf99b3f7aada38f","E1","batch5","","1203.7000000476837","tol_trial_num","<div class = centerbox><p class = center-block-text>problem <strong>19</strong> out of 25 problems</p></div>","0","","","","","","","","","","","","","","","","","","","","","","","","",""
"","","","","","single-stim-button","333","761215","0.0-2.0-65.0-0.0","559002fefdf99b3f7aada38f","E1","batch5","","7704","tol_tohand","","","","tol_peg_1","7704","7704","0","[[1,0,0],[3,0],[0]]","1","[[0,0,0],[1,2],[3]]","18","0","","","","","","7","","","","","","","","",""
"","","","","","single-stim-button","334","762808","0.0-2.0-65.0-1.0","559002fefdf99b3f7aada38f","E1","batch5","","1591","tol_toboard","","","","tol_peg_3","1591","1591","0","[[1,0,0],[3,0],[2]]","1","[[0,0,0],[1,2],[3]]","18","0","","","","","","7","","","","","","","","",""
"","","","","","single-stim-button","335","764177","0.0-2.0-65.1-0.1","559002fefdf99b3f7aada38f","E1","batch5","","1369","tol_tohand","","","","tol_peg_1","1369","1369","0","[[0,0,0],[3,0],[2]]","2","[[0,0,0],[1,2],[3]]","18","0","","","","","","7","","","","","","","","",""
"","","","","","single-stim-button","336","766147","0.0-2.0-65.1-1.1","559002fefdf99b3f7aada38f","E1","batch5","","1970","tol_toboard","","","","tol_peg_2","1970","1970","0","[[0,0,0],[3,1],[2]]","2","[[0,0,0],[1,2],[3]]","18","0","","","","","","7","","","","","","","","",""
"","","","","","single-stim-button","337","767284","0.0-2.0-65.2-0.2","559002fefdf99b3f7aada38f","E1","batch5","","1136","tol_tohand","","","","tol_peg_3","1136","1136","0","[[0,0,0],[3,1],[0]]","3","[[0,0,0],[1,2],[3]]","18","0","","","","","","7","","","","","","","","",""
"","","","","","single-stim-button","338","768582","0.0-2.0-65.2-1.2","559002fefdf99b3f7aada38f","E1","batch5","","1297","tol_toboard","","","","tol_peg_1","1297","1297","0","[[2,0,0],[3,1],[0]]","3","[[0,0,0],[1,2],[3]]","18","0","","","","","","7","","","","","","","","",""
"","","","","","single-stim-button","339","769888","0.0-2.0-65.3-0.3","559002fefdf99b3f7aada38f","E1","batch5","","1306","tol_tohand","","","","tol_peg_2","1306","1306","0","[[2,0,0],[3,0],[0]]","4","[[0,0,0],[1,2],[3]]","18","0","","","","","","7","","","","","","","","",""
"","","","","","single-stim-button","340","773746","0.0-2.0-65.3-1.3","559002fefdf99b3f7aada38f","E1","batch5","","3856","tol_toboard","","","","tol_peg_3","3856","3856","0","[[2,0,0],[3,0],[1]]","4","[[0,0,0],[1,2],[3]]","18","0","","","","","","7","","","","","","","","",""
"","","","","","single-stim-button","341","778858","0.0-2.0-65.4-0.4","559002fefdf99b3f7aada38f","E1","batch5","","5112","tol_tohand","","","","tol_peg_1","5112","5112","0","[[0,0,0],[3,0],[1]]","5","[[0,0,0],[1,2],[3]]","18","0","","","","","","7","","","","","","","","",""
"","","","","","single-stim-button","342","780110","0.0-2.0-65.4-1.4","559002fefdf99b3f7aada38f","E1","batch5","","1251","tol_toboard","","","","tol_peg_2","1251","1251","0","[[0,0,0],[3,2],[1]]","5","[[0,0,0],[1,2],[3]]","18","0","","","","","","7","","","","","","","","",""
"","","","","","single-stim-button","343","780936","0.0-2.0-65.5-0.5","559002fefdf99b3f7aada38f","E1","batch5","","826","tol_tohand","","","","tol_peg_3","826","826","0","[[0,0,0],[3,2],[0]]","6","[[0,0,0],[1,2],[3]]","18","0","","","","","","7","","","","","","","","",""
"","","","","","single-stim-button","344","782749","0.0-2.0-65.5-1.5","559002fefdf99b3f7aada38f","E1","batch5","","1812","tol_toboard","","","","tol_peg_1","1812","1812","0","[[1,0,0],[3,2],[0]]","6","[[0,0,0],[1,2],[3]]","18","0","","","","","","7","","","","","","","","",""
"","","","","","single-stim-button","345","783898","0.0-2.0-65.6-0.6","559002fefdf99b3f7aada38f","E1","batch5","","1149","tol_tohand","","","","tol_peg_2","1149","1149","0","[[1,0,0],[3,0],[0]]","7","[[0,0,0],[1,2],[3]]","18","0","","","","","","7","","","","","","","","",""
"","","","","","single-stim-button","346","785086","0.0-2.0-65.6-1.6","559002fefdf99b3f7aada38f","E1","batch5","","1187","tol_toboard","","","","tol_peg_3","1187","1187","0","[[1,0,0],[3,0],[2]]","7","[[0,0,0],[1,2],[3]]","18","0","","","","","","7","","","","","","","","",""
"","","","","","single-stim-button","347","786238","0.0-2.0-65.7-0.7","559002fefdf99b3f7aada38f","E1","batch5","","1151","tol_tohand","","","","tol_peg_1","1151","1151","0","[[0,0,0],[3,0],[2]]","8","[[0,0,0],[1,2],[3]]","18","0","","","","","","7","","","","","","","","",""
"","","","","","single-stim-button","348","787529","0.0-2.0-65.7-1.7","559002fefdf99b3f7aada38f","E1","batch5","","1290","tol_toboard","","","","tol_peg_2","1290","1290","0","[[0,0,0],[3,1],[2]]","8","[[0,0,0],[1,2],[3]]","18","0","","","","","","7","","","","","","","","",""
"","","","","","single-stim-button","349","788559","0.0-2.0-65.8-0.8","559002fefdf99b3f7aada38f","E1","batch5","","1030","tol_tohand","","","","tol_peg_3","1030","1030","0","[[0,0,0],[3,1],[0]]","9","[[0,0,0],[1,2],[3]]","18","0","","","","","","7","","","","","","","","",""
"","","","","","single-stim-button","350","790346","0.0-2.0-65.8-1.8","559002fefdf99b3f7aada38f","E1","batch5","","1786","tol_toboard","","","","tol_peg_1","1786","1786","0","[[2,0,0],[3,1],[0]]","9","[[0,0,0],[1,2],[3]]","18","0","","","","","","7","","","","","","","","",""
"","","","","","single-stim-button","351","793093","0.0-2.0-65.9-0.9","559002fefdf99b3f7aada38f","E1","batch5","","2746","tol_tohand","","","","tol_peg_2","2746","2746","0","[[2,0,0],[3,0],[0]]","10","[[0,0,0],[1,2],[3]]","18","0","","","","","","7","","","","","","","","",""
"","","","","","single-stim-button","352","794251","0.0-2.0-65.9-1.9","559002fefdf99b3f7aada38f","E1","batch5","","1157","tol_toboard","","","","tol_peg_1","1157","1157","0","[[2,1,0],[3,0],[0]]","10","[[0,0,0],[1,2],[3]]","18","0","","","","","","7","","","","","","","","",""
"","","","","","single-stim-button","353","795175","0.0-2.0-65.10-0.10","559002fefdf99b3f7aada38f","E1","batch5","","923","tol_tohand","","","","tol_peg_2","923","923","0","[[2,1,0],[0,0],[0]]","11","[[0,0,0],[1,2],[3]]","18","0","","","","","","7","","","","","","","","",""
"","","","","","single-stim-button","354","796486","0.0-2.0-65.10-1.10","559002fefdf99b3f7aada38f","E1","batch5","","1311","tol_toboard","","","","tol_peg_3","1311","1311","0","[[2,1,0],[0,0],[3]]","11","[[0,0,0],[1,2],[3]]","18","0","","","","","","7","","","","","","","","",""
