"success","timeout","failed_images","failed_audio","failed_video","trial_type","trial_index","time_elapsed","internal_node_id","subject_id","study_id","session_id","view_history","rt","task","stimulus","response","correct","mouse_click","stim_duration","block_duration","timing_post_trial","current_position","tol_num_moves_made","tol_target","tol_problem_id","tol_rt","key_press","possible_responses","tol_correct","preplanning","tol_rt_per_trial","tol_min_moves","answer","item","fiar_detect_rt","fiar_detect_correct","total_correct_fiar_detect","post_trial_gap","choices","spm_correct","spm_rt"
"true","false","[]","[]","[]","preload","0","3169","0.0-0.0","559c1e28fdf99b2189ee807d","B2","batch2","","","","","","","","","","","","","","","","","","","","","","","","","","","","","",""
"true","","","","","fullscreen","1","29463","0.0-1.0-0.0","559c1e28fdf99b2189ee807d","B2","batch2","","","","","","","","","","","","","","","","","","","","","","","","","","","","","",""
"true","","","","","fullscreen","2","43784","0.0-2.0-0.0","559c1e28fdf99b2189ee807d","B2","batch2","","","","","","","","","","","","","","","","","","","","","","","","","","","","","",""
"","","","","","instructions","3","126508","0.0-2.0-1.0-0.0-0.0","559c1e28fdf99b2189ee807d","B2","batch2","[{""page_index"":0,""viewing_time"":12743.400000000023},{""page_index"":1,""viewing_time"":7009.399999999965},{""page_index"":2,""viewing_time"":5792.200000000012},{""page_index"":3,""viewing_time"":16164.400000000023},{""page_index"":4,""viewing_time"":15415.599999999977},{""page_index"":5,""viewing_time"":22657.400000000023},{""page_index"":6,""viewing_time"":2937.399999999965}]","82721","tol-instructions","","","","","","","","","","","","","","","","","","","","","","","","","","",""
"","","","","","html-button-response","4","128114","0.0-2.0-1.0-1.0-0.0","559c1e28fdf99b2189ee807d","B2","batch2","","1599.9000000000233","tol_enter_quiz","<p class=block-text> Let's answer a few questions <br>","0","","","","","","","","","","","","","","","","","","","","","","","","",""
"","","","","","html-button-response","5","135246","0.0-2.0-1.0-1.0-1.0","559c1e28fdf99b2189ee807d","B2","batch2","","7125.300000000047","tol_quiz","<p class = block-text>True or False: You can only move the ball on top of a peg. <br></p>","1","false","","","","","","","","","","","","","","","","","","","","","","","",""
"","","","","","html-button-response","6","142463","0.0-2.0-1.0-1.0-2.0","559c1e28fdf99b2189ee807d","B2","batch2","","7209.100000000035","tol_quiz_feedback","<p class = block-text>Incorrect. Remember, you can only move the ball on top of a peg.</p>","0","","","","","","","","","","","","","","","","","","","","","","","","",""
"","","","","","html-button-response","7","147552","0.0-2.0-1.0-1.0-3.0","559c1e28fdf99b2189ee807d","B2","batch2","","5084.5","tol_quiz","<p class = block-text>True or False: You should try to match your board with the target board with fewest moves possible. <br></p>","0","true","","","","","","","","","","","","","","","","","","","","","","","",""
"","","","","","html-button-response","8","149731","0.0-2.0-1.0-1.0-4.0","559c1e28fdf99b2189ee807d","B2","batch2","","2174.2000000000116","tol_quiz_feedback","<p class = block-text>Correct! </p>","0","","","","","","","","","","","","","","","","","","","","","","","","",""
"","","","","","html-button-response","9","154632","0.0-2.0-1.0-2.0-0.0","559c1e28fdf99b2189ee807d","B2","batch2","","4896.600000000035","","<p class = block-text>You made too many incorrect choices.</p><p class = block-text>You will now repeat the instructions and quiz</p>","0","","","","","","","","","","","","","","","","","","","","","","","","",""
"","","","","","instructions","10","209249","0.0-2.0-1.1-0.1-0.1","559c1e28fdf99b2189ee807d","B2","batch2","[{""page_index"":0,""viewing_time"":6510.800000000047},{""page_index"":1,""viewing_time"":6272.799999999988},{""page_index"":2,""viewing_time"":3172.2000000000116},{""page_index"":3,""viewing_time"":9594.899999999965},{""page_index"":4,""viewing_time"":8253.299999999988},{""page_index"":5,""viewing_time"":18111.800000000047},{""page_index"":6,""viewing_time"":2695}]","54611.70000000001","tol-instructions","","","","","","","","","","","","","","","","","","","","","","","","","","",""
"","","","","","html-button-response","11","210621","0.0-2.0-1.1-1.1-0.1","559c1e28fdf99b2189ee807d","B2","batch2","","1368.5999999999767","tol_enter_quiz","<p class=block-text> Let's answer a few questions <br>","0","","","","","","","","","","","","","","","","","","","","","","","","",""
"","","","","","html-button-response","12","214550","0.0-2.0-1.1-1.1-1.1","559c1e28fdf99b2189ee807d","B2","batch2","","3923.29999999993","tol_quiz","<p class = block-text>True or False: You can only move the ball on top of a peg. <br></p>","0","true","","","","","","","","","","","","","","","","","","","","","","","",""
"","","","","","html-button-response","13","218288","0.0-2.0-1.1-1.1-2.1","559c1e28fdf99b2189ee807d","B2","batch2","","3733.6999999999534","tol_quiz_feedback","<p class = block-text>Correct! You can only move the ball on top of a peg.</p>","0","","","","","","","","","","","","","","","","","","","","","","","","",""
"","","","","","html-button-response","14","226827","0.0-2.0-1.1-1.1-3.1","559c1e28fdf99b2189ee807d","B2","batch2","","8535.100000000093","tol_quiz","<p class = block-text>True or False: You should try to match your board with the target board with fewest moves possible. <br></p>","0","true","","","","","","","","","","","","","","","","","","","","","","","",""
"","","","","","html-button-response","15","227807","0.0-2.0-1.1-1.1-4.1","559c1e28fdf99b2189ee807d","B2","batch2","","976.3000000000466","tol_quiz_feedback","<p class = block-text>Correct! </p>","0","","","","","","","","","","","","","","","","","","","","","","","","",""
"","","","","","html-button-response","16","230866","0.0-2.0-2.0","559c1e28fdf99b2189ee807d","B2","batch2","","3052.4000000000233","","<p class=block-text> Now that you've understood the game, let's practice a few easier examples before we start!<br> <br>","0","","","","","","","","","","","","","","","","","","","","","","","","",""
"","","","","","single-stim-button","17","236016","0.0-2.0-3.0-0.0","559c1e28fdf99b2189ee807d","B2","batch2","","5139","tol_practice","","","","tol_peg_2","5139","5139","0","[[1,2,0],[0,0],[0]]","1","[[1,2,0],[0,0],[3]]","practice","5139","","","","","","","","","","","","","","",""
"","","","","","single-stim-button","18","238721","0.0-2.0-3.0-1.0","559c1e28fdf99b2189ee807d","B2","batch2","","2698","tol_practice","","","","tol_peg_3","2698","2698","0","[[1,2,0],[0,0],[3]]","1","[[1,2,0],[0,0],[3]]","practice","2698","","","","","","","","","","","","","","",""
"","","","","","poldrack-single-stim","19","239740","0.0-2.0-4.0","559c1e28fdf99b2189ee807d","B2","batch2","","-1","tol_feedback","","","true","","1000","1000","500","","","","","","-1","none","true","","0","","","","","","","","","",""
"","","","","","single-stim-button","20","243889","0.0-2.0-5.0-0.0","559c1e28fdf99b2189ee807d","B2","batch2","","4145","tol_practice","","","","tol_peg_1","4145","4145","0","[[1,0,0],[3,0],[0]]","2","[[0,0,0],[3,1],[2]]","practice","4145","","","","","","","","","","","","","","",""
"","","","","","single-stim-button","21","246441","0.0-2.0-5.0-1.0","559c1e28fdf99b2189ee807d","B2","batch2","","2549","tol_practice","","","","tol_peg_3","2549","2549","0","[[1,0,0],[3,0],[2]]","2","[[0,0,0],[3,1],[2]]","practice","2549","","","","","","","","","","","","","","",""
"","","","","","single-stim-button","22","248139","0.0-2.0-5.1-0.1","559c1e28fdf99b2189ee807d","B2","batch2","","1696","tol_practice","","","","tol_peg_1","1696","1696","0","[[0,0,0],[3,0],[2]]","3","[[0,0,0],[3,1],[2]]","practice","1696","","","","","","","","","","","","","","",""
"","","","","","single-stim-button","23","249979","0.0-2.0-5.1-1.1","559c1e28fdf99b2189ee807d","B2","batch2","","1836","tol_practice","","","","tol_peg_2","1836","1836","0","[[0,0,0],[3,1],[2]]","3","[[0,0,0],[3,1],[2]]","practice","1836","","","","","","","","","","","","","","",""
"","","","","","poldrack-single-stim","24","250992","0.0-2.0-6.0","559c1e28fdf99b2189ee807d","B2","batch2","","-1","tol_feedback","","","true","","1000","1000","500","","","","","","-1","none","true","","0","","","","","","","","","",""
"","","","","","single-stim-button","25","256339","0.0-2.0-7.0-0.0","559c1e28fdf99b2189ee807d","B2","batch2","","5341","tol_practice","","","","tol_peg_2","5341","5341","0","[[1,2,0],[0,0],[0]]","4","[[1,0,0],[2,0],[3]]","practice","5341","","","","","","","","","","","","","","",""
"","","","","","single-stim-button","26","258256","0.0-2.0-7.0-1.0","559c1e28fdf99b2189ee807d","B2","batch2","","1912","tol_practice","","","","tol_peg_3","1912","1912","0","[[1,2,0],[0,0],[3]]","4","[[1,0,0],[2,0],[3]]","practice","1912","","","","","","","","","","","","","","",""
"","","","","","single-stim-button","27","260260","0.0-2.0-7.1-0.1","559c1e28fdf99b2189ee807d","B2","batch2","","2001","tol_practice","","","","tol_peg_1","2001","2001","0","[[1,0,0],[0,0],[3]]","5","[[1,0,0],[2,0],[3]]","practice","2001","","","","","","","","","","","","","","",""
"","","","","","single-stim-button","28","261356","0.0-2.0-7.1-1.1","559c1e28fdf99b2189ee807d","B2","batch2","","1092","tol_practice","","","","tol_peg_2","1092","1092","0","[[1,0,0],[2,0],[3]]","5","[[1,0,0],[2,0],[3]]","practice","1092","","","","","","","","","","","","","","",""
"","","","","","poldrack-single-stim","29","262368","0.0-2.0-8.0","559c1e28fdf99b2189ee807d","B2","batch2","","-1","tol_feedback","","","true","","1000","1000","500","","","","","","-1","none","true","","0","","","","","","","","","",""
"","","","","","html-button-response","30","340073","0.0-2.0-9.0","559c1e28fdf99b2189ee807d","B2","batch2","","77701.20000000007","tol_instruction","<div class = centerbox><p class = center-block-text>Great job! You are done with practice trials<br>You are about to start official trials.<br> <br> Problem <strong>1</strong> out of 25 problems</p></div>","0","","","","","","","","","","","","","","","","","","","","","","","","",""
"","","","","","single-stim-button","31","346284","0.0-2.0-10.0-0.0","559c1e28fdf99b2189ee807d","B2","batch2","","5200","tol_tohand","","","","tol_peg_2","5200","5200","0","[[1,2,0],[0,0],[0]]","1","[[1,3,0],[2,0],[0]]","0","0","","","","","","3","","","","","","","","",""
"","","","","","single-stim-button","32","347579","0.0-2.0-10.0-1.0","559c1e28fdf99b2189ee807d","B2","batch2","","1291","tol_toboard","","","","tol_peg_1","1291","1291","0","[[1,2,3],[0,0],[0]]","1","[[1,3,0],[2,0],[0]]","0","0","","","","","","3","","","","","","","","",""
"","","","","","single-stim-button","33","351104","0.0-2.0-10.1-0.1","559c1e28fdf99b2189ee807d","B2","batch2","","3520","tol_tohand","","","","tol_peg_1","3520","3520","0","[[1,2,0],[0,0],[0]]","2","[[1,3,0],[2,0],[0]]","0","0","","","","","","3","","","","","","","","",""
"","","","","","single-stim-button","34","354767","0.0-2.0-10.1-1.1","559c1e28fdf99b2189ee807d","B2","batch2","","3658","tol_toboard","","","","tol_peg_3","3658","3658","0","[[1,2,0],[0,0],[3]]","2","[[1,3,0],[2,0],[0]]","0","0","","","","","","3","","","","","","","","",""
"","","","","","single-stim-button","35","355705","0.0-2.0-10.2-0.2","559c1e28fdf99b2189ee807d","B2","batch2","","932","tol_tohand","","","","tol_peg_1","932","932","0","[[1,0,0],[0,0],[3]]","3","[[1,3,0],[2,0],[0]]","0","0","","","","","","3","","","","","","","","",""
"","","","","","single-stim-button","36","357028","0.0-2.0-10.2-1.2","559c1e28fdf99b2189ee807d","B2","batch2","","1317","tol_toboard","","","","tol_peg_2","1317","1317","0","[[1,0,0],[2,0],[3]]","3","[[1,3,0],[2,0],[0]]","0","0","","","","","","3","","","","","","","","",""
"","","","","","single-stim-button","37","358046","0.0-2.0-10.3-0.3","559c1e28fdf99b2189ee807d","B2","batch2","","1010","tol_tohand","","","","tol_peg_3","1010","1010","0","[[1,0,0],[2,0],[0]]","4","[[1,3,0],[2,0],[0]]","0","0","","","","","","3","","","","","","","","",""
"","","","","","single-stim-button","38","359197","0.0-2.0-10.3-1.3","559c1e28fdf99b2189ee807d","B2","batch2","","1144","tol_toboard","","","","tol_peg_1","1144","1144","0","[[1,3,0],[2,0],[0]]","4","[[1,3,0],[2,0],[0]]","0","0","","","","","","3","","","","","","","","",""
"","","","","","poldrack-single-stim","39","360215","0.0-2.0-11.0","559c1e28fdf99b2189ee807d","B2","batch2","","-1","tol_feedback","","","true","","1000","1000","500","","","","","","-1","none","true","5200","10662","","","","","","","","","",""
"","","","","","html-button-response","40","361871","0.0-2.0-12.0","559c1e28fdf99b2189ee807d","B2","batch2","","1652.2999999999302","tol_trial_num","<div class = centerbox><p class = center-block-text>problem <strong>2</strong> out of 25 problems</p></div>","0","","","","","","","","","","","","","","","","","","","","","","","","",""
"","","","","","single-stim-button","41","372145","0.0-2.0-13.0-0.0","559c1e28fdf99b2189ee807d","B2","batch2","","10267","tol_tohand","","","","tol_peg_1","10267","10267","0","[[1,0,0],[3,0],[0]]","1","[[2,1,3],[0,0],[0]]","1","0","","","","","","5","","","","","","","","",""
"","","","","","single-stim-button","42","373628","0.0-2.0-13.0-1.0","559c1e28fdf99b2189ee807d","B2","batch2","","1479","tol_toboard","","","","tol_peg_2","1479","1479","0","[[1,0,0],[3,2],[0]]","1","[[2,1,3],[0,0],[0]]","1","0","","","","","","5","","","","","","","","",""
"","","","","","single-stim-button","43","374841","0.0-2.0-13.1-0.1","559c1e28fdf99b2189ee807d","B2","batch2","","1208","tol_tohand","","","","tol_peg_1","1208","1208","0","[[0,0,0],[3,2],[0]]","2","[[2,1,3],[0,0],[0]]","1","0","","","","","","5","","","","","","","","",""
"","","","","","single-stim-button","44","376188","0.0-2.0-13.1-1.1","559c1e28fdf99b2189ee807d","B2","batch2","","1342","tol_toboard","","","","tol_peg_3","1342","1342","0","[[0,0,0],[3,2],[1]]","2","[[2,1,3],[0,0],[0]]","1","0","","","","","","5","","","","","","","","",""
"","","","","","single-stim-button","45","377864","0.0-2.0-13.2-0.2","559c1e28fdf99b2189ee807d","B2","batch2","","1672","tol_tohand","","","","tol_peg_2","1672","1672","0","[[0,0,0],[3,0],[1]]","3","[[2,1,3],[0,0],[0]]","1","0","","","","","","5","","","","","","","","",""
"","","","","","single-stim-button","46","379455","0.0-2.0-13.2-1.2","559c1e28fdf99b2189ee807d","B2","batch2","","1587","tol_toboard","","","","tol_peg_1","1587","1587","0","[[2,0,0],[3,0],[1]]","3","[[2,1,3],[0,0],[0]]","1","0","","","","","","5","","","","","","","","",""
"","","","","","single-stim-button","47","380537","0.0-2.0-13.3-0.3","559c1e28fdf99b2189ee807d","B2","batch2","","1077","tol_tohand","","","","tol_peg_3","1077","1077","0","[[2,0,0],[3,0],[0]]","4","[[2,1,3],[0,0],[0]]","1","0","","","","","","5","","","","","","","","",""
"","","","","","single-stim-button","48","381765","0.0-2.0-13.3-1.3","559c1e28fdf99b2189ee807d","B2","batch2","","1224","tol_toboard","","","","tol_peg_1","1224","1224","0","[[2,1,0],[3,0],[0]]","4","[[2,1,3],[0,0],[0]]","1","0","","","","","","5","","","","","","","","",""
"","","","","","single-stim-button","49","383147","0.0-2.0-13.4-0.4","559c1e28fdf99b2189ee807d","B2","batch2","","1378","tol_tohand","","","","tol_peg_2","1378","1378","0","[[2,1,0],[0,0],[0]]","5","[[2,1,3],[0,0],[0]]","1","0","","","","","","5","","","","","","","","",""
"","","","","","single-stim-button","50","384280","0.0-2.0-13.4-1.4","559c1e28fdf99b2189ee807d","B2","batch2","","1130","tol_toboard","","","","tol_peg_1","1130","1130","0","[[2,1,3],[0,0],[0]]","5","[[2,1,3],[0,0],[0]]","1","0","","","","","","5","","","","","","","","",""
"","","","","","poldrack-single-stim","51","385289","0.0-2.0-14.0","559c1e28fdf99b2189ee807d","B2","batch2","","-1","tol_feedback","","","true","","1000","1000","500","","","","","","-1","none","true","10267","15602","","","","","","","","","",""
"","","","","","html-button-response","52","386385","0.0-2.0-15.0","559c1e28fdf99b2189ee807d","B2","batch2","","1091","tol_trial_num","<div class = centerbox><p class = center-block-text>problem <strong>3</strong> out of 25 problems</p></div>","0","","","","","","","","","","","","","","","","","","","","","","","","",""
"","","","","","single-stim-button","53","393764","0.0-2.0-16.0-0.0","559c1e28fdf99b2189ee807d","B2","batch2","","7375","tol_tohand","","","","tol_peg_1","7375","7375","0","[[2,0,0],[0,0],[1]]","1","[[1,2,0],[3,0],[0]]","2","0","","","","","","4","","","","","","","","",""
"","","","","","single-stim-button","54","394800","0.0-2.0-16.0-1.0","559c1e28fdf99b2189ee807d","B2","batch2","","1033","tol_toboard","","","","tol_peg_2","1033","1033","0","[[2,0,0],[3,0],[1]]","1","[[1,2,0],[3,0],[0]]","2","0","","","","","","4","","","","","","","","",""
"","","","","","single-stim-button","55","396248","0.0-2.0-16.1-0.1","559c1e28fdf99b2189ee807d","B2","batch2","","1443","tol_tohand","","","","tol_peg_1","1443","1443","0","[[0,0,0],[3,0],[1]]","2","[[1,2,0],[3,0],[0]]","2","0","","","","","","4","","","","","","","","",""
"","","","","","single-stim-button","56","397532","0.0-2.0-16.1-1.1","559c1e28fdf99b2189ee807d","B2","batch2","","1281","tol_toboard","","","","tol_peg_2","1281","1281","0","[[0,0,0],[3,2],[1]]","2","[[1,2,0],[3,0],[0]]","2","0","","","","","","4","","","","","","","","",""
"","","","","","single-stim-button","57","398567","0.0-2.0-16.2-0.2","559c1e28fdf99b2189ee807d","B2","batch2","","1032","tol_tohand","","","","tol_peg_3","1032","1032","0","[[0,0,0],[3,2],[0]]","3","[[1,2,0],[3,0],[0]]","2","0","","","","","","4","","","","","","","","",""
"","","","","","single-stim-button","58","400003","0.0-2.0-16.2-1.2","559c1e28fdf99b2189ee807d","B2","batch2","","1432","tol_toboard","","","","tol_peg_1","1432","1432","0","[[1,0,0],[3,2],[0]]","3","[[1,2,0],[3,0],[0]]","2","0","","","","","","4","","","","","","","","",""
"","","","","","single-stim-button","59","400818","0.0-2.0-16.3-0.3","559c1e28fdf99b2189ee807d","B2","batch2","","806","tol_tohand","","","","tol_peg_2","806","806","0","[[1,0,0],[3,0],[0]]","4","[[1,2,0],[3,0],[0]]","2","0","","","","","","4","","","","","","","","",""
"","","","","","single-stim-button","60","402183","0.0-2.0-16.3-1.3","559c1e28fdf99b2189ee807d","B2","batch2","","1360","tol_toboard","","","","tol_peg_1","1360","1360","0","[[1,2,0],[3,0],[0]]","4","[[1,2,0],[3,0],[0]]","2","0","","","","","","4","","","","","","","","",""
"","","","","","poldrack-single-stim","61","403192","0.0-2.0-17.0","559c1e28fdf99b2189ee807d","B2","batch2","","-1","tol_feedback","","","true","","1000","1000","500","","","","","","-1","none","true","7375","10656","","","","","","","","","",""
"","","","","","html-button-response","62","404350","0.0-2.0-18.0","559c1e28fdf99b2189ee807d","B2","batch2","","1155.2000000000698","tol_trial_num","<div class = centerbox><p class = center-block-text>problem <strong>4</strong> out of 25 problems</p></div>","0","","","","","","","","","","","","","","","","","","","","","","","","",""
"","","","","","single-stim-button","63","409520","0.0-2.0-19.0-0.0","559c1e28fdf99b2189ee807d","B2","batch2","","5166","tol_tohand","","","","tol_peg_2","5166","5166","0","[[3,0,0],[2,0],[0]]","1","[[3,0,0],[1,0],[2]]","3","0","","","","","","3","","","","","","","","",""
"","","","","","single-stim-button","64","410862","0.0-2.0-19.0-1.0","559c1e28fdf99b2189ee807d","B2","batch2","","1339","tol_toboard","","","","tol_peg_1","1339","1339","0","[[3,1,0],[2,0],[0]]","1","[[3,0,0],[1,0],[2]]","3","0","","","","","","3","","","","","","","","",""
"","","","","","single-stim-button","65","412050","0.0-2.0-19.1-0.1","559c1e28fdf99b2189ee807d","B2","batch2","","1185","tol_tohand","","","","tol_peg_2","1185","1185","0","[[3,1,0],[0,0],[0]]","2","[[3,0,0],[1,0],[2]]","3","0","","","","","","3","","","","","","","","",""
"","","","","","single-stim-button","66","413020","0.0-2.0-19.1-1.1","559c1e28fdf99b2189ee807d","B2","batch2","","967","tol_toboard","","","","tol_peg_3","967","967","0","[[3,1,0],[0,0],[2]]","2","[[3,0,0],[1,0],[2]]","3","0","","","","","","3","","","","","","","","",""
"","","","","","single-stim-button","67","413835","0.0-2.0-19.2-0.2","559c1e28fdf99b2189ee807d","B2","batch2","","812","tol_tohand","","","","tol_peg_1","812","812","0","[[3,0,0],[0,0],[2]]","3","[[3,0,0],[1,0],[2]]","3","0","","","","","","3","","","","","","","","",""
"","","","","","single-stim-button","68","414648","0.0-2.0-19.2-1.2","559c1e28fdf99b2189ee807d","B2","batch2","","809","tol_toboard","","","","tol_peg_2","809","809","0","[[3,0,0],[1,0],[2]]","3","[[3,0,0],[1,0],[2]]","3","0","","","","","","3","","","","","","","","",""
"","","","","","poldrack-single-stim","69","415658","0.0-2.0-20.0","559c1e28fdf99b2189ee807d","B2","batch2","","-1","tol_feedback","","","true","","1000","1000","500","","","","","","-1","none","true","5166","7163","","","","","","","","","",""
"","","","","","html-button-response","70","416835","0.0-2.0-21.0","559c1e28fdf99b2189ee807d","B2","batch2","","1172.8000000000466","tol_trial_num","<div class = centerbox><p class = center-block-text>problem <strong>5</strong> out of 25 problems</p></div>","0","","","","","","","","","","","","","","","","","","","","","","","","",""
"","","","","","single-stim-button","71","441964","0.0-2.0-22.0-0.0","559c1e28fdf99b2189ee807d","B2","batch2","","25125","tol_tohand","","","","tol_peg_3","25125","25125","0","[[1,0,0],[2,0],[0]]","1","[[0,0,0],[1,2],[3]]","4","0","","","","","","7","","","","","","","","",""
"","","","","","single-stim-button","72","445764","0.0-2.0-22.0-1.0","559c1e28fdf99b2189ee807d","B2","batch2","","3798","tol_toboard","","","","tol_peg_1","3798","3798","0","[[1,3,0],[2,0],[0]]","1","[[0,0,0],[1,2],[3]]","4","0","","","","","","7","","","","","","","","",""
"","","","","","single-stim-button","73","446937","0.0-2.0-22.1-0.1","559c1e28fdf99b2189ee807d","B2","batch2","","1169","tol_tohand","","","","tol_peg_2","1169","1169","0","[[1,3,0],[0,0],[0]]","2","[[0,0,0],[1,2],[3]]","4","0","","","","","","7","","","","","","","","",""
"","","","","","single-stim-button","74","447851","0.0-2.0-22.1-1.1","559c1e28fdf99b2189ee807d","B2","batch2","","911","tol_toboard","","","","tol_peg_3","911","911","0","[[1,3,0],[0,0],[2]]","2","[[0,0,0],[1,2],[3]]","4","0","","","","","","7","","","","","","","","",""
"","","","","","single-stim-button","75","458454","0.0-2.0-22.2-0.2","559c1e28fdf99b2189ee807d","B2","batch2","","10601","tol_tohand","","","","tol_peg_1","10601","10601","0","[[1,0,0],[0,0],[2]]","3","[[0,0,0],[1,2],[3]]","4","0","","","","","","7","","","","","","","","",""
"","","","","","single-stim-button","76","460133","0.0-2.0-22.2-1.2","559c1e28fdf99b2189ee807d","B2","batch2","","1676","tol_toboard","","","","tol_peg_2","1676","1676","0","[[1,0,0],[3,0],[2]]","3","[[0,0,0],[1,2],[3]]","4","0","","","","","","7","","","","","","","","",""
"","","","","","single-stim-button","77","461485","0.0-2.0-22.3-0.3","559c1e28fdf99b2189ee807d","B2","batch2","","1349","tol_tohand","","","","tol_peg_1","1349","1349","0","[[0,0,0],[3,0],[2]]","4","[[0,0,0],[1,2],[3]]","4","0","","","","","","7","","","","","","","","",""
"","","","","","single-stim-button","78","462533","0.0-2.0-22.3-1.3","559c1e28fdf99b2189ee807d","B2","batch2","","1044","tol_toboard","","","","tol_peg_2","1044","1044","0","[[0,0,0],[3,1],[2]]","4","[[0,0,0],[1,2],[3]]","4","0","","","","","","7","","","","","","","","",""
"","","","","","single-stim-button","79","465426","0.0-2.0-22.4-0.4","559c1e28fdf99b2189ee807d","B2","batch2","","2883","tol_tohand","","","","tol_peg_3","2883","2883","0","[[0,0,0],[3,1],[0]]","5","[[0,0,0],[1,2],[3]]","4","0","","","","","","7","","","","","","","","",""
"","","","","","single-stim-button","80","467383","0.0-2.0-22.4-1.4","559c1e28fdf99b2189ee807d","B2","batch2","","1954","tol_toboard","","","","tol_peg_1","1954","1954","0","[[2,0,0],[3,1],[0]]","5","[[0,0,0],[1,2],[3]]","4","0","","","","","","7","","","","","","","","",""
"","","","","","single-stim-button","81","468706","0.0-2.0-22.5-0.5","559c1e28fdf99b2189ee807d","B2","batch2","","1320","tol_tohand","","","","tol_peg_2","1320","1320","0","[[2,0,0],[3,0],[0]]","6","[[0,0,0],[1,2],[3]]","4","0","","","","","","7","","","","","","","","",""
"","","","","","single-stim-button","82","470150","0.0-2.0-22.5-1.5","559c1e28fdf99b2189ee807d","B2","batch2","","1439","tol_toboard","","","","tol_peg_1","1439","1439","0","[[2,1,0],[3,0],[0]]","6","[[0,0,0],[1,2],[3]]","4","0","","","","","","7","","","","","","","","",""
"","","","","","single-stim-button","83","471093","0.0-2.0-22.6-0.6","559c1e28fdf99b2189ee807d","B2","batch2","","938","tol_tohand","","","","tol_peg_2","938","938","0","[[2,1,0],[0,0],[0]]","7","[[0,0,0],[1,2],[3]]","4","0","","","","","","7","","","","","","","","",""
"","","","","","single-stim-button","84","472244","0.0-2.0-22.6-1.6","559c1e28fdf99b2189ee807d","B2","batch2","","1147","tol_toboard","","","","tol_peg_3","1147","1147","0","[[2,1,0],[0,0],[3]]","7","[[0,0,0],[1,2],[3]]","4","0","","","","","","7","","","","","","","","",""
"","","","","","single-stim-button","85","473276","0.0-2.0-22.7-0.7","559c1e28fdf99b2189ee807d","B2","batch2","","1027","tol_tohand","","","","tol_peg_1","1027","1027","0","[[2,0,0],[0,0],[3]]","8","[[0,0,0],[1,2],[3]]","4","0","","","","","","7","","","","","","","","",""
"","","","","","single-stim-button","86","474271","0.0-2.0-22.7-1.7","559c1e28fdf99b2189ee807d","B2","batch2","","989","tol_toboard","","","","tol_peg_2","989","989","0","[[2,0,0],[1,0],[3]]","8","[[0,0,0],[1,2],[3]]","4","0","","","","","","7","","","","","","","","",""
"","","","","","single-stim-button","87","475304","0.0-2.0-22.8-0.8","559c1e28fdf99b2189ee807d","B2","batch2","","1028","tol_tohand","","","","tol_peg_1","1028","1028","0","[[0,0,0],[1,0],[3]]","9","[[0,0,0],[1,2],[3]]","4","0","","","","","","7","","","","","","","","",""
"","","","","","single-stim-button","88","476569","0.0-2.0-22.8-1.8","559c1e28fdf99b2189ee807d","B2","batch2","","1262","tol_toboard","","","","tol_peg_2","1262","1262","0","[[0,0,0],[1,2],[3]]","9","[[0,0,0],[1,2],[3]]","4","0","","","","","","7","","","","","","","","",""
"","","","","","poldrack-single-stim","89","477577","0.0-2.0-23.0","559c1e28fdf99b2189ee807d","B2","batch2","","-1","tol_feedback","","","true","","1000","1000","500","","","","","","-1","none","true","25125","45440","","","","","","","","","",""
"","","","","","html-button-response","90","479041","0.0-2.0-24.0","559c1e28fdf99b2189ee807d","B2","batch2","","1460.5","tol_trial_num","<div class = centerbox><p class = center-block-text>problem <strong>6</strong> out of 25 problems</p></div>","0","","","","","","","","","","","","","","","","","","","","","","","","",""
"","","","","","single-stim-button","91","493792","0.0-2.0-25.0-0.0","559c1e28fdf99b2189ee807d","B2","batch2","","14747","tol_tohand","","","","tol_peg_3","14747","14747","0","[[0,0,0],[1,2],[0]]","1","[[1,0,0],[2,3],[0]]","5","0","","","","","","6","","","","","","","","",""
"","","","","","single-stim-button","92","495124","0.0-2.0-25.0-1.0","559c1e28fdf99b2189ee807d","B2","batch2","","1329","tol_toboard","","","","tol_peg_1","1329","1329","0","[[3,0,0],[1,2],[0]]","1","[[1,0,0],[2,3],[0]]","5","0","","","","","","6","","","","","","","","",""
"","","","","","single-stim-button","93","495831","0.0-2.0-25.1-0.1","559c1e28fdf99b2189ee807d","B2","batch2","","704","tol_tohand","","","","tol_peg_2","704","704","0","[[3,0,0],[1,0],[0]]","2","[[1,0,0],[2,3],[0]]","5","0","","","","","","6","","","","","","","","",""
"","","","","","single-stim-button","94","496616","0.0-2.0-25.1-1.1","559c1e28fdf99b2189ee807d","B2","batch2","","781","tol_toboard","","","","tol_peg_3","781","781","0","[[3,0,0],[1,0],[2]]","2","[[1,0,0],[2,3],[0]]","5","0","","","","","","6","","","","","","","","",""
"","","","","","single-stim-button","95","500115","0.0-2.0-25.2-0.2","559c1e28fdf99b2189ee807d","B2","batch2","","3496","tol_tohand","","","","tol_peg_2","3496","3496","0","[[3,0,0],[0,0],[2]]","3","[[1,0,0],[2,3],[0]]","5","0","","","","","","6","","","","","","","","",""
"","","","","","single-stim-button","96","502889","0.0-2.0-25.2-1.2","559c1e28fdf99b2189ee807d","B2","batch2","","2771","tol_toboard","","","","tol_peg_1","2771","2771","0","[[3,1,0],[0,0],[2]]","3","[[1,0,0],[2,3],[0]]","5","0","","","","","","6","","","","","","","","",""
"","","","","","single-stim-button","97","503936","0.0-2.0-25.3-0.3","559c1e28fdf99b2189ee807d","B2","batch2","","1042","tol_tohand","","","","tol_peg_3","1042","1042","0","[[3,1,0],[0,0],[0]]","4","[[1,0,0],[2,3],[0]]","5","0","","","","","","6","","","","","","","","",""
"","","","","","single-stim-button","98","504871","0.0-2.0-25.3-1.3","559c1e28fdf99b2189ee807d","B2","batch2","","932","tol_toboard","","","","tol_peg_2","932","932","0","[[3,1,0],[2,0],[0]]","4","[[1,0,0],[2,3],[0]]","5","0","","","","","","6","","","","","","","","",""
"","","","","","single-stim-button","99","505865","0.0-2.0-25.4-0.4","559c1e28fdf99b2189ee807d","B2","batch2","","990","tol_tohand","","","","tol_peg_1","990","990","0","[[3,0,0],[2,0],[0]]","5","[[1,0,0],[2,3],[0]]","5","0","","","","","","6","","","","","","","","",""
"","","","","","single-stim-button","100","507003","0.0-2.0-25.4-1.4","559c1e28fdf99b2189ee807d","B2","batch2","","1134","tol_toboard","","","","tol_peg_3","1134","1134","0","[[3,0,0],[2,0],[1]]","5","[[1,0,0],[2,3],[0]]","5","0","","","","","","6","","","","","","","","",""
"","","","","","single-stim-button","101","507834","0.0-2.0-25.5-0.5","559c1e28fdf99b2189ee807d","B2","batch2","","827","tol_tohand","","","","tol_peg_1","827","827","0","[[0,0,0],[2,0],[1]]","6","[[1,0,0],[2,3],[0]]","5","0","","","","","","6","","","","","","","","",""
"","","","","","single-stim-button","102","508728","0.0-2.0-25.5-1.5","559c1e28fdf99b2189ee807d","B2","batch2","","890","tol_toboard","","","","tol_peg_2","890","890","0","[[0,0,0],[2,3],[1]]","6","[[1,0,0],[2,3],[0]]","5","0","","","","","","6","","","","","","","","",""
"","","","","","single-stim-button","103","509544","0.0-2.0-25.6-0.6","559c1e28fdf99b2189ee807d","B2","batch2","","812","tol_tohand","","","","tol_peg_3","812","812","0","[[0,0,0],[2,3],[0]]","7","[[1,0,0],[2,3],[0]]","5","0","","","","","","6","","","","","","","","",""
"","","","","","single-stim-button","104","510616","0.0-2.0-25.6-1.6","559c1e28fdf99b2189ee807d","B2","batch2","","1066","tol_toboard","","","","tol_peg_1","1066","1066","0","[[1,0,0],[2,3],[0]]","7","[[1,0,0],[2,3],[0]]","5","0","","","","","","6","","","","","","","","",""
"","","","","","poldrack-single-stim","105","511624","0.0-2.0-26.0","559c1e28fdf99b2189ee807d","B2","batch2","","-1","tol_feedback","","","true","","1000","1000","500","","","","","","-1","none","true","14747","22618","","","","","","","","","",""
"","","","","","html-button-response","106","512737","0.0-2.0-27.0","559c1e28fdf99b2189ee807d","B2","batch2","","1107.0999999999767","tol_trial_num","<div class = centerbox><p class = center-block-text>problem <strong>7</strong> out of 25 problems</p></div>","0","","","","","","","","","","","","","","","","","","","","","","","","",""
"","","","","","single-stim-button","107","518268","0.0-2.0-28.0-0.0","559c1e28fdf99b2189ee807d","B2","batch2","","5526","tol_tohand","","","","tol_peg_1","5526","5526","0","[[2,0,0],[0,0],[3]]","1","[[1,2,0],[3,0],[0]]","6","0","","","","","","5","","","","","","","","",""
"","","","","","single-stim-button","108","528025","0.0-2.0-28.0-1.0","559c1e28fdf99b2189ee807d","B2","batch2","","9753","tol_toboard","","","","tol_peg_1","9753","9753","0","[[2,1,0],[0,0],[3]]","1","[[1,2,0],[3,0],[0]]","6","0","","","","","","5","","","","","","","","",""
"","","","","","single-stim-button","109","528966","0.0-2.0-28.1-0.1","559c1e28fdf99b2189ee807d","B2","batch2","","936","tol_tohand","","","","tol_peg_3","936","936","0","[[2,1,0],[0,0],[0]]","2","[[1,2,0],[3,0],[0]]","6","0","","","","","","5","","","","","","","","",""
"","","","","","single-stim-button","110","529963","0.0-2.0-28.1-1.1","559c1e28fdf99b2189ee807d","B2","batch2","","993","tol_toboard","","","","tol_peg_2","993","993","0","[[2,1,0],[3,0],[0]]","2","[[1,2,0],[3,0],[0]]","6","0","","","","","","5","","","","","","","","",""
"","","","","","single-stim-button","111","531290","0.0-2.0-28.2-0.2","559c1e28fdf99b2189ee807d","B2","batch2","","1320","tol_tohand","","","","tol_peg_1","1320","1320","0","[[2,0,0],[3,0],[0]]","3","[[1,2,0],[3,0],[0]]","6","0","","","","","","5","","","","","","","","",""
"","","","","","single-stim-button","112","532533","0.0-2.0-28.2-1.2","559c1e28fdf99b2189ee807d","B2","batch2","","1239","tol_toboard","","","","tol_peg_3","1239","1239","0","[[2,0,0],[3,0],[1]]","3","[[1,2,0],[3,0],[0]]","6","0","","","","","","5","","","","","","","","",""
"","","","","","single-stim-button","113","533557","0.0-2.0-28.3-0.3","559c1e28fdf99b2189ee807d","B2","batch2","","1018","tol_tohand","","","","tol_peg_1","1018","1018","0","[[0,0,0],[3,0],[1]]","4","[[1,2,0],[3,0],[0]]","6","0","","","","","","5","","","","","","","","",""
"","","","","","single-stim-button","114","534412","0.0-2.0-28.3-1.3","559c1e28fdf99b2189ee807d","B2","batch2","","849","tol_toboard","","","","tol_peg_2","849","849","0","[[0,0,0],[3,2],[1]]","4","[[1,2,0],[3,0],[0]]","6","0","","","","","","5","","","","","","","","",""
"","","","","","single-stim-button","115","535362","0.0-2.0-28.4-0.4","559c1e28fdf99b2189ee807d","B2","batch2","","944","tol_tohand","","","","tol_peg_3","944","944","0","[[0,0,0],[3,2],[0]]","5","[[1,2,0],[3,0],[0]]","6","0","","","","","","5","","","","","","","","",""
"","","","","","single-stim-button","116","536253","0.0-2.0-28.4-1.4","559c1e28fdf99b2189ee807d","B2","batch2","","888","tol_toboard","","","","tol_peg_1","888","888","0","[[1,0,0],[3,2],[0]]","5","[[1,2,0],[3,0],[0]]","6","0","","","","","","5","","","","","","","","",""
"","","","","","single-stim-button","117","537035","0.0-2.0-28.5-0.5","559c1e28fdf99b2189ee807d","B2","batch2","","779","tol_tohand","","","","tol_peg_2","779","779","0","[[1,0,0],[3,0],[0]]","6","[[1,2,0],[3,0],[0]]","6","0","","","","","","5","","","","","","","","",""
"","","","","","single-stim-button","118","538463","0.0-2.0-28.5-1.5","559c1e28fdf99b2189ee807d","B2","batch2","","1424","tol_toboard","","","","tol_peg_1","1424","1424","0","[[1,2,0],[3,0],[0]]","6","[[1,2,0],[3,0],[0]]","6","0","","","","","","5","","","","","","","","",""
"","","","","","poldrack-single-stim","119","539473","0.0-2.0-29.0","559c1e28fdf99b2189ee807d","B2","batch2","","-1","tol_feedback","","","true","","1000","1000","500","","","","","","-1","none","true","5526","10523","","","","","","","","","",""
"","","","","","html-button-response","120","540519","0.0-2.0-30.0","559c1e28fdf99b2189ee807d","B2","batch2","","1041.1999999999534","tol_trial_num","<div class = centerbox><p class = center-block-text>problem <strong>8</strong> out of 25 problems</p></div>","0","","","","","","","","","","","","","","","","","","","","","","","","",""
"","","","","","single-stim-button","121","545524","0.0-2.0-31.0-0.0","559c1e28fdf99b2189ee807d","B2","batch2","","5001","tol_tohand","","","","tol_peg_3","5001","5001","0","[[0,0,0],[2,3],[0]]","1","[[1,2,0],[3,0],[0]]","7","0","","","","","","4","","","","","","","","",""
"","","","","","single-stim-button","122","546632","0.0-2.0-31.0-1.0","559c1e28fdf99b2189ee807d","B2","batch2","","1105","tol_toboard","","","","tol_peg_1","1105","1105","0","[[1,0,0],[2,3],[0]]","1","[[1,2,0],[3,0],[0]]","7","0","","","","","","4","","","","","","","","",""
"","","","","","single-stim-button","123","548360","0.0-2.0-31.1-0.1","559c1e28fdf99b2189ee807d","B2","batch2","","1725","tol_tohand","","","","tol_peg_2","1725","1725","0","[[1,0,0],[2,0],[0]]","2","[[1,2,0],[3,0],[0]]","7","0","","","","","","4","","","","","","","","",""
"","","","","","single-stim-button","124","549425","0.0-2.0-31.1-1.1","559c1e28fdf99b2189ee807d","B2","batch2","","1062","tol_toboard","","","","tol_peg_3","1062","1062","0","[[1,0,0],[2,0],[3]]","2","[[1,2,0],[3,0],[0]]","7","0","","","","","","4","","","","","","","","",""
"","","","","","single-stim-button","125","550309","0.0-2.0-31.2-0.2","559c1e28fdf99b2189ee807d","B2","batch2","","878","tol_tohand","","","","tol_peg_2","878","878","0","[[1,0,0],[0,0],[3]]","3","[[1,2,0],[3,0],[0]]","7","0","","","","","","4","","","","","","","","",""
"","","","","","single-stim-button","126","551145","0.0-2.0-31.2-1.2","559c1e28fdf99b2189ee807d","B2","batch2","","830","tol_toboard","","","","tol_peg_1","830","830","0","[[1,2,0],[0,0],[3]]","3","[[1,2,0],[3,0],[0]]","7","0","","","","","","4","","","","","","","","",""
"","","","","","single-stim-button","127","551989","0.0-2.0-31.3-0.3","559c1e28fdf99b2189ee807d","B2","batch2","","838","tol_tohand","","","","tol_peg_3","838","838","0","[[1,2,0],[0,0],[0]]","4","[[1,2,0],[3,0],[0]]","7","0","","","","","","4","","","","","","","","",""
"","","","","","single-stim-button","128","552806","0.0-2.0-31.3-1.3","559c1e28fdf99b2189ee807d","B2","batch2","","814","tol_toboard","","","","tol_peg_2","814","814","0","[[1,2,0],[3,0],[0]]","4","[[1,2,0],[3,0],[0]]","7","0","","","","","","4","","","","","","","","",""
"","","","","","poldrack-single-stim","129","553816","0.0-2.0-32.0","559c1e28fdf99b2189ee807d","B2","batch2","","-1","tol_feedback","","","true","","1000","1000","500","","","","","","-1","none","true","5001","8442","","","","","","","","","",""
"","","","","","html-button-response","130","555004","0.0-2.0-33.0","559c1e28fdf99b2189ee807d","B2","batch2","","1183.4000000000233","tol_trial_num","<div class = centerbox><p class = center-block-text>problem <strong>9</strong> out of 25 problems</p></div>","0","","","","","","","","","","","","","","","","","","","","","","","","",""
"","","","","","single-stim-button","131","561946","0.0-2.0-34.0-0.0","559c1e28fdf99b2189ee807d","B2","batch2","","6939","tol_tohand","","","","tol_peg_3","6939","6939","0","[[3,2,0],[0,0],[0]]","1","[[2,1,0],[3,0],[0]]","8","0","","","","","","6","","","","","","","","",""
"","","","","","single-stim-button","132","562871","0.0-2.0-34.0-1.0","559c1e28fdf99b2189ee807d","B2","batch2","","921","tol_toboard","","","","tol_peg_2","921","921","0","[[3,2,0],[1,0],[0]]","1","[[2,1,0],[3,0],[0]]","8","0","","","","","","6","","","","","","","","",""
"","","","","","single-stim-button","133","563654","0.0-2.0-34.1-0.1","559c1e28fdf99b2189ee807d","B2","batch2","","778","tol_tohand","","","","tol_peg_1","778","778","0","[[3,0,0],[1,0],[0]]","2","[[2,1,0],[3,0],[0]]","8","0","","","","","","6","","","","","","","","",""
"","","","","","single-stim-button","134","570118","0.0-2.0-34.1-1.1","559c1e28fdf99b2189ee807d","B2","batch2","","6460","tol_toboard","","","","tol_peg_2","6460","6460","0","[[3,0,0],[1,2],[0]]","2","[[2,1,0],[3,0],[0]]","8","0","","","","","","6","","","","","","","","",""
"","","","","","single-stim-button","135","571490","0.0-2.0-34.2-0.2","559c1e28fdf99b2189ee807d","B2","batch2","","1367","tol_tohand","","","","tol_peg_1","1367","1367","0","[[0,0,0],[1,2],[0]]","3","[[2,1,0],[3,0],[0]]","8","0","","","","","","6","","","","","","","","",""
"","","","","","single-stim-button","136","572439","0.0-2.0-34.2-1.2","559c1e28fdf99b2189ee807d","B2","batch2","","946","tol_toboard","","","","tol_peg_3","946","946","0","[[0,0,0],[1,2],[3]]","3","[[2,1,0],[3,0],[0]]","8","0","","","","","","6","","","","","","","","",""
"","","","","","single-stim-button","137","573393","0.0-2.0-34.3-0.3","559c1e28fdf99b2189ee807d","B2","batch2","","950","tol_tohand","","","","tol_peg_2","950","950","0","[[0,0,0],[1,0],[3]]","4","[[2,1,0],[3,0],[0]]","8","0","","","","","","6","","","","","","","","",""
"","","","","","single-stim-button","138","574337","0.0-2.0-34.3-1.3","559c1e28fdf99b2189ee807d","B2","batch2","","940","tol_toboard","","","","tol_peg_1","940","940","0","[[2,0,0],[1,0],[3]]","4","[[2,1,0],[3,0],[0]]","8","0","","","","","","6","","","","","","","","",""
"","","","","","single-stim-button","139","574984","0.0-2.0-34.4-0.4","559c1e28fdf99b2189ee807d","B2","batch2","","644","tol_tohand","","","","tol_peg_2","644","644","0","[[2,0,0],[0,0],[3]]","5","[[2,1,0],[3,0],[0]]","8","0","","","","","","6","","","","","","","","",""
"","","","","","single-stim-button","140","576230","0.0-2.0-34.4-1.4","559c1e28fdf99b2189ee807d","B2","batch2","","1241","tol_toboard","","","","tol_peg_1","1241","1241","0","[[2,1,0],[0,0],[3]]","5","[[2,1,0],[3,0],[0]]","8","0","","","","","","6","","","","","","","","",""
"","","","","","single-stim-button","141","577443","0.0-2.0-34.5-0.5","559c1e28fdf99b2189ee807d","B2","batch2","","1207","tol_tohand","","","","tol_peg_3","1207","1207","0","[[2,1,0],[0,0],[0]]","6","[[2,1,0],[3,0],[0]]","8","0","","","","","","6","","","","","","","","",""
"","","","","","single-stim-button","142","578123","0.0-2.0-34.5-1.5","559c1e28fdf99b2189ee807d","B2","batch2","","673","tol_toboard","","","","tol_peg_2","673","673","0","[[2,1,0],[3,0],[0]]","6","[[2,1,0],[3,0],[0]]","8","0","","","","","","6","","","","","","","","",""
"","","","","","poldrack-single-stim","143","579136","0.0-2.0-35.0","559c1e28fdf99b2189ee807d","B2","batch2","","-1","tol_feedback","","","true","","1000","1000","500","","","","","","-1","none","true","6939","11885","","","","","","","","","",""
"","","","","","html-button-response","144","580493","0.0-2.0-36.0","559c1e28fdf99b2189ee807d","B2","batch2","","1352.6999999999534","tol_trial_num","<div class = centerbox><p class = center-block-text>problem <strong>10</strong> out of 25 problems</p></div>","0","","","","","","","","","","","","","","","","","","","","","","","","",""
"","","","","","single-stim-button","145","586484","0.0-2.0-37.0-0.0","559c1e28fdf99b2189ee807d","B2","batch2","","5988","tol_tohand","","","","tol_peg_2","5988","5988","0","[[3,0,0],[0,0],[2]]","1","[[3,0,0],[2,1],[0]]","9","0","","","","","","3","","","","","","","","",""
"","","","","","single-stim-button","146","587407","0.0-2.0-37.0-1.0","559c1e28fdf99b2189ee807d","B2","batch2","","919","tol_toboard","","","","tol_peg_1","919","919","0","[[3,1,0],[0,0],[2]]","1","[[3,0,0],[2,1],[0]]","9","0","","","","","","3","","","","","","","","",""
"","","","","","single-stim-button","147","588270","0.0-2.0-37.1-0.1","559c1e28fdf99b2189ee807d","B2","batch2","","856","tol_tohand","","","","tol_peg_3","856","856","0","[[3,1,0],[0,0],[0]]","2","[[3,0,0],[2,1],[0]]","9","0","","","","","","3","","","","","","","","",""
"","","","","","single-stim-button","148","589405","0.0-2.0-37.1-1.1","559c1e28fdf99b2189ee807d","B2","batch2","","1131","tol_toboard","","","","tol_peg_2","1131","1131","0","[[3,1,0],[2,0],[0]]","2","[[3,0,0],[2,1],[0]]","9","0","","","","","","3","","","","","","","","",""
"","","","","","single-stim-button","149","590328","0.0-2.0-37.2-0.2","559c1e28fdf99b2189ee807d","B2","batch2","","918","tol_tohand","","","","tol_peg_1","918","918","0","[[3,0,0],[2,0],[0]]","3","[[3,0,0],[2,1],[0]]","9","0","","","","","","3","","","","","","","","",""
"","","","","","single-stim-button","150","591143","0.0-2.0-37.2-1.2","559c1e28fdf99b2189ee807d","B2","batch2","","810","tol_toboard","","","","tol_peg_2","810","810","0","[[3,0,0],[2,1],[0]]","3","[[3,0,0],[2,1],[0]]","9","0","","","","","","3","","","","","","","","",""
"","","","","","poldrack-single-stim","151","592152","0.0-2.0-38.0","559c1e28fdf99b2189ee807d","B2","batch2","","-1","tol_feedback","","","true","","1000","1000","500","","","","","","-1","none","true","5988","7762","","","","","","","","","",""
"","","","","","html-button-response","152","593271","0.0-2.0-39.0","559c1e28fdf99b2189ee807d","B2","batch2","","1114.8000000000466","tol_trial_num","<div class = centerbox><p class = center-block-text>problem <strong>11</strong> out of 25 problems</p></div>","0","","","","","","","","","","","","","","","","","","","","","","","","",""
"","","","","","single-stim-button","153","608918","0.0-2.0-40.0-0.0","559c1e28fdf99b2189ee807d","B2","batch2","","15644","tol_tohand","","","","tol_peg_2","15644","15644","0","[[1,2,0],[0,0],[0]]","1","[[2,0,0],[1,3],[0]]","10","0","","","","","","6","","","","","","","","",""
"","","","","","single-stim-button","154","609743","0.0-2.0-40.0-1.0","559c1e28fdf99b2189ee807d","B2","batch2","","822","tol_toboard","","","","tol_peg_3","822","822","0","[[1,2,0],[0,0],[3]]","1","[[2,0,0],[1,3],[0]]","10","0","","","","","","6","","","","","","","","",""
"","","","","","single-stim-button","155","611500","0.0-2.0-40.1-0.1","559c1e28fdf99b2189ee807d","B2","batch2","","1753","tol_tohand","","","","tol_peg_1","1753","1753","0","[[1,0,0],[0,0],[3]]","2","[[2,0,0],[1,3],[0]]","10","0","","","","","","6","","","","","","","","",""
"","","","","","single-stim-button","156","617555","0.0-2.0-40.1-1.1","559c1e28fdf99b2189ee807d","B2","batch2","","6052","tol_toboard","","","","tol_peg_2","6052","6052","0","[[1,0,0],[2,0],[3]]","2","[[2,0,0],[1,3],[0]]","10","0","","","","","","6","","","","","","","","",""
"","","","","","single-stim-button","157","621342","0.0-2.0-40.2-0.2","559c1e28fdf99b2189ee807d","B2","batch2","","3783","tol_tohand","","","","tol_peg_3","3783","3783","0","[[1,0,0],[2,0],[0]]","3","[[2,0,0],[1,3],[0]]","10","0","","","","","","6","","","","","","","","",""
"","","","","","single-stim-button","158","622372","0.0-2.0-40.2-1.2","559c1e28fdf99b2189ee807d","B2","batch2","","1026","tol_toboard","","","","tol_peg_2","1026","1026","0","[[1,0,0],[2,3],[0]]","3","[[2,0,0],[1,3],[0]]","10","0","","","","","","6","","","","","","","","",""
"","","","","","single-stim-button","159","623455","0.0-2.0-40.3-0.3","559c1e28fdf99b2189ee807d","B2","batch2","","1078","tol_tohand","","","","tol_peg_1","1078","1078","0","[[0,0,0],[2,3],[0]]","4","[[2,0,0],[1,3],[0]]","10","0","","","","","","6","","","","","","","","",""
"","","","","","single-stim-button","160","626120","0.0-2.0-40.3-1.3","559c1e28fdf99b2189ee807d","B2","batch2","","2661","tol_toboard","","","","tol_peg_3","2661","2661","0","[[0,0,0],[2,3],[1]]","4","[[2,0,0],[1,3],[0]]","10","0","","","","","","6","","","","","","","","",""
"","","","","","single-stim-button","161","636270","0.0-2.0-40.4-0.4","559c1e28fdf99b2189ee807d","B2","batch2","","10147","tol_tohand","","","","tol_peg_3","10147","10147","0","[[0,0,0],[2,3],[0]]","5","[[2,0,0],[1,3],[0]]","10","0","","","","","","6","","","","","","","","",""
"","","","","","single-stim-button","162","637656","0.0-2.0-40.4-1.4","559c1e28fdf99b2189ee807d","B2","batch2","","1384","tol_toboard","","","","tol_peg_1","1384","1384","0","[[1,0,0],[2,3],[0]]","5","[[2,0,0],[1,3],[0]]","10","0","","","","","","6","","","","","","","","",""
"","","","","","single-stim-button","163","640309","0.0-2.0-40.5-0.5","559c1e28fdf99b2189ee807d","B2","batch2","","2650","tol_tohand","","","","tol_peg_2","2650","2650","0","[[1,0,0],[2,0],[0]]","6","[[2,0,0],[1,3],[0]]","10","0","","","","","","6","","","","","","","","",""
"","","","","","single-stim-button","164","641614","0.0-2.0-40.5-1.5","559c1e28fdf99b2189ee807d","B2","batch2","","1302","tol_toboard","","","","tol_peg_1","1302","1302","0","[[1,3,0],[2,0],[0]]","6","[[2,0,0],[1,3],[0]]","10","0","","","","","","6","","","","","","","","",""
"","","","","","single-stim-button","165","642855","0.0-2.0-40.6-0.6","559c1e28fdf99b2189ee807d","B2","batch2","","1228","tol_tohand","","","","tol_peg_2","1228","1228","0","[[1,3,0],[0,0],[0]]","7","[[2,0,0],[1,3],[0]]","10","0","","","","","","6","","","","","","","","",""
"","","","","","single-stim-button","166","643863","0.0-2.0-40.6-1.6","559c1e28fdf99b2189ee807d","B2","batch2","","1004","tol_toboard","","","","tol_peg_3","1004","1004","0","[[1,3,0],[0,0],[2]]","7","[[2,0,0],[1,3],[0]]","10","0","","","","","","6","","","","","","","","",""
"","","","","","single-stim-button","167","646071","0.0-2.0-40.7-0.7","559c1e28fdf99b2189ee807d","B2","batch2","","2205","tol_tohand","","","","tol_peg_1","2205","2205","0","[[1,0,0],[0,0],[2]]","8","[[2,0,0],[1,3],[0]]","10","0","","","","","","6","","","","","","","","",""
"","","","","","single-stim-button","168","647961","0.0-2.0-40.7-1.7","559c1e28fdf99b2189ee807d","B2","batch2","","1888","tol_toboard","","","","tol_peg_2","1888","1888","0","[[1,0,0],[3,0],[2]]","8","[[2,0,0],[1,3],[0]]","10","0","","","","","","6","","","","","","","","",""
"","","","","","single-stim-button","169","648859","0.0-2.0-40.8-0.8","559c1e28fdf99b2189ee807d","B2","batch2","","894","tol_tohand","","","","tol_peg_1","894","894","0","[[0,0,0],[3,0],[2]]","9","[[2,0,0],[1,3],[0]]","10","0","","","","","","6","","","","","","","","",""
"","","","","","single-stim-button","170","650055","0.0-2.0-40.8-1.8","559c1e28fdf99b2189ee807d","B2","batch2","","1191","tol_toboard","","","","tol_peg_2","1191","1191","0","[[0,0,0],[3,1],[2]]","9","[[2,0,0],[1,3],[0]]","10","0","","","","","","6","","","","","","","","",""
"","","","","","single-stim-button","171","650880","0.0-2.0-40.9-0.9","559c1e28fdf99b2189ee807d","B2","batch2","","820","tol_tohand","","","","tol_peg_3","820","820","0","[[0,0,0],[3,1],[0]]","10","[[2,0,0],[1,3],[0]]","10","0","","","","","","6","","","","","","","","",""
"","","","","","single-stim-button","172","652423","0.0-2.0-40.9-1.9","559c1e28fdf99b2189ee807d","B2","batch2","","1532","tol_toboard","","","","tol_peg_1","1532","1532","0","[[2,0,0],[3,1],[0]]","10","[[2,0,0],[1,3],[0]]","10","0","","","","","","6","","","","","","","","",""
"","","","","","single-stim-button","173","654570","0.0-2.0-40.10-0.10","559c1e28fdf99b2189ee807d","B2","batch2","","2142","tol_tohand","","","","tol_peg_2","2142","2142","0","[[2,0,0],[3,0],[0]]","11","[[2,0,0],[1,3],[0]]","10","0","","","","","","6","","","","","","","","",""
"","","","","","single-stim-button","174","655412","0.0-2.0-40.10-1.10","559c1e28fdf99b2189ee807d","B2","batch2","","838","tol_toboard","","","","tol_peg_1","838","838","0","[[2,1,0],[3,0],[0]]","11","[[2,0,0],[1,3],[0]]","10","0","","","","","","6","","","","","","","","",""
"","","","","","single-stim-button","175","657396","0.0-2.0-40.11-0.11","559c1e28fdf99b2189ee807d","B2","batch2","","1979","tol_tohand","","","","tol_peg_2","1979","1979","0","[[2,1,0],[0,0],[0]]","12","[[2,0,0],[1,3],[0]]","10","0","","","","","","6","","","","","","","","",""
"","","","","","single-stim-button","176","658188","0.0-2.0-40.11-1.11","559c1e28fdf99b2189ee807d","B2","batch2","","787","tol_toboard","","","","tol_peg_3","787","787","0","[[2,1,0],[0,0],[3]]","12","[[2,0,0],[1,3],[0]]","10","0","","","","","","6","","","","","","","","",""
"","","","","","single-stim-button","177","659048","0.0-2.0-40.12-0.12","559c1e28fdf99b2189ee807d","B2","batch2","","853","tol_tohand","","","","tol_peg_1","853","853","0","[[2,0,0],[0,0],[3]]","13","[[2,0,0],[1,3],[0]]","10","0","","","","","","6","","","","","","","","",""
"","","","","","single-stim-button","178","660041","0.0-2.0-40.12-1.12","559c1e28fdf99b2189ee807d","B2","batch2","","990","tol_toboard","","","","tol_peg_2","990","990","0","[[2,0,0],[1,0],[3]]","13","[[2,0,0],[1,3],[0]]","10","0","","","","","","6","","","","","","","","",""
"","","","","","single-stim-button","179","660614","0.0-2.0-40.13-0.13","559c1e28fdf99b2189ee807d","B2","batch2","","569","tol_tohand","","","","tol_peg_3","569","569","0","[[2,0,0],[1,0],[0]]","14","[[2,0,0],[1,3],[0]]","10","0","","","","","","6","","","","","","","","",""
"","","","","","single-stim-button","180","661315","0.0-2.0-40.13-1.13","559c1e28fdf99b2189ee807d","B2","batch2","","697","tol_toboard","","","","tol_peg_2","697","697","0","[[2,0,0],[1,3],[0]]","14","[[2,0,0],[1,3],[0]]","10","0","","","","","","6","","","","","","","","",""
"","","","","","poldrack-single-stim","181","662328","0.0-2.0-41.0","559c1e28fdf99b2189ee807d","B2","batch2","","-1","tol_feedback","","","true","","1000","1000","500","","","","","","-1","none","true","15644","45745","","","","","","","","","",""
"","","","","","html-button-response","182","663346","0.0-2.0-42.0","559c1e28fdf99b2189ee807d","B2","batch2","","1014.1999999999534","tol_trial_num","<div class = centerbox><p class = center-block-text>problem <strong>12</strong> out of 25 problems</p></div>","0","","","","","","","","","","","","","","","","","","","","","","","","",""
"","","","","","single-stim-button","183","670885","0.0-2.0-43.0-0.0","559c1e28fdf99b2189ee807d","B2","batch2","","7532","tol_tohand","","","","tol_peg_1","7532","7532","0","[[1,0,0],[3,0],[0]]","1","[[2,3,0],[0,0],[1]]","11","0","","","","","","4","","","","","","","","",""
"","","","","","single-stim-button","184","672002","0.0-2.0-43.0-1.0","559c1e28fdf99b2189ee807d","B2","batch2","","1111","tol_toboard","","","","tol_peg_2","1111","1111","0","[[1,0,0],[3,2],[0]]","1","[[2,3,0],[0,0],[1]]","11","0","","","","","","4","","","","","","","","",""
"","","","","","single-stim-button","185","672796","0.0-2.0-43.1-0.1","559c1e28fdf99b2189ee807d","B2","batch2","","789","tol_tohand","","","","tol_peg_1","789","789","0","[[0,0,0],[3,2],[0]]","2","[[2,3,0],[0,0],[1]]","11","0","","","","","","4","","","","","","","","",""
"","","","","","single-stim-button","186","673977","0.0-2.0-43.1-1.1","559c1e28fdf99b2189ee807d","B2","batch2","","1175","tol_toboard","","","","tol_peg_3","1175","1175","0","[[0,0,0],[3,2],[1]]","2","[[2,3,0],[0,0],[1]]","11","0","","","","","","4","","","","","","","","",""
"","","","","","single-stim-button","187","674732","0.0-2.0-43.2-0.2","559c1e28fdf99b2189ee807d","B2","batch2","","751","tol_tohand","","","","tol_peg_2","751","751","0","[[0,0,0],[3,0],[1]]","3","[[2,3,0],[0,0],[1]]","11","0","","","","","","4","","","","","","","","",""
"","","","","","single-stim-button","188","675696","0.0-2.0-43.2-1.2","559c1e28fdf99b2189ee807d","B2","batch2","","960","tol_toboard","","","","tol_peg_1","960","960","0","[[2,0,0],[3,0],[1]]","3","[[2,3,0],[0,0],[1]]","11","0","","","","","","4","","","","","","","","",""
"","","","","","single-stim-button","189","676490","0.0-2.0-43.3-0.3","559c1e28fdf99b2189ee807d","B2","batch2","","790","tol_tohand","","","","tol_peg_2","790","790","0","[[2,0,0],[0,0],[1]]","4","[[2,3,0],[0,0],[1]]","11","0","","","","","","4","","","","","","","","",""
"","","","","","single-stim-button","190","677717","0.0-2.0-43.3-1.3","559c1e28fdf99b2189ee807d","B2","batch2","","1220","tol_toboard","","","","tol_peg_1","1220","1220","0","[[2,3,0],[0,0],[1]]","4","[[2,3,0],[0,0],[1]]","11","0","","","","","","4","","","","","","","","",""
"","","","","","poldrack-single-stim","191","678728","0.0-2.0-44.0","559c1e28fdf99b2189ee807d","B2","batch2","","-1","tol_feedback","","","true","","1000","1000","500","","","","","","-1","none","true","7532","9862","","","","","","","","","",""
"","","","","","html-button-response","192","679708","0.0-2.0-45.0","559c1e28fdf99b2189ee807d","B2","batch2","","974.5","tol_trial_num","<div class = centerbox><p class = center-block-text>problem <strong>13</strong> out of 25 problems</p></div>","0","","","","","","","","","","","","","","","","","","","","","","","","",""
"","","","","","single-stim-button","193","685169","0.0-2.0-46.0-0.0","559c1e28fdf99b2189ee807d","B2","batch2","","5452","tol_tohand","","","","tol_peg_2","5452","5452","0","[[1,2,0],[0,0],[0]]","1","[[0,0,0],[2,3],[1]]","12","0","","","","","","4","","","","","","","","",""
"","","","","","single-stim-button","194","686125","0.0-2.0-46.0-1.0","559c1e28fdf99b2189ee807d","B2","batch2","","952","tol_toboard","","","","tol_peg_3","952","952","0","[[1,2,0],[0,0],[3]]","1","[[0,0,0],[2,3],[1]]","12","0","","","","","","4","","","","","","","","",""
"","","","","","single-stim-button","195","686907","0.0-2.0-46.1-0.1","559c1e28fdf99b2189ee807d","B2","batch2","","778","tol_tohand","","","","tol_peg_1","778","778","0","[[1,0,0],[0,0],[3]]","2","[[0,0,0],[2,3],[1]]","12","0","","","","","","4","","","","","","","","",""
"","","","","","single-stim-button","196","687619","0.0-2.0-46.1-1.1","559c1e28fdf99b2189ee807d","B2","batch2","","707","tol_toboard","","","","tol_peg_2","707","707","0","[[1,0,0],[2,0],[3]]","2","[[0,0,0],[2,3],[1]]","12","0","","","","","","4","","","","","","","","",""
"","","","","","single-stim-button","197","688315","0.0-2.0-46.2-0.2","559c1e28fdf99b2189ee807d","B2","batch2","","692","tol_tohand","","","","tol_peg_3","692","692","0","[[1,0,0],[2,0],[0]]","3","[[0,0,0],[2,3],[1]]","12","0","","","","","","4","","","","","","","","",""
"","","","","","single-stim-button","198","689175","0.0-2.0-46.2-1.2","559c1e28fdf99b2189ee807d","B2","batch2","","857","tol_toboard","","","","tol_peg_2","857","857","0","[[1,0,0],[2,3],[0]]","3","[[0,0,0],[2,3],[1]]","12","0","","","","","","4","","","","","","","","",""
"","","","","","single-stim-button","199","690067","0.0-2.0-46.3-0.3","559c1e28fdf99b2189ee807d","B2","batch2","","888","tol_tohand","","","","tol_peg_1","888","888","0","[[0,0,0],[2,3],[0]]","4","[[0,0,0],[2,3],[1]]","12","0","","","","","","4","","","","","","","","",""
"","","","","","single-stim-button","200","691134","0.0-2.0-46.3-1.3","559c1e28fdf99b2189ee807d","B2","batch2","","1062","tol_toboard","","","","tol_peg_3","1062","1062","0","[[0,0,0],[2,3],[1]]","4","[[0,0,0],[2,3],[1]]","12","0","","","","","","4","","","","","","","","",""
"","","","","","poldrack-single-stim","201","692145","0.0-2.0-47.0","559c1e28fdf99b2189ee807d","B2","batch2","","-1","tol_feedback","","","true","","1000","1000","500","","","","","","-1","none","true","5452","7810","","","","","","","","","",""
"","","","","","html-button-response","202","695234","0.0-2.0-48.0","559c1e28fdf99b2189ee807d","B2","batch2","","3084.6999999999534","attention_check","<p class = block-text>How many balls are in your board<br></p>","1","true","","","","","","","","","","","","","","","","","","","","","","","",""
"","","","","","html-button-response","203","696558","0.0-2.0-49.0","559c1e28fdf99b2189ee807d","B2","batch2","","1319.2999999999302","tol_trial_num","<div class = centerbox><p class = center-block-text>problem <strong>14</strong> out of 25 problems</p></div>","0","","","","","","","","","","","","","","","","","","","","","","","","",""
"","","","","","single-stim-button","204","702128","0.0-2.0-50.0-0.0","559c1e28fdf99b2189ee807d","B2","batch2","","5566","tol_tohand","","","","tol_peg_1","5566","5566","0","[[2,0,0],[3,0],[0]]","1","[[1,2,0],[3,0],[0]]","13","0","","","","","","4","","","","","","","","",""
"","","","","","single-stim-button","205","703892","0.0-2.0-50.0-1.0","559c1e28fdf99b2189ee807d","B2","batch2","","1761","tol_toboard","","","","tol_peg_2","1761","1761","0","[[2,0,0],[3,1],[0]]","1","[[1,2,0],[3,0],[0]]","13","0","","","","","","4","","","","","","","","",""
"","","","","","single-stim-button","206","704719","0.0-2.0-50.1-0.1","559c1e28fdf99b2189ee807d","B2","batch2","","823","tol_tohand","","","","tol_peg_1","823","823","0","[[0,0,0],[3,1],[0]]","2","[[1,2,0],[3,0],[0]]","13","0","","","","","","4","","","","","","","","",""
"","","","","","single-stim-button","207","705959","0.0-2.0-50.1-1.1","559c1e28fdf99b2189ee807d","B2","batch2","","1237","tol_toboard","","","","tol_peg_3","1237","1237","0","[[0,0,0],[3,1],[2]]","2","[[1,2,0],[3,0],[0]]","13","0","","","","","","4","","","","","","","","",""
"","","","","","single-stim-button","208","706821","0.0-2.0-50.2-0.2","559c1e28fdf99b2189ee807d","B2","batch2","","857","tol_tohand","","","","tol_peg_2","857","857","0","[[0,0,0],[3,0],[2]]","3","[[1,2,0],[3,0],[0]]","13","0","","","","","","4","","","","","","","","",""
"","","","","","single-stim-button","209","707908","0.0-2.0-50.2-1.2","559c1e28fdf99b2189ee807d","B2","batch2","","1082","tol_toboard","","","","tol_peg_1","1082","1082","0","[[1,0,0],[3,0],[2]]","3","[[1,2,0],[3,0],[0]]","13","0","","","","","","4","","","","","","","","",""
"","","","","","single-stim-button","210","708822","0.0-2.0-50.3-0.3","559c1e28fdf99b2189ee807d","B2","batch2","","909","tol_tohand","","","","tol_peg_3","909","909","0","[[1,0,0],[3,0],[0]]","4","[[1,2,0],[3,0],[0]]","13","0","","","","","","4","","","","","","","","",""
"","","","","","single-stim-button","211","709663","0.0-2.0-50.3-1.3","559c1e28fdf99b2189ee807d","B2","batch2","","835","tol_toboard","","","","tol_peg_1","835","835","0","[[1,2,0],[3,0],[0]]","4","[[1,2,0],[3,0],[0]]","13","0","","","","","","4","","","","","","","","",""
"","","","","","poldrack-single-stim","212","710673","0.0-2.0-51.0","559c1e28fdf99b2189ee807d","B2","batch2","","-1","tol_feedback","","","true","","1000","1000","500","","","","","","-1","none","true","5566","8155","","","","","","","","","",""
"","","","","","html-button-response","213","712520","0.0-2.0-52.0","559c1e28fdf99b2189ee807d","B2","batch2","","1841.4000000000233","tol_trial_num","<div class = centerbox><p class = center-block-text>problem <strong>15</strong> out of 25 problems</p></div>","0","","","","","","","","","","","","","","","","","","","","","","","","",""
"","","","","","single-stim-button","214","715551","0.0-2.0-53.0-0.0","559c1e28fdf99b2189ee807d","B2","batch2","","3025","tol_tohand","","","","tol_peg_1","3025","3025","0","[[1,0,0],[3,0],[0]]","1","[[2,0,0],[3,0],[1]]","14","0","","","","","","3","","","","","","","","",""
"","","","","","single-stim-button","215","716248","0.0-2.0-53.0-1.0","559c1e28fdf99b2189ee807d","B2","batch2","","692","tol_toboard","","","","tol_peg_2","692","692","0","[[1,0,0],[3,2],[0]]","1","[[2,0,0],[3,0],[1]]","14","0","","","","","","3","","","","","","","","",""
"","","","","","single-stim-button","216","716849","0.0-2.0-53.1-0.1","559c1e28fdf99b2189ee807d","B2","batch2","","596","tol_tohand","","","","tol_peg_1","596","596","0","[[0,0,0],[3,2],[0]]","2","[[2,0,0],[3,0],[1]]","14","0","","","","","","3","","","","","","","","",""
"","","","","","single-stim-button","217","717833","0.0-2.0-53.1-1.1","559c1e28fdf99b2189ee807d","B2","batch2","","980","tol_toboard","","","","tol_peg_3","980","980","0","[[0,0,0],[3,2],[1]]","2","[[2,0,0],[3,0],[1]]","14","0","","","","","","3","","","","","","","","",""
"","","","","","single-stim-button","218","718513","0.0-2.0-53.2-0.2","559c1e28fdf99b2189ee807d","B2","batch2","","674","tol_tohand","","","","tol_peg_2","674","674","0","[[0,0,0],[3,0],[1]]","3","[[2,0,0],[3,0],[1]]","14","0","","","","","","3","","","","","","","","",""
"","","","","","single-stim-button","219","719418","0.0-2.0-53.2-1.2","559c1e28fdf99b2189ee807d","B2","batch2","","900","tol_toboard","","","","tol_peg_1","900","900","0","[[2,0,0],[3,0],[1]]","3","[[2,0,0],[3,0],[1]]","14","0","","","","","","3","","","","","","","","",""
"","","","","","poldrack-single-stim","220","720424","0.0-2.0-54.0","559c1e28fdf99b2189ee807d","B2","batch2","","-1","tol_feedback","","","true","","1000","1000","500","","","","","","-1","none","true","3025","4295","","","","","","","","","",""
"","","","","","html-button-response","221","721593","0.0-2.0-55.0","559c1e28fdf99b2189ee807d","B2","batch2","","1165.4000000000233","tol_trial_num","<div class = centerbox><p class = center-block-text>problem <strong>16</strong> out of 25 problems</p></div>","0","","","","","","","","","","","","","","","","","","","","","","","","",""
"","","","","","single-stim-button","222","733685","0.0-2.0-56.0-0.0","559c1e28fdf99b2189ee807d","B2","batch2","","12087","tol_tohand","","","","tol_peg_3","12087","12087","0","[[0,0,0],[2,3],[0]]","1","[[2,3,0],[1,0],[0]]","15","0","","","","","","7","","","","","","","","",""
"","","","","","single-stim-button","223","734598","0.0-2.0-56.0-1.0","559c1e28fdf99b2189ee807d","B2","batch2","","909","tol_toboard","","","","tol_peg_1","909","909","0","[[1,0,0],[2,3],[0]]","1","[[2,3,0],[1,0],[0]]","15","0","","","","","","7","","","","","","","","",""
"","","","","","single-stim-button","224","735172","0.0-2.0-56.1-0.1","559c1e28fdf99b2189ee807d","B2","batch2","","570","tol_tohand","","","","tol_peg_2","570","570","0","[[1,0,0],[2,0],[0]]","2","[[2,3,0],[1,0],[0]]","15","0","","","","","","7","","","","","","","","",""
"","","","","","single-stim-button","225","736038","0.0-2.0-56.1-1.1","559c1e28fdf99b2189ee807d","B2","batch2","","862","tol_toboard","","","","tol_peg_3","862","862","0","[[1,0,0],[2,0],[3]]","2","[[2,3,0],[1,0],[0]]","15","0","","","","","","7","","","","","","","","",""
"","","","","","single-stim-button","226","751991","0.0-2.0-56.2-0.2","559c1e28fdf99b2189ee807d","B2","batch2","","15947","tol_tohand","","","","tol_peg_1","15947","15947","0","[[0,0,0],[2,0],[3]]","3","[[2,3,0],[1,0],[0]]","15","0","","","","","","7","","","","","","","","",""
"","","","","","single-stim-button","227","753047","0.0-2.0-56.2-1.2","559c1e28fdf99b2189ee807d","B2","batch2","","1053","tol_toboard","","","","tol_peg_2","1053","1053","0","[[0,0,0],[2,1],[3]]","3","[[2,3,0],[1,0],[0]]","15","0","","","","","","7","","","","","","","","",""
"","","","","","single-stim-button","228","757773","0.0-2.0-56.3-0.3","559c1e28fdf99b2189ee807d","B2","batch2","","4721","tol_tohand","","","","tol_peg_3","4721","4721","0","[[0,0,0],[2,1],[0]]","4","[[2,3,0],[1,0],[0]]","15","0","","","","","","7","","","","","","","","",""
"","","","","","single-stim-button","229","758802","0.0-2.0-56.3-1.3","559c1e28fdf99b2189ee807d","B2","batch2","","1024","tol_toboard","","","","tol_peg_1","1024","1024","0","[[3,0,0],[2,1],[0]]","4","[[2,3,0],[1,0],[0]]","15","0","","","","","","7","","","","","","","","",""
"","","","","","single-stim-button","230","759773","0.0-2.0-56.4-0.4","559c1e28fdf99b2189ee807d","B2","batch2","","967","tol_tohand","","","","tol_peg_2","967","967","0","[[3,0,0],[2,0],[0]]","5","[[2,3,0],[1,0],[0]]","15","0","","","","","","7","","","","","","","","",""
"","","","","","single-stim-button","231","760690","0.0-2.0-56.4-1.4","559c1e28fdf99b2189ee807d","B2","batch2","","913","tol_toboard","","","","tol_peg_3","913","913","0","[[3,0,0],[2,0],[1]]","5","[[2,3,0],[1,0],[0]]","15","0","","","","","","7","","","","","","","","",""
"","","","","","single-stim-button","232","771108","0.0-2.0-56.5-0.5","559c1e28fdf99b2189ee807d","B2","batch2","","10413","tol_tohand","","","","tol_peg_2","10413","10413","0","[[3,0,0],[0,0],[1]]","6","[[2,3,0],[1,0],[0]]","15","0","","","","","","7","","","","","","","","",""
"","","","","","single-stim-button","233","772141","0.0-2.0-56.5-1.5","559c1e28fdf99b2189ee807d","B2","batch2","","1029","tol_toboard","","","","tol_peg_1","1029","1029","0","[[3,2,0],[0,0],[1]]","6","[[2,3,0],[1,0],[0]]","15","0","","","","","","7","","","","","","","","",""
"","","","","","single-stim-button","234","772926","0.0-2.0-56.6-0.6","559c1e28fdf99b2189ee807d","B2","batch2","","780","tol_tohand","","","","tol_peg_3","780","780","0","[[3,2,0],[0,0],[0]]","7","[[2,3,0],[1,0],[0]]","15","0","","","","","","7","","","","","","","","",""
"","","","","","single-stim-button","235","773802","0.0-2.0-56.6-1.6","559c1e28fdf99b2189ee807d","B2","batch2","","873","tol_toboard","","","","tol_peg_2","873","873","0","[[3,2,0],[1,0],[0]]","7","[[2,3,0],[1,0],[0]]","15","0","","","","","","7","","","","","","","","",""
"","","","","","single-stim-button","236","775560","0.0-2.0-56.7-0.7","559c1e28fdf99b2189ee807d","B2","batch2","","1754","tol_tohand","","","","tol_peg_1","1754","1754","0","[[3,0,0],[1,0],[0]]","8","[[2,3,0],[1,0],[0]]","15","0","","","","","","7","","","","","","","","",""
"","","","","","single-stim-button","237","776698","0.0-2.0-56.7-1.7","559c1e28fdf99b2189ee807d","B2","batch2","","1132","tol_toboard","","","","tol_peg_3","1132","1132","0","[[3,0,0],[1,0],[2]]","8","[[2,3,0],[1,0],[0]]","15","0","","","","","","7","","","","","","","","",""
"","","","","","single-stim-button","238","777473","0.0-2.0-56.8-0.8","559c1e28fdf99b2189ee807d","B2","batch2","","764","tol_tohand","","","","tol_peg_1","764","764","0","[[0,0,0],[1,0],[2]]","9","[[2,3,0],[1,0],[0]]","15","0","","","","","","7","","","","","","","","",""
"","","","","","single-stim-button","239","778150","0.0-2.0-56.8-1.8","559c1e28fdf99b2189ee807d","B2","batch2","","672","tol_toboard","","","","tol_peg_2","672","672","0","[[0,0,0],[1,3],[2]]","9","[[2,3,0],[1,0],[0]]","15","0","","","","","","7","","","","","","","","",""
"","","","","","single-stim-button","240","778884","0.0-2.0-56.9-0.9","559c1e28fdf99b2189ee807d","B2","batch2","","730","tol_tohand","","","","tol_peg_3","730","730","0","[[0,0,0],[1,3],[0]]","10","[[2,3,0],[1,0],[0]]","15","0","","","","","","7","","","","","","","","",""
"","","","","","single-stim-button","241","780208","0.0-2.0-56.9-1.9","559c1e28fdf99b2189ee807d","B2","batch2","","1320","tol_toboard","","","","tol_peg_1","1320","1320","0","[[2,0,0],[1,3],[0]]","10","[[2,3,0],[1,0],[0]]","15","0","","","","","","7","","","","","","","","",""
"","","","","","single-stim-button","242","780757","0.0-2.0-56.10-0.10","559c1e28fdf99b2189ee807d","B2","batch2","","544","tol_tohand","","","","tol_peg_2","544","544","0","[[2,0,0],[1,0],[0]]","11","[[2,3,0],[1,0],[0]]","15","0","","","","","","7","","","","","","","","",""
"","","","","","single-stim-button","243","781639","0.0-2.0-56.10-1.10","559c1e28fdf99b2189ee807d","B2","batch2","","877","tol_toboard","","","","tol_peg_1","877","877","0","[[2,3,0],[1,0],[0]]","11","[[2,3,0],[1,0],[0]]","15","0","","","","","","7","","","","","","","","",""
"","","","","","poldrack-single-stim","244","782649","0.0-2.0-57.0","559c1e28fdf99b2189ee807d","B2","batch2","","-1","tol_feedback","","","true","","1000","1000","500","","","","","","-1","none","true","12087","49277","","","","","","","","","",""
"","","","","","html-button-response","245","783775","0.0-2.0-58.0","559c1e28fdf99b2189ee807d","B2","batch2","","1117.6999999999534","tol_trial_num","<div class = centerbox><p class = center-block-text>problem <strong>17</strong> out of 25 problems</p></div>","0","","","","","","","","","","","","","","","","","","","","","","","","",""
"","","","","","single-stim-button","246","798614","0.0-2.0-59.0-0.0","559c1e28fdf99b2189ee807d","B2","batch2","","14835","tol_tohand","","","","tol_peg_2","14835","14835","0","[[1,2,0],[0,0],[0]]","1","[[3,1,0],[2,0],[0]]","16","0","","","","","","5","","","","","","","","",""
"","","","","","single-stim-button","247","799691","0.0-2.0-59.0-1.0","559c1e28fdf99b2189ee807d","B2","batch2","","1073","tol_toboard","","","","tol_peg_3","1073","1073","0","[[1,2,0],[0,0],[3]]","1","[[3,1,0],[2,0],[0]]","16","0","","","","","","5","","","","","","","","",""
"","","","","","single-stim-button","248","800465","0.0-2.0-59.1-0.1","559c1e28fdf99b2189ee807d","B2","batch2","","769","tol_tohand","","","","tol_peg_1","769","769","0","[[1,0,0],[0,0],[3]]","2","[[3,1,0],[2,0],[0]]","16","0","","","","","","5","","","","","","","","",""
"","","","","","single-stim-button","249","801457","0.0-2.0-59.1-1.1","559c1e28fdf99b2189ee807d","B2","batch2","","986","tol_toboard","","","","tol_peg_2","986","986","0","[[1,0,0],[2,0],[3]]","2","[[3,1,0],[2,0],[0]]","16","0","","","","","","5","","","","","","","","",""
"","","","","","single-stim-button","250","802125","0.0-2.0-59.2-0.2","559c1e28fdf99b2189ee807d","B2","batch2","","663","tol_tohand","","","","tol_peg_1","663","663","0","[[0,0,0],[2,0],[3]]","3","[[3,1,0],[2,0],[0]]","16","0","","","","","","5","","","","","","","","",""
"","","","","","single-stim-button","251","802717","0.0-2.0-59.2-1.2","559c1e28fdf99b2189ee807d","B2","batch2","","588","tol_toboard","","","","tol_peg_2","588","588","0","[[0,0,0],[2,1],[3]]","3","[[3,1,0],[2,0],[0]]","16","0","","","","","","5","","","","","","","","",""
"","","","","","single-stim-button","252","803340","0.0-2.0-59.3-0.3","559c1e28fdf99b2189ee807d","B2","batch2","","619","tol_tohand","","","","tol_peg_3","619","619","0","[[0,0,0],[2,1],[0]]","4","[[3,1,0],[2,0],[0]]","16","0","","","","","","5","","","","","","","","",""
"","","","","","single-stim-button","253","804234","0.0-2.0-59.3-1.3","559c1e28fdf99b2189ee807d","B2","batch2","","889","tol_toboard","","","","tol_peg_1","889","889","0","[[3,0,0],[2,1],[0]]","4","[[3,1,0],[2,0],[0]]","16","0","","","","","","5","","","","","","","","",""
"","","","","","single-stim-button","254","804810","0.0-2.0-59.4-0.4","559c1e28fdf99b2189ee807d","B2","batch2","","561","tol_tohand","","","","tol_peg_2","561","561","0","[[3,0,0],[2,0],[0]]","5","[[3,1,0],[2,0],[0]]","16","0","","","","","","5","","","","","","","","",""
"","","","","","single-stim-button","255","805742","0.0-2.0-59.4-1.4","559c1e28fdf99b2189ee807d","B2","batch2","","927","tol_toboard","","","","tol_peg_1","927","927","0","[[3,1,0],[2,0],[0]]","5","[[3,1,0],[2,0],[0]]","16","0","","","","","","5","","","","","","","","",""
"","","","","","poldrack-single-stim","256","806752","0.0-2.0-60.0","559c1e28fdf99b2189ee807d","B2","batch2","","-1","tol_feedback","","","true","","1000","1000","500","","","","","","-1","none","true","14835","17447","","","","","","","","","",""
"","","","","","html-button-response","257","807977","0.0-2.0-61.0","559c1e28fdf99b2189ee807d","B2","batch2","","1220.3000000000466","tol_trial_num","<div class = centerbox><p class = center-block-text>problem <strong>18</strong> out of 25 problems</p></div>","0","","","","","","","","","","","","","","","","","","","","","","","","",""
"","","","","","single-stim-button","258","813994","0.0-2.0-62.0-0.0","559c1e28fdf99b2189ee807d","B2","batch2","","6014","tol_tohand","","","","tol_peg_2","6014","6014","0","[[1,2,0],[0,0],[0]]","1","[[3,0,0],[2,0],[1]]","17","0","","","","","","5","","","","","","","","",""
"","","","","","single-stim-button","259","814892","0.0-2.0-62.0-1.0","559c1e28fdf99b2189ee807d","B2","batch2","","895","tol_toboard","","","","tol_peg_3","895","895","0","[[1,2,0],[0,0],[3]]","1","[[3,0,0],[2,0],[1]]","17","0","","","","","","5","","","","","","","","",""
"","","","","","single-stim-button","260","816252","0.0-2.0-62.1-0.1","559c1e28fdf99b2189ee807d","B2","batch2","","1355","tol_tohand","","","","tol_peg_1","1355","1355","0","[[1,0,0],[0,0],[3]]","2","[[3,0,0],[2,0],[1]]","17","0","","","","","","5","","","","","","","","",""
"","","","","","single-stim-button","261","817052","0.0-2.0-62.1-1.1","559c1e28fdf99b2189ee807d","B2","batch2","","795","tol_toboard","","","","tol_peg_2","795","795","0","[[1,0,0],[2,0],[3]]","2","[[3,0,0],[2,0],[1]]","17","0","","","","","","5","","","","","","","","",""
"","","","","","single-stim-button","262","817927","0.0-2.0-62.2-0.2","559c1e28fdf99b2189ee807d","B2","batch2","","871","tol_tohand","","","","tol_peg_1","871","871","0","[[0,0,0],[2,0],[3]]","3","[[3,0,0],[2,0],[1]]","17","0","","","","","","5","","","","","","","","",""
"","","","","","single-stim-button","263","818567","0.0-2.0-62.2-1.2","559c1e28fdf99b2189ee807d","B2","batch2","","636","tol_toboard","","","","tol_peg_2","636","636","0","[[0,0,0],[2,1],[3]]","3","[[3,0,0],[2,0],[1]]","17","0","","","","","","5","","","","","","","","",""
"","","","","","single-stim-button","264","819183","0.0-2.0-62.3-0.3","559c1e28fdf99b2189ee807d","B2","batch2","","612","tol_tohand","","","","tol_peg_3","612","612","0","[[0,0,0],[2,1],[0]]","4","[[3,0,0],[2,0],[1]]","17","0","","","","","","5","","","","","","","","",""
"","","","","","single-stim-button","265","820144","0.0-2.0-62.3-1.3","559c1e28fdf99b2189ee807d","B2","batch2","","957","tol_toboard","","","","tol_peg_1","957","957","0","[[3,0,0],[2,1],[0]]","4","[[3,0,0],[2,0],[1]]","17","0","","","","","","5","","","","","","","","",""
"","","","","","single-stim-button","266","820766","0.0-2.0-62.4-0.4","559c1e28fdf99b2189ee807d","B2","batch2","","618","tol_tohand","","","","tol_peg_2","618","618","0","[[3,0,0],[2,0],[0]]","5","[[3,0,0],[2,0],[1]]","17","0","","","","","","5","","","","","","","","",""
"","","","","","single-stim-button","267","821615","0.0-2.0-62.4-1.4","559c1e28fdf99b2189ee807d","B2","batch2","","844","tol_toboard","","","","tol_peg_3","844","844","0","[[3,0,0],[2,0],[1]]","5","[[3,0,0],[2,0],[1]]","17","0","","","","","","5","","","","","","","","",""
"","","","","","poldrack-single-stim","268","822625","0.0-2.0-63.0","559c1e28fdf99b2189ee807d","B2","batch2","","-1","tol_feedback","","","true","","1000","1000","500","","","","","","-1","none","true","6014","9470","","","","","","","","","",""
"","","","","","html-button-response","269","824091","0.0-2.0-64.0","559c1e28fdf99b2189ee807d","B2","batch2","","1461.9000000001397","tol_trial_num","<div class = centerbox><p class = center-block-text>problem <strong>19</strong> out of 25 problems</p></div>","0","","","","","","","","","","","","","","","","","","","","","","","","",""
"","","","","","single-stim-button","270","827051","0.0-2.0-65.0-0.0","559c1e28fdf99b2189ee807d","B2","batch2","","2955","tol_tohand","","","","tol_peg_2","2955","2955","0","[[1,2,0],[0,0],[0]]","1","[[0,0,0],[1,2],[3]]","18","0","","","","","","7","","","","","","","","",""
"","","","","","single-stim-button","271","829350","0.0-2.0-65.0-1.0","559c1e28fdf99b2189ee807d","B2","batch2","","2295","tol_toboard","","","","tol_peg_3","2295","2295","0","[[1,2,0],[0,0],[3]]","1","[[0,0,0],[1,2],[3]]","18","0","","","","","","7","","","","","","","","",""
"","","","","","single-stim-button","272","833829","0.0-2.0-65.1-0.1","559c1e28fdf99b2189ee807d","B2","batch2","","4476","tol_tohand","","","","tol_peg_1","4476","4476","0","[[1,0,0],[0,0],[3]]","2","[[0,0,0],[1,2],[3]]","18","0","","","","","","7","","","","","","","","",""
"","","","","","single-stim-button","273","834572","0.0-2.0-65.1-1.1","559c1e28fdf99b2189ee807d","B2","batch2","","739","tol_toboard","","","","tol_peg_2","739","739","0","[[1,0,0],[2,0],[3]]","2","[[0,0,0],[1,2],[3]]","18","0","","","","","","7","","","","","","","","",""
"","","","","","single-stim-button","274","837264","0.0-2.0-65.2-0.2","559c1e28fdf99b2189ee807d","B2","batch2","","2688","tol_tohand","","","","tol_peg_3","2688","2688","0","[[1,0,0],[2,0],[0]]","3","[[0,0,0],[1,2],[3]]","18","0","","","","","","7","","","","","","","","",""
"","","","","","single-stim-button","275","838006","0.0-2.0-65.2-1.2","559c1e28fdf99b2189ee807d","B2","batch2","","736","tol_toboard","","","","tol_peg_2","736","736","0","[[1,0,0],[2,3],[0]]","3","[[0,0,0],[1,2],[3]]","18","0","","","","","","7","","","","","","","","",""
"","","","","","single-stim-button","276","838807","0.0-2.0-65.3-0.3","559c1e28fdf99b2189ee807d","B2","batch2","","795","tol_tohand","","","","tol_peg_1","795","795","0","[[0,0,0],[2,3],[0]]","4","[[0,0,0],[1,2],[3]]","18","0","","","","","","7","","","","","","","","",""
"","","","","","single-stim-button","277","839712","0.0-2.0-65.3-1.3","559c1e28fdf99b2189ee807d","B2","batch2","","903","tol_toboard","","","","tol_peg_3","903","903","0","[[0,0,0],[2,3],[1]]","4","[[0,0,0],[1,2],[3]]","18","0","","","","","","7","","","","","","","","",""
"","","","","","single-stim-button","278","840773","0.0-2.0-65.4-0.4","559c1e28fdf99b2189ee807d","B2","batch2","","1057","tol_tohand","","","","tol_peg_2","1057","1057","0","[[0,0,0],[2,0],[1]]","5","[[0,0,0],[1,2],[3]]","18","0","","","","","","7","","","","","","","","",""
"","","","","","single-stim-button","279","841796","0.0-2.0-65.4-1.4","559c1e28fdf99b2189ee807d","B2","batch2","","1018","tol_toboard","","","","tol_peg_1","1018","1018","0","[[3,0,0],[2,0],[1]]","5","[[0,0,0],[1,2],[3]]","18","0","","","","","","7","","","","","","","","",""
"","","","","","single-stim-button","280","842713","0.0-2.0-65.5-0.5","559c1e28fdf99b2189ee807d","B2","batch2","","913","tol_tohand","","","","tol_peg_2","913","913","0","[[3,0,0],[0,0],[1]]","6","[[0,0,0],[1,2],[3]]","18","0","","","","","","7","","","","","","","","",""
"","","","","","single-stim-button","281","843397","0.0-2.0-65.5-1.5","559c1e28fdf99b2189ee807d","B2","batch2","","678","tol_toboard","","","","tol_peg_1","678","678","0","[[3,2,0],[0,0],[1]]","6","[[0,0,0],[1,2],[3]]","18","0","","","","","","7","","","","","","","","",""
"","","","","","single-stim-button","282","844201","0.0-2.0-65.6-0.6","559c1e28fdf99b2189ee807d","B2","batch2","","800","tol_tohand","","","","tol_peg_3","800","800","0","[[3,2,0],[0,0],[0]]","7","[[0,0,0],[1,2],[3]]","18","0","","","","","","7","","","","","","","","",""
"","","","","","single-stim-button","283","845095","0.0-2.0-65.6-1.6","559c1e28fdf99b2189ee807d","B2","batch2","","890","tol_toboard","","","","tol_peg_2","890","890","0","[[3,2,0],[1,0],[0]]","7","[[0,0,0],[1,2],[3]]","18","0","","","","","","7","","","","","","","","",""
"","","","","","single-stim-button","284","845738","0.0-2.0-65.7-0.7","559c1e28fdf99b2189ee807d","B2","batch2","","639","tol_tohand","","","","tol_peg_1","639","639","0","[[3,0,0],[1,0],[0]]","8","[[0,0,0],[1,2],[3]]","18","0","","","","","","7","","","","","","","","",""
"","","","","","single-stim-button","285","847182","0.0-2.0-65.7-1.7","559c1e28fdf99b2189ee807d","B2","batch2","","1441","tol_toboard","","","","tol_peg_2","1441","1441","0","[[3,0,0],[1,2],[0]]","8","[[0,0,0],[1,2],[3]]","18","0","","","","","","7","","","","","","","","",""
"","","","","","single-stim-button","286","847972","0.0-2.0-65.8-0.8","559c1e28fdf99b2189ee807d","B2","batch2","","786","tol_tohand","","","","tol_peg_1","786","786","0","[[0,0,0],[1,2],[0]]","9","[[0,0,0],[1,2],[3]]","18","0","","","","","","7","","","","","","","","",""
"","","","","","single-stim-button","287","849195","0.0-2.0-65.8-1.8","559c1e28fdf99b2189ee807d","B2","batch2","","1220","tol_toboard","","","","tol_peg_3","1220","1220","0","[[0,0,0],[1,2],[3]]","9","[[0,0,0],[1,2],[3]]","18","0","","","","","","7","","","","","","","","",""
"","","","","","poldrack-single-stim","288","850208","0.0-2.0-66.0","559c1e28fdf99b2189ee807d","B2","batch2","","-1","tol_feedback","","","true","","1000","1000","500","","","","","","-1","none","true","2955","15109","","","","","","","","","",""
"","","","","","html-button-response","289","851298","0.0-2.0-67.0","559c1e28fdf99b2189ee807d","B2","batch2","","1085.2999999998137","tol_trial_num","<div class = centerbox><p class = center-block-text>problem <strong>20</strong> out of 25 problems</p></div>","0","","","","","","","","","","","","","","","","","","","","","","","","",""
"","","","","","single-stim-button","290","857206","0.0-2.0-68.0-0.0","559c1e28fdf99b2189ee807d","B2","batch2","","5901","tol_tohand","","","","tol_peg_1","5901","5901","0","[[1,0,0],[3,0],[0]]","1","[[2,1,0],[0,0],[3]]","19","0","","","","","","5","","","","","","","","",""
"","","","","","single-stim-button","291","858346","0.0-2.0-68.0-1.0","559c1e28fdf99b2189ee807d","B2","batch2","","1134","tol_toboard","","","","tol_peg_3","1134","1134","0","[[1,0,0],[3,0],[2]]","1","[[2,1,0],[0,0],[3]]","19","0","","","","","","5","","","","","","","","",""
"","","","","","single-stim-button","292","859366","0.0-2.0-68.1-0.1","559c1e28fdf99b2189ee807d","B2","batch2","","1014","tol_tohand","","","","tol_peg_1","1014","1014","0","[[0,0,0],[3,0],[2]]","2","[[2,1,0],[0,0],[3]]","19","0","","","","","","5","","","","","","","","",""
"","","","","","single-stim-button","293","860346","0.0-2.0-68.1-1.1","559c1e28fdf99b2189ee807d","B2","batch2","","975","tol_toboard","","","","tol_peg_2","975","975","0","[[0,0,0],[3,1],[2]]","2","[[2,1,0],[0,0],[3]]","19","0","","","","","","5","","","","","","","","",""
"","","","","","single-stim-button","294","861199","0.0-2.0-68.2-0.2","559c1e28fdf99b2189ee807d","B2","batch2","","848","tol_tohand","","","","tol_peg_3","848","848","0","[[0,0,0],[3,1],[0]]","3","[[2,1,0],[0,0],[3]]","19","0","","","","","","5","","","","","","","","",""
"","","","","","single-stim-button","295","862300","0.0-2.0-68.2-1.2","559c1e28fdf99b2189ee807d","B2","batch2","","1097","tol_toboard","","","","tol_peg_1","1097","1097","0","[[2,0,0],[3,1],[0]]","3","[[2,1,0],[0,0],[3]]","19","0","","","","","","5","","","","","","","","",""
"","","","","","single-stim-button","296","863052","0.0-2.0-68.3-0.3","559c1e28fdf99b2189ee807d","B2","batch2","","748","tol_tohand","","","","tol_peg_2","748","748","0","[[2,0,0],[3,0],[0]]","4","[[2,1,0],[0,0],[3]]","19","0","","","","","","5","","","","","","","","",""
"","","","","","single-stim-button","297","863906","0.0-2.0-68.3-1.3","559c1e28fdf99b2189ee807d","B2","batch2","","849","tol_toboard","","","","tol_peg_1","849","849","0","[[2,1,0],[3,0],[0]]","4","[[2,1,0],[0,0],[3]]","19","0","","","","","","5","","","","","","","","",""
"","","","","","single-stim-button","298","864677","0.0-2.0-68.4-0.4","559c1e28fdf99b2189ee807d","B2","batch2","","767","tol_tohand","","","","tol_peg_2","767","767","0","[[2,1,0],[0,0],[0]]","5","[[2,1,0],[0,0],[3]]","19","0","","","","","","5","","","","","","","","",""
"","","","","","single-stim-button","299","866040","0.0-2.0-68.4-1.4","559c1e28fdf99b2189ee807d","B2","batch2","","1359","tol_toboard","","","","tol_peg_3","1359","1359","0","[[2,1,0],[0,0],[3]]","5","[[2,1,0],[0,0],[3]]","19","0","","","","","","5","","","","","","","","",""
"","","","","","poldrack-single-stim","300","867048","0.0-2.0-69.0","559c1e28fdf99b2189ee807d","B2","batch2","","-1","tol_feedback","","","true","","1000","1000","500","","","","","","-1","none","true","5901","9278","","","","","","","","","",""
"","","","","","html-button-response","301","868191","0.0-2.0-70.0","559c1e28fdf99b2189ee807d","B2","batch2","","1138.5","tol_trial_num","<div class = centerbox><p class = center-block-text>problem <strong>21</strong> out of 25 problems</p></div>","0","","","","","","","","","","","","","","","","","","","","","","","","",""
"","","","","","single-stim-button","302","873312","0.0-2.0-71.0-0.0","559c1e28fdf99b2189ee807d","B2","batch2","","5112","tol_tohand","","","","tol_peg_1","5112","5112","0","[[1,0,0],[3,0],[0]]","1","[[3,2,0],[0,0],[1]]","20","0","","","","","","6","","","","","","","","",""
"","","","","","single-stim-button","303","874346","0.0-2.0-71.0-1.0","559c1e28fdf99b2189ee807d","B2","batch2","","1029","tol_toboard","","","","tol_peg_3","1029","1029","0","[[1,0,0],[3,0],[2]]","1","[[3,2,0],[0,0],[1]]","20","0","","","","","","6","","","","","","","","",""
"","","","","","single-stim-button","304","875132","0.0-2.0-71.1-0.1","559c1e28fdf99b2189ee807d","B2","batch2","","781","tol_tohand","","","","tol_peg_1","781","781","0","[[0,0,0],[3,0],[2]]","2","[[3,2,0],[0,0],[1]]","20","0","","","","","","6","","","","","","","","",""
"","","","","","single-stim-button","305","881608","0.0-2.0-71.1-1.1","559c1e28fdf99b2189ee807d","B2","batch2","","6471","tol_toboard","","","","tol_peg_2","6471","6471","0","[[0,0,0],[3,1],[2]]","2","[[3,2,0],[0,0],[1]]","20","0","","","","","","6","","","","","","","","",""
"","","","","","single-stim-button","306","884982","0.0-2.0-71.2-0.2","559c1e28fdf99b2189ee807d","B2","batch2","","3369","tol_tohand","","","","tol_peg_3","3369","3369","0","[[0,0,0],[3,1],[0]]","3","[[3,2,0],[0,0],[1]]","20","0","","","","","","6","","","","","","","","",""
"","","","","","single-stim-button","307","885882","0.0-2.0-71.2-1.2","559c1e28fdf99b2189ee807d","B2","batch2","","896","tol_toboard","","","","tol_peg_1","896","896","0","[[2,0,0],[3,1],[0]]","3","[[3,2,0],[0,0],[1]]","20","0","","","","","","6","","","","","","","","",""
"","","","","","single-stim-button","308","886714","0.0-2.0-71.3-0.3","559c1e28fdf99b2189ee807d","B2","batch2","","827","tol_tohand","","","","tol_peg_2","827","827","0","[[2,0,0],[3,0],[0]]","4","[[3,2,0],[0,0],[1]]","20","0","","","","","","6","","","","","","","","",""
"","","","","","single-stim-button","309","888613","0.0-2.0-71.3-1.3","559c1e28fdf99b2189ee807d","B2","batch2","","1895","tol_toboard","","","","tol_peg_3","1895","1895","0","[[2,0,0],[3,0],[1]]","4","[[3,2,0],[0,0],[1]]","20","0","","","","","","6","","","","","","","","",""
"","","","","","single-stim-button","310","894232","0.0-2.0-71.4-0.4","559c1e28fdf99b2189ee807d","B2","batch2","","5615","tol_tohand","","","","tol_peg_2","5615","5615","0","[[2,0,0],[0,0],[1]]","5","[[3,2,0],[0,0],[1]]","20","0","","","","","","6","","","","","","","","",""
"","","","","","single-stim-button","311","895005","0.0-2.0-71.4-1.4","559c1e28fdf99b2189ee807d","B2","batch2","","769","tol_toboard","","","","tol_peg_1","769","769","0","[[2,3,0],[0,0],[1]]","5","[[3,2,0],[0,0],[1]]","20","0","","","","","","6","","","","","","","","",""
"","","","","","single-stim-button","312","896054","0.0-2.0-71.5-0.5","559c1e28fdf99b2189ee807d","B2","batch2","","1045","tol_tohand","","","","tol_peg_3","1045","1045","0","[[2,3,0],[0,0],[0]]","6","[[3,2,0],[0,0],[1]]","20","0","","","","","","6","","","","","","","","",""
"","","","","","single-stim-button","313","897064","0.0-2.0-71.5-1.5","559c1e28fdf99b2189ee807d","B2","batch2","","1007","tol_toboard","","","","tol_peg_2","1007","1007","0","[[2,3,0],[1,0],[0]]","6","[[3,2,0],[0,0],[1]]","20","0","","","","","","6","","","","","","","","",""
"","","","","","single-stim-button","314","898522","0.0-2.0-71.6-0.6","559c1e28fdf99b2189ee807d","B2","batch2","","1455","tol_tohand","","","","tol_peg_1","1455","1455","0","[[2,0,0],[1,0],[0]]","7","[[3,2,0],[0,0],[1]]","20","0","","","","","","6","","","","","","","","",""
"","","","","","single-stim-button","315","899407","0.0-2.0-71.6-1.6","559c1e28fdf99b2189ee807d","B2","batch2","","881","tol_toboard","","","","tol_peg_2","881","881","0","[[2,0,0],[1,3],[0]]","7","[[3,2,0],[0,0],[1]]","20","0","","","","","","6","","","","","","","","",""
"","","","","","single-stim-button","316","900237","0.0-2.0-71.7-0.7","559c1e28fdf99b2189ee807d","B2","batch2","","825","tol_tohand","","","","tol_peg_1","825","825","0","[[0,0,0],[1,3],[0]]","8","[[3,2,0],[0,0],[1]]","20","0","","","","","","6","","","","","","","","",""
"","","","","","single-stim-button","317","901381","0.0-2.0-71.7-1.7","559c1e28fdf99b2189ee807d","B2","batch2","","1142","tol_toboard","","","","tol_peg_3","1142","1142","0","[[0,0,0],[1,3],[2]]","8","[[3,2,0],[0,0],[1]]","20","0","","","","","","6","","","","","","","","",""
"","","","","","single-stim-button","318","902428","0.0-2.0-71.8-0.8","559c1e28fdf99b2189ee807d","B2","batch2","","1043","tol_tohand","","","","tol_peg_2","1043","1043","0","[[0,0,0],[1,0],[2]]","9","[[3,2,0],[0,0],[1]]","20","0","","","","","","6","","","","","","","","",""
"","","","","","single-stim-button","319","903284","0.0-2.0-71.8-1.8","559c1e28fdf99b2189ee807d","B2","batch2","","854","tol_toboard","","","","tol_peg_1","854","854","0","[[3,0,0],[1,0],[2]]","9","[[3,2,0],[0,0],[1]]","20","0","","","","","","6","","","","","","","","",""
"","","","","","single-stim-button","320","904578","0.0-2.0-71.9-0.9","559c1e28fdf99b2189ee807d","B2","batch2","","1288","tol_tohand","","","","tol_peg_3","1288","1288","0","[[3,0,0],[1,0],[0]]","10","[[3,2,0],[0,0],[1]]","20","0","","","","","","6","","","","","","","","",""
"","","","","","single-stim-button","321","905599","0.0-2.0-71.9-1.9","559c1e28fdf99b2189ee807d","B2","batch2","","1018","tol_toboard","","","","tol_peg_1","1018","1018","0","[[3,2,0],[1,0],[0]]","10","[[3,2,0],[0,0],[1]]","20","0","","","","","","6","","","","","","","","",""
"","","","","","single-stim-button","322","906390","0.0-2.0-71.10-0.10","559c1e28fdf99b2189ee807d","B2","batch2","","786","tol_tohand","","","","tol_peg_2","786","786","0","[[3,2,0],[0,0],[0]]","11","[[3,2,0],[0,0],[1]]","20","0","","","","","","6","","","","","","","","",""
"","","","","","single-stim-button","323","907190","0.0-2.0-71.10-1.10","559c1e28fdf99b2189ee807d","B2","batch2","","796","tol_toboard","","","","tol_peg_3","796","796","0","[[3,2,0],[0,0],[1]]","11","[[3,2,0],[0,0],[1]]","20","0","","","","","","6","","","","","","","","",""
"","","","","","poldrack-single-stim","324","908204","0.0-2.0-72.0","559c1e28fdf99b2189ee807d","B2","batch2","","-1","tol_feedback","","","true","","1000","1000","500","","","","","","-1","none","true","5112","22146","","","","","","","","","",""
"","","","","","html-button-response","325","909461","0.0-2.0-73.0","559c1e28fdf99b2189ee807d","B2","batch2","","1248.6000000000931","tol_trial_num","<div class = centerbox><p class = center-block-text>problem <strong>22</strong> out of 25 problems</p></div>","0","","","","","","","","","","","","","","","","","","","","","","","","",""
"","","","","","single-stim-button","326","914883","0.0-2.0-74.0-0.0","559c1e28fdf99b2189ee807d","B2","batch2","","5418","tol_tohand","","","","tol_peg_2","5418","5418","0","[[1,0,0],[2,0],[0]]","1","[[0,0,0],[1,2],[3]]","21","0","","","","","","6","","","","","","","","",""
"","","","","","single-stim-button","327","915543","0.0-2.0-74.0-1.0","559c1e28fdf99b2189ee807d","B2","batch2","","658","tol_toboard","","","","tol_peg_1","658","658","0","[[1,3,0],[2,0],[0]]","1","[[0,0,0],[1,2],[3]]","21","0","","","","","","6","","","","","","","","",""
"","","","","","single-stim-button","328","916302","0.0-2.0-74.1-0.1","559c1e28fdf99b2189ee807d","B2","batch2","","753","tol_tohand","","","","tol_peg_2","753","753","0","[[1,3,0],[0,0],[0]]","2","[[0,0,0],[1,2],[3]]","21","0","","","","","","6","","","","","","","","",""
"","","","","","single-stim-button","329","916962","0.0-2.0-74.1-1.1","559c1e28fdf99b2189ee807d","B2","batch2","","657","tol_toboard","","","","tol_peg_3","657","657","0","[[1,3,0],[0,0],[2]]","2","[[0,0,0],[1,2],[3]]","21","0","","","","","","6","","","","","","","","",""
"","","","","","single-stim-button","330","920198","0.0-2.0-74.2-0.2","559c1e28fdf99b2189ee807d","B2","batch2","","3233","tol_tohand","","","","tol_peg_1","3233","3233","0","[[1,0,0],[0,0],[2]]","3","[[0,0,0],[1,2],[3]]","21","0","","","","","","6","","","","","","","","",""
"","","","","","single-stim-button","331","920931","0.0-2.0-74.2-1.2","559c1e28fdf99b2189ee807d","B2","batch2","","728","tol_toboard","","","","tol_peg_2","728","728","0","[[1,0,0],[3,0],[2]]","3","[[0,0,0],[1,2],[3]]","21","0","","","","","","6","","","","","","","","",""
"","","","","","single-stim-button","332","921753","0.0-2.0-74.3-0.3","559c1e28fdf99b2189ee807d","B2","batch2","","818","tol_tohand","","","","tol_peg_1","818","818","0","[[0,0,0],[3,0],[2]]","4","[[0,0,0],[1,2],[3]]","21","0","","","","","","6","","","","","","","","",""
"","","","","","single-stim-button","333","922903","0.0-2.0-74.3-1.3","559c1e28fdf99b2189ee807d","B2","batch2","","1146","tol_toboard","","","","tol_peg_2","1146","1146","0","[[0,0,0],[3,1],[2]]","4","[[0,0,0],[1,2],[3]]","21","0","","","","","","6","","","","","","","","",""
"","","","","","single-stim-button","334","925682","0.0-2.0-74.4-0.4","559c1e28fdf99b2189ee807d","B2","batch2","","2774","tol_tohand","","","","tol_peg_3","2774","2774","0","[[0,0,0],[3,1],[0]]","5","[[0,0,0],[1,2],[3]]","21","0","","","","","","6","","","","","","","","",""
"","","","","","single-stim-button","335","926788","0.0-2.0-74.4-1.4","559c1e28fdf99b2189ee807d","B2","batch2","","1099","tol_toboard","","","","tol_peg_1","1099","1099","0","[[2,0,0],[3,1],[0]]","5","[[0,0,0],[1,2],[3]]","21","0","","","","","","6","","","","","","","","",""
"","","","","","single-stim-button","336","928805","0.0-2.0-74.5-0.5","559c1e28fdf99b2189ee807d","B2","batch2","","2014","tol_tohand","","","","tol_peg_2","2014","2014","0","[[2,0,0],[3,0],[0]]","6","[[0,0,0],[1,2],[3]]","21","0","","","","","","6","","","","","","","","",""
"","","","","","single-stim-button","337","929666","0.0-2.0-74.5-1.5","559c1e28fdf99b2189ee807d","B2","batch2","","858","tol_toboard","","","","tol_peg_1","858","858","0","[[2,1,0],[3,0],[0]]","6","[[0,0,0],[1,2],[3]]","21","0","","","","","","6","","","","","","","","",""
"","","","","","single-stim-button","338","930595","0.0-2.0-74.6-0.6","559c1e28fdf99b2189ee807d","B2","batch2","","924","tol_tohand","","","","tol_peg_2","924","924","0","[[2,1,0],[0,0],[0]]","7","[[0,0,0],[1,2],[3]]","21","0","","","","","","6","","","","","","","","",""
"","","","","","single-stim-button","339","931366","0.0-2.0-74.6-1.6","559c1e28fdf99b2189ee807d","B2","batch2","","767","tol_toboard","","","","tol_peg_3","767","767","0","[[2,1,0],[0,0],[3]]","7","[[0,0,0],[1,2],[3]]","21","0","","","","","","6","","","","","","","","",""
"","","","","","single-stim-button","340","932363","0.0-2.0-74.7-0.7","559c1e28fdf99b2189ee807d","B2","batch2","","991","tol_tohand","","","","tol_peg_1","991","991","0","[[2,0,0],[0,0],[3]]","8","[[0,0,0],[1,2],[3]]","21","0","","","","","","6","","","","","","","","",""
"","","","","","single-stim-button","341","933059","0.0-2.0-74.7-1.7","559c1e28fdf99b2189ee807d","B2","batch2","","693","tol_toboard","","","","tol_peg_2","693","693","0","[[2,0,0],[1,0],[3]]","8","[[0,0,0],[1,2],[3]]","21","0","","","","","","6","","","","","","","","",""
"","","","","","single-stim-button","342","933933","0.0-2.0-74.8-0.8","559c1e28fdf99b2189ee807d","B2","batch2","","869","tol_tohand","","","","tol_peg_1","869","869","0","[[0,0,0],[1,0],[3]]","9","[[0,0,0],[1,2],[3]]","21","0","","","","","","6","","","","","","","","",""
"","","","","","single-stim-button","343","935038","0.0-2.0-74.8-1.8","559c1e28fdf99b2189ee807d","B2","batch2","","1101","tol_toboard","","","","tol_peg_2","1101","1101","0","[[0,0,0],[1,2],[3]]","9","[[0,0,0],[1,2],[3]]","21","0","","","","","","6","","","","","","","","",""
"","","","","","poldrack-single-stim","344","936049","0.0-2.0-75.0","559c1e28fdf99b2189ee807d","B2","batch2","","-1","tol_feedback","","","true","","1000","1000","500","","","","","","-1","none","true","5418","17794","","","","","","","","","",""
"","","","","","html-button-response","345","937267","0.0-2.0-76.0","559c1e28fdf99b2189ee807d","B2","batch2","","1213.3000000000466","tol_trial_num","<div class = centerbox><p class = center-block-text>problem <strong>23</strong> out of 25 problems</p></div>","0","","","","","","","","","","","","","","","","","","","","","","","","",""
"","","","","","single-stim-button","346","940738","0.0-2.0-77.0-0.0","559c1e28fdf99b2189ee807d","B2","batch2","","3468","tol_tohand","","","","tol_peg_1","3468","3468","0","[[1,0,0],[3,0],[0]]","1","[[1,3,2],[0,0],[0]]","22","0","","","","","","3","","","","","","","","",""
"","","","","","single-stim-button","347","941762","0.0-2.0-77.0-1.0","559c1e28fdf99b2189ee807d","B2","batch2","","1021","tol_toboard","","","","tol_peg_3","1021","1021","0","[[1,0,0],[3,0],[2]]","1","[[1,3,2],[0,0],[0]]","22","0","","","","","","3","","","","","","","","",""
"","","","","","single-stim-button","348","942390","0.0-2.0-77.1-0.1","559c1e28fdf99b2189ee807d","B2","batch2","","622","tol_tohand","","","","tol_peg_2","622","622","0","[[1,0,0],[0,0],[2]]","2","[[1,3,2],[0,0],[0]]","22","0","","","","","","3","","","","","","","","",""
"","","","","","single-stim-button","349","943383","0.0-2.0-77.1-1.1","559c1e28fdf99b2189ee807d","B2","batch2","","989","tol_toboard","","","","tol_peg_1","989","989","0","[[1,3,0],[0,0],[2]]","2","[[1,3,2],[0,0],[0]]","22","0","","","","","","3","","","","","","","","",""
"","","","","","single-stim-button","350","944357","0.0-2.0-77.2-0.2","559c1e28fdf99b2189ee807d","B2","batch2","","968","tol_tohand","","","","tol_peg_3","968","968","0","[[1,3,0],[0,0],[0]]","3","[[1,3,2],[0,0],[0]]","22","0","","","","","","3","","","","","","","","",""
"","","","","","single-stim-button","351","945135","0.0-2.0-77.2-1.2","559c1e28fdf99b2189ee807d","B2","batch2","","775","tol_toboard","","","","tol_peg_1","775","775","0","[[1,3,2],[0,0],[0]]","3","[[1,3,2],[0,0],[0]]","22","0","","","","","","3","","","","","","","","",""
"","","","","","poldrack-single-stim","352","946144","0.0-2.0-78.0","559c1e28fdf99b2189ee807d","B2","batch2","","-1","tol_feedback","","","true","","1000","1000","500","","","","","","-1","none","true","3468","5058","","","","","","","","","",""
