"success","timeout","failed_images","failed_audio","failed_video","trial_type","trial_index","time_elapsed","internal_node_id","subject_id","study_id","session_id","view_history","rt","task","stimulus","response","correct","mouse_click","stim_duration","block_duration","timing_post_trial","current_position","tol_num_moves_made","tol_target","tol_problem_id","tol_rt","key_press","possible_responses","tol_correct","preplanning","tol_rt_per_trial","tol_min_moves","item","answer","spm_correct","spm_rt","fiar_detect_rt","fiar_detect_correct","total_correct_fiar_detect","post_trial_gap","choices"
"true","false","[]","[]","[]","preload","0","1023","0.0-0.0","55b237e6fdf99b19ea79d2f7","B2","batch2","","","","","","","","","","","","","","","","","","","","","","","","","","","","","",""
"true","","","","","fullscreen","1","32676","0.0-1.0-0.0","55b237e6fdf99b19ea79d2f7","B2","batch2","","","","","","","","","","","","","","","","","","","","","","","","","","","","","",""
"true","","","","","fullscreen","2","35547","0.0-2.0-0.0","55b237e6fdf99b19ea79d2f7","B2","batch2","","","","","","","","","","","","","","","","","","","","","","","","","","","","","",""
"","","","","","instructions","3","138871","0.0-2.0-1.0-0.0-0.0","55b237e6fdf99b19ea79d2f7","B2","batch2","[{""page_index"":0,""viewing_time"":11614.300000011921},{""page_index"":1,""viewing_time"":7415.5},{""page_index"":2,""viewing_time"":6767.799999952316},{""page_index"":3,""viewing_time"":14560},{""page_index"":4,""viewing_time"":8767.800000011921},{""page_index"":5,""viewing_time"":50511.30000001192},{""page_index"":6,""viewing_time"":3680}]","103317","tol-instructions","","","","","","","","","","","","","","","","","","","","","","","","","","",""
"","","","","","html-button-response","4","140312","0.0-2.0-1.0-1.0-0.0","55b237e6fdf99b19ea79d2f7","B2","batch2","","1439","tol_enter_quiz","<p class=block-text> Let's answer a few questions <br>","0","","","","","","","","","","","","","","","","","","","","","","","","",""
"","","","","","html-button-response","5","143967","0.0-2.0-1.0-1.0-1.0","55b237e6fdf99b19ea79d2f7","B2","batch2","","3653.399999976158","tol_quiz","<p class = block-text>True or False: You can only move the ball on top of a peg. <br></p>","0","true","","","","","","","","","","","","","","","","","","","","","","","",""
"","","","","","html-button-response","6","145688","0.0-2.0-1.0-1.0-2.0","55b237e6fdf99b19ea79d2f7","B2","batch2","","1717.800000011921","tol_quiz_feedback","<p class = block-text>Correct! You can only move the ball on top of a peg.</p>","0","","","","","","","","","","","","","","","","","","","","","","","","",""
"","","","","","html-button-response","7","148567","0.0-2.0-1.0-1.0-3.0","55b237e6fdf99b19ea79d2f7","B2","batch2","","2878.300000011921","tol_quiz","<p class = block-text>True or False: You should try to match your board with the target board with fewest moves possible. <br></p>","0","true","","","","","","","","","","","","","","","","","","","","","","","",""
"","","","","","html-button-response","8","149783","0.0-2.0-1.0-1.0-4.0","55b237e6fdf99b19ea79d2f7","B2","batch2","","1214.7999999523163","tol_quiz_feedback","<p class = block-text>Correct! </p>","0","","","","","","","","","","","","","","","","","","","","","","","","",""
"","","","","","html-button-response","9","151351","0.0-2.0-2.0","55b237e6fdf99b19ea79d2f7","B2","batch2","","1566.2999999523163","","<p class=block-text> Now that you've understood the game, let's practice a few easier examples before we start!<br> <br>","0","","","","","","","","","","","","","","","","","","","","","","","","",""
"","","","","","single-stim-button","10","156410","0.0-2.0-3.0-0.0","55b237e6fdf99b19ea79d2f7","B2","batch2","","5057","tol_practice","","","","tol_peg_2","5057","5057","0","[[1,2,0],[0,0],[0]]","1","[[1,2,0],[0,0],[3]]","practice","5057","","","","","","","","","","","","","","",""
"","","","","","single-stim-button","11","158103","0.0-2.0-3.0-1.0","55b237e6fdf99b19ea79d2f7","B2","batch2","","1692","tol_practice","","","","tol_peg_3","1692","1692","0","[[1,2,0],[0,0],[3]]","1","[[1,2,0],[0,0],[3]]","practice","1692","","","","","","","","","","","","","","",""
"","","","","","poldrack-single-stim","12","159110","0.0-2.0-4.0","55b237e6fdf99b19ea79d2f7","B2","batch2","","-1","tol_feedback","","","true","","1000","1000","500","","","","","","-1","none","true","","0","","","","","","","","","",""
"","","","","","single-stim-button","13","163231","0.0-2.0-5.0-0.0","55b237e6fdf99b19ea79d2f7","B2","batch2","","4120","tol_practice","","","","tol_peg_1","4120","4120","0","[[1,0,0],[3,0],[0]]","2","[[0,0,0],[3,1],[2]]","practice","4120","","","","","","","","","","","","","","",""
"","","","","","single-stim-button","14","166679","0.0-2.0-5.0-1.0","55b237e6fdf99b19ea79d2f7","B2","batch2","","3447","tol_practice","","","","tol_peg_3","3447","3447","0","[[1,0,0],[3,0],[2]]","2","[[0,0,0],[3,1],[2]]","practice","3447","","","","","","","","","","","","","","",""
"","","","","","single-stim-button","15","169447","0.0-2.0-5.1-0.1","55b237e6fdf99b19ea79d2f7","B2","batch2","","2766","tol_practice","","","","tol_peg_1","2766","2766","0","[[0,0,0],[3,0],[2]]","3","[[0,0,0],[3,1],[2]]","practice","2766","","","","","","","","","","","","","","",""
"","","","","","single-stim-button","16","170535","0.0-2.0-5.1-1.1","55b237e6fdf99b19ea79d2f7","B2","batch2","","1086","tol_practice","","","","tol_peg_2","1086","1086","0","[[0,0,0],[3,1],[2]]","3","[[0,0,0],[3,1],[2]]","practice","1086","","","","","","","","","","","","","","",""
"","","","","","poldrack-single-stim","17","171537","0.0-2.0-6.0","55b237e6fdf99b19ea79d2f7","B2","batch2","","-1","tol_feedback","","","true","","1000","1000","500","","","","","","-1","none","true","","0","","","","","","","","","",""
"","","","","","single-stim-button","18","183250","0.0-2.0-7.0-0.0","55b237e6fdf99b19ea79d2f7","B2","batch2","","11712","tol_practice","","","","tol_peg_1","11712","11712","0","[[1,0,0],[3,0],[0]]","4","[[1,0,0],[2,0],[3]]","practice","11712","","","","","","","","","","","","","","",""
"","","","","","single-stim-button","19","191890","0.0-2.0-7.0-1.0","55b237e6fdf99b19ea79d2f7","B2","batch2","","8638","tol_practice","","","","tol_peg_1","8638","8638","0","[[1,2,0],[3,0],[0]]","4","[[1,0,0],[2,0],[3]]","practice","8638","","","","","","","","","","","","","","",""
"","","","","","single-stim-button","20","194546","0.0-2.0-7.1-0.1","55b237e6fdf99b19ea79d2f7","B2","batch2","","2654","tol_practice","","","","tol_peg_2","2654","2654","0","[[1,2,0],[0,0],[0]]","5","[[1,0,0],[2,0],[3]]","practice","2654","","","","","","","","","","","","","","",""
"","","","","","single-stim-button","21","195954","0.0-2.0-7.1-1.1","55b237e6fdf99b19ea79d2f7","B2","batch2","","1407","tol_practice","","","","tol_peg_3","1407","1407","0","[[1,2,0],[0,0],[3]]","5","[[1,0,0],[2,0],[3]]","practice","1407","","","","","","","","","","","","","","",""
"","","","","","single-stim-button","22","198178","0.0-2.0-7.2-0.2","55b237e6fdf99b19ea79d2f7","B2","batch2","","2223","tol_practice","","","","tol_peg_1","2223","2223","0","[[1,0,0],[0,0],[3]]","6","[[1,0,0],[2,0],[3]]","practice","2223","","","","","","","","","","","","","","",""
"","","","","","single-stim-button","23","199154","0.0-2.0-7.2-1.2","55b237e6fdf99b19ea79d2f7","B2","batch2","","975","tol_practice","","","","tol_peg_2","975","975","0","[[1,0,0],[2,0],[3]]","6","[[1,0,0],[2,0],[3]]","practice","975","","","","","","","","","","","","","","",""
"","","","","","poldrack-single-stim","24","200155","0.0-2.0-8.0","55b237e6fdf99b19ea79d2f7","B2","batch2","","-1","tol_feedback","","","true","","1000","1000","500","","","","","","-1","none","true","","0","","","","","","","","","",""
"","","","","","html-button-response","25","202578","0.0-2.0-9.0","55b237e6fdf99b19ea79d2f7","B2","batch2","","2421.900000035763","tol_instruction","<div class = centerbox><p class = center-block-text>Great job! You are done with practice trials<br>You are about to start official trials.<br> <br> Problem <strong>1</strong> out of 25 problems</p></div>","0","","","","","","","","","","","","","","","","","","","","","","","","",""
"","","","","","single-stim-button","26","210513","0.0-2.0-10.0-0.0","55b237e6fdf99b19ea79d2f7","B2","batch2","","6927","tol_tohand","","","","tol_peg_2","6927","6927","0","[[1,2,0],[0,0],[0]]","1","[[1,3,0],[2,0],[0]]","0","0","","","","","","3","","","","","","","","",""
"","","","","","single-stim-button","27","211585","0.0-2.0-10.0-1.0","55b237e6fdf99b19ea79d2f7","B2","batch2","","1071","tol_toboard","","","","tol_peg_3","1071","1071","0","[[1,2,0],[0,0],[3]]","1","[[1,3,0],[2,0],[0]]","0","0","","","","","","3","","","","","","","","",""
"","","","","","single-stim-button","28","213097","0.0-2.0-10.1-0.1","55b237e6fdf99b19ea79d2f7","B2","batch2","","1511","tol_tohand","","","","tol_peg_1","1511","1511","0","[[1,0,0],[0,0],[3]]","2","[[1,3,0],[2,0],[0]]","0","0","","","","","","3","","","","","","","","",""
"","","","","","single-stim-button","29","214681","0.0-2.0-10.1-1.1","55b237e6fdf99b19ea79d2f7","B2","batch2","","1583","tol_toboard","","","","tol_peg_2","1583","1583","0","[[1,0,0],[2,0],[3]]","2","[[1,3,0],[2,0],[0]]","0","0","","","","","","3","","","","","","","","",""
"","","","","","single-stim-button","30","216273","0.0-2.0-10.2-0.2","55b237e6fdf99b19ea79d2f7","B2","batch2","","1591","tol_tohand","","","","tol_peg_3","1591","1591","0","[[1,0,0],[2,0],[0]]","3","[[1,3,0],[2,0],[0]]","0","0","","","","","","3","","","","","","","","",""
"","","","","","single-stim-button","31","217626","0.0-2.0-10.2-1.2","55b237e6fdf99b19ea79d2f7","B2","batch2","","1351","tol_toboard","","","","tol_peg_1","1351","1351","0","[[1,3,0],[2,0],[0]]","3","[[1,3,0],[2,0],[0]]","0","0","","","","","","3","","","","","","","","",""
"","","","","","poldrack-single-stim","32","218636","0.0-2.0-11.0","55b237e6fdf99b19ea79d2f7","B2","batch2","","-1","tol_feedback","","","true","","1000","1000","500","","","","","","-1","none","true","6927","10029","","","","","","","","","",""
"","","","","","html-button-response","33","219761","0.0-2.0-12.0","55b237e6fdf99b19ea79d2f7","B2","batch2","","1124.5","tol_trial_num","<div class = centerbox><p class = center-block-text>problem <strong>2</strong> out of 25 problems</p></div>","0","","","","","","","","","","","","","","","","","","","","","","","","",""
"","","","","","single-stim-button","34","231057","0.0-2.0-13.0-0.0","55b237e6fdf99b19ea79d2f7","B2","batch2","","11295","tol_tohand","","","","tol_peg_1","11295","11295","0","[[1,0,0],[3,0],[0]]","1","[[2,1,3],[0,0],[0]]","1","0","","","","","","5","","","","","","","","",""
"","","","","","single-stim-button","35","233033","0.0-2.0-13.0-1.0","55b237e6fdf99b19ea79d2f7","B2","batch2","","1975","tol_toboard","","","","tol_peg_3","1975","1975","0","[[1,0,0],[3,0],[2]]","1","[[2,1,3],[0,0],[0]]","1","0","","","","","","5","","","","","","","","",""
"","","","","","single-stim-button","36","252548","0.0-2.0-13.1-0.1","55b237e6fdf99b19ea79d2f7","B2","batch2","","19513","tol_tohand","","","","tol_peg_1","19513","19513","0","[[0,0,0],[3,0],[2]]","2","[[2,1,3],[0,0],[0]]","1","0","","","","","","5","","","","","","","","",""
"","","","","","single-stim-button","37","254124","0.0-2.0-13.1-1.1","55b237e6fdf99b19ea79d2f7","B2","batch2","","1575","tol_toboard","","","","tol_peg_2","1575","1575","0","[[0,0,0],[3,1],[2]]","2","[[2,1,3],[0,0],[0]]","1","0","","","","","","5","","","","","","","","",""
"","","","","","single-stim-button","38","255876","0.0-2.0-13.2-0.2","55b237e6fdf99b19ea79d2f7","B2","batch2","","1750","tol_tohand","","","","tol_peg_3","1750","1750","0","[[0,0,0],[3,1],[0]]","3","[[2,1,3],[0,0],[0]]","1","0","","","","","","5","","","","","","","","",""
"","","","","","single-stim-button","39","256908","0.0-2.0-13.2-1.2","55b237e6fdf99b19ea79d2f7","B2","batch2","","1031","tol_toboard","","","","tol_peg_1","1031","1031","0","[[2,0,0],[3,1],[0]]","3","[[2,1,3],[0,0],[0]]","1","0","","","","","","5","","","","","","","","",""
"","","","","","single-stim-button","40","258732","0.0-2.0-13.3-0.3","55b237e6fdf99b19ea79d2f7","B2","batch2","","1823","tol_tohand","","","","tol_peg_2","1823","1823","0","[[2,0,0],[3,0],[0]]","4","[[2,1,3],[0,0],[0]]","1","0","","","","","","5","","","","","","","","",""
"","","","","","single-stim-button","41","260364","0.0-2.0-13.3-1.3","55b237e6fdf99b19ea79d2f7","B2","batch2","","1631","tol_toboard","","","","tol_peg_1","1631","1631","0","[[2,1,0],[3,0],[0]]","4","[[2,1,3],[0,0],[0]]","1","0","","","","","","5","","","","","","","","",""
"","","","","","single-stim-button","42","261916","0.0-2.0-13.4-0.4","55b237e6fdf99b19ea79d2f7","B2","batch2","","1551","tol_tohand","","","","tol_peg_2","1551","1551","0","[[2,1,0],[0,0],[0]]","5","[[2,1,3],[0,0],[0]]","1","0","","","","","","5","","","","","","","","",""
"","","","","","single-stim-button","43","262732","0.0-2.0-13.4-1.4","55b237e6fdf99b19ea79d2f7","B2","batch2","","815","tol_toboard","","","","tol_peg_1","815","815","0","[[2,1,3],[0,0],[0]]","5","[[2,1,3],[0,0],[0]]","1","0","","","","","","5","","","","","","","","",""
"","","","","","poldrack-single-stim","44","263741","0.0-2.0-14.0","55b237e6fdf99b19ea79d2f7","B2","batch2","","-1","tol_feedback","","","true","","1000","1000","500","","","","","","-1","none","true","11295","35932","","","","","","","","","",""
"","","","","","html-button-response","45","265060","0.0-2.0-15.0","55b237e6fdf99b19ea79d2f7","B2","batch2","","1317.8999999761581","tol_trial_num","<div class = centerbox><p class = center-block-text>problem <strong>3</strong> out of 25 problems</p></div>","0","","","","","","","","","","","","","","","","","","","","","","","","",""
"","","","","","single-stim-button","46","275140","0.0-2.0-16.0-0.0","55b237e6fdf99b19ea79d2f7","B2","batch2","","10079","tol_tohand","","","","tol_peg_1","10079","10079","0","[[2,0,0],[0,0],[1]]","1","[[1,2,0],[3,0],[0]]","2","0","","","","","","4","","","","","","","","",""
"","","","","","single-stim-button","47","276292","0.0-2.0-16.0-1.0","55b237e6fdf99b19ea79d2f7","B2","batch2","","1151","tol_toboard","","","","tol_peg_2","1151","1151","0","[[2,0,0],[3,0],[1]]","1","[[1,2,0],[3,0],[0]]","2","0","","","","","","4","","","","","","","","",""
"","","","","","single-stim-button","48","280220","0.0-2.0-16.1-0.1","55b237e6fdf99b19ea79d2f7","B2","batch2","","3927","tol_tohand","","","","tol_peg_1","3927","3927","0","[[0,0,0],[3,0],[1]]","2","[[1,2,0],[3,0],[0]]","2","0","","","","","","4","","","","","","","","",""
"","","","","","single-stim-button","49","281420","0.0-2.0-16.1-1.1","55b237e6fdf99b19ea79d2f7","B2","batch2","","1199","tol_toboard","","","","tol_peg_2","1199","1199","0","[[0,0,0],[3,2],[1]]","2","[[1,2,0],[3,0],[0]]","2","0","","","","","","4","","","","","","","","",""
"","","","","","single-stim-button","50","283508","0.0-2.0-16.2-0.2","55b237e6fdf99b19ea79d2f7","B2","batch2","","2087","tol_tohand","","","","tol_peg_3","2087","2087","0","[[0,0,0],[3,2],[0]]","3","[[1,2,0],[3,0],[0]]","2","0","","","","","","4","","","","","","","","",""
"","","","","","single-stim-button","51","284508","0.0-2.0-16.2-1.2","55b237e6fdf99b19ea79d2f7","B2","batch2","","999","tol_toboard","","","","tol_peg_1","999","999","0","[[1,0,0],[3,2],[0]]","3","[[1,2,0],[3,0],[0]]","2","0","","","","","","4","","","","","","","","",""
"","","","","","single-stim-button","52","285692","0.0-2.0-16.3-0.3","55b237e6fdf99b19ea79d2f7","B2","batch2","","1183","tol_tohand","","","","tol_peg_2","1183","1183","0","[[1,0,0],[3,0],[0]]","4","[[1,2,0],[3,0],[0]]","2","0","","","","","","4","","","","","","","","",""
"","","","","","single-stim-button","53","286628","0.0-2.0-16.3-1.3","55b237e6fdf99b19ea79d2f7","B2","batch2","","935","tol_toboard","","","","tol_peg_1","935","935","0","[[1,2,0],[3,0],[0]]","4","[[1,2,0],[3,0],[0]]","2","0","","","","","","4","","","","","","","","",""
"","","","","","poldrack-single-stim","54","287629","0.0-2.0-17.0","55b237e6fdf99b19ea79d2f7","B2","batch2","","-1","tol_feedback","","","true","","1000","1000","500","","","","","","-1","none","true","10079","17276","","","","","","","","","",""
"","","","","","html-button-response","55","288627","0.0-2.0-18.0","55b237e6fdf99b19ea79d2f7","B2","batch2","","997.6999999880791","tol_trial_num","<div class = centerbox><p class = center-block-text>problem <strong>4</strong> out of 25 problems</p></div>","0","","","","","","","","","","","","","","","","","","","","","","","","",""
"","","","","","single-stim-button","56","293675","0.0-2.0-19.0-0.0","55b237e6fdf99b19ea79d2f7","B2","batch2","","5047","tol_tohand","","","","tol_peg_2","5047","5047","0","[[3,0,0],[2,0],[0]]","1","[[3,0,0],[1,0],[2]]","3","0","","","","","","3","","","","","","","","",""
"","","","","","single-stim-button","57","295020","0.0-2.0-19.0-1.0","55b237e6fdf99b19ea79d2f7","B2","batch2","","1343","tol_toboard","","","","tol_peg_1","1343","1343","0","[[3,1,0],[2,0],[0]]","1","[[3,0,0],[1,0],[2]]","3","0","","","","","","3","","","","","","","","",""
"","","","","","single-stim-button","58","295939","0.0-2.0-19.1-0.1","55b237e6fdf99b19ea79d2f7","B2","batch2","","919","tol_tohand","","","","tol_peg_2","919","919","0","[[3,1,0],[0,0],[0]]","2","[[3,0,0],[1,0],[2]]","3","0","","","","","","3","","","","","","","","",""
"","","","","","single-stim-button","59","297196","0.0-2.0-19.1-1.1","55b237e6fdf99b19ea79d2f7","B2","batch2","","1255","tol_toboard","","","","tol_peg_3","1255","1255","0","[[3,1,0],[0,0],[2]]","2","[[3,0,0],[1,0],[2]]","3","0","","","","","","3","","","","","","","","",""
"","","","","","single-stim-button","60","298819","0.0-2.0-19.2-0.2","55b237e6fdf99b19ea79d2f7","B2","batch2","","1623","tol_tohand","","","","tol_peg_1","1623","1623","0","[[3,0,0],[0,0],[2]]","3","[[3,0,0],[1,0],[2]]","3","0","","","","","","3","","","","","","","","",""
"","","","","","single-stim-button","61","299678","0.0-2.0-19.2-1.2","55b237e6fdf99b19ea79d2f7","B2","batch2","","858","tol_toboard","","","","tol_peg_2","858","858","0","[[3,0,0],[1,0],[2]]","3","[[3,0,0],[1,0],[2]]","3","0","","","","","","3","","","","","","","","",""
"","","","","","poldrack-single-stim","62","300680","0.0-2.0-20.0","55b237e6fdf99b19ea79d2f7","B2","batch2","","-1","tol_feedback","","","true","","1000","1000","500","","","","","","-1","none","true","5047","7589","","","","","","","","","",""
"","","","","","html-button-response","63","301782","0.0-2.0-21.0","55b237e6fdf99b19ea79d2f7","B2","batch2","","1100.800000011921","tol_trial_num","<div class = centerbox><p class = center-block-text>problem <strong>5</strong> out of 25 problems</p></div>","0","","","","","","","","","","","","","","","","","","","","","","","","",""
"","","","","","single-stim-button","64","324614","0.0-2.0-22.0-0.0","55b237e6fdf99b19ea79d2f7","B2","batch2","","22830","tol_tohand","","","","tol_peg_3","22830","22830","0","[[1,0,0],[2,0],[0]]","1","[[0,0,0],[1,2],[3]]","4","0","","","","","","7","","","","","","","","",""
"","","","","","single-stim-button","65","330166","0.0-2.0-22.0-1.0","55b237e6fdf99b19ea79d2f7","B2","batch2","","5551","tol_toboard","","","","tol_peg_1","5551","5551","0","[[1,3,0],[2,0],[0]]","1","[[0,0,0],[1,2],[3]]","4","0","","","","","","7","","","","","","","","",""
"","","","","","single-stim-button","66","332910","0.0-2.0-22.1-0.1","55b237e6fdf99b19ea79d2f7","B2","batch2","","2742","tol_tohand","","","","tol_peg_2","2742","2742","0","[[1,3,0],[0,0],[0]]","2","[[0,0,0],[1,2],[3]]","4","0","","","","","","7","","","","","","","","",""
"","","","","","single-stim-button","67","333806","0.0-2.0-22.1-1.1","55b237e6fdf99b19ea79d2f7","B2","batch2","","895","tol_toboard","","","","tol_peg_3","895","895","0","[[1,3,0],[0,0],[2]]","2","[[0,0,0],[1,2],[3]]","4","0","","","","","","7","","","","","","","","",""
"","","","","","single-stim-button","68","344430","0.0-2.0-22.2-0.2","55b237e6fdf99b19ea79d2f7","B2","batch2","","10623","tol_tohand","","","","tol_peg_3","10623","10623","0","[[1,3,0],[0,0],[0]]","3","[[0,0,0],[1,2],[3]]","4","0","","","","","","7","","","","","","","","",""
"","","","","","single-stim-button","69","347838","0.0-2.0-22.2-1.2","55b237e6fdf99b19ea79d2f7","B2","batch2","","3406","tol_toboard","","","","tol_peg_2","3406","3406","0","[[1,3,0],[2,0],[0]]","3","[[0,0,0],[1,2],[3]]","4","0","","","","","","7","","","","","","","","",""
"","","","","","single-stim-button","70","361513","0.0-2.0-22.3-0.3","55b237e6fdf99b19ea79d2f7","B2","batch2","","13675","tol_tohand","","","","tol_peg_1","13675","13675","0","[[1,0,0],[2,0],[0]]","4","[[0,0,0],[1,2],[3]]","4","0","","","","","","7","","","","","","","","",""
"","","","","","single-stim-button","71","362649","0.0-2.0-22.3-1.3","55b237e6fdf99b19ea79d2f7","B2","batch2","","1135","tol_toboard","","","","tol_peg_3","1135","1135","0","[[1,0,0],[2,0],[3]]","4","[[0,0,0],[1,2],[3]]","4","0","","","","","","7","","","","","","","","",""
"","","","","","single-stim-button","72","367897","0.0-2.0-22.4-0.4","55b237e6fdf99b19ea79d2f7","B2","batch2","","5246","tol_tohand","","","","tol_peg_1","5246","5246","0","[[0,0,0],[2,0],[3]]","5","[[0,0,0],[1,2],[3]]","4","0","","","","","","7","","","","","","","","",""
"","","","","","single-stim-button","73","369585","0.0-2.0-22.4-1.4","55b237e6fdf99b19ea79d2f7","B2","batch2","","1687","tol_toboard","","","","tol_peg_2","1687","1687","0","[[0,0,0],[2,1],[3]]","5","[[0,0,0],[1,2],[3]]","4","0","","","","","","7","","","","","","","","",""
"","","","","","single-stim-button","74","370825","0.0-2.0-22.5-0.5","55b237e6fdf99b19ea79d2f7","B2","batch2","","1239","tol_tohand","","","","tol_peg_3","1239","1239","0","[[0,0,0],[2,1],[0]]","6","[[0,0,0],[1,2],[3]]","4","0","","","","","","7","","","","","","","","",""
"","","","","","single-stim-button","75","372465","0.0-2.0-22.5-1.5","55b237e6fdf99b19ea79d2f7","B2","batch2","","1639","tol_toboard","","","","tol_peg_1","1639","1639","0","[[3,0,0],[2,1],[0]]","6","[[0,0,0],[1,2],[3]]","4","0","","","","","","7","","","","","","","","",""
"","","","","","single-stim-button","76","375129","0.0-2.0-22.6-0.6","55b237e6fdf99b19ea79d2f7","B2","batch2","","2664","tol_tohand","","","","tol_peg_2","2664","2664","0","[[3,0,0],[2,0],[0]]","7","[[0,0,0],[1,2],[3]]","4","0","","","","","","7","","","","","","","","",""
"","","","","","single-stim-button","77","375929","0.0-2.0-22.6-1.6","55b237e6fdf99b19ea79d2f7","B2","batch2","","799","tol_toboard","","","","tol_peg_3","799","799","0","[[3,0,0],[2,0],[1]]","7","[[0,0,0],[1,2],[3]]","4","0","","","","","","7","","","","","","","","",""
"","","","","","single-stim-button","78","381721","0.0-2.0-22.7-0.7","55b237e6fdf99b19ea79d2f7","B2","batch2","","5791","tol_tohand","","","","tol_peg_2","5791","5791","0","[[3,0,0],[0,0],[1]]","8","[[0,0,0],[1,2],[3]]","4","0","","","","","","7","","","","","","","","",""
"","","","","","single-stim-button","79","382537","0.0-2.0-22.7-1.7","55b237e6fdf99b19ea79d2f7","B2","batch2","","815","tol_toboard","","","","tol_peg_1","815","815","0","[[3,2,0],[0,0],[1]]","8","[[0,0,0],[1,2],[3]]","4","0","","","","","","7","","","","","","","","",""
"","","","","","single-stim-button","80","383929","0.0-2.0-22.8-0.8","55b237e6fdf99b19ea79d2f7","B2","batch2","","1391","tol_tohand","","","","tol_peg_3","1391","1391","0","[[3,2,0],[0,0],[0]]","9","[[0,0,0],[1,2],[3]]","4","0","","","","","","7","","","","","","","","",""
"","","","","","single-stim-button","81","384849","0.0-2.0-22.8-1.8","55b237e6fdf99b19ea79d2f7","B2","batch2","","919","tol_toboard","","","","tol_peg_2","919","919","0","[[3,2,0],[1,0],[0]]","9","[[0,0,0],[1,2],[3]]","4","0","","","","","","7","","","","","","","","",""
"","","","","","single-stim-button","82","385681","0.0-2.0-22.9-0.9","55b237e6fdf99b19ea79d2f7","B2","batch2","","831","tol_tohand","","","","tol_peg_1","831","831","0","[[3,0,0],[1,0],[0]]","10","[[0,0,0],[1,2],[3]]","4","0","","","","","","7","","","","","","","","",""
"","","","","","single-stim-button","83","386393","0.0-2.0-22.9-1.9","55b237e6fdf99b19ea79d2f7","B2","batch2","","711","tol_toboard","","","","tol_peg_2","711","711","0","[[3,0,0],[1,2],[0]]","10","[[0,0,0],[1,2],[3]]","4","0","","","","","","7","","","","","","","","",""
"","","","","","single-stim-button","84","387753","0.0-2.0-22.10-0.10","55b237e6fdf99b19ea79d2f7","B2","batch2","","1359","tol_tohand","","","","tol_peg_1","1359","1359","0","[[0,0,0],[1,2],[0]]","11","[[0,0,0],[1,2],[3]]","4","0","","","","","","7","","","","","","","","",""
"","","","","","single-stim-button","85","388905","0.0-2.0-22.10-1.10","55b237e6fdf99b19ea79d2f7","B2","batch2","","1151","tol_toboard","","","","tol_peg_3","1151","1151","0","[[0,0,0],[1,2],[3]]","11","[[0,0,0],[1,2],[3]]","4","0","","","","","","7","","","","","","","","",""
"","","","","","poldrack-single-stim","86","389909","0.0-2.0-23.0","55b237e6fdf99b19ea79d2f7","B2","batch2","","-1","tol_feedback","","","true","","1000","1000","500","","","","","","-1","none","true","22830","68391","","","","","","","","","",""
"","","","","","html-button-response","87","391089","0.0-2.0-24.0","55b237e6fdf99b19ea79d2f7","B2","batch2","","1178.5999999642372","tol_trial_num","<div class = centerbox><p class = center-block-text>problem <strong>6</strong> out of 25 problems</p></div>","0","","","","","","","","","","","","","","","","","","","","","","","","",""
"","","","","","single-stim-button","88","404937","0.0-2.0-25.0-0.0","55b237e6fdf99b19ea79d2f7","B2","batch2","","13847","tol_tohand","","","","tol_peg_2","13847","13847","0","[[0,0,0],[1,0],[3]]","1","[[1,0,0],[2,3],[0]]","5","0","","","","","","6","","","","","","","","",""
"","","","","","single-stim-button","89","406225","0.0-2.0-25.0-1.0","55b237e6fdf99b19ea79d2f7","B2","batch2","","1287","tol_toboard","","","","tol_peg_1","1287","1287","0","[[2,0,0],[1,0],[3]]","1","[[1,0,0],[2,3],[0]]","5","0","","","","","","6","","","","","","","","",""
"","","","","","single-stim-button","90","418008","0.0-2.0-25.1-0.1","55b237e6fdf99b19ea79d2f7","B2","batch2","","11783","tol_tohand","","","","tol_peg_3","11783","11783","0","[[2,0,0],[1,0],[0]]","2","[[1,0,0],[2,3],[0]]","5","0","","","","","","6","","","","","","","","",""
"","","","","","single-stim-button","91","419120","0.0-2.0-25.1-1.1","55b237e6fdf99b19ea79d2f7","B2","batch2","","1111","tol_toboard","","","","tol_peg_1","1111","1111","0","[[2,3,0],[1,0],[0]]","2","[[1,0,0],[2,3],[0]]","5","0","","","","","","6","","","","","","","","",""
"","","","","","single-stim-button","92","419936","0.0-2.0-25.2-0.2","55b237e6fdf99b19ea79d2f7","B2","batch2","","815","tol_tohand","","","","tol_peg_2","815","815","0","[[2,3,0],[0,0],[0]]","3","[[1,0,0],[2,3],[0]]","5","0","","","","","","6","","","","","","","","",""
"","","","","","single-stim-button","93","420928","0.0-2.0-25.2-1.2","55b237e6fdf99b19ea79d2f7","B2","batch2","","991","tol_toboard","","","","tol_peg_3","991","991","0","[[2,3,0],[0,0],[1]]","3","[[1,0,0],[2,3],[0]]","5","0","","","","","","6","","","","","","","","",""
"","","","","","single-stim-button","94","427811","0.0-2.0-25.3-0.3","55b237e6fdf99b19ea79d2f7","B2","batch2","","6883","tol_tohand","","","","tol_peg_1","6883","6883","0","[[2,0,0],[0,0],[1]]","4","[[1,0,0],[2,3],[0]]","5","0","","","","","","6","","","","","","","","",""
"","","","","","single-stim-button","95","428811","0.0-2.0-25.3-1.3","55b237e6fdf99b19ea79d2f7","B2","batch2","","999","tol_toboard","","","","tol_peg_2","999","999","0","[[2,0,0],[3,0],[1]]","4","[[1,0,0],[2,3],[0]]","5","0","","","","","","6","","","","","","","","",""
"","","","","","single-stim-button","96","431835","0.0-2.0-25.4-0.4","55b237e6fdf99b19ea79d2f7","B2","batch2","","3023","tol_tohand","","","","tol_peg_1","3023","3023","0","[[0,0,0],[3,0],[1]]","5","[[1,0,0],[2,3],[0]]","5","0","","","","","","6","","","","","","","","",""
"","","","","","single-stim-button","97","432819","0.0-2.0-25.4-1.4","55b237e6fdf99b19ea79d2f7","B2","batch2","","984","tol_toboard","","","","tol_peg_2","984","984","0","[[0,0,0],[3,2],[1]]","5","[[1,0,0],[2,3],[0]]","5","0","","","","","","6","","","","","","","","",""
"","","","","","single-stim-button","98","433547","0.0-2.0-25.5-0.5","55b237e6fdf99b19ea79d2f7","B2","batch2","","727","tol_tohand","","","","tol_peg_3","727","727","0","[[0,0,0],[3,2],[0]]","6","[[1,0,0],[2,3],[0]]","5","0","","","","","","6","","","","","","","","",""
"","","","","","single-stim-button","99","434555","0.0-2.0-25.5-1.5","55b237e6fdf99b19ea79d2f7","B2","batch2","","1007","tol_toboard","","","","tol_peg_1","1007","1007","0","[[1,0,0],[3,2],[0]]","6","[[1,0,0],[2,3],[0]]","5","0","","","","","","6","","","","","","","","",""
"","","","","","single-stim-button","100","436075","0.0-2.0-25.6-0.6","55b237e6fdf99b19ea79d2f7","B2","batch2","","1519","tol_tohand","","","","tol_peg_2","1519","1519","0","[[1,0,0],[3,0],[0]]","7","[[1,0,0],[2,3],[0]]","5","0","","","","","","6","","","","","","","","",""
"","","","","","single-stim-button","101","437043","0.0-2.0-25.6-1.6","55b237e6fdf99b19ea79d2f7","B2","batch2","","968","tol_toboard","","","","tol_peg_3","968","968","0","[[1,0,0],[3,0],[2]]","7","[[1,0,0],[2,3],[0]]","5","0","","","","","","6","","","","","","","","",""
"","","","","","single-stim-button","102","437795","0.0-2.0-25.7-0.7","55b237e6fdf99b19ea79d2f7","B2","batch2","","751","tol_tohand","","","","tol_peg_2","751","751","0","[[1,0,0],[0,0],[2]]","8","[[1,0,0],[2,3],[0]]","5","0","","","","","","6","","","","","","","","",""
"","","","","","single-stim-button","103","439603","0.0-2.0-25.7-1.7","55b237e6fdf99b19ea79d2f7","B2","batch2","","1807","tol_toboard","","","","tol_peg_1","1807","1807","0","[[1,3,0],[0,0],[2]]","8","[[1,0,0],[2,3],[0]]","5","0","","","","","","6","","","","","","","","",""
"","","","","","single-stim-button","104","440379","0.0-2.0-25.8-0.8","55b237e6fdf99b19ea79d2f7","B2","batch2","","776","tol_tohand","","","","tol_peg_3","776","776","0","[[1,3,0],[0,0],[0]]","9","[[1,0,0],[2,3],[0]]","5","0","","","","","","6","","","","","","","","",""
"","","","","","single-stim-button","105","441091","0.0-2.0-25.8-1.8","55b237e6fdf99b19ea79d2f7","B2","batch2","","711","tol_toboard","","","","tol_peg_2","711","711","0","[[1,3,0],[2,0],[0]]","9","[[1,0,0],[2,3],[0]]","5","0","","","","","","6","","","","","","","","",""
"","","","","","single-stim-button","106","442227","0.0-2.0-25.9-0.9","55b237e6fdf99b19ea79d2f7","B2","batch2","","1135","tol_tohand","","","","tol_peg_1","1135","1135","0","[[1,0,0],[2,0],[0]]","10","[[1,0,0],[2,3],[0]]","5","0","","","","","","6","","","","","","","","",""
"","","","","","single-stim-button","107","442971","0.0-2.0-25.9-1.9","55b237e6fdf99b19ea79d2f7","B2","batch2","","744","tol_toboard","","","","tol_peg_2","744","744","0","[[1,0,0],[2,3],[0]]","10","[[1,0,0],[2,3],[0]]","5","0","","","","","","6","","","","","","","","",""
"","","","","","poldrack-single-stim","108","443973","0.0-2.0-26.0","55b237e6fdf99b19ea79d2f7","B2","batch2","","-1","tol_feedback","","","true","","1000","1000","500","","","","","","-1","none","true","13847","41259","","","","","","","","","",""
"","","","","","html-button-response","109","445195","0.0-2.0-27.0","55b237e6fdf99b19ea79d2f7","B2","batch2","","1220.8999999761581","tol_trial_num","<div class = centerbox><p class = center-block-text>problem <strong>7</strong> out of 25 problems</p></div>","0","","","","","","","","","","","","","","","","","","","","","","","","",""
"","","","","","single-stim-button","110","450643","0.0-2.0-28.0-0.0","55b237e6fdf99b19ea79d2f7","B2","batch2","","5447","tol_tohand","","","","tol_peg_3","5447","5447","0","[[2,1,0],[0,0],[0]]","1","[[1,2,0],[3,0],[0]]","6","0","","","","","","5","","","","","","","","",""
"","","","","","single-stim-button","111","451475","0.0-2.0-28.0-1.0","55b237e6fdf99b19ea79d2f7","B2","batch2","","831","tol_toboard","","","","tol_peg_2","831","831","0","[[2,1,0],[3,0],[0]]","1","[[1,2,0],[3,0],[0]]","6","0","","","","","","5","","","","","","","","",""
"","","","","","single-stim-button","112","454411","0.0-2.0-28.1-0.1","55b237e6fdf99b19ea79d2f7","B2","batch2","","2935","tol_tohand","","","","tol_peg_1","2935","2935","0","[[2,0,0],[3,0],[0]]","2","[[1,2,0],[3,0],[0]]","6","0","","","","","","5","","","","","","","","",""
"","","","","","single-stim-button","113","455531","0.0-2.0-28.1-1.1","55b237e6fdf99b19ea79d2f7","B2","batch2","","1119","tol_toboard","","","","tol_peg_3","1119","1119","0","[[2,0,0],[3,0],[1]]","2","[[1,2,0],[3,0],[0]]","6","0","","","","","","5","","","","","","","","",""
"","","","","","single-stim-button","114","456643","0.0-2.0-28.2-0.2","55b237e6fdf99b19ea79d2f7","B2","batch2","","1111","tol_tohand","","","","tol_peg_1","1111","1111","0","[[0,0,0],[3,0],[1]]","3","[[1,2,0],[3,0],[0]]","6","0","","","","","","5","","","","","","","","",""
"","","","","","single-stim-button","115","457339","0.0-2.0-28.2-1.2","55b237e6fdf99b19ea79d2f7","B2","batch2","","695","tol_toboard","","","","tol_peg_2","695","695","0","[[0,0,0],[3,2],[1]]","3","[[1,2,0],[3,0],[0]]","6","0","","","","","","5","","","","","","","","",""
"","","","","","single-stim-button","116","457979","0.0-2.0-28.3-0.3","55b237e6fdf99b19ea79d2f7","B2","batch2","","639","tol_tohand","","","","tol_peg_3","639","639","0","[[0,0,0],[3,2],[0]]","4","[[1,2,0],[3,0],[0]]","6","0","","","","","","5","","","","","","","","",""
"","","","","","single-stim-button","117","458779","0.0-2.0-28.3-1.3","55b237e6fdf99b19ea79d2f7","B2","batch2","","799","tol_toboard","","","","tol_peg_1","799","799","0","[[1,0,0],[3,2],[0]]","4","[[1,2,0],[3,0],[0]]","6","0","","","","","","5","","","","","","","","",""
"","","","","","single-stim-button","118","459667","0.0-2.0-28.4-0.4","55b237e6fdf99b19ea79d2f7","B2","batch2","","887","tol_tohand","","","","tol_peg_2","887","887","0","[[1,0,0],[3,0],[0]]","5","[[1,2,0],[3,0],[0]]","6","0","","","","","","5","","","","","","","","",""
"","","","","","single-stim-button","119","460579","0.0-2.0-28.4-1.4","55b237e6fdf99b19ea79d2f7","B2","batch2","","911","tol_toboard","","","","tol_peg_1","911","911","0","[[1,2,0],[3,0],[0]]","5","[[1,2,0],[3,0],[0]]","6","0","","","","","","5","","","","","","","","",""
"","","","","","poldrack-single-stim","120","461589","0.0-2.0-29.0","55b237e6fdf99b19ea79d2f7","B2","batch2","","-1","tol_feedback","","","true","","1000","1000","500","","","","","","-1","none","true","5447","11019","","","","","","","","","",""
"","","","","","html-button-response","121","462922","0.0-2.0-30.0","55b237e6fdf99b19ea79d2f7","B2","batch2","","1333.199999988079","tol_trial_num","<div class = centerbox><p class = center-block-text>problem <strong>8</strong> out of 25 problems</p></div>","0","","","","","","","","","","","","","","","","","","","","","","","","",""
"","","","","","single-stim-button","122","467547","0.0-2.0-31.0-0.0","55b237e6fdf99b19ea79d2f7","B2","batch2","","4623","tol_tohand","","","","tol_peg_3","4623","4623","0","[[0,0,0],[2,3],[0]]","1","[[1,2,0],[3,0],[0]]","7","0","","","","","","4","","","","","","","","",""
"","","","","","single-stim-button","123","469251","0.0-2.0-31.0-1.0","55b237e6fdf99b19ea79d2f7","B2","batch2","","1703","tol_toboard","","","","tol_peg_1","1703","1703","0","[[1,0,0],[2,3],[0]]","1","[[1,2,0],[3,0],[0]]","7","0","","","","","","4","","","","","","","","",""
"","","","","","single-stim-button","124","471371","0.0-2.0-31.1-0.1","55b237e6fdf99b19ea79d2f7","B2","batch2","","2120","tol_tohand","","","","tol_peg_2","2120","2120","0","[[1,0,0],[2,0],[0]]","2","[[1,2,0],[3,0],[0]]","7","0","","","","","","4","","","","","","","","",""
"","","","","","single-stim-button","125","472171","0.0-2.0-31.1-1.1","55b237e6fdf99b19ea79d2f7","B2","batch2","","798","tol_toboard","","","","tol_peg_3","798","798","0","[[1,0,0],[2,0],[3]]","2","[[1,2,0],[3,0],[0]]","7","0","","","","","","4","","","","","","","","",""
"","","","","","single-stim-button","126","473323","0.0-2.0-31.2-0.2","55b237e6fdf99b19ea79d2f7","B2","batch2","","1151","tol_tohand","","","","tol_peg_2","1151","1151","0","[[1,0,0],[0,0],[3]]","3","[[1,2,0],[3,0],[0]]","7","0","","","","","","4","","","","","","","","",""
"","","","","","single-stim-button","127","474611","0.0-2.0-31.2-1.2","55b237e6fdf99b19ea79d2f7","B2","batch2","","1287","tol_toboard","","","","tol_peg_1","1287","1287","0","[[1,2,0],[0,0],[3]]","3","[[1,2,0],[3,0],[0]]","7","0","","","","","","4","","","","","","","","",""
"","","","","","single-stim-button","128","475403","0.0-2.0-31.3-0.3","55b237e6fdf99b19ea79d2f7","B2","batch2","","791","tol_tohand","","","","tol_peg_3","791","791","0","[[1,2,0],[0,0],[0]]","4","[[1,2,0],[3,0],[0]]","7","0","","","","","","4","","","","","","","","",""
"","","","","","single-stim-button","129","476235","0.0-2.0-31.3-1.3","55b237e6fdf99b19ea79d2f7","B2","batch2","","831","tol_toboard","","","","tol_peg_2","831","831","0","[[1,2,0],[3,0],[0]]","4","[[1,2,0],[3,0],[0]]","7","0","","","","","","4","","","","","","","","",""
"","","","","","poldrack-single-stim","130","477236","0.0-2.0-32.0","55b237e6fdf99b19ea79d2f7","B2","batch2","","-1","tol_feedback","","","true","","1000","1000","500","","","","","","-1","none","true","4623","8685","","","","","","","","","",""
"","","","","","html-button-response","131","478322","0.0-2.0-33.0","55b237e6fdf99b19ea79d2f7","B2","batch2","","1085.5","tol_trial_num","<div class = centerbox><p class = center-block-text>problem <strong>9</strong> out of 25 problems</p></div>","0","","","","","","","","","","","","","","","","","","","","","","","","",""
"","","","","","single-stim-button","132","487590","0.0-2.0-34.0-0.0","55b237e6fdf99b19ea79d2f7","B2","batch2","","9266","tol_tohand","","","","tol_peg_1","9266","9266","0","[[3,0,0],[0,0],[1]]","1","[[2,1,0],[3,0],[0]]","8","0","","","","","","6","","","","","","","","",""
"","","","","","single-stim-button","133","488494","0.0-2.0-34.0-1.0","55b237e6fdf99b19ea79d2f7","B2","batch2","","902","tol_toboard","","","","tol_peg_2","902","902","0","[[3,0,0],[2,0],[1]]","1","[[2,1,0],[3,0],[0]]","8","0","","","","","","6","","","","","","","","",""
"","","","","","single-stim-button","134","489830","0.0-2.0-34.1-0.1","55b237e6fdf99b19ea79d2f7","B2","batch2","","1335","tol_tohand","","","","tol_peg_1","1335","1335","0","[[0,0,0],[2,0],[1]]","2","[[2,1,0],[3,0],[0]]","8","0","","","","","","6","","","","","","","","",""
"","","","","","single-stim-button","135","497454","0.0-2.0-34.1-1.1","55b237e6fdf99b19ea79d2f7","B2","batch2","","7623","tol_toboard","","","","tol_peg_2","7623","7623","0","[[0,0,0],[2,3],[1]]","2","[[2,1,0],[3,0],[0]]","8","0","","","","","","6","","","","","","","","",""
"","","","","","single-stim-button","136","505350","0.0-2.0-34.2-0.2","55b237e6fdf99b19ea79d2f7","B2","batch2","","7895","tol_tohand","","","","tol_peg_3","7895","7895","0","[[0,0,0],[2,3],[0]]","3","[[2,1,0],[3,0],[0]]","8","0","","","","","","6","","","","","","","","",""
"","","","","","single-stim-button","137","507702","0.0-2.0-34.2-1.2","55b237e6fdf99b19ea79d2f7","B2","batch2","","2351","tol_toboard","","","","tol_peg_1","2351","2351","0","[[1,0,0],[2,3],[0]]","3","[[2,1,0],[3,0],[0]]","8","0","","","","","","6","","","","","","","","",""
"","","","","","single-stim-button","138","509149","0.0-2.0-34.3-0.3","55b237e6fdf99b19ea79d2f7","B2","batch2","","1447","tol_tohand","","","","tol_peg_2","1447","1447","0","[[1,0,0],[2,0],[0]]","4","[[2,1,0],[3,0],[0]]","8","0","","","","","","6","","","","","","","","",""
"","","","","","single-stim-button","139","510085","0.0-2.0-34.3-1.3","55b237e6fdf99b19ea79d2f7","B2","batch2","","935","tol_toboard","","","","tol_peg_3","935","935","0","[[1,0,0],[2,0],[3]]","4","[[2,1,0],[3,0],[0]]","8","0","","","","","","6","","","","","","","","",""
"","","","","","single-stim-button","140","511717","0.0-2.0-34.4-0.4","55b237e6fdf99b19ea79d2f7","B2","batch2","","1631","tol_tohand","","","","tol_peg_1","1631","1631","0","[[0,0,0],[2,0],[3]]","5","[[2,1,0],[3,0],[0]]","8","0","","","","","","6","","","","","","","","",""
"","","","","","single-stim-button","141","512429","0.0-2.0-34.4-1.4","55b237e6fdf99b19ea79d2f7","B2","batch2","","711","tol_toboard","","","","tol_peg_2","711","711","0","[[0,0,0],[2,1],[3]]","5","[[2,1,0],[3,0],[0]]","8","0","","","","","","6","","","","","","","","",""
"","","","","","single-stim-button","142","520661","0.0-2.0-34.5-0.5","55b237e6fdf99b19ea79d2f7","B2","batch2","","8231","tol_tohand","","","","tol_peg_2","8231","8231","0","[[0,0,0],[2,0],[3]]","6","[[2,1,0],[3,0],[0]]","8","0","","","","","","6","","","","","","","","",""
"","","","","","single-stim-button","143","521517","0.0-2.0-34.5-1.5","55b237e6fdf99b19ea79d2f7","B2","batch2","","855","tol_toboard","","","","tol_peg_1","855","855","0","[[1,0,0],[2,0],[3]]","6","[[2,1,0],[3,0],[0]]","8","0","","","","","","6","","","","","","","","",""
"","","","","","single-stim-button","144","522685","0.0-2.0-34.6-0.6","55b237e6fdf99b19ea79d2f7","B2","batch2","","1167","tol_tohand","","","","tol_peg_2","1167","1167","0","[[1,0,0],[0,0],[3]]","7","[[2,1,0],[3,0],[0]]","8","0","","","","","","6","","","","","","","","",""
"","","","","","single-stim-button","145","523445","0.0-2.0-34.6-1.6","55b237e6fdf99b19ea79d2f7","B2","batch2","","759","tol_toboard","","","","tol_peg_1","759","759","0","[[1,2,0],[0,0],[3]]","7","[[2,1,0],[3,0],[0]]","8","0","","","","","","6","","","","","","","","",""
"","","","","","single-stim-button","146","526381","0.0-2.0-34.7-0.7","55b237e6fdf99b19ea79d2f7","B2","batch2","","2935","tol_tohand","","","","tol_peg_3","2935","2935","0","[[1,2,0],[0,0],[0]]","8","[[2,1,0],[3,0],[0]]","8","0","","","","","","6","","","","","","","","",""
"","","","","","single-stim-button","147","527973","0.0-2.0-34.7-1.7","55b237e6fdf99b19ea79d2f7","B2","batch2","","1591","tol_toboard","","","","tol_peg_2","1591","1591","0","[[1,2,0],[3,0],[0]]","8","[[2,1,0],[3,0],[0]]","8","0","","","","","","6","","","","","","","","",""
"","","","","","single-stim-button","148","530669","0.0-2.0-34.8-0.8","55b237e6fdf99b19ea79d2f7","B2","batch2","","2695","tol_tohand","","","","tol_peg_1","2695","2695","0","[[1,0,0],[3,0],[0]]","9","[[2,1,0],[3,0],[0]]","8","0","","","","","","6","","","","","","","","",""
"","","","","","single-stim-button","149","532253","0.0-2.0-34.8-1.8","55b237e6fdf99b19ea79d2f7","B2","batch2","","1583","tol_toboard","","","","tol_peg_3","1583","1583","0","[[1,0,0],[3,0],[2]]","9","[[2,1,0],[3,0],[0]]","8","0","","","","","","6","","","","","","","","",""
"","","","","","single-stim-button","150","533861","0.0-2.0-34.9-0.9","55b237e6fdf99b19ea79d2f7","B2","batch2","","1607","tol_tohand","","","","tol_peg_1","1607","1607","0","[[0,0,0],[3,0],[2]]","10","[[2,1,0],[3,0],[0]]","8","0","","","","","","6","","","","","","","","",""
"","","","","","single-stim-button","151","534533","0.0-2.0-34.9-1.9","55b237e6fdf99b19ea79d2f7","B2","batch2","","672","tol_toboard","","","","tol_peg_2","672","672","0","[[0,0,0],[3,1],[2]]","10","[[2,1,0],[3,0],[0]]","8","0","","","","","","6","","","","","","","","",""
"","","","","","single-stim-button","152","535693","0.0-2.0-34.10-0.10","55b237e6fdf99b19ea79d2f7","B2","batch2","","1159","tol_tohand","","","","tol_peg_3","1159","1159","0","[[0,0,0],[3,1],[0]]","11","[[2,1,0],[3,0],[0]]","8","0","","","","","","6","","","","","","","","",""
"","","","","","single-stim-button","153","536853","0.0-2.0-34.10-1.10","55b237e6fdf99b19ea79d2f7","B2","batch2","","1160","tol_toboard","","","","tol_peg_1","1160","1160","0","[[2,0,0],[3,1],[0]]","11","[[2,1,0],[3,0],[0]]","8","0","","","","","","6","","","","","","","","",""
"","","","","","single-stim-button","154","537533","0.0-2.0-34.11-0.11","55b237e6fdf99b19ea79d2f7","B2","batch2","","680","tol_tohand","","","","tol_peg_2","680","680","0","[[2,0,0],[3,0],[0]]","12","[[2,1,0],[3,0],[0]]","8","0","","","","","","6","","","","","","","","",""
"","","","","","single-stim-button","155","538269","0.0-2.0-34.11-1.11","55b237e6fdf99b19ea79d2f7","B2","batch2","","736","tol_toboard","","","","tol_peg_1","736","736","0","[[2,1,0],[3,0],[0]]","12","[[2,1,0],[3,0],[0]]","8","0","","","","","","6","","","","","","","","",""
"","","","","","poldrack-single-stim","156","539284","0.0-2.0-35.0","55b237e6fdf99b19ea79d2f7","B2","batch2","","-1","tol_feedback","","","true","","1000","1000","500","","","","","","-1","none","true","9266","40048","","","","","","","","","",""
"","","","","","html-button-response","157","540373","0.0-2.0-36.0","55b237e6fdf99b19ea79d2f7","B2","batch2","","1088.199999988079","tol_trial_num","<div class = centerbox><p class = center-block-text>problem <strong>10</strong> out of 25 problems</p></div>","0","","","","","","","","","","","","","","","","","","","","","","","","",""
"","","","","","single-stim-button","158","545512","0.0-2.0-37.0-0.0","55b237e6fdf99b19ea79d2f7","B2","batch2","","5138","tol_tohand","","","","tol_peg_3","5138","5138","0","[[3,0,0],[1,0],[0]]","1","[[3,0,0],[2,1],[0]]","9","0","","","","","","3","","","","","","","","",""
"","","","","","single-stim-button","159","548104","0.0-2.0-37.0-1.0","55b237e6fdf99b19ea79d2f7","B2","batch2","","2592","tol_toboard","","","","tol_peg_1","2592","2592","0","[[3,2,0],[1,0],[0]]","1","[[3,0,0],[2,1],[0]]","9","0","","","","","","3","","","","","","","","",""
"","","","","","single-stim-button","160","549000","0.0-2.0-37.1-0.1","55b237e6fdf99b19ea79d2f7","B2","batch2","","895","tol_tohand","","","","tol_peg_2","895","895","0","[[3,2,0],[0,0],[0]]","2","[[3,0,0],[2,1],[0]]","9","0","","","","","","3","","","","","","","","",""
"","","","","","single-stim-button","161","549784","0.0-2.0-37.1-1.1","55b237e6fdf99b19ea79d2f7","B2","batch2","","784","tol_toboard","","","","tol_peg_3","784","784","0","[[3,2,0],[0,0],[1]]","2","[[3,0,0],[2,1],[0]]","9","0","","","","","","3","","","","","","","","",""
"","","","","","single-stim-button","162","550384","0.0-2.0-37.2-0.2","55b237e6fdf99b19ea79d2f7","B2","batch2","","598","tol_tohand","","","","tol_peg_1","598","598","0","[[3,0,0],[0,0],[1]]","3","[[3,0,0],[2,1],[0]]","9","0","","","","","","3","","","","","","","","",""
"","","","","","single-stim-button","163","551184","0.0-2.0-37.2-1.2","55b237e6fdf99b19ea79d2f7","B2","batch2","","799","tol_toboard","","","","tol_peg_2","799","799","0","[[3,0,0],[2,0],[1]]","3","[[3,0,0],[2,1],[0]]","9","0","","","","","","3","","","","","","","","",""
"","","","","","single-stim-button","164","551784","0.0-2.0-37.3-0.3","55b237e6fdf99b19ea79d2f7","B2","batch2","","599","tol_tohand","","","","tol_peg_3","599","599","0","[[3,0,0],[2,0],[0]]","4","[[3,0,0],[2,1],[0]]","9","0","","","","","","3","","","","","","","","",""
"","","","","","single-stim-button","165","552744","0.0-2.0-37.3-1.3","55b237e6fdf99b19ea79d2f7","B2","batch2","","959","tol_toboard","","","","tol_peg_2","959","959","0","[[3,0,0],[2,1],[0]]","4","[[3,0,0],[2,1],[0]]","9","0","","","","","","3","","","","","","","","",""
"","","","","","poldrack-single-stim","166","553746","0.0-2.0-38.0","55b237e6fdf99b19ea79d2f7","B2","batch2","","-1","tol_feedback","","","true","","1000","1000","500","","","","","","-1","none","true","5138","7230","","","","","","","","","",""
"","","","","","html-button-response","167","554928","0.0-2.0-39.0","55b237e6fdf99b19ea79d2f7","B2","batch2","","1180.3999999761581","tol_trial_num","<div class = centerbox><p class = center-block-text>problem <strong>11</strong> out of 25 problems</p></div>","0","","","","","","","","","","","","","","","","","","","","","","","","",""
"","","","","","single-stim-button","168","560672","0.0-2.0-40.0-0.0","55b237e6fdf99b19ea79d2f7","B2","batch2","","5743","tol_tohand","","","","tol_peg_2","5743","5743","0","[[1,2,0],[0,0],[0]]","1","[[2,0,0],[1,3],[0]]","10","0","","","","","","6","","","","","","","","",""
"","","","","","single-stim-button","169","561784","0.0-2.0-40.0-1.0","55b237e6fdf99b19ea79d2f7","B2","batch2","","1111","tol_toboard","","","","tol_peg_3","1111","1111","0","[[1,2,0],[0,0],[3]]","1","[[2,0,0],[1,3],[0]]","10","0","","","","","","6","","","","","","","","",""
"","","","","","single-stim-button","170","564704","0.0-2.0-40.1-0.1","55b237e6fdf99b19ea79d2f7","B2","batch2","","2919","tol_tohand","","","","tol_peg_1","2919","2919","0","[[1,0,0],[0,0],[3]]","2","[[2,0,0],[1,3],[0]]","10","0","","","","","","6","","","","","","","","",""
"","","","","","single-stim-button","171","566472","0.0-2.0-40.1-1.1","55b237e6fdf99b19ea79d2f7","B2","batch2","","1767","tol_toboard","","","","tol_peg_2","1767","1767","0","[[1,0,0],[2,0],[3]]","2","[[2,0,0],[1,3],[0]]","10","0","","","","","","6","","","","","","","","",""
"","","","","","single-stim-button","172","567944","0.0-2.0-40.2-0.2","55b237e6fdf99b19ea79d2f7","B2","batch2","","1471","tol_tohand","","","","tol_peg_1","1471","1471","0","[[0,0,0],[2,0],[3]]","3","[[2,0,0],[1,3],[0]]","10","0","","","","","","6","","","","","","","","",""
"","","","","","single-stim-button","173","570176","0.0-2.0-40.2-1.2","55b237e6fdf99b19ea79d2f7","B2","batch2","","2231","tol_toboard","","","","tol_peg_2","2231","2231","0","[[0,0,0],[2,1],[3]]","3","[[2,0,0],[1,3],[0]]","10","0","","","","","","6","","","","","","","","",""
"","","","","","single-stim-button","174","574368","0.0-2.0-40.3-0.3","55b237e6fdf99b19ea79d2f7","B2","batch2","","4191","tol_tohand","","","","tol_peg_2","4191","4191","0","[[0,0,0],[2,0],[3]]","4","[[2,0,0],[1,3],[0]]","10","0","","","","","","6","","","","","","","","",""
"","","","","","single-stim-button","175","576096","0.0-2.0-40.3-1.3","55b237e6fdf99b19ea79d2f7","B2","batch2","","1727","tol_toboard","","","","tol_peg_2","1727","1727","0","[[0,0,0],[2,1],[3]]","4","[[2,0,0],[1,3],[0]]","10","0","","","","","","6","","","","","","","","",""
"","","","","","single-stim-button","176","580888","0.0-2.0-40.4-0.4","55b237e6fdf99b19ea79d2f7","B2","batch2","","4791","tol_tohand","","","","tol_peg_3","4791","4791","0","[[0,0,0],[2,1],[0]]","5","[[2,0,0],[1,3],[0]]","10","0","","","","","","6","","","","","","","","",""
"","","","","","single-stim-button","177","582135","0.0-2.0-40.4-1.4","55b237e6fdf99b19ea79d2f7","B2","batch2","","1247","tol_toboard","","","","tol_peg_1","1247","1247","0","[[3,0,0],[2,1],[0]]","5","[[2,0,0],[1,3],[0]]","10","0","","","","","","6","","","","","","","","",""
"","","","","","single-stim-button","178","583768","0.0-2.0-40.5-0.5","55b237e6fdf99b19ea79d2f7","B2","batch2","","1631","tol_tohand","","","","tol_peg_2","1631","1631","0","[[3,0,0],[2,0],[0]]","6","[[2,0,0],[1,3],[0]]","10","0","","","","","","6","","","","","","","","",""
"","","","","","single-stim-button","179","584599","0.0-2.0-40.5-1.5","55b237e6fdf99b19ea79d2f7","B2","batch2","","831","tol_toboard","","","","tol_peg_3","831","831","0","[[3,0,0],[2,0],[1]]","6","[[2,0,0],[1,3],[0]]","10","0","","","","","","6","","","","","","","","",""
"","","","","","single-stim-button","180","587815","0.0-2.0-40.6-0.6","55b237e6fdf99b19ea79d2f7","B2","batch2","","3215","tol_tohand","","","","tol_peg_2","3215","3215","0","[[3,0,0],[0,0],[1]]","7","[[2,0,0],[1,3],[0]]","10","0","","","","","","6","","","","","","","","",""
"","","","","","single-stim-button","181","589319","0.0-2.0-40.6-1.6","55b237e6fdf99b19ea79d2f7","B2","batch2","","1503","tol_toboard","","","","tol_peg_1","1503","1503","0","[[3,2,0],[0,0],[1]]","7","[[2,0,0],[1,3],[0]]","10","0","","","","","","6","","","","","","","","",""
"","","","","","single-stim-button","182","589959","0.0-2.0-40.7-0.7","55b237e6fdf99b19ea79d2f7","B2","batch2","","639","tol_tohand","","","","tol_peg_3","639","639","0","[[3,2,0],[0,0],[0]]","8","[[2,0,0],[1,3],[0]]","10","0","","","","","","6","","","","","","","","",""
"","","","","","single-stim-button","183","590583","0.0-2.0-40.7-1.7","55b237e6fdf99b19ea79d2f7","B2","batch2","","623","tol_toboard","","","","tol_peg_2","623","623","0","[[3,2,0],[1,0],[0]]","8","[[2,0,0],[1,3],[0]]","10","0","","","","","","6","","","","","","","","",""
"","","","","","single-stim-button","184","593415","0.0-2.0-40.8-0.8","55b237e6fdf99b19ea79d2f7","B2","batch2","","2831","tol_tohand","","","","tol_peg_1","2831","2831","0","[[3,0,0],[1,0],[0]]","9","[[2,0,0],[1,3],[0]]","10","0","","","","","","6","","","","","","","","",""
"","","","","","single-stim-button","185","594455","0.0-2.0-40.8-1.8","55b237e6fdf99b19ea79d2f7","B2","batch2","","1039","tol_toboard","","","","tol_peg_3","1039","1039","0","[[3,0,0],[1,0],[2]]","9","[[2,0,0],[1,3],[0]]","10","0","","","","","","6","","","","","","","","",""
"","","","","","single-stim-button","186","595183","0.0-2.0-40.9-0.9","55b237e6fdf99b19ea79d2f7","B2","batch2","","727","tol_tohand","","","","tol_peg_1","727","727","0","[[0,0,0],[1,0],[2]]","10","[[2,0,0],[1,3],[0]]","10","0","","","","","","6","","","","","","","","",""
"","","","","","single-stim-button","187","595911","0.0-2.0-40.9-1.9","55b237e6fdf99b19ea79d2f7","B2","batch2","","727","tol_toboard","","","","tol_peg_2","727","727","0","[[0,0,0],[1,3],[2]]","10","[[2,0,0],[1,3],[0]]","10","0","","","","","","6","","","","","","","","",""
"","","","","","single-stim-button","188","596479","0.0-2.0-40.10-0.10","55b237e6fdf99b19ea79d2f7","B2","batch2","","567","tol_tohand","","","","tol_peg_3","567","567","0","[[0,0,0],[1,3],[0]]","11","[[2,0,0],[1,3],[0]]","10","0","","","","","","6","","","","","","","","",""
"","","","","","single-stim-button","189","597112","0.0-2.0-40.10-1.10","55b237e6fdf99b19ea79d2f7","B2","batch2","","631","tol_toboard","","","","tol_peg_1","631","631","0","[[2,0,0],[1,3],[0]]","11","[[2,0,0],[1,3],[0]]","10","0","","","","","","6","","","","","","","","",""
"","","","","","poldrack-single-stim","190","598113","0.0-2.0-41.0","55b237e6fdf99b19ea79d2f7","B2","batch2","","-1","tol_feedback","","","true","","1000","1000","500","","","","","","-1","none","true","5743","28725","","","","","","","","","",""
"","","","","","html-button-response","191","599391","0.0-2.0-42.0","55b237e6fdf99b19ea79d2f7","B2","batch2","","1277.1000000238419","tol_trial_num","<div class = centerbox><p class = center-block-text>problem <strong>12</strong> out of 25 problems</p></div>","0","","","","","","","","","","","","","","","","","","","","","","","","",""
"","","","","","single-stim-button","192","618074","0.0-2.0-43.0-0.0","55b237e6fdf99b19ea79d2f7","B2","batch2","","18682","tol_tohand","","","","tol_peg_1","18682","18682","0","[[1,0,0],[3,0],[0]]","1","[[2,3,0],[0,0],[1]]","11","0","","","","","","4","","","","","","","","",""
"","","","","","single-stim-button","193","618762","0.0-2.0-43.0-1.0","55b237e6fdf99b19ea79d2f7","B2","batch2","","687","tol_toboard","","","","tol_peg_2","687","687","0","[[1,0,0],[3,2],[0]]","1","[[2,3,0],[0,0],[1]]","11","0","","","","","","4","","","","","","","","",""
"","","","","","single-stim-button","194","619618","0.0-2.0-43.1-0.1","55b237e6fdf99b19ea79d2f7","B2","batch2","","855","tol_tohand","","","","tol_peg_1","855","855","0","[[0,0,0],[3,2],[0]]","2","[[2,3,0],[0,0],[1]]","11","0","","","","","","4","","","","","","","","",""
"","","","","","single-stim-button","195","620866","0.0-2.0-43.1-1.1","55b237e6fdf99b19ea79d2f7","B2","batch2","","1247","tol_toboard","","","","tol_peg_3","1247","1247","0","[[0,0,0],[3,2],[1]]","2","[[2,3,0],[0,0],[1]]","11","0","","","","","","4","","","","","","","","",""
"","","","","","single-stim-button","196","621722","0.0-2.0-43.2-0.2","55b237e6fdf99b19ea79d2f7","B2","batch2","","855","tol_tohand","","","","tol_peg_2","855","855","0","[[0,0,0],[3,0],[1]]","3","[[2,3,0],[0,0],[1]]","11","0","","","","","","4","","","","","","","","",""
"","","","","","single-stim-button","197","623042","0.0-2.0-43.2-1.2","55b237e6fdf99b19ea79d2f7","B2","batch2","","1319","tol_toboard","","","","tol_peg_1","1319","1319","0","[[2,0,0],[3,0],[1]]","3","[[2,3,0],[0,0],[1]]","11","0","","","","","","4","","","","","","","","",""
"","","","","","single-stim-button","198","623602","0.0-2.0-43.3-0.3","55b237e6fdf99b19ea79d2f7","B2","batch2","","559","tol_tohand","","","","tol_peg_2","559","559","0","[[2,0,0],[0,0],[1]]","4","[[2,3,0],[0,0],[1]]","11","0","","","","","","4","","","","","","","","",""
"","","","","","single-stim-button","199","624299","0.0-2.0-43.3-1.3","55b237e6fdf99b19ea79d2f7","B2","batch2","","695","tol_toboard","","","","tol_peg_1","695","695","0","[[2,3,0],[0,0],[1]]","4","[[2,3,0],[0,0],[1]]","11","0","","","","","","4","","","","","","","","",""
"","","","","","poldrack-single-stim","200","625300","0.0-2.0-44.0","55b237e6fdf99b19ea79d2f7","B2","batch2","","-1","tol_feedback","","","true","","1000","1000","500","","","","","","-1","none","true","18682","20951","","","","","","","","","",""
"","","","","","html-button-response","201","626442","0.0-2.0-45.0","55b237e6fdf99b19ea79d2f7","B2","batch2","","1140.699999988079","tol_trial_num","<div class = centerbox><p class = center-block-text>problem <strong>13</strong> out of 25 problems</p></div>","0","","","","","","","","","","","","","","","","","","","","","","","","",""
"","","","","","single-stim-button","202","630322","0.0-2.0-46.0-0.0","55b237e6fdf99b19ea79d2f7","B2","batch2","","3880","tol_tohand","","","","tol_peg_2","3880","3880","0","[[1,2,0],[0,0],[0]]","1","[[0,0,0],[2,3],[1]]","12","0","","","","","","4","","","","","","","","",""
"","","","","","single-stim-button","203","631130","0.0-2.0-46.0-1.0","55b237e6fdf99b19ea79d2f7","B2","batch2","","807","tol_toboard","","","","tol_peg_3","807","807","0","[[1,2,0],[0,0],[3]]","1","[[0,0,0],[2,3],[1]]","12","0","","","","","","4","","","","","","","","",""
"","","","","","single-stim-button","204","632746","0.0-2.0-46.1-0.1","55b237e6fdf99b19ea79d2f7","B2","batch2","","1615","tol_tohand","","","","tol_peg_1","1615","1615","0","[[1,0,0],[0,0],[3]]","2","[[0,0,0],[2,3],[1]]","12","0","","","","","","4","","","","","","","","",""
"","","","","","single-stim-button","205","633962","0.0-2.0-46.1-1.1","55b237e6fdf99b19ea79d2f7","B2","batch2","","1216","tol_toboard","","","","tol_peg_2","1216","1216","0","[[1,0,0],[2,0],[3]]","2","[[0,0,0],[2,3],[1]]","12","0","","","","","","4","","","","","","","","",""
"","","","","","single-stim-button","206","634578","0.0-2.0-46.2-0.2","55b237e6fdf99b19ea79d2f7","B2","batch2","","616","tol_tohand","","","","tol_peg_3","616","616","0","[[1,0,0],[2,0],[0]]","3","[[0,0,0],[2,3],[1]]","12","0","","","","","","4","","","","","","","","",""
"","","","","","single-stim-button","207","635154","0.0-2.0-46.2-1.2","55b237e6fdf99b19ea79d2f7","B2","batch2","","576","tol_toboard","","","","tol_peg_2","576","576","0","[[1,0,0],[2,3],[0]]","3","[[0,0,0],[2,3],[1]]","12","0","","","","","","4","","","","","","","","",""
"","","","","","single-stim-button","208","635770","0.0-2.0-46.3-0.3","55b237e6fdf99b19ea79d2f7","B2","batch2","","615","tol_tohand","","","","tol_peg_1","615","615","0","[[0,0,0],[2,3],[0]]","4","[[0,0,0],[2,3],[1]]","12","0","","","","","","4","","","","","","","","",""
"","","","","","single-stim-button","209","636658","0.0-2.0-46.3-1.3","55b237e6fdf99b19ea79d2f7","B2","batch2","","888","tol_toboard","","","","tol_peg_3","888","888","0","[[0,0,0],[2,3],[1]]","4","[[0,0,0],[2,3],[1]]","12","0","","","","","","4","","","","","","","","",""
"","","","","","poldrack-single-stim","210","637660","0.0-2.0-47.0","55b237e6fdf99b19ea79d2f7","B2","batch2","","-1","tol_feedback","","","true","","1000","1000","500","","","","","","-1","none","true","3880","6726","","","","","","","","","",""
"","","","","","html-button-response","211","640890","0.0-2.0-48.0","55b237e6fdf99b19ea79d2f7","B2","batch2","","3229.100000023842","attention_check","<p class = block-text>How many balls are in your board<br></p>","1","true","","","","","","","","","","","","","","","","","","","","","","","",""
"","","","","","html-button-response","212","642018","0.0-2.0-49.0","55b237e6fdf99b19ea79d2f7","B2","batch2","","1126.699999988079","tol_trial_num","<div class = centerbox><p class = center-block-text>problem <strong>14</strong> out of 25 problems</p></div>","0","","","","","","","","","","","","","","","","","","","","","","","","",""
"","","","","","single-stim-button","213","651626","0.0-2.0-50.0-0.0","55b237e6fdf99b19ea79d2f7","B2","batch2","","9607","tol_tohand","","","","tol_peg_1","9607","9607","0","[[2,0,0],[3,0],[0]]","1","[[1,2,0],[3,0],[0]]","13","0","","","","","","4","","","","","","","","",""
"","","","","","single-stim-button","214","652714","0.0-2.0-50.0-1.0","55b237e6fdf99b19ea79d2f7","B2","batch2","","1087","tol_toboard","","","","tol_peg_3","1087","1087","0","[[2,0,0],[3,0],[1]]","1","[[1,2,0],[3,0],[0]]","13","0","","","","","","4","","","","","","","","",""
"","","","","","single-stim-button","215","653754","0.0-2.0-50.1-0.1","55b237e6fdf99b19ea79d2f7","B2","batch2","","1039","tol_tohand","","","","tol_peg_1","1039","1039","0","[[0,0,0],[3,0],[1]]","2","[[1,2,0],[3,0],[0]]","13","0","","","","","","4","","","","","","","","",""
"","","","","","single-stim-button","216","654674","0.0-2.0-50.1-1.1","55b237e6fdf99b19ea79d2f7","B2","batch2","","919","tol_toboard","","","","tol_peg_2","919","919","0","[[0,0,0],[3,2],[1]]","2","[[1,2,0],[3,0],[0]]","13","0","","","","","","4","","","","","","","","",""
"","","","","","single-stim-button","217","655890","0.0-2.0-50.2-0.2","55b237e6fdf99b19ea79d2f7","B2","batch2","","1215","tol_tohand","","","","tol_peg_3","1215","1215","0","[[0,0,0],[3,2],[0]]","3","[[1,2,0],[3,0],[0]]","13","0","","","","","","4","","","","","","","","",""
"","","","","","single-stim-button","218","656794","0.0-2.0-50.2-1.2","55b237e6fdf99b19ea79d2f7","B2","batch2","","903","tol_toboard","","","","tol_peg_1","903","903","0","[[1,0,0],[3,2],[0]]","3","[[1,2,0],[3,0],[0]]","13","0","","","","","","4","","","","","","","","",""
"","","","","","single-stim-button","219","657482","0.0-2.0-50.3-0.3","55b237e6fdf99b19ea79d2f7","B2","batch2","","687","tol_tohand","","","","tol_peg_2","687","687","0","[[1,0,0],[3,0],[0]]","4","[[1,2,0],[3,0],[0]]","13","0","","","","","","4","","","","","","","","",""
"","","","","","single-stim-button","220","658178","0.0-2.0-50.3-1.3","55b237e6fdf99b19ea79d2f7","B2","batch2","","695","tol_toboard","","","","tol_peg_1","695","695","0","[[1,2,0],[3,0],[0]]","4","[[1,2,0],[3,0],[0]]","13","0","","","","","","4","","","","","","","","",""
"","","","","","poldrack-single-stim","221","659179","0.0-2.0-51.0","55b237e6fdf99b19ea79d2f7","B2","batch2","","-1","tol_feedback","","","true","","1000","1000","500","","","","","","-1","none","true","9607","12548","","","","","","","","","",""
"","","","","","html-button-response","222","660506","0.0-2.0-52.0","55b237e6fdf99b19ea79d2f7","B2","batch2","","1325.8999999761581","tol_trial_num","<div class = centerbox><p class = center-block-text>problem <strong>15</strong> out of 25 problems</p></div>","0","","","","","","","","","","","","","","","","","","","","","","","","",""
"","","","","","single-stim-button","223","668677","0.0-2.0-53.0-0.0","55b237e6fdf99b19ea79d2f7","B2","batch2","","8170","tol_tohand","","","","tol_peg_1","8170","8170","0","[[1,0,0],[3,0],[0]]","1","[[2,0,0],[3,0],[1]]","14","0","","","","","","3","","","","","","","","",""
"","","","","","single-stim-button","224","669469","0.0-2.0-53.0-1.0","55b237e6fdf99b19ea79d2f7","B2","batch2","","791","tol_toboard","","","","tol_peg_2","791","791","0","[[1,0,0],[3,2],[0]]","1","[[2,0,0],[3,0],[1]]","14","0","","","","","","3","","","","","","","","",""
"","","","","","single-stim-button","225","670581","0.0-2.0-53.1-0.1","55b237e6fdf99b19ea79d2f7","B2","batch2","","1111","tol_tohand","","","","tol_peg_1","1111","1111","0","[[0,0,0],[3,2],[0]]","2","[[2,0,0],[3,0],[1]]","14","0","","","","","","3","","","","","","","","",""
"","","","","","single-stim-button","226","671421","0.0-2.0-53.1-1.1","55b237e6fdf99b19ea79d2f7","B2","batch2","","839","tol_toboard","","","","tol_peg_3","839","839","0","[[0,0,0],[3,2],[1]]","2","[[2,0,0],[3,0],[1]]","14","0","","","","","","3","","","","","","","","",""
"","","","","","single-stim-button","227","672117","0.0-2.0-53.2-0.2","55b237e6fdf99b19ea79d2f7","B2","batch2","","695","tol_tohand","","","","tol_peg_2","695","695","0","[[0,0,0],[3,0],[1]]","3","[[2,0,0],[3,0],[1]]","14","0","","","","","","3","","","","","","","","",""
"","","","","","single-stim-button","228","673261","0.0-2.0-53.2-1.2","55b237e6fdf99b19ea79d2f7","B2","batch2","","1143","tol_toboard","","","","tol_peg_1","1143","1143","0","[[2,0,0],[3,0],[1]]","3","[[2,0,0],[3,0],[1]]","14","0","","","","","","3","","","","","","","","",""
"","","","","","poldrack-single-stim","229","674262","0.0-2.0-54.0","55b237e6fdf99b19ea79d2f7","B2","batch2","","-1","tol_feedback","","","true","","1000","1000","500","","","","","","-1","none","true","8170","9976","","","","","","","","","",""
"","","","","","html-button-response","230","675612","0.0-2.0-55.0","55b237e6fdf99b19ea79d2f7","B2","batch2","","1349.3999999761581","tol_trial_num","<div class = centerbox><p class = center-block-text>problem <strong>16</strong> out of 25 problems</p></div>","0","","","","","","","","","","","","","","","","","","","","","","","","",""
"","","","","","single-stim-button","231","698821","0.0-2.0-56.0-0.0","55b237e6fdf99b19ea79d2f7","B2","batch2","","23207","tol_tohand","","","","tol_peg_2","23207","23207","0","[[0,0,0],[2,0],[1]]","1","[[2,3,0],[1,0],[0]]","15","0","","","","","","7","","","","","","","","",""
"","","","","","single-stim-button","232","703644","0.0-2.0-56.0-1.0","55b237e6fdf99b19ea79d2f7","B2","batch2","","4822","tol_toboard","","","","tol_peg_2","4822","4822","0","[[0,0,0],[2,3],[1]]","1","[[2,3,0],[1,0],[0]]","15","0","","","","","","7","","","","","","","","",""
"","","","","","single-stim-button","233","704476","0.0-2.0-56.1-0.1","55b237e6fdf99b19ea79d2f7","B2","batch2","","831","tol_tohand","","","","tol_peg_3","831","831","0","[[0,0,0],[2,3],[0]]","2","[[2,3,0],[1,0],[0]]","15","0","","","","","","7","","","","","","","","",""
"","","","","","single-stim-button","234","709228","0.0-2.0-56.1-1.1","55b237e6fdf99b19ea79d2f7","B2","batch2","","4751","tol_toboard","","","","tol_peg_1","4751","4751","0","[[1,0,0],[2,3],[0]]","2","[[2,3,0],[1,0],[0]]","15","0","","","","","","7","","","","","","","","",""
"","","","","","single-stim-button","235","721412","0.0-2.0-56.2-0.2","55b237e6fdf99b19ea79d2f7","B2","batch2","","12183","tol_tohand","","","","tol_peg_1","12183","12183","0","[[0,0,0],[2,3],[0]]","3","[[2,3,0],[1,0],[0]]","15","0","","","","","","7","","","","","","","","",""
"","","","","","single-stim-button","236","722372","0.0-2.0-56.2-1.2","55b237e6fdf99b19ea79d2f7","B2","batch2","","958","tol_toboard","","","","tol_peg_3","958","958","0","[[0,0,0],[2,3],[1]]","3","[[2,3,0],[1,0],[0]]","15","0","","","","","","7","","","","","","","","",""
"","","","","","single-stim-button","237","723516","0.0-2.0-56.3-0.3","55b237e6fdf99b19ea79d2f7","B2","batch2","","1144","tol_tohand","","","","tol_peg_2","1144","1144","0","[[0,0,0],[2,0],[1]]","4","[[2,3,0],[1,0],[0]]","15","0","","","","","","7","","","","","","","","",""
"","","","","","single-stim-button","238","725516","0.0-2.0-56.3-1.3","55b237e6fdf99b19ea79d2f7","B2","batch2","","1999","tol_toboard","","","","tol_peg_1","1999","1999","0","[[3,0,0],[2,0],[1]]","4","[[2,3,0],[1,0],[0]]","15","0","","","","","","7","","","","","","","","",""
"","","","","","single-stim-button","239","726559","0.0-2.0-56.4-0.4","55b237e6fdf99b19ea79d2f7","B2","batch2","","1042","tol_tohand","","","","tol_peg_2","1042","1042","0","[[3,0,0],[0,0],[1]]","5","[[2,3,0],[1,0],[0]]","15","0","","","","","","7","","","","","","","","",""
"","","","","","single-stim-button","240","727367","0.0-2.0-56.4-1.4","55b237e6fdf99b19ea79d2f7","B2","batch2","","807","tol_toboard","","","","tol_peg_1","807","807","0","[[3,2,0],[0,0],[1]]","5","[[2,3,0],[1,0],[0]]","15","0","","","","","","7","","","","","","","","",""
"","","","","","single-stim-button","241","731799","0.0-2.0-56.5-0.5","55b237e6fdf99b19ea79d2f7","B2","batch2","","4431","tol_tohand","","","","tol_peg_3","4431","4431","0","[[3,2,0],[0,0],[0]]","6","[[2,3,0],[1,0],[0]]","15","0","","","","","","7","","","","","","","","",""
"","","","","","single-stim-button","242","732511","0.0-2.0-56.5-1.5","55b237e6fdf99b19ea79d2f7","B2","batch2","","711","tol_toboard","","","","tol_peg_2","711","711","0","[[3,2,0],[1,0],[0]]","6","[[2,3,0],[1,0],[0]]","15","0","","","","","","7","","","","","","","","",""
"","","","","","single-stim-button","243","734311","0.0-2.0-56.6-0.6","55b237e6fdf99b19ea79d2f7","B2","batch2","","1799","tol_tohand","","","","tol_peg_1","1799","1799","0","[[3,0,0],[1,0],[0]]","7","[[2,3,0],[1,0],[0]]","15","0","","","","","","7","","","","","","","","",""
"","","","","","single-stim-button","244","735511","0.0-2.0-56.6-1.6","55b237e6fdf99b19ea79d2f7","B2","batch2","","1200","tol_toboard","","","","tol_peg_2","1200","1200","0","[[3,0,0],[1,2],[0]]","7","[[2,3,0],[1,0],[0]]","15","0","","","","","","7","","","","","","","","",""
"","","","","","single-stim-button","245","737823","0.0-2.0-56.7-0.7","55b237e6fdf99b19ea79d2f7","B2","batch2","","2312","tol_tohand","","","","tol_peg_1","2312","2312","0","[[0,0,0],[1,2],[0]]","8","[[2,3,0],[1,0],[0]]","15","0","","","","","","7","","","","","","","","",""
"","","","","","single-stim-button","246","738775","0.0-2.0-56.7-1.7","55b237e6fdf99b19ea79d2f7","B2","batch2","","951","tol_toboard","","","","tol_peg_3","951","951","0","[[0,0,0],[1,2],[3]]","8","[[2,3,0],[1,0],[0]]","15","0","","","","","","7","","","","","","","","",""
"","","","","","single-stim-button","247","740343","0.0-2.0-56.8-0.8","55b237e6fdf99b19ea79d2f7","B2","batch2","","1568","tol_tohand","","","","tol_peg_2","1568","1568","0","[[0,0,0],[1,0],[3]]","9","[[2,3,0],[1,0],[0]]","15","0","","","","","","7","","","","","","","","",""
"","","","","","single-stim-button","248","741119","0.0-2.0-56.8-1.8","55b237e6fdf99b19ea79d2f7","B2","batch2","","776","tol_toboard","","","","tol_peg_1","776","776","0","[[2,0,0],[1,0],[3]]","9","[[2,3,0],[1,0],[0]]","15","0","","","","","","7","","","","","","","","",""
"","","","","","single-stim-button","249","741719","0.0-2.0-56.9-0.9","55b237e6fdf99b19ea79d2f7","B2","batch2","","599","tol_tohand","","","","tol_peg_3","599","599","0","[[2,0,0],[1,0],[0]]","10","[[2,3,0],[1,0],[0]]","15","0","","","","","","7","","","","","","","","",""
"","","","","","single-stim-button","250","742647","0.0-2.0-56.9-1.9","55b237e6fdf99b19ea79d2f7","B2","batch2","","926","tol_toboard","","","","tol_peg_1","926","926","0","[[2,3,0],[1,0],[0]]","10","[[2,3,0],[1,0],[0]]","15","0","","","","","","7","","","","","","","","",""
"","","","","","poldrack-single-stim","251","743649","0.0-2.0-57.0","55b237e6fdf99b19ea79d2f7","B2","batch2","","-1","tol_feedback","","","true","","1000","1000","500","","","","","","-1","none","true","23207","49116","","","","","","","","","",""
"","","","","","html-button-response","252","744799","0.0-2.0-58.0","55b237e6fdf99b19ea79d2f7","B2","batch2","","1149.300000011921","tol_trial_num","<div class = centerbox><p class = center-block-text>problem <strong>17</strong> out of 25 problems</p></div>","0","","","","","","","","","","","","","","","","","","","","","","","","",""
"","","","","","single-stim-button","253","759735","0.0-2.0-59.0-0.0","55b237e6fdf99b19ea79d2f7","B2","batch2","","14935","tol_tohand","","","","tol_peg_1","14935","14935","0","[[1,0,0],[3,0],[0]]","1","[[3,1,0],[2,0],[0]]","16","0","","","","","","5","","","","","","","","",""
"","","","","","single-stim-button","254","760927","0.0-2.0-59.0-1.0","55b237e6fdf99b19ea79d2f7","B2","batch2","","1191","tol_toboard","","","","tol_peg_2","1191","1191","0","[[1,0,0],[3,2],[0]]","1","[[3,1,0],[2,0],[0]]","16","0","","","","","","5","","","","","","","","",""
"","","","","","single-stim-button","255","761759","0.0-2.0-59.1-0.1","55b237e6fdf99b19ea79d2f7","B2","batch2","","831","tol_tohand","","","","tol_peg_1","831","831","0","[[0,0,0],[3,2],[0]]","2","[[3,1,0],[2,0],[0]]","16","0","","","","","","5","","","","","","","","",""
"","","","","","single-stim-button","256","764447","0.0-2.0-59.1-1.1","55b237e6fdf99b19ea79d2f7","B2","batch2","","2687","tol_toboard","","","","tol_peg_3","2687","2687","0","[[0,0,0],[3,2],[1]]","2","[[3,1,0],[2,0],[0]]","16","0","","","","","","5","","","","","","","","",""
"","","","","","single-stim-button","257","770815","0.0-2.0-59.2-0.2","55b237e6fdf99b19ea79d2f7","B2","batch2","","6367","tol_tohand","","","","tol_peg_2","6367","6367","0","[[0,0,0],[3,0],[1]]","3","[[3,1,0],[2,0],[0]]","16","0","","","","","","5","","","","","","","","",""
"","","","","","single-stim-button","258","771807","0.0-2.0-59.2-1.2","55b237e6fdf99b19ea79d2f7","B2","batch2","","991","tol_toboard","","","","tol_peg_1","991","991","0","[[2,0,0],[3,0],[1]]","3","[[3,1,0],[2,0],[0]]","16","0","","","","","","5","","","","","","","","",""
"","","","","","single-stim-button","259","775095","0.0-2.0-59.3-0.3","55b237e6fdf99b19ea79d2f7","B2","batch2","","3287","tol_tohand","","","","tol_peg_2","3287","3287","0","[[2,0,0],[0,0],[1]]","4","[[3,1,0],[2,0],[0]]","16","0","","","","","","5","","","","","","","","",""
"","","","","","single-stim-button","260","775887","0.0-2.0-59.3-1.3","55b237e6fdf99b19ea79d2f7","B2","batch2","","791","tol_toboard","","","","tol_peg_1","791","791","0","[[2,3,0],[0,0],[1]]","4","[[3,1,0],[2,0],[0]]","16","0","","","","","","5","","","","","","","","",""
"","","","","","single-stim-button","261","782991","0.0-2.0-59.4-0.4","55b237e6fdf99b19ea79d2f7","B2","batch2","","7103","tol_tohand","","","","tol_peg_1","7103","7103","0","[[2,0,0],[0,0],[1]]","5","[[3,1,0],[2,0],[0]]","16","0","","","","","","5","","","","","","","","",""
"","","","","","single-stim-button","262","783967","0.0-2.0-59.4-1.4","55b237e6fdf99b19ea79d2f7","B2","batch2","","975","tol_toboard","","","","tol_peg_2","975","975","0","[[2,0,0],[3,0],[1]]","5","[[3,1,0],[2,0],[0]]","16","0","","","","","","5","","","","","","","","",""
"","","","","","single-stim-button","263","802489","0.0-2.0-59.5-0.5","55b237e6fdf99b19ea79d2f7","B2","batch2","","18522","tol_tohand","","","","tol_peg_3","18522","18522","0","[[2,0,0],[3,0],[0]]","6","[[3,1,0],[2,0],[0]]","16","0","","","","","","5","","","","","","","","",""
"","","","","","single-stim-button","264","803634","0.0-2.0-59.5-1.5","55b237e6fdf99b19ea79d2f7","B2","batch2","","1143","tol_toboard","","","","tol_peg_2","1143","1143","0","[[2,0,0],[3,1],[0]]","6","[[3,1,0],[2,0],[0]]","16","0","","","","","","5","","","","","","","","",""
"","","","","","single-stim-button","265","806386","0.0-2.0-59.6-0.6","55b237e6fdf99b19ea79d2f7","B2","batch2","","2751","tol_tohand","","","","tol_peg_1","2751","2751","0","[[0,0,0],[3,1],[0]]","7","[[3,1,0],[2,0],[0]]","16","0","","","","","","5","","","","","","","","",""
"","","","","","single-stim-button","266","808154","0.0-2.0-59.6-1.6","55b237e6fdf99b19ea79d2f7","B2","batch2","","1767","tol_toboard","","","","tol_peg_3","1767","1767","0","[[0,0,0],[3,1],[2]]","7","[[3,1,0],[2,0],[0]]","16","0","","","","","","5","","","","","","","","",""
"","","","","","single-stim-button","267","810666","0.0-2.0-59.7-0.7","55b237e6fdf99b19ea79d2f7","B2","batch2","","2511","tol_tohand","","","","tol_peg_2","2511","2511","0","[[0,0,0],[3,0],[2]]","8","[[3,1,0],[2,0],[0]]","16","0","","","","","","5","","","","","","","","",""
"","","","","","single-stim-button","268","811993","0.0-2.0-59.7-1.7","55b237e6fdf99b19ea79d2f7","B2","batch2","","1327","tol_toboard","","","","tol_peg_1","1327","1327","0","[[1,0,0],[3,0],[2]]","8","[[3,1,0],[2,0],[0]]","16","0","","","","","","5","","","","","","","","",""
"","","","","","single-stim-button","269","813361","0.0-2.0-59.8-0.8","55b237e6fdf99b19ea79d2f7","B2","batch2","","1367","tol_tohand","","","","tol_peg_2","1367","1367","0","[[1,0,0],[0,0],[2]]","9","[[3,1,0],[2,0],[0]]","16","0","","","","","","5","","","","","","","","",""
"","","","","","single-stim-button","270","814073","0.0-2.0-59.8-1.8","55b237e6fdf99b19ea79d2f7","B2","batch2","","711","tol_toboard","","","","tol_peg_1","711","711","0","[[1,3,0],[0,0],[2]]","9","[[3,1,0],[2,0],[0]]","16","0","","","","","","5","","","","","","","","",""
"","","","","","single-stim-button","271","814665","0.0-2.0-59.9-0.9","55b237e6fdf99b19ea79d2f7","B2","batch2","","591","tol_tohand","","","","tol_peg_3","591","591","0","[[1,3,0],[0,0],[0]]","10","[[3,1,0],[2,0],[0]]","16","0","","","","","","5","","","","","","","","",""
"","","","","","single-stim-button","272","815394","0.0-2.0-59.9-1.9","55b237e6fdf99b19ea79d2f7","B2","batch2","","727","tol_toboard","","","","tol_peg_2","727","727","0","[[1,3,0],[2,0],[0]]","10","[[3,1,0],[2,0],[0]]","16","0","","","","","","5","","","","","","","","",""
"","","","","","single-stim-button","273","819290","0.0-2.0-59.10-0.10","55b237e6fdf99b19ea79d2f7","B2","batch2","","3895","tol_tohand","","","","tol_peg_1","3895","3895","0","[[1,0,0],[2,0],[0]]","11","[[3,1,0],[2,0],[0]]","16","0","","","","","","5","","","","","","","","",""
"","","","","","single-stim-button","274","819978","0.0-2.0-59.10-1.10","55b237e6fdf99b19ea79d2f7","B2","batch2","","687","tol_toboard","","","","tol_peg_2","687","687","0","[[1,0,0],[2,3],[0]]","11","[[3,1,0],[2,0],[0]]","16","0","","","","","","5","","","","","","","","",""
"","","","","","single-stim-button","275","821809","0.0-2.0-59.11-0.11","55b237e6fdf99b19ea79d2f7","B2","batch2","","1831","tol_tohand","","","","tol_peg_1","1831","1831","0","[[0,0,0],[2,3],[0]]","12","[[3,1,0],[2,0],[0]]","16","0","","","","","","5","","","","","","","","",""
"","","","","","single-stim-button","276","822529","0.0-2.0-59.11-1.11","55b237e6fdf99b19ea79d2f7","B2","batch2","","719","tol_toboard","","","","tol_peg_3","719","719","0","[[0,0,0],[2,3],[1]]","12","[[3,1,0],[2,0],[0]]","16","0","","","","","","5","","","","","","","","",""
"","","","","","single-stim-button","277","823097","0.0-2.0-59.12-0.12","55b237e6fdf99b19ea79d2f7","B2","batch2","","567","tol_tohand","","","","tol_peg_2","567","567","0","[[0,0,0],[2,0],[1]]","13","[[3,1,0],[2,0],[0]]","16","0","","","","","","5","","","","","","","","",""
"","","","","","single-stim-button","278","824833","0.0-2.0-59.12-1.12","55b237e6fdf99b19ea79d2f7","B2","batch2","","1735","tol_toboard","","","","tol_peg_1","1735","1735","0","[[3,0,0],[2,0],[1]]","13","[[3,1,0],[2,0],[0]]","16","0","","","","","","5","","","","","","","","",""
"","","","","","single-stim-button","279","825449","0.0-2.0-59.13-0.13","55b237e6fdf99b19ea79d2f7","B2","batch2","","615","tol_tohand","","","","tol_peg_3","615","615","0","[[3,0,0],[2,0],[0]]","14","[[3,1,0],[2,0],[0]]","16","0","","","","","","5","","","","","","","","",""
"","","","","","single-stim-button","280","826353","0.0-2.0-59.13-1.13","55b237e6fdf99b19ea79d2f7","B2","batch2","","903","tol_toboard","","","","tol_peg_1","903","903","0","[[3,1,0],[2,0],[0]]","14","[[3,1,0],[2,0],[0]]","16","0","","","","","","5","","","","","","","","",""
"","","","","","poldrack-single-stim","281","827367","0.0-2.0-60.0","55b237e6fdf99b19ea79d2f7","B2","batch2","","-1","tol_feedback","","","true","","1000","1000","500","","","","","","-1","none","true","14935","65173","","","","","","","","","",""
"","","","","","html-button-response","282","828705","0.0-2.0-61.0","55b237e6fdf99b19ea79d2f7","B2","batch2","","1337","tol_trial_num","<div class = centerbox><p class = center-block-text>problem <strong>18</strong> out of 25 problems</p></div>","0","","","","","","","","","","","","","","","","","","","","","","","","",""
"","","","","","single-stim-button","283","845793","0.0-2.0-62.0-0.0","55b237e6fdf99b19ea79d2f7","B2","batch2","","17087","tol_tohand","","","","tol_peg_2","17087","17087","0","[[1,2,0],[0,0],[0]]","1","[[3,0,0],[2,0],[1]]","17","0","","","","","","5","","","","","","","","",""
"","","","","","single-stim-button","284","846721","0.0-2.0-62.0-1.0","55b237e6fdf99b19ea79d2f7","B2","batch2","","927","tol_toboard","","","","tol_peg_3","927","927","0","[[1,2,0],[0,0],[3]]","1","[[3,0,0],[2,0],[1]]","17","0","","","","","","5","","","","","","","","",""
"","","","","","single-stim-button","285","848281","0.0-2.0-62.1-0.1","55b237e6fdf99b19ea79d2f7","B2","batch2","","1558","tol_tohand","","","","tol_peg_1","1558","1558","0","[[1,0,0],[0,0],[3]]","2","[[3,0,0],[2,0],[1]]","17","0","","","","","","5","","","","","","","","",""
"","","","","","single-stim-button","286","849377","0.0-2.0-62.1-1.1","55b237e6fdf99b19ea79d2f7","B2","batch2","","1095","tol_toboard","","","","tol_peg_2","1095","1095","0","[[1,0,0],[2,0],[3]]","2","[[3,0,0],[2,0],[1]]","17","0","","","","","","5","","","","","","","","",""
"","","","","","single-stim-button","287","852425","0.0-2.0-62.2-0.2","55b237e6fdf99b19ea79d2f7","B2","batch2","","3047","tol_tohand","","","","tol_peg_1","3047","3047","0","[[0,0,0],[2,0],[3]]","3","[[3,0,0],[2,0],[1]]","17","0","","","","","","5","","","","","","","","",""
"","","","","","single-stim-button","288","853388","0.0-2.0-62.2-1.2","55b237e6fdf99b19ea79d2f7","B2","batch2","","962","tol_toboard","","","","tol_peg_2","962","962","0","[[0,0,0],[2,1],[3]]","3","[[3,0,0],[2,0],[1]]","17","0","","","","","","5","","","","","","","","",""
"","","","","","single-stim-button","289","854156","0.0-2.0-62.3-0.3","55b237e6fdf99b19ea79d2f7","B2","batch2","","768","tol_tohand","","","","tol_peg_3","768","768","0","[[0,0,0],[2,1],[0]]","4","[[3,0,0],[2,0],[1]]","17","0","","","","","","5","","","","","","","","",""
"","","","","","single-stim-button","290","855068","0.0-2.0-62.3-1.3","55b237e6fdf99b19ea79d2f7","B2","batch2","","910","tol_toboard","","","","tol_peg_1","910","910","0","[[3,0,0],[2,1],[0]]","4","[[3,0,0],[2,0],[1]]","17","0","","","","","","5","","","","","","","","",""
"","","","","","single-stim-button","291","855724","0.0-2.0-62.4-0.4","55b237e6fdf99b19ea79d2f7","B2","batch2","","655","tol_tohand","","","","tol_peg_2","655","655","0","[[3,0,0],[2,0],[0]]","5","[[3,0,0],[2,0],[1]]","17","0","","","","","","5","","","","","","","","",""
"","","","","","single-stim-button","292","856564","0.0-2.0-62.4-1.4","55b237e6fdf99b19ea79d2f7","B2","batch2","","840","tol_toboard","","","","tol_peg_3","840","840","0","[[3,0,0],[2,0],[1]]","5","[[3,0,0],[2,0],[1]]","17","0","","","","","","5","","","","","","","","",""
"","","","","","poldrack-single-stim","293","857574","0.0-2.0-63.0","55b237e6fdf99b19ea79d2f7","B2","batch2","","-1","tol_feedback","","","true","","1000","1000","500","","","","","","-1","none","true","17087","23115","","","","","","","","","",""
"","","","","","html-button-response","294","858660","0.0-2.0-64.0","55b237e6fdf99b19ea79d2f7","B2","batch2","","1084.800000011921","tol_trial_num","<div class = centerbox><p class = center-block-text>problem <strong>19</strong> out of 25 problems</p></div>","0","","","","","","","","","","","","","","","","","","","","","","","","",""
"","","","","","single-stim-button","295","874324","0.0-2.0-65.0-0.0","55b237e6fdf99b19ea79d2f7","B2","batch2","","15663","tol_tohand","","","","tol_peg_2","15663","15663","0","[[1,2,0],[0,0],[0]]","1","[[0,0,0],[1,2],[3]]","18","0","","","","","","7","","","","","","","","",""
"","","","","","single-stim-button","296","875372","0.0-2.0-65.0-1.0","55b237e6fdf99b19ea79d2f7","B2","batch2","","1046","tol_toboard","","","","tol_peg_3","1046","1046","0","[[1,2,0],[0,0],[3]]","1","[[0,0,0],[1,2],[3]]","18","0","","","","","","7","","","","","","","","",""
"","","","","","single-stim-button","297","878148","0.0-2.0-65.1-0.1","55b237e6fdf99b19ea79d2f7","B2","batch2","","2775","tol_tohand","","","","tol_peg_1","2775","2775","0","[[1,0,0],[0,0],[3]]","2","[[0,0,0],[1,2],[3]]","18","0","","","","","","7","","","","","","","","",""
"","","","","","single-stim-button","298","878932","0.0-2.0-65.1-1.1","55b237e6fdf99b19ea79d2f7","B2","batch2","","783","tol_toboard","","","","tol_peg_2","783","783","0","[[1,0,0],[2,0],[3]]","2","[[0,0,0],[1,2],[3]]","18","0","","","","","","7","","","","","","","","",""
"","","","","","single-stim-button","299","879740","0.0-2.0-65.2-0.2","55b237e6fdf99b19ea79d2f7","B2","batch2","","807","tol_tohand","","","","tol_peg_1","807","807","0","[[0,0,0],[2,0],[3]]","3","[[0,0,0],[1,2],[3]]","18","0","","","","","","7","","","","","","","","",""
"","","","","","single-stim-button","300","881220","0.0-2.0-65.2-1.2","55b237e6fdf99b19ea79d2f7","B2","batch2","","1479","tol_toboard","","","","tol_peg_2","1479","1479","0","[[0,0,0],[2,1],[3]]","3","[[0,0,0],[1,2],[3]]","18","0","","","","","","7","","","","","","","","",""
"","","","","","single-stim-button","301","881955","0.0-2.0-65.3-0.3","55b237e6fdf99b19ea79d2f7","B2","batch2","","734","tol_tohand","","","","tol_peg_3","734","734","0","[[0,0,0],[2,1],[0]]","4","[[0,0,0],[1,2],[3]]","18","0","","","","","","7","","","","","","","","",""
"","","","","","single-stim-button","302","882812","0.0-2.0-65.3-1.3","55b237e6fdf99b19ea79d2f7","B2","batch2","","855","tol_toboard","","","","tol_peg_1","855","855","0","[[3,0,0],[2,1],[0]]","4","[[0,0,0],[1,2],[3]]","18","0","","","","","","7","","","","","","","","",""
"","","","","","single-stim-button","303","885564","0.0-2.0-65.4-0.4","55b237e6fdf99b19ea79d2f7","B2","batch2","","2751","tol_tohand","","","","tol_peg_2","2751","2751","0","[[3,0,0],[2,0],[0]]","5","[[0,0,0],[1,2],[3]]","18","0","","","","","","7","","","","","","","","",""
"","","","","","single-stim-button","304","886388","0.0-2.0-65.4-1.4","55b237e6fdf99b19ea79d2f7","B2","batch2","","823","tol_toboard","","","","tol_peg_3","823","823","0","[[3,0,0],[2,0],[1]]","5","[[0,0,0],[1,2],[3]]","18","0","","","","","","7","","","","","","","","",""
"","","","","","single-stim-button","305","887004","0.0-2.0-65.5-0.5","55b237e6fdf99b19ea79d2f7","B2","batch2","","616","tol_tohand","","","","tol_peg_2","616","616","0","[[3,0,0],[0,0],[1]]","6","[[0,0,0],[1,2],[3]]","18","0","","","","","","7","","","","","","","","",""
"","","","","","single-stim-button","306","887908","0.0-2.0-65.5-1.5","55b237e6fdf99b19ea79d2f7","B2","batch2","","902","tol_toboard","","","","tol_peg_1","902","902","0","[[3,2,0],[0,0],[1]]","6","[[0,0,0],[1,2],[3]]","18","0","","","","","","7","","","","","","","","",""
"","","","","","single-stim-button","307","888787","0.0-2.0-65.6-0.6","55b237e6fdf99b19ea79d2f7","B2","batch2","","879","tol_tohand","","","","tol_peg_3","879","879","0","[[3,2,0],[0,0],[0]]","7","[[0,0,0],[1,2],[3]]","18","0","","","","","","7","","","","","","","","",""
"","","","","","single-stim-button","308","889507","0.0-2.0-65.6-1.6","55b237e6fdf99b19ea79d2f7","B2","batch2","","719","tol_toboard","","","","tol_peg_2","719","719","0","[[3,2,0],[1,0],[0]]","7","[[0,0,0],[1,2],[3]]","18","0","","","","","","7","","","","","","","","",""
"","","","","","single-stim-button","309","890107","0.0-2.0-65.7-0.7","55b237e6fdf99b19ea79d2f7","B2","batch2","","599","tol_tohand","","","","tol_peg_1","599","599","0","[[3,0,0],[1,0],[0]]","8","[[0,0,0],[1,2],[3]]","18","0","","","","","","7","","","","","","","","",""
"","","","","","single-stim-button","310","890803","0.0-2.0-65.7-1.7","55b237e6fdf99b19ea79d2f7","B2","batch2","","695","tol_toboard","","","","tol_peg_2","695","695","0","[[3,0,0],[1,2],[0]]","8","[[0,0,0],[1,2],[3]]","18","0","","","","","","7","","","","","","","","",""
"","","","","","single-stim-button","311","891411","0.0-2.0-65.8-0.8","55b237e6fdf99b19ea79d2f7","B2","batch2","","607","tol_tohand","","","","tol_peg_1","607","607","0","[[0,0,0],[1,2],[0]]","9","[[0,0,0],[1,2],[3]]","18","0","","","","","","7","","","","","","","","",""
"","","","","","single-stim-button","312","892243","0.0-2.0-65.8-1.8","55b237e6fdf99b19ea79d2f7","B2","batch2","","831","tol_toboard","","","","tol_peg_3","831","831","0","[[0,0,0],[1,2],[3]]","9","[[0,0,0],[1,2],[3]]","18","0","","","","","","7","","","","","","","","",""
"","","","","","poldrack-single-stim","313","893246","0.0-2.0-66.0","55b237e6fdf99b19ea79d2f7","B2","batch2","","-1","tol_feedback","","","true","","1000","1000","500","","","","","","-1","none","true","15663","25431","","","","","","","","","",""
"","","","","","html-button-response","314","894355","0.0-2.0-67.0","55b237e6fdf99b19ea79d2f7","B2","batch2","","1108.300000011921","tol_trial_num","<div class = centerbox><p class = center-block-text>problem <strong>20</strong> out of 25 problems</p></div>","0","","","","","","","","","","","","","","","","","","","","","","","","",""
"","","","","","single-stim-button","315","898651","0.0-2.0-68.0-0.0","55b237e6fdf99b19ea79d2f7","B2","batch2","","4295","tol_tohand","","","","tol_peg_2","4295","4295","0","[[1,2,0],[0,0],[0]]","1","[[2,1,0],[0,0],[3]]","19","0","","","","","","5","","","","","","","","",""
"","","","","","single-stim-button","316","901379","0.0-2.0-68.0-1.0","55b237e6fdf99b19ea79d2f7","B2","batch2","","2727","tol_toboard","","","","tol_peg_3","2727","2727","0","[[1,2,0],[0,0],[3]]","1","[[2,1,0],[0,0],[3]]","19","0","","","","","","5","","","","","","","","",""
"","","","","","single-stim-button","317","905619","0.0-2.0-68.1-0.1","55b237e6fdf99b19ea79d2f7","B2","batch2","","4239","tol_tohand","","","","tol_peg_1","4239","4239","0","[[1,0,0],[0,0],[3]]","2","[[2,1,0],[0,0],[3]]","19","0","","","","","","5","","","","","","","","",""
"","","","","","single-stim-button","318","906292","0.0-2.0-68.1-1.1","55b237e6fdf99b19ea79d2f7","B2","batch2","","671","tol_toboard","","","","tol_peg_2","671","671","0","[[1,0,0],[2,0],[3]]","2","[[2,1,0],[0,0],[3]]","19","0","","","","","","5","","","","","","","","",""
"","","","","","single-stim-button","319","907988","0.0-2.0-68.2-0.2","55b237e6fdf99b19ea79d2f7","B2","batch2","","1695","tol_tohand","","","","tol_peg_1","1695","1695","0","[[0,0,0],[2,0],[3]]","3","[[2,1,0],[0,0],[3]]","19","0","","","","","","5","","","","","","","","",""
"","","","","","single-stim-button","320","912211","0.0-2.0-68.2-1.2","55b237e6fdf99b19ea79d2f7","B2","batch2","","4223","tol_toboard","","","","tol_peg_2","4223","4223","0","[[0,0,0],[2,1],[3]]","3","[[2,1,0],[0,0],[3]]","19","0","","","","","","5","","","","","","","","",""
"","","","","","single-stim-button","321","913447","0.0-2.0-68.3-0.3","55b237e6fdf99b19ea79d2f7","B2","batch2","","1234","tol_tohand","","","","tol_peg_3","1234","1234","0","[[0,0,0],[2,1],[0]]","4","[[2,1,0],[0,0],[3]]","19","0","","","","","","5","","","","","","","","",""
"","","","","","single-stim-button","322","914486","0.0-2.0-68.3-1.3","55b237e6fdf99b19ea79d2f7","B2","batch2","","1039","tol_toboard","","","","tol_peg_1","1039","1039","0","[[3,0,0],[2,1],[0]]","4","[[2,1,0],[0,0],[3]]","19","0","","","","","","5","","","","","","","","",""
"","","","","","single-stim-button","323","917102","0.0-2.0-68.4-0.4","55b237e6fdf99b19ea79d2f7","B2","batch2","","2615","tol_tohand","","","","tol_peg_2","2615","2615","0","[[3,0,0],[2,0],[0]]","5","[[2,1,0],[0,0],[3]]","19","0","","","","","","5","","","","","","","","",""
"","","","","","single-stim-button","324","917911","0.0-2.0-68.4-1.4","55b237e6fdf99b19ea79d2f7","B2","batch2","","807","tol_toboard","","","","tol_peg_3","807","807","0","[[3,0,0],[2,0],[1]]","5","[[2,1,0],[0,0],[3]]","19","0","","","","","","5","","","","","","","","",""
"","","","","","single-stim-button","325","924462","0.0-2.0-68.5-0.5","55b237e6fdf99b19ea79d2f7","B2","batch2","","6551","tol_tohand","","","","tol_peg_1","6551","6551","0","[[0,0,0],[2,0],[1]]","6","[[2,1,0],[0,0],[3]]","19","0","","","","","","5","","","","","","","","",""
"","","","","","single-stim-button","326","925174","0.0-2.0-68.5-1.5","55b237e6fdf99b19ea79d2f7","B2","batch2","","711","tol_toboard","","","","tol_peg_2","711","711","0","[[0,0,0],[2,3],[1]]","6","[[2,1,0],[0,0],[3]]","19","0","","","","","","5","","","","","","","","",""
"","","","","","single-stim-button","327","934550","0.0-2.0-68.6-0.6","55b237e6fdf99b19ea79d2f7","B2","batch2","","9376","tol_tohand","","","","tol_peg_3","9376","9376","0","[[0,0,0],[2,3],[0]]","7","[[2,1,0],[0,0],[3]]","19","0","","","","","","5","","","","","","","","",""
"","","","","","single-stim-button","328","935446","0.0-2.0-68.6-1.6","55b237e6fdf99b19ea79d2f7","B2","batch2","","894","tol_toboard","","","","tol_peg_1","894","894","0","[[1,0,0],[2,3],[0]]","7","[[2,1,0],[0,0],[3]]","19","0","","","","","","5","","","","","","","","",""
"","","","","","single-stim-button","329","936358","0.0-2.0-68.7-0.7","55b237e6fdf99b19ea79d2f7","B2","batch2","","912","tol_tohand","","","","tol_peg_2","912","912","0","[[1,0,0],[2,0],[0]]","8","[[2,1,0],[0,0],[3]]","19","0","","","","","","5","","","","","","","","",""
"","","","","","single-stim-button","330","937950","0.0-2.0-68.7-1.7","55b237e6fdf99b19ea79d2f7","B2","batch2","","1591","tol_toboard","","","","tol_peg_3","1591","1591","0","[[1,0,0],[2,0],[3]]","8","[[2,1,0],[0,0],[3]]","19","0","","","","","","5","","","","","","","","",""
"","","","","","single-stim-button","331","941206","0.0-2.0-68.8-0.8","55b237e6fdf99b19ea79d2f7","B2","batch2","","3255","tol_tohand","","","","tol_peg_2","3255","3255","0","[[1,0,0],[0,0],[3]]","9","[[2,1,0],[0,0],[3]]","19","0","","","","","","5","","","","","","","","",""
"","","","","","single-stim-button","332","942054","0.0-2.0-68.8-1.8","55b237e6fdf99b19ea79d2f7","B2","batch2","","847","tol_toboard","","","","tol_peg_1","847","847","0","[[1,2,0],[0,0],[3]]","9","[[2,1,0],[0,0],[3]]","19","0","","","","","","5","","","","","","","","",""
"","","","","","single-stim-button","333","943614","0.0-2.0-68.9-0.9","55b237e6fdf99b19ea79d2f7","B2","batch2","","1559","tol_tohand","","","","tol_peg_3","1559","1559","0","[[1,2,0],[0,0],[0]]","10","[[2,1,0],[0,0],[3]]","19","0","","","","","","5","","","","","","","","",""
"","","","","","single-stim-button","334","944318","0.0-2.0-68.9-1.9","55b237e6fdf99b19ea79d2f7","B2","batch2","","702","tol_toboard","","","","tol_peg_2","702","702","0","[[1,2,0],[3,0],[0]]","10","[[2,1,0],[0,0],[3]]","19","0","","","","","","5","","","","","","","","",""
"","","","","","single-stim-button","335","947054","0.0-2.0-68.10-0.10","55b237e6fdf99b19ea79d2f7","B2","batch2","","2735","tol_tohand","","","","tol_peg_1","2735","2735","0","[[1,0,0],[3,0],[0]]","11","[[2,1,0],[0,0],[3]]","19","0","","","","","","5","","","","","","","","",""
"","","","","","single-stim-button","336","948942","0.0-2.0-68.10-1.10","55b237e6fdf99b19ea79d2f7","B2","batch2","","1888","tol_toboard","","","","tol_peg_2","1888","1888","0","[[1,0,0],[3,2],[0]]","11","[[2,1,0],[0,0],[3]]","19","0","","","","","","5","","","","","","","","",""
"","","","","","single-stim-button","337","949590","0.0-2.0-68.11-0.11","55b237e6fdf99b19ea79d2f7","B2","batch2","","646","tol_tohand","","","","tol_peg_1","646","646","0","[[0,0,0],[3,2],[0]]","12","[[2,1,0],[0,0],[3]]","19","0","","","","","","5","","","","","","","","",""
"","","","","","single-stim-button","338","950342","0.0-2.0-68.11-1.11","55b237e6fdf99b19ea79d2f7","B2","batch2","","751","tol_toboard","","","","tol_peg_3","751","751","0","[[0,0,0],[3,2],[1]]","12","[[2,1,0],[0,0],[3]]","19","0","","","","","","5","","","","","","","","",""
"","","","","","single-stim-button","339","950902","0.0-2.0-68.12-0.12","55b237e6fdf99b19ea79d2f7","B2","batch2","","558","tol_tohand","","","","tol_peg_2","558","558","0","[[0,0,0],[3,0],[1]]","13","[[2,1,0],[0,0],[3]]","19","0","","","","","","5","","","","","","","","",""
"","","","","","single-stim-button","340","951878","0.0-2.0-68.12-1.12","55b237e6fdf99b19ea79d2f7","B2","batch2","","975","tol_toboard","","","","tol_peg_1","975","975","0","[[2,0,0],[3,0],[1]]","13","[[2,1,0],[0,0],[3]]","19","0","","","","","","5","","","","","","","","",""
"","","","","","single-stim-button","341","952558","0.0-2.0-68.13-0.13","55b237e6fdf99b19ea79d2f7","B2","batch2","","679","tol_tohand","","","","tol_peg_3","679","679","0","[[2,0,0],[3,0],[0]]","14","[[2,1,0],[0,0],[3]]","19","0","","","","","","5","","","","","","","","",""
"","","","","","single-stim-button","342","953190","0.0-2.0-68.13-1.13","55b237e6fdf99b19ea79d2f7","B2","batch2","","631","tol_toboard","","","","tol_peg_1","631","631","0","[[2,1,0],[3,0],[0]]","14","[[2,1,0],[0,0],[3]]","19","0","","","","","","5","","","","","","","","",""
"","","","","","single-stim-button","343","953726","0.0-2.0-68.14-0.14","55b237e6fdf99b19ea79d2f7","B2","batch2","","535","tol_tohand","","","","tol_peg_2","535","535","0","[[2,1,0],[0,0],[0]]","15","[[2,1,0],[0,0],[3]]","19","0","","","","","","5","","","","","","","","",""
"","","","","","single-stim-button","344","954478","0.0-2.0-68.14-1.14","55b237e6fdf99b19ea79d2f7","B2","batch2","","751","tol_toboard","","","","tol_peg_3","751","751","0","[[2,1,0],[0,0],[3]]","15","[[2,1,0],[0,0],[3]]","19","0","","","","","","5","","","","","","","","",""
"","","","","","poldrack-single-stim","345","955479","0.0-2.0-69.0","55b237e6fdf99b19ea79d2f7","B2","batch2","","-1","tol_feedback","","","true","","1000","1000","500","","","","","","-1","none","true","4295","40884","","","","","","","","","",""
"","","","","","html-button-response","346","956677","0.0-2.0-70.0","55b237e6fdf99b19ea79d2f7","B2","batch2","","1197.9000000357628","tol_trial_num","<div class = centerbox><p class = center-block-text>problem <strong>21</strong> out of 25 problems</p></div>","0","","","","","","","","","","","","","","","","","","","","","","","","",""
"","","","","","single-stim-button","347","968286","0.0-2.0-71.0-0.0","55b237e6fdf99b19ea79d2f7","B2","batch2","","11607","tol_tohand","","","","tol_peg_2","11607","11607","0","[[1,2,0],[0,0],[0]]","1","[[3,2,0],[0,0],[1]]","20","0","","","","","","6","","","","","","","","",""
"","","","","","single-stim-button","348","969310","0.0-2.0-71.0-1.0","55b237e6fdf99b19ea79d2f7","B2","batch2","","1023","tol_toboard","","","","tol_peg_3","1023","1023","0","[[1,2,0],[0,0],[3]]","1","[[3,2,0],[0,0],[1]]","20","0","","","","","","6","","","","","","","","",""
"","","","","","single-stim-button","349","973337","0.0-2.0-71.1-0.1","55b237e6fdf99b19ea79d2f7","B2","batch2","","4026","tol_tohand","","","","tol_peg_1","4026","4026","0","[[1,0,0],[0,0],[3]]","2","[[3,2,0],[0,0],[1]]","20","0","","","","","","6","","","","","","","","",""
"","","","","","single-stim-button","350","974185","0.0-2.0-71.1-1.1","55b237e6fdf99b19ea79d2f7","B2","batch2","","847","tol_toboard","","","","tol_peg_2","847","847","0","[[1,0,0],[2,0],[3]]","2","[[3,2,0],[0,0],[1]]","20","0","","","","","","6","","","","","","","","",""
"","","","","","single-stim-button","351","975193","0.0-2.0-71.2-0.2","55b237e6fdf99b19ea79d2f7","B2","batch2","","1007","tol_tohand","","","","tol_peg_1","1007","1007","0","[[0,0,0],[2,0],[3]]","3","[[3,2,0],[0,0],[1]]","20","0","","","","","","6","","","","","","","","",""
"","","","","","single-stim-button","352","975969","0.0-2.0-71.2-1.2","55b237e6fdf99b19ea79d2f7","B2","batch2","","776","tol_toboard","","","","tol_peg_2","776","776","0","[[0,0,0],[2,1],[3]]","3","[[3,2,0],[0,0],[1]]","20","0","","","","","","6","","","","","","","","",""
"","","","","","single-stim-button","353","976673","0.0-2.0-71.3-0.3","55b237e6fdf99b19ea79d2f7","B2","batch2","","702","tol_tohand","","","","tol_peg_3","702","702","0","[[0,0,0],[2,1],[0]]","4","[[3,2,0],[0,0],[1]]","20","0","","","","","","6","","","","","","","","",""
"","","","","","single-stim-button","354","977577","0.0-2.0-71.3-1.3","55b237e6fdf99b19ea79d2f7","B2","batch2","","903","tol_toboard","","","","tol_peg_1","903","903","0","[[3,0,0],[2,1],[0]]","4","[[3,2,0],[0,0],[1]]","20","0","","","","","","6","","","","","","","","",""
"","","","","","single-stim-button","355","978321","0.0-2.0-71.4-0.4","55b237e6fdf99b19ea79d2f7","B2","batch2","","743","tol_tohand","","","","tol_peg_2","743","743","0","[[3,0,0],[2,0],[0]]","5","[[3,2,0],[0,0],[1]]","20","0","","","","","","6","","","","","","","","",""
