"success","timeout","failed_images","failed_audio","failed_video","trial_type","trial_index","time_elapsed","internal_node_id","subject_id","study_id","session_id","view_history","rt","task","stimulus","response","correct","mouse_click","stim_duration","block_duration","timing_post_trial","current_position","tol_num_moves_made","tol_target","tol_problem_id","tol_rt","key_press","possible_responses","tol_correct","preplanning","tol_rt_per_trial","tol_min_moves","item","answer","spm_correct","spm_rt","fiar_detect_rt","fiar_detect_correct","total_correct_fiar_detect","post_trial_gap","choices"
"true","false","[]","[]","[]","preload","0","1866","0.0-0.0","55bce852fdf99b268358f83b","B2","batch2","","","","","","","","","","","","","","","","","","","","","","","","","","","","","",""
"true","","","","","fullscreen","1","14592","0.0-1.0-0.0","55bce852fdf99b268358f83b","B2","batch2","","","","","","","","","","","","","","","","","","","","","","","","","","","","","",""
"true","","","","","fullscreen","2","17611","0.0-2.0-0.0","55bce852fdf99b268358f83b","B2","batch2","","","","","","","","","","","","","","","","","","","","","","","","","","","","","",""
"","","","","","instructions","3","78626","0.0-2.0-1.0-0.0-0.0","55bce852fdf99b268358f83b","B2","batch2","[{""page_index"":0,""viewing_time"":9009.199999988079},{""page_index"":1,""viewing_time"":5883.9000000059605},{""page_index"":2,""viewing_time"":4673.9000000059605},{""page_index"":3,""viewing_time"":8687.800000011921},{""page_index"":4,""viewing_time"":14151.299999982119},{""page_index"":5,""viewing_time"":16251.700000017881},{""page_index"":6,""viewing_time"":2356.2999999821186}]","61014.19999998808","tol-instructions","","","","","","","","","","","","","","","","","","","","","","","","","","",""
"","","","","","html-button-response","4","79598","0.0-2.0-1.0-1.0-0.0","55bce852fdf99b268358f83b","B2","batch2","","971.3000000119209","tol_enter_quiz","<p class=block-text> Let's answer a few questions <br>","0","","","","","","","","","","","","","","","","","","","","","","","","",""
"","","","","","html-button-response","5","86175","0.0-2.0-1.0-1.0-1.0","55bce852fdf99b268358f83b","B2","batch2","","6576.299999982119","tol_quiz","<p class = block-text>True or False: You can only move the ball on top of a peg. <br></p>","0","true","","","","","","","","","","","","","","","","","","","","","","","",""
"","","","","","html-button-response","6","87847","0.0-2.0-1.0-1.0-2.0","55bce852fdf99b268358f83b","B2","batch2","","1670.9000000059605","tol_quiz_feedback","<p class = block-text>Correct! You can only move the ball on top of a peg.</p>","0","","","","","","","","","","","","","","","","","","","","","","","","",""
"","","","","","html-button-response","7","90358","0.0-2.0-1.0-1.0-3.0","55bce852fdf99b268358f83b","B2","batch2","","2510.4000000059605","tol_quiz","<p class = block-text>True or False: You should try to match your board with the target board with fewest moves possible. <br></p>","0","true","","","","","","","","","","","","","","","","","","","","","","","",""
"","","","","","html-button-response","8","91132","0.0-2.0-1.0-1.0-4.0","55bce852fdf99b268358f83b","B2","batch2","","774","tol_quiz_feedback","<p class = block-text>Correct! </p>","0","","","","","","","","","","","","","","","","","","","","","","","","",""
"","","","","","html-button-response","9","92385","0.0-2.0-2.0","55bce852fdf99b268358f83b","B2","batch2","","1252","","<p class=block-text> Now that you've understood the game, let's practice a few easier examples before we start!<br> <br>","0","","","","","","","","","","","","","","","","","","","","","","","","",""
"","","","","","single-stim-button","10","95581","0.0-2.0-3.0-0.0","55bce852fdf99b268358f83b","B2","batch2","","3194","tol_practice","","","","tol_peg_2","3194","3194","0","[[1,2,0],[0,0],[0]]","1","[[1,2,0],[0,0],[3]]","practice","3194","","","","","","","","","","","","","","",""
"","","","","","single-stim-button","11","96773","0.0-2.0-3.0-1.0","55bce852fdf99b268358f83b","B2","batch2","","1192","tol_practice","","","","tol_peg_3","1192","1192","0","[[1,2,0],[0,0],[3]]","1","[[1,2,0],[0,0],[3]]","practice","1192","","","","","","","","","","","","","","",""
"","","","","","poldrack-single-stim","12","97781","0.0-2.0-4.0","55bce852fdf99b268358f83b","B2","batch2","","-1","tol_feedback","","","true","","1000","1000","500","","","","","","-1","none","true","","0","","","","","","","","","",""
"","","","","","single-stim-button","13","100972","0.0-2.0-5.0-0.0","55bce852fdf99b268358f83b","B2","batch2","","3191","tol_practice","","","","tol_peg_1","3191","3191","0","[[1,0,0],[3,0],[0]]","2","[[0,0,0],[3,1],[2]]","practice","3191","","","","","","","","","","","","","","",""
"","","","","","single-stim-button","14","101513","0.0-2.0-5.0-1.0","55bce852fdf99b268358f83b","B2","batch2","","541","tol_practice","","","","tol_peg_3","541","541","0","[[1,0,0],[3,0],[2]]","2","[[0,0,0],[3,1],[2]]","practice","541","","","","","","","","","","","","","","",""
"","","","","","single-stim-button","15","102408","0.0-2.0-5.1-0.1","55bce852fdf99b268358f83b","B2","batch2","","894","tol_practice","","","","tol_peg_1","894","894","0","[[0,0,0],[3,0],[2]]","3","[[0,0,0],[3,1],[2]]","practice","894","","","","","","","","","","","","","","",""
"","","","","","single-stim-button","16","103053","0.0-2.0-5.1-1.1","55bce852fdf99b268358f83b","B2","batch2","","644","tol_practice","","","","tol_peg_2","644","644","0","[[0,0,0],[3,1],[2]]","3","[[0,0,0],[3,1],[2]]","practice","644","","","","","","","","","","","","","","",""
"","","","","","poldrack-single-stim","17","104060","0.0-2.0-6.0","55bce852fdf99b268358f83b","B2","batch2","","-1","tol_feedback","","","true","","1000","1000","500","","","","","","-1","none","true","","0","","","","","","","","","",""
"","","","","","single-stim-button","18","106683","0.0-2.0-7.0-0.0","55bce852fdf99b268358f83b","B2","batch2","","2623","tol_practice","","","","tol_peg_2","2623","2623","0","[[1,2,0],[0,0],[0]]","4","[[1,0,0],[2,0],[3]]","practice","2623","","","","","","","","","","","","","","",""
"","","","","","single-stim-button","19","107391","0.0-2.0-7.0-1.0","55bce852fdf99b268358f83b","B2","batch2","","707","tol_practice","","","","tol_peg_3","707","707","0","[[1,2,0],[0,0],[3]]","4","[[1,0,0],[2,0],[3]]","practice","707","","","","","","","","","","","","","","",""
"","","","","","single-stim-button","20","108713","0.0-2.0-7.1-0.1","55bce852fdf99b268358f83b","B2","batch2","","1322","tol_practice","","","","tol_peg_1","1322","1322","0","[[1,0,0],[0,0],[3]]","5","[[1,0,0],[2,0],[3]]","practice","1322","","","","","","","","","","","","","","",""
"","","","","","single-stim-button","21","110211","0.0-2.0-7.1-1.1","55bce852fdf99b268358f83b","B2","batch2","","1497","tol_practice","","","","tol_peg_2","1497","1497","0","[[1,0,0],[2,0],[3]]","5","[[1,0,0],[2,0],[3]]","practice","1497","","","","","","","","","","","","","","",""
"","","","","","poldrack-single-stim","22","111221","0.0-2.0-8.0","55bce852fdf99b268358f83b","B2","batch2","","-1","tol_feedback","","","true","","1000","1000","500","","","","","","-1","none","true","","0","","","","","","","","","",""
"","","","","","html-button-response","23","114192","0.0-2.0-9.0","55bce852fdf99b268358f83b","B2","batch2","","2970.5","tol_instruction","<div class = centerbox><p class = center-block-text>Great job! You are done with practice trials<br>You are about to start official trials.<br> <br> Problem <strong>1</strong> out of 25 problems</p></div>","0","","","","","","","","","","","","","","","","","","","","","","","","",""
"","","","","","single-stim-button","24","120114","0.0-2.0-10.0-0.0","55bce852fdf99b268358f83b","B2","batch2","","4921","tol_tohand","","","","tol_peg_2","4921","4921","0","[[1,2,0],[0,0],[0]]","1","[[1,3,0],[2,0],[0]]","0","0","","","","","","3","","","","","","","","",""
"","","","","","single-stim-button","25","120997","0.0-2.0-10.0-1.0","55bce852fdf99b268358f83b","B2","batch2","","883","tol_toboard","","","","tol_peg_3","883","883","0","[[1,2,0],[0,0],[3]]","1","[[1,3,0],[2,0],[0]]","0","0","","","","","","3","","","","","","","","",""
"","","","","","single-stim-button","26","121803","0.0-2.0-10.1-0.1","55bce852fdf99b268358f83b","B2","batch2","","804","tol_tohand","","","","tol_peg_1","804","804","0","[[1,0,0],[0,0],[3]]","2","[[1,3,0],[2,0],[0]]","0","0","","","","","","3","","","","","","","","",""
"","","","","","single-stim-button","27","122607","0.0-2.0-10.1-1.1","55bce852fdf99b268358f83b","B2","batch2","","804","tol_toboard","","","","tol_peg_2","804","804","0","[[1,0,0],[2,0],[3]]","2","[[1,3,0],[2,0],[0]]","0","0","","","","","","3","","","","","","","","",""
"","","","","","single-stim-button","28","123498","0.0-2.0-10.2-0.2","55bce852fdf99b268358f83b","B2","batch2","","889","tol_tohand","","","","tol_peg_3","889","889","0","[[1,0,0],[2,0],[0]]","3","[[1,3,0],[2,0],[0]]","0","0","","","","","","3","","","","","","","","",""
"","","","","","single-stim-button","29","124746","0.0-2.0-10.2-1.2","55bce852fdf99b268358f83b","B2","batch2","","1247","tol_toboard","","","","tol_peg_1","1247","1247","0","[[1,3,0],[2,0],[0]]","3","[[1,3,0],[2,0],[0]]","0","0","","","","","","3","","","","","","","","",""
"","","","","","poldrack-single-stim","30","125749","0.0-2.0-11.0","55bce852fdf99b268358f83b","B2","batch2","","-1","tol_feedback","","","true","","1000","1000","500","","","","","","-1","none","true","4921","6614","","","","","","","","","",""
"","","","","","html-button-response","31","126535","0.0-2.0-12.0","55bce852fdf99b268358f83b","B2","batch2","","784.8000000119209","tol_trial_num","<div class = centerbox><p class = center-block-text>problem <strong>2</strong> out of 25 problems</p></div>","0","","","","","","","","","","","","","","","","","","","","","","","","",""
"","","","","","single-stim-button","32","129785","0.0-2.0-13.0-0.0","55bce852fdf99b268358f83b","B2","batch2","","3249","tol_tohand","","","","tol_peg_1","3249","3249","0","[[1,0,0],[3,0],[0]]","1","[[2,1,3],[0,0],[0]]","1","0","","","","","","5","","","","","","","","",""
"","","","","","single-stim-button","33","135849","0.0-2.0-13.0-1.0","55bce852fdf99b268358f83b","B2","batch2","","6063","tol_toboard","","","","tol_peg_3","6063","6063","0","[[1,0,0],[3,0],[2]]","1","[[2,1,3],[0,0],[0]]","1","0","","","","","","5","","","","","","","","",""
"","","","","","single-stim-button","34","136620","0.0-2.0-13.1-0.1","55bce852fdf99b268358f83b","B2","batch2","","771","tol_tohand","","","","tol_peg_1","771","771","0","[[0,0,0],[3,0],[2]]","2","[[2,1,3],[0,0],[0]]","1","0","","","","","","5","","","","","","","","",""
"","","","","","single-stim-button","35","137254","0.0-2.0-13.1-1.1","55bce852fdf99b268358f83b","B2","batch2","","632","tol_toboard","","","","tol_peg_2","632","632","0","[[0,0,0],[3,1],[2]]","2","[[2,1,3],[0,0],[0]]","1","0","","","","","","5","","","","","","","","",""
"","","","","","single-stim-button","36","137868","0.0-2.0-13.2-0.2","55bce852fdf99b268358f83b","B2","batch2","","613","tol_tohand","","","","tol_peg_3","613","613","0","[[0,0,0],[3,1],[0]]","3","[[2,1,3],[0,0],[0]]","1","0","","","","","","5","","","","","","","","",""
"","","","","","single-stim-button","37","138541","0.0-2.0-13.2-1.2","55bce852fdf99b268358f83b","B2","batch2","","672","tol_toboard","","","","tol_peg_1","672","672","0","[[2,0,0],[3,1],[0]]","3","[[2,1,3],[0,0],[0]]","1","0","","","","","","5","","","","","","","","",""
"","","","","","single-stim-button","38","139380","0.0-2.0-13.3-0.3","55bce852fdf99b268358f83b","B2","batch2","","839","tol_tohand","","","","tol_peg_2","839","839","0","[[2,0,0],[3,0],[0]]","4","[[2,1,3],[0,0],[0]]","1","0","","","","","","5","","","","","","","","",""
"","","","","","single-stim-button","39","140134","0.0-2.0-13.3-1.3","55bce852fdf99b268358f83b","B2","batch2","","753","tol_toboard","","","","tol_peg_1","753","753","0","[[2,1,0],[3,0],[0]]","4","[[2,1,3],[0,0],[0]]","1","0","","","","","","5","","","","","","","","",""
"","","","","","single-stim-button","40","140687","0.0-2.0-13.4-0.4","55bce852fdf99b268358f83b","B2","batch2","","553","tol_tohand","","","","tol_peg_2","553","553","0","[[2,1,0],[0,0],[0]]","5","[[2,1,3],[0,0],[0]]","1","0","","","","","","5","","","","","","","","",""
"","","","","","single-stim-button","41","141145","0.0-2.0-13.4-1.4","55bce852fdf99b268358f83b","B2","batch2","","457","tol_toboard","","","","tol_peg_1","457","457","0","[[2,1,3],[0,0],[0]]","5","[[2,1,3],[0,0],[0]]","1","0","","","","","","5","","","","","","","","",""
"","","","","","poldrack-single-stim","42","142154","0.0-2.0-14.0","55bce852fdf99b268358f83b","B2","batch2","","-1","tol_feedback","","","true","","1000","1000","500","","","","","","-1","none","true","3249","6025","","","","","","","","","",""
"","","","","","html-button-response","43","143134","0.0-2.0-15.0","55bce852fdf99b268358f83b","B2","batch2","","980","tol_trial_num","<div class = centerbox><p class = center-block-text>problem <strong>3</strong> out of 25 problems</p></div>","0","","","","","","","","","","","","","","","","","","","","","","","","",""
"","","","","","single-stim-button","44","147303","0.0-2.0-16.0-0.0","55bce852fdf99b268358f83b","B2","batch2","","4168","tol_tohand","","","","tol_peg_1","4168","4168","0","[[2,0,0],[0,0],[1]]","1","[[1,2,0],[3,0],[0]]","2","0","","","","","","4","","","","","","","","",""
"","","","","","single-stim-button","45","148900","0.0-2.0-16.0-1.0","55bce852fdf99b268358f83b","B2","batch2","","1596","tol_toboard","","","","tol_peg_2","1596","1596","0","[[2,0,0],[3,0],[1]]","1","[[1,2,0],[3,0],[0]]","2","0","","","","","","4","","","","","","","","",""
"","","","","","single-stim-button","46","153710","0.0-2.0-16.1-0.1","55bce852fdf99b268358f83b","B2","batch2","","4810","tol_tohand","","","","tol_peg_1","4810","4810","0","[[0,0,0],[3,0],[1]]","2","[[1,2,0],[3,0],[0]]","2","0","","","","","","4","","","","","","","","",""
"","","","","","single-stim-button","47","154431","0.0-2.0-16.1-1.1","55bce852fdf99b268358f83b","B2","batch2","","719","tol_toboard","","","","tol_peg_2","719","719","0","[[0,0,0],[3,2],[1]]","2","[[1,2,0],[3,0],[0]]","2","0","","","","","","4","","","","","","","","",""
"","","","","","single-stim-button","48","155039","0.0-2.0-16.2-0.2","55bce852fdf99b268358f83b","B2","batch2","","608","tol_tohand","","","","tol_peg_3","608","608","0","[[0,0,0],[3,2],[0]]","3","[[1,2,0],[3,0],[0]]","2","0","","","","","","4","","","","","","","","",""
"","","","","","single-stim-button","49","155737","0.0-2.0-16.2-1.2","55bce852fdf99b268358f83b","B2","batch2","","697","tol_toboard","","","","tol_peg_1","697","697","0","[[1,0,0],[3,2],[0]]","3","[[1,2,0],[3,0],[0]]","2","0","","","","","","4","","","","","","","","",""
"","","","","","single-stim-button","50","156666","0.0-2.0-16.3-0.3","55bce852fdf99b268358f83b","B2","batch2","","929","tol_tohand","","","","tol_peg_2","929","929","0","[[1,0,0],[3,0],[0]]","4","[[1,2,0],[3,0],[0]]","2","0","","","","","","4","","","","","","","","",""
"","","","","","single-stim-button","51","157301","0.0-2.0-16.3-1.3","55bce852fdf99b268358f83b","B2","batch2","","635","tol_toboard","","","","tol_peg_1","635","635","0","[[1,2,0],[3,0],[0]]","4","[[1,2,0],[3,0],[0]]","2","0","","","","","","4","","","","","","","","",""
"","","","","","poldrack-single-stim","52","158302","0.0-2.0-17.0","55bce852fdf99b268358f83b","B2","batch2","","-1","tol_feedback","","","true","","1000","1000","500","","","","","","-1","none","true","4168","10515","","","","","","","","","",""
"","","","","","html-button-response","53","159195","0.0-2.0-18.0","55bce852fdf99b268358f83b","B2","batch2","","892.0999999940395","tol_trial_num","<div class = centerbox><p class = center-block-text>problem <strong>4</strong> out of 25 problems</p></div>","0","","","","","","","","","","","","","","","","","","","","","","","","",""
"","","","","","single-stim-button","54","162390","0.0-2.0-19.0-0.0","55bce852fdf99b268358f83b","B2","batch2","","3195","tol_tohand","","","","tol_peg_2","3195","3195","0","[[3,0,0],[2,0],[0]]","1","[[3,0,0],[1,0],[2]]","3","0","","","","","","3","","","","","","","","",""
"","","","","","single-stim-button","55","162940","0.0-2.0-19.0-1.0","55bce852fdf99b268358f83b","B2","batch2","","549","tol_toboard","","","","tol_peg_1","549","549","0","[[3,1,0],[2,0],[0]]","1","[[3,0,0],[1,0],[2]]","3","0","","","","","","3","","","","","","","","",""
"","","","","","single-stim-button","56","163506","0.0-2.0-19.1-0.1","55bce852fdf99b268358f83b","B2","batch2","","565","tol_tohand","","","","tol_peg_2","565","565","0","[[3,1,0],[0,0],[0]]","2","[[3,0,0],[1,0],[2]]","3","0","","","","","","3","","","","","","","","",""
"","","","","","single-stim-button","57","163916","0.0-2.0-19.1-1.1","55bce852fdf99b268358f83b","B2","batch2","","409","tol_toboard","","","","tol_peg_3","409","409","0","[[3,1,0],[0,0],[2]]","2","[[3,0,0],[1,0],[2]]","3","0","","","","","","3","","","","","","","","",""
"","","","","","single-stim-button","58","164751","0.0-2.0-19.2-0.2","55bce852fdf99b268358f83b","B2","batch2","","835","tol_tohand","","","","tol_peg_1","835","835","0","[[3,0,0],[0,0],[2]]","3","[[3,0,0],[1,0],[2]]","3","0","","","","","","3","","","","","","","","",""
"","","","","","single-stim-button","59","165427","0.0-2.0-19.2-1.2","55bce852fdf99b268358f83b","B2","batch2","","675","tol_toboard","","","","tol_peg_2","675","675","0","[[3,0,0],[1,0],[2]]","3","[[3,0,0],[1,0],[2]]","3","0","","","","","","3","","","","","","","","",""
"","","","","","poldrack-single-stim","60","166433","0.0-2.0-20.0","55bce852fdf99b268358f83b","B2","batch2","","-1","tol_feedback","","","true","","1000","1000","500","","","","","","-1","none","true","3195","4595","","","","","","","","","",""
"","","","","","html-button-response","61","167312","0.0-2.0-21.0","55bce852fdf99b268358f83b","B2","batch2","","878.5999999940395","tol_trial_num","<div class = centerbox><p class = center-block-text>problem <strong>5</strong> out of 25 problems</p></div>","0","","","","","","","","","","","","","","","","","","","","","","","","",""
"","","","","","single-stim-button","62","175450","0.0-2.0-22.0-0.0","55bce852fdf99b268358f83b","B2","batch2","","8137","tol_tohand","","","","tol_peg_3","8137","8137","0","[[1,0,0],[2,0],[0]]","1","[[0,0,0],[1,2],[3]]","4","0","","","","","","7","","","","","","","","",""
"","","","","","single-stim-button","63","176256","0.0-2.0-22.0-1.0","55bce852fdf99b268358f83b","B2","batch2","","806","tol_toboard","","","","tol_peg_2","806","806","0","[[1,0,0],[2,3],[0]]","1","[[0,0,0],[1,2],[3]]","4","0","","","","","","7","","","","","","","","",""
"","","","","","single-stim-button","64","177151","0.0-2.0-22.1-0.1","55bce852fdf99b268358f83b","B2","batch2","","894","tol_tohand","","","","tol_peg_1","894","894","0","[[0,0,0],[2,3],[0]]","2","[[0,0,0],[1,2],[3]]","4","0","","","","","","7","","","","","","","","",""
"","","","","","single-stim-button","65","177771","0.0-2.0-22.1-1.1","55bce852fdf99b268358f83b","B2","batch2","","619","tol_toboard","","","","tol_peg_3","619","619","0","[[0,0,0],[2,3],[1]]","2","[[0,0,0],[1,2],[3]]","4","0","","","","","","7","","","","","","","","",""
"","","","","","single-stim-button","66","178573","0.0-2.0-22.2-0.2","55bce852fdf99b268358f83b","B2","batch2","","801","tol_tohand","","","","tol_peg_2","801","801","0","[[0,0,0],[2,0],[1]]","3","[[0,0,0],[1,2],[3]]","4","0","","","","","","7","","","","","","","","",""
"","","","","","single-stim-button","67","179285","0.0-2.0-22.2-1.2","55bce852fdf99b268358f83b","B2","batch2","","711","tol_toboard","","","","tol_peg_1","711","711","0","[[3,0,0],[2,0],[1]]","3","[[0,0,0],[1,2],[3]]","4","0","","","","","","7","","","","","","","","",""
"","","","","","single-stim-button","68","180778","0.0-2.0-22.3-0.3","55bce852fdf99b268358f83b","B2","batch2","","1493","tol_tohand","","","","tol_peg_2","1493","1493","0","[[3,0,0],[0,0],[1]]","4","[[0,0,0],[1,2],[3]]","4","0","","","","","","7","","","","","","","","",""
"","","","","","single-stim-button","69","181718","0.0-2.0-22.3-1.3","55bce852fdf99b268358f83b","B2","batch2","","939","tol_toboard","","","","tol_peg_1","939","939","0","[[3,2,0],[0,0],[1]]","4","[[0,0,0],[1,2],[3]]","4","0","","","","","","7","","","","","","","","",""
"","","","","","single-stim-button","70","182704","0.0-2.0-22.4-0.4","55bce852fdf99b268358f83b","B2","batch2","","986","tol_tohand","","","","tol_peg_3","986","986","0","[[3,2,0],[0,0],[0]]","5","[[0,0,0],[1,2],[3]]","4","0","","","","","","7","","","","","","","","",""
"","","","","","single-stim-button","71","183324","0.0-2.0-22.4-1.4","55bce852fdf99b268358f83b","B2","batch2","","620","tol_toboard","","","","tol_peg_2","620","620","0","[[3,2,0],[1,0],[0]]","5","[[0,0,0],[1,2],[3]]","4","0","","","","","","7","","","","","","","","",""
"","","","","","single-stim-button","72","184030","0.0-2.0-22.5-0.5","55bce852fdf99b268358f83b","B2","batch2","","706","tol_tohand","","","","tol_peg_1","706","706","0","[[3,0,0],[1,0],[0]]","6","[[0,0,0],[1,2],[3]]","4","0","","","","","","7","","","","","","","","",""
"","","","","","single-stim-button","73","184916","0.0-2.0-22.5-1.5","55bce852fdf99b268358f83b","B2","batch2","","885","tol_toboard","","","","tol_peg_2","885","885","0","[[3,0,0],[1,2],[0]]","6","[[0,0,0],[1,2],[3]]","4","0","","","","","","7","","","","","","","","",""
"","","","","","single-stim-button","74","185775","0.0-2.0-22.6-0.6","55bce852fdf99b268358f83b","B2","batch2","","858","tol_tohand","","","","tol_peg_1","858","858","0","[[0,0,0],[1,2],[0]]","7","[[0,0,0],[1,2],[3]]","4","0","","","","","","7","","","","","","","","",""
"","","","","","single-stim-button","75","186434","0.0-2.0-22.6-1.6","55bce852fdf99b268358f83b","B2","batch2","","658","tol_toboard","","","","tol_peg_3","658","658","0","[[0,0,0],[1,2],[3]]","7","[[0,0,0],[1,2],[3]]","4","0","","","","","","7","","","","","","","","",""
"","","","","","poldrack-single-stim","76","187448","0.0-2.0-23.0","55bce852fdf99b268358f83b","B2","batch2","","-1","tol_feedback","","","true","","1000","1000","500","","","","","","-1","none","true","8137","13875","","","","","","","","","",""
"","","","","","html-button-response","77","188202","0.0-2.0-24.0","55bce852fdf99b268358f83b","B2","batch2","","753.8000000119209","tol_trial_num","<div class = centerbox><p class = center-block-text>problem <strong>6</strong> out of 25 problems</p></div>","0","","","","","","","","","","","","","","","","","","","","","","","","",""
"","","","","","single-stim-button","78","194766","0.0-2.0-25.0-0.0","55bce852fdf99b268358f83b","B2","batch2","","6562","tol_tohand","","","","tol_peg_3","6562","6562","0","[[0,0,0],[1,2],[0]]","1","[[1,0,0],[2,3],[0]]","5","0","","","","","","6","","","","","","","","",""
"","","","","","single-stim-button","79","195495","0.0-2.0-25.0-1.0","55bce852fdf99b268358f83b","B2","batch2","","729","tol_toboard","","","","tol_peg_1","729","729","0","[[3,0,0],[1,2],[0]]","1","[[1,0,0],[2,3],[0]]","5","0","","","","","","6","","","","","","","","",""
"","","","","","single-stim-button","80","196296","0.0-2.0-25.1-0.1","55bce852fdf99b268358f83b","B2","batch2","","799","tol_tohand","","","","tol_peg_2","799","799","0","[[3,0,0],[1,0],[0]]","2","[[1,0,0],[2,3],[0]]","5","0","","","","","","6","","","","","","","","",""
"","","","","","single-stim-button","81","198242","0.0-2.0-25.1-1.1","55bce852fdf99b268358f83b","B2","batch2","","1946","tol_toboard","","","","tol_peg_3","1946","1946","0","[[3,0,0],[1,0],[2]]","2","[[1,0,0],[2,3],[0]]","5","0","","","","","","6","","","","","","","","",""
"","","","","","single-stim-button","82","200106","0.0-2.0-25.2-0.2","55bce852fdf99b268358f83b","B2","batch2","","1862","tol_tohand","","","","tol_peg_2","1862","1862","0","[[3,0,0],[0,0],[2]]","3","[[1,0,0],[2,3],[0]]","5","0","","","","","","6","","","","","","","","",""
"","","","","","single-stim-button","83","201069","0.0-2.0-25.2-1.2","55bce852fdf99b268358f83b","B2","batch2","","963","tol_toboard","","","","tol_peg_1","963","963","0","[[3,1,0],[0,0],[2]]","3","[[1,0,0],[2,3],[0]]","5","0","","","","","","6","","","","","","","","",""
"","","","","","single-stim-button","84","201849","0.0-2.0-25.3-0.3","55bce852fdf99b268358f83b","B2","batch2","","779","tol_tohand","","","","tol_peg_3","779","779","0","[[3,1,0],[0,0],[0]]","4","[[1,0,0],[2,3],[0]]","5","0","","","","","","6","","","","","","","","",""
"","","","","","single-stim-button","85","202500","0.0-2.0-25.3-1.3","55bce852fdf99b268358f83b","B2","batch2","","650","tol_toboard","","","","tol_peg_2","650","650","0","[[3,1,0],[2,0],[0]]","4","[[1,0,0],[2,3],[0]]","5","0","","","","","","6","","","","","","","","",""
"","","","","","single-stim-button","86","203187","0.0-2.0-25.4-0.4","55bce852fdf99b268358f83b","B2","batch2","","687","tol_tohand","","","","tol_peg_1","687","687","0","[[3,0,0],[2,0],[0]]","5","[[1,0,0],[2,3],[0]]","5","0","","","","","","6","","","","","","","","",""
"","","","","","single-stim-button","87","204789","0.0-2.0-25.4-1.4","55bce852fdf99b268358f83b","B2","batch2","","1602","tol_toboard","","","","tol_peg_3","1602","1602","0","[[3,0,0],[2,0],[1]]","5","[[1,0,0],[2,3],[0]]","5","0","","","","","","6","","","","","","","","",""
"","","","","","single-stim-button","88","205515","0.0-2.0-25.5-0.5","55bce852fdf99b268358f83b","B2","batch2","","726","tol_tohand","","","","tol_peg_1","726","726","0","[[0,0,0],[2,0],[1]]","6","[[1,0,0],[2,3],[0]]","5","0","","","","","","6","","","","","","","","",""
"","","","","","single-stim-button","89","206102","0.0-2.0-25.5-1.5","55bce852fdf99b268358f83b","B2","batch2","","585","tol_toboard","","","","tol_peg_2","585","585","0","[[0,0,0],[2,3],[1]]","6","[[1,0,0],[2,3],[0]]","5","0","","","","","","6","","","","","","","","",""
"","","","","","single-stim-button","90","206656","0.0-2.0-25.6-0.6","55bce852fdf99b268358f83b","B2","batch2","","554","tol_tohand","","","","tol_peg_3","554","554","0","[[0,0,0],[2,3],[0]]","7","[[1,0,0],[2,3],[0]]","5","0","","","","","","6","","","","","","","","",""
"","","","","","single-stim-button","91","207523","0.0-2.0-25.6-1.6","55bce852fdf99b268358f83b","B2","batch2","","865","tol_toboard","","","","tol_peg_1","865","865","0","[[1,0,0],[2,3],[0]]","7","[[1,0,0],[2,3],[0]]","5","0","","","","","","6","","","","","","","","",""
"","","","","","poldrack-single-stim","92","208524","0.0-2.0-26.0","55bce852fdf99b268358f83b","B2","batch2","","-1","tol_feedback","","","true","","1000","1000","500","","","","","","-1","none","true","6562","11969","","","","","","","","","",""
"","","","","","html-button-response","93","209342","0.0-2.0-27.0","55bce852fdf99b268358f83b","B2","batch2","","817","tol_trial_num","<div class = centerbox><p class = center-block-text>problem <strong>7</strong> out of 25 problems</p></div>","0","","","","","","","","","","","","","","","","","","","","","","","","",""
"","","","","","single-stim-button","94","213063","0.0-2.0-28.0-0.0","55bce852fdf99b268358f83b","B2","batch2","","3720","tol_tohand","","","","tol_peg_3","3720","3720","0","[[2,1,0],[0,0],[0]]","1","[[1,2,0],[3,0],[0]]","6","0","","","","","","5","","","","","","","","",""
"","","","","","single-stim-button","95","213817","0.0-2.0-28.0-1.0","55bce852fdf99b268358f83b","B2","batch2","","753","tol_toboard","","","","tol_peg_2","753","753","0","[[2,1,0],[3,0],[0]]","1","[[1,2,0],[3,0],[0]]","6","0","","","","","","5","","","","","","","","",""
"","","","","","single-stim-button","96","214752","0.0-2.0-28.1-0.1","55bce852fdf99b268358f83b","B2","batch2","","935","tol_tohand","","","","tol_peg_1","935","935","0","[[2,0,0],[3,0],[0]]","2","[[1,2,0],[3,0],[0]]","6","0","","","","","","5","","","","","","","","",""
"","","","","","single-stim-button","97","215365","0.0-2.0-28.1-1.1","55bce852fdf99b268358f83b","B2","batch2","","612","tol_toboard","","","","tol_peg_3","612","612","0","[[2,0,0],[3,0],[1]]","2","[[1,2,0],[3,0],[0]]","6","0","","","","","","5","","","","","","","","",""
"","","","","","single-stim-button","98","216345","0.0-2.0-28.2-0.2","55bce852fdf99b268358f83b","B2","batch2","","980","tol_tohand","","","","tol_peg_1","980","980","0","[[0,0,0],[3,0],[1]]","3","[[1,2,0],[3,0],[0]]","6","0","","","","","","5","","","","","","","","",""
"","","","","","single-stim-button","99","216872","0.0-2.0-28.2-1.2","55bce852fdf99b268358f83b","B2","batch2","","527","tol_toboard","","","","tol_peg_2","527","527","0","[[0,0,0],[3,2],[1]]","3","[[1,2,0],[3,0],[0]]","6","0","","","","","","5","","","","","","","","",""
"","","","","","single-stim-button","100","217538","0.0-2.0-28.3-0.3","55bce852fdf99b268358f83b","B2","batch2","","665","tol_tohand","","","","tol_peg_3","665","665","0","[[0,0,0],[3,2],[0]]","4","[[1,2,0],[3,0],[0]]","6","0","","","","","","5","","","","","","","","",""
"","","","","","single-stim-button","101","218240","0.0-2.0-28.3-1.3","55bce852fdf99b268358f83b","B2","batch2","","701","tol_toboard","","","","tol_peg_1","701","701","0","[[1,0,0],[3,2],[0]]","4","[[1,2,0],[3,0],[0]]","6","0","","","","","","5","","","","","","","","",""
"","","","","","single-stim-button","102","218700","0.0-2.0-28.4-0.4","55bce852fdf99b268358f83b","B2","batch2","","458","tol_tohand","","","","tol_peg_2","458","458","0","[[1,0,0],[3,0],[0]]","5","[[1,2,0],[3,0],[0]]","6","0","","","","","","5","","","","","","","","",""
"","","","","","single-stim-button","103","219333","0.0-2.0-28.4-1.4","55bce852fdf99b268358f83b","B2","batch2","","633","tol_toboard","","","","tol_peg_1","633","633","0","[[1,2,0],[3,0],[0]]","5","[[1,2,0],[3,0],[0]]","6","0","","","","","","5","","","","","","","","",""
"","","","","","poldrack-single-stim","104","220346","0.0-2.0-29.0","55bce852fdf99b268358f83b","B2","batch2","","-1","tol_feedback","","","true","","1000","1000","500","","","","","","-1","none","true","3720","6758","","","","","","","","","",""
"","","","","","html-button-response","105","221289","0.0-2.0-30.0","55bce852fdf99b268358f83b","B2","batch2","","942.8000000119209","tol_trial_num","<div class = centerbox><p class = center-block-text>problem <strong>8</strong> out of 25 problems</p></div>","0","","","","","","","","","","","","","","","","","","","","","","","","",""
"","","","","","single-stim-button","106","225881","0.0-2.0-31.0-0.0","55bce852fdf99b268358f83b","B2","batch2","","4591","tol_tohand","","","","tol_peg_3","4591","4591","0","[[0,0,0],[2,3],[0]]","1","[[1,2,0],[3,0],[0]]","7","0","","","","","","4","","","","","","","","",""
"","","","","","single-stim-button","107","226475","0.0-2.0-31.0-1.0","55bce852fdf99b268358f83b","B2","batch2","","592","tol_toboard","","","","tol_peg_1","592","592","0","[[1,0,0],[2,3],[0]]","1","[[1,2,0],[3,0],[0]]","7","0","","","","","","4","","","","","","","","",""
"","","","","","single-stim-button","108","228141","0.0-2.0-31.1-0.1","55bce852fdf99b268358f83b","B2","batch2","","1665","tol_tohand","","","","tol_peg_2","1665","1665","0","[[1,0,0],[2,0],[0]]","2","[[1,2,0],[3,0],[0]]","7","0","","","","","","4","","","","","","","","",""
"","","","","","single-stim-button","109","229128","0.0-2.0-31.1-1.1","55bce852fdf99b268358f83b","B2","batch2","","987","tol_toboard","","","","tol_peg_3","987","987","0","[[1,0,0],[2,0],[3]]","2","[[1,2,0],[3,0],[0]]","7","0","","","","","","4","","","","","","","","",""
"","","","","","single-stim-button","110","229613","0.0-2.0-31.2-0.2","55bce852fdf99b268358f83b","B2","batch2","","483","tol_tohand","","","","tol_peg_2","483","483","0","[[1,0,0],[0,0],[3]]","3","[[1,2,0],[3,0],[0]]","7","0","","","","","","4","","","","","","","","",""
"","","","","","single-stim-button","111","230227","0.0-2.0-31.2-1.2","55bce852fdf99b268358f83b","B2","batch2","","614","tol_toboard","","","","tol_peg_1","614","614","0","[[1,2,0],[0,0],[3]]","3","[[1,2,0],[3,0],[0]]","7","0","","","","","","4","","","","","","","","",""
"","","","","","single-stim-button","112","230761","0.0-2.0-31.3-0.3","55bce852fdf99b268358f83b","B2","batch2","","534","tol_tohand","","","","tol_peg_3","534","534","0","[[1,2,0],[0,0],[0]]","4","[[1,2,0],[3,0],[0]]","7","0","","","","","","4","","","","","","","","",""
"","","","","","single-stim-button","113","231382","0.0-2.0-31.3-1.3","55bce852fdf99b268358f83b","B2","batch2","","620","tol_toboard","","","","tol_peg_2","620","620","0","[[1,2,0],[3,0],[0]]","4","[[1,2,0],[3,0],[0]]","7","0","","","","","","4","","","","","","","","",""
"","","","","","poldrack-single-stim","114","232389","0.0-2.0-32.0","55bce852fdf99b268358f83b","B2","batch2","","-1","tol_feedback","","","true","","1000","1000","500","","","","","","-1","none","true","4591","7273","","","","","","","","","",""
"","","","","","html-button-response","115","233208","0.0-2.0-33.0","55bce852fdf99b268358f83b","B2","batch2","","818.5999999940395","tol_trial_num","<div class = centerbox><p class = center-block-text>problem <strong>9</strong> out of 25 problems</p></div>","0","","","","","","","","","","","","","","","","","","","","","","","","",""
"","","","","","single-stim-button","116","242912","0.0-2.0-34.0-0.0","55bce852fdf99b268358f83b","B2","batch2","","9703","tol_tohand","","","","tol_peg_1","9703","9703","0","[[3,0,0],[0,0],[1]]","1","[[2,1,0],[3,0],[0]]","8","0","","","","","","6","","","","","","","","",""
"","","","","","single-stim-button","117","243673","0.0-2.0-34.0-1.0","55bce852fdf99b268358f83b","B2","batch2","","759","tol_toboard","","","","tol_peg_2","759","759","0","[[3,0,0],[2,0],[1]]","1","[[2,1,0],[3,0],[0]]","8","0","","","","","","6","","","","","","","","",""
"","","","","","single-stim-button","118","250374","0.0-2.0-34.1-0.1","55bce852fdf99b268358f83b","B2","batch2","","6701","tol_tohand","","","","tol_peg_3","6701","6701","0","[[3,0,0],[2,0],[0]]","2","[[2,1,0],[3,0],[0]]","8","0","","","","","","6","","","","","","","","",""
"","","","","","single-stim-button","119","260095","0.0-2.0-34.1-1.1","55bce852fdf99b268358f83b","B2","batch2","","9720","tol_toboard","","","","tol_peg_3","9720","9720","0","[[3,0,0],[2,0],[1]]","2","[[2,1,0],[3,0],[0]]","8","0","","","","","","6","","","","","","","","",""
"","","","","","single-stim-button","120","262218","0.0-2.0-34.2-0.2","55bce852fdf99b268358f83b","B2","batch2","","2122","tol_tohand","","","","tol_peg_3","2122","2122","0","[[3,0,0],[2,0],[0]]","3","[[2,1,0],[3,0],[0]]","8","0","","","","","","6","","","","","","","","",""
"","","","","","single-stim-button","121","266319","0.0-2.0-34.2-1.2","55bce852fdf99b268358f83b","B2","batch2","","4099","tol_toboard","","","","tol_peg_2","4099","4099","0","[[3,0,0],[2,1],[0]]","3","[[2,1,0],[3,0],[0]]","8","0","","","","","","6","","","","","","","","",""
"","","","","","single-stim-button","122","266852","0.0-2.0-34.3-0.3","55bce852fdf99b268358f83b","B2","batch2","","533","tol_tohand","","","","tol_peg_1","533","533","0","[[0,0,0],[2,1],[0]]","4","[[2,1,0],[3,0],[0]]","8","0","","","","","","6","","","","","","","","",""
"","","","","","single-stim-button","123","267825","0.0-2.0-34.3-1.3","55bce852fdf99b268358f83b","B2","batch2","","973","tol_toboard","","","","tol_peg_3","973","973","0","[[0,0,0],[2,1],[3]]","4","[[2,1,0],[3,0],[0]]","8","0","","","","","","6","","","","","","","","",""
"","","","","","single-stim-button","124","271673","0.0-2.0-34.4-0.4","55bce852fdf99b268358f83b","B2","batch2","","3847","tol_tohand","","","","tol_peg_2","3847","3847","0","[[0,0,0],[2,0],[3]]","5","[[2,1,0],[3,0],[0]]","8","0","","","","","","6","","","","","","","","",""
"","","","","","single-stim-button","125","272236","0.0-2.0-34.4-1.4","55bce852fdf99b268358f83b","B2","batch2","","562","tol_toboard","","","","tol_peg_1","562","562","0","[[1,0,0],[2,0],[3]]","5","[[2,1,0],[3,0],[0]]","8","0","","","","","","6","","","","","","","","",""
"","","","","","single-stim-button","126","272715","0.0-2.0-34.5-0.5","55bce852fdf99b268358f83b","B2","batch2","","478","tol_tohand","","","","tol_peg_3","478","478","0","[[1,0,0],[2,0],[0]]","6","[[2,1,0],[3,0],[0]]","8","0","","","","","","6","","","","","","","","",""
"","","","","","single-stim-button","127","273235","0.0-2.0-34.5-1.5","55bce852fdf99b268358f83b","B2","batch2","","520","tol_toboard","","","","tol_peg_2","520","520","0","[[1,0,0],[2,3],[0]]","6","[[2,1,0],[3,0],[0]]","8","0","","","","","","6","","","","","","","","",""
"","","","","","single-stim-button","128","273664","0.0-2.0-34.6-0.6","55bce852fdf99b268358f83b","B2","batch2","","428","tol_tohand","","","","tol_peg_1","428","428","0","[[0,0,0],[2,3],[0]]","7","[[2,1,0],[3,0],[0]]","8","0","","","","","","6","","","","","","","","",""
"","","","","","single-stim-button","129","274324","0.0-2.0-34.6-1.6","55bce852fdf99b268358f83b","B2","batch2","","659","tol_toboard","","","","tol_peg_3","659","659","0","[[0,0,0],[2,3],[1]]","7","[[2,1,0],[3,0],[0]]","8","0","","","","","","6","","","","","","","","",""
"","","","","","single-stim-button","130","279122","0.0-2.0-34.7-0.7","55bce852fdf99b268358f83b","B2","batch2","","4798","tol_tohand","","","","tol_peg_2","4798","4798","0","[[0,0,0],[2,0],[1]]","8","[[2,1,0],[3,0],[0]]","8","0","","","","","","6","","","","","","","","",""
"","","","","","single-stim-button","131","281030","0.0-2.0-34.7-1.7","55bce852fdf99b268358f83b","B2","batch2","","1908","tol_toboard","","","","tol_peg_1","1908","1908","0","[[3,0,0],[2,0],[1]]","8","[[2,1,0],[3,0],[0]]","8","0","","","","","","6","","","","","","","","",""
"","","","","","single-stim-button","132","282971","0.0-2.0-34.8-0.8","55bce852fdf99b268358f83b","B2","batch2","","1941","tol_tohand","","","","tol_peg_2","1941","1941","0","[[3,0,0],[0,0],[1]]","9","[[2,1,0],[3,0],[0]]","8","0","","","","","","6","","","","","","","","",""
"","","","","","single-stim-button","133","283594","0.0-2.0-34.8-1.8","55bce852fdf99b268358f83b","B2","batch2","","622","tol_toboard","","","","tol_peg_1","622","622","0","[[3,2,0],[0,0],[1]]","9","[[2,1,0],[3,0],[0]]","8","0","","","","","","6","","","","","","","","",""
"","","","","","single-stim-button","134","286968","0.0-2.0-34.9-0.9","55bce852fdf99b268358f83b","B2","batch2","","3374","tol_tohand","","","","tol_peg_3","3374","3374","0","[[3,2,0],[0,0],[0]]","10","[[2,1,0],[3,0],[0]]","8","0","","","","","","6","","","","","","","","",""
"","","","","","single-stim-button","135","287551","0.0-2.0-34.9-1.9","55bce852fdf99b268358f83b","B2","batch2","","582","tol_toboard","","","","tol_peg_2","582","582","0","[[3,2,0],[1,0],[0]]","10","[[2,1,0],[3,0],[0]]","8","0","","","","","","6","","","","","","","","",""
"","","","","","single-stim-button","136","288121","0.0-2.0-34.10-0.10","55bce852fdf99b268358f83b","B2","batch2","","570","tol_tohand","","","","tol_peg_1","570","570","0","[[3,0,0],[1,0],[0]]","11","[[2,1,0],[3,0],[0]]","8","0","","","","","","6","","","","","","","","",""
"","","","","","single-stim-button","137","288739","0.0-2.0-34.10-1.10","55bce852fdf99b268358f83b","B2","batch2","","617","tol_toboard","","","","tol_peg_3","617","617","0","[[3,0,0],[1,0],[2]]","11","[[2,1,0],[3,0],[0]]","8","0","","","","","","6","","","","","","","","",""
"","","","","","single-stim-button","138","289621","0.0-2.0-34.11-0.11","55bce852fdf99b268358f83b","B2","batch2","","882","tol_tohand","","","","tol_peg_1","882","882","0","[[0,0,0],[1,0],[2]]","12","[[2,1,0],[3,0],[0]]","8","0","","","","","","6","","","","","","","","",""
"","","","","","single-stim-button","139","290321","0.0-2.0-34.11-1.11","55bce852fdf99b268358f83b","B2","batch2","","699","tol_toboard","","","","tol_peg_2","699","699","0","[[0,0,0],[1,3],[2]]","12","[[2,1,0],[3,0],[0]]","8","0","","","","","","6","","","","","","","","",""
"","","","","","single-stim-button","140","290899","0.0-2.0-34.12-0.12","55bce852fdf99b268358f83b","B2","batch2","","578","tol_tohand","","","","tol_peg_3","578","578","0","[[0,0,0],[1,3],[0]]","13","[[2,1,0],[3,0],[0]]","8","0","","","","","","6","","","","","","","","",""
"","","","","","single-stim-button","141","291656","0.0-2.0-34.12-1.12","55bce852fdf99b268358f83b","B2","batch2","","757","tol_toboard","","","","tol_peg_1","757","757","0","[[2,0,0],[1,3],[0]]","13","[[2,1,0],[3,0],[0]]","8","0","","","","","","6","","","","","","","","",""
"","","","","","single-stim-button","142","292135","0.0-2.0-34.13-0.13","55bce852fdf99b268358f83b","B2","batch2","","479","tol_tohand","","","","tol_peg_2","479","479","0","[[2,0,0],[1,0],[0]]","14","[[2,1,0],[3,0],[0]]","8","0","","","","","","6","","","","","","","","",""
"","","","","","single-stim-button","143","292750","0.0-2.0-34.13-1.13","55bce852fdf99b268358f83b","B2","batch2","","615","tol_toboard","","","","tol_peg_3","615","615","0","[[2,0,0],[1,0],[3]]","14","[[2,1,0],[3,0],[0]]","8","0","","","","","","6","","","","","","","","",""
"","","","","","single-stim-button","144","293139","0.0-2.0-34.14-0.14","55bce852fdf99b268358f83b","B2","batch2","","389","tol_tohand","","","","tol_peg_2","389","389","0","[[2,0,0],[0,0],[3]]","15","[[2,1,0],[3,0],[0]]","8","0","","","","","","6","","","","","","","","",""
"","","","","","single-stim-button","145","293642","0.0-2.0-34.14-1.14","55bce852fdf99b268358f83b","B2","batch2","","502","tol_toboard","","","","tol_peg_1","502","502","0","[[2,1,0],[0,0],[3]]","15","[[2,1,0],[3,0],[0]]","8","0","","","","","","6","","","","","","","","",""
"","","","","","single-stim-button","146","296565","0.0-2.0-34.15-0.15","55bce852fdf99b268358f83b","B2","batch2","","2922","tol_tohand","","","","tol_peg_3","2922","2922","0","[[2,1,0],[0,0],[0]]","16","[[2,1,0],[3,0],[0]]","8","0","","","","","","6","","","","","","","","",""
"","","","","","single-stim-button","147","297143","0.0-2.0-34.15-1.15","55bce852fdf99b268358f83b","B2","batch2","","578","tol_toboard","","","","tol_peg_2","578","578","0","[[2,1,0],[3,0],[0]]","16","[[2,1,0],[3,0],[0]]","8","0","","","","","","6","","","","","","","","",""
"","","","","","poldrack-single-stim","148","298145","0.0-2.0-35.0","55bce852fdf99b268358f83b","B2","batch2","","-1","tol_feedback","","","true","","1000","1000","500","","","","","","-1","none","true","9703","39745","","","","","","","","","",""
"","","","","","html-button-response","149","299724","0.0-2.0-36.0","55bce852fdf99b268358f83b","B2","batch2","","1578.7999999821186","tol_trial_num","<div class = centerbox><p class = center-block-text>problem <strong>10</strong> out of 25 problems</p></div>","0","","","","","","","","","","","","","","","","","","","","","","","","",""
"","","","","","single-stim-button","150","302933","0.0-2.0-37.0-0.0","55bce852fdf99b268358f83b","B2","batch2","","3208","tol_tohand","","","","tol_peg_2","3208","3208","0","[[3,0,0],[0,0],[2]]","1","[[3,0,0],[2,1],[0]]","9","0","","","","","","3","","","","","","","","",""
"","","","","","single-stim-button","151","303488","0.0-2.0-37.0-1.0","55bce852fdf99b268358f83b","B2","batch2","","555","tol_toboard","","","","tol_peg_1","555","555","0","[[3,1,0],[0,0],[2]]","1","[[3,0,0],[2,1],[0]]","9","0","","","","","","3","","","","","","","","",""
"","","","","","single-stim-button","152","304048","0.0-2.0-37.1-0.1","55bce852fdf99b268358f83b","B2","batch2","","560","tol_tohand","","","","tol_peg_3","560","560","0","[[3,1,0],[0,0],[0]]","2","[[3,0,0],[2,1],[0]]","9","0","","","","","","3","","","","","","","","",""
"","","","","","single-stim-button","153","304588","0.0-2.0-37.1-1.1","55bce852fdf99b268358f83b","B2","batch2","","540","tol_toboard","","","","tol_peg_2","540","540","0","[[3,1,0],[2,0],[0]]","2","[[3,0,0],[2,1],[0]]","9","0","","","","","","3","","","","","","","","",""
"","","","","","single-stim-button","154","305062","0.0-2.0-37.2-0.2","55bce852fdf99b268358f83b","B2","batch2","","474","tol_tohand","","","","tol_peg_1","474","474","0","[[3,0,0],[2,0],[0]]","3","[[3,0,0],[2,1],[0]]","9","0","","","","","","3","","","","","","","","",""
"","","","","","single-stim-button","155","305537","0.0-2.0-37.2-1.2","55bce852fdf99b268358f83b","B2","batch2","","475","tol_toboard","","","","tol_peg_2","475","475","0","[[3,0,0],[2,1],[0]]","3","[[3,0,0],[2,1],[0]]","9","0","","","","","","3","","","","","","","","",""
"","","","","","poldrack-single-stim","156","306547","0.0-2.0-38.0","55bce852fdf99b268358f83b","B2","batch2","","-1","tol_feedback","","","true","","1000","1000","500","","","","","","-1","none","true","3208","4242","","","","","","","","","",""
"","","","","","html-button-response","157","308047","0.0-2.0-39.0","55bce852fdf99b268358f83b","B2","batch2","","1499.5","tol_trial_num","<div class = centerbox><p class = center-block-text>problem <strong>11</strong> out of 25 problems</p></div>","0","","","","","","","","","","","","","","","","","","","","","","","","",""
"","","","","","single-stim-button","158","316892","0.0-2.0-40.0-0.0","55bce852fdf99b268358f83b","B2","batch2","","8845","tol_tohand","","","","tol_peg_1","8845","8845","0","[[1,0,0],[3,0],[0]]","1","[[2,0,0],[1,3],[0]]","10","0","","","","","","6","","","","","","","","",""
"","","","","","single-stim-button","159","317569","0.0-2.0-40.0-1.0","55bce852fdf99b268358f83b","B2","batch2","","676","tol_toboard","","","","tol_peg_2","676","676","0","[[1,0,0],[3,2],[0]]","1","[[2,0,0],[1,3],[0]]","10","0","","","","","","6","","","","","","","","",""
"","","","","","single-stim-button","160","318163","0.0-2.0-40.1-0.1","55bce852fdf99b268358f83b","B2","batch2","","594","tol_tohand","","","","tol_peg_1","594","594","0","[[0,0,0],[3,2],[0]]","2","[[2,0,0],[1,3],[0]]","10","0","","","","","","6","","","","","","","","",""
"","","","","","single-stim-button","161","318926","0.0-2.0-40.1-1.1","55bce852fdf99b268358f83b","B2","batch2","","763","tol_toboard","","","","tol_peg_3","763","763","0","[[0,0,0],[3,2],[1]]","2","[[2,0,0],[1,3],[0]]","10","0","","","","","","6","","","","","","","","",""
"","","","","","single-stim-button","162","319417","0.0-2.0-40.2-0.2","55bce852fdf99b268358f83b","B2","batch2","","491","tol_tohand","","","","tol_peg_2","491","491","0","[[0,0,0],[3,0],[1]]","3","[[2,0,0],[1,3],[0]]","10","0","","","","","","6","","","","","","","","",""
"","","","","","single-stim-button","163","320206","0.0-2.0-40.2-1.2","55bce852fdf99b268358f83b","B2","batch2","","788","tol_toboard","","","","tol_peg_1","788","788","0","[[2,0,0],[3,0],[1]]","3","[[2,0,0],[1,3],[0]]","10","0","","","","","","6","","","","","","","","",""
"","","","","","single-stim-button","164","320881","0.0-2.0-40.3-0.3","55bce852fdf99b268358f83b","B2","batch2","","675","tol_tohand","","","","tol_peg_2","675","675","0","[[2,0,0],[0,0],[1]]","4","[[2,0,0],[1,3],[0]]","10","0","","","","","","6","","","","","","","","",""
"","","","","","single-stim-button","165","321377","0.0-2.0-40.3-1.3","55bce852fdf99b268358f83b","B2","batch2","","496","tol_toboard","","","","tol_peg_1","496","496","0","[[2,3,0],[0,0],[1]]","4","[[2,0,0],[1,3],[0]]","10","0","","","","","","6","","","","","","","","",""
"","","","","","single-stim-button","166","321857","0.0-2.0-40.4-0.4","55bce852fdf99b268358f83b","B2","batch2","","480","tol_tohand","","","","tol_peg_3","480","480","0","[[2,3,0],[0,0],[0]]","5","[[2,0,0],[1,3],[0]]","10","0","","","","","","6","","","","","","","","",""
"","","","","","single-stim-button","167","322577","0.0-2.0-40.4-1.4","55bce852fdf99b268358f83b","B2","batch2","","720","tol_toboard","","","","tol_peg_2","720","720","0","[[2,3,0],[1,0],[0]]","5","[[2,0,0],[1,3],[0]]","10","0","","","","","","6","","","","","","","","",""
"","","","","","single-stim-button","168","323100","0.0-2.0-40.5-0.5","55bce852fdf99b268358f83b","B2","batch2","","523","tol_tohand","","","","tol_peg_1","523","523","0","[[2,0,0],[1,0],[0]]","6","[[2,0,0],[1,3],[0]]","10","0","","","","","","6","","","","","","","","",""
"","","","","","single-stim-button","169","323722","0.0-2.0-40.5-1.5","55bce852fdf99b268358f83b","B2","batch2","","622","tol_toboard","","","","tol_peg_2","622","622","0","[[2,0,0],[1,3],[0]]","6","[[2,0,0],[1,3],[0]]","10","0","","","","","","6","","","","","","","","",""
"","","","","","poldrack-single-stim","170","324728","0.0-2.0-41.0","55bce852fdf99b268358f83b","B2","batch2","","-1","tol_feedback","","","true","","1000","1000","500","","","","","","-1","none","true","8845","11608","","","","","","","","","",""
"","","","","","html-button-response","171","325470","0.0-2.0-42.0","55bce852fdf99b268358f83b","B2","batch2","","741.7000000178814","tol_trial_num","<div class = centerbox><p class = center-block-text>problem <strong>12</strong> out of 25 problems</p></div>","0","","","","","","","","","","","","","","","","","","","","","","","","",""
"","","","","","single-stim-button","172","333716","0.0-2.0-43.0-0.0","55bce852fdf99b268358f83b","B2","batch2","","8246","tol_tohand","","","","tol_peg_1","8246","8246","0","[[1,0,0],[3,0],[0]]","1","[[2,3,0],[0,0],[1]]","11","0","","","","","","4","","","","","","","","",""
"","","","","","single-stim-button","173","334281","0.0-2.0-43.0-1.0","55bce852fdf99b268358f83b","B2","batch2","","564","tol_toboard","","","","tol_peg_2","564","564","0","[[1,0,0],[3,2],[0]]","1","[[2,3,0],[0,0],[1]]","11","0","","","","","","4","","","","","","","","",""
"","","","","","single-stim-button","174","334698","0.0-2.0-43.1-0.1","55bce852fdf99b268358f83b","B2","batch2","","417","tol_tohand","","","","tol_peg_1","417","417","0","[[0,0,0],[3,2],[0]]","2","[[2,3,0],[0,0],[1]]","11","0","","","","","","4","","","","","","","","",""
"","","","","","single-stim-button","175","335565","0.0-2.0-43.1-1.1","55bce852fdf99b268358f83b","B2","batch2","","866","tol_toboard","","","","tol_peg_3","866","866","0","[[0,0,0],[3,2],[1]]","2","[[2,3,0],[0,0],[1]]","11","0","","","","","","4","","","","","","","","",""
"","","","","","single-stim-button","176","336197","0.0-2.0-43.2-0.2","55bce852fdf99b268358f83b","B2","batch2","","631","tol_tohand","","","","tol_peg_2","631","631","0","[[0,0,0],[3,0],[1]]","3","[[2,3,0],[0,0],[1]]","11","0","","","","","","4","","","","","","","","",""
"","","","","","single-stim-button","177","336764","0.0-2.0-43.2-1.2","55bce852fdf99b268358f83b","B2","batch2","","567","tol_toboard","","","","tol_peg_1","567","567","0","[[2,0,0],[3,0],[1]]","3","[[2,3,0],[0,0],[1]]","11","0","","","","","","4","","","","","","","","",""
"","","","","","single-stim-button","178","337119","0.0-2.0-43.3-0.3","55bce852fdf99b268358f83b","B2","batch2","","354","tol_tohand","","","","tol_peg_2","354","354","0","[[2,0,0],[0,0],[1]]","4","[[2,3,0],[0,0],[1]]","11","0","","","","","","4","","","","","","","","",""
"","","","","","single-stim-button","179","337676","0.0-2.0-43.3-1.3","55bce852fdf99b268358f83b","B2","batch2","","557","tol_toboard","","","","tol_peg_1","557","557","0","[[2,3,0],[0,0],[1]]","4","[[2,3,0],[0,0],[1]]","11","0","","","","","","4","","","","","","","","",""
"","","","","","poldrack-single-stim","180","338678","0.0-2.0-44.0","55bce852fdf99b268358f83b","B2","batch2","","-1","tol_feedback","","","true","","1000","1000","500","","","","","","-1","none","true","8246","9648","","","","","","","","","",""
"","","","","","html-button-response","181","339576","0.0-2.0-45.0","55bce852fdf99b268358f83b","B2","batch2","","897.1999999880791","tol_trial_num","<div class = centerbox><p class = center-block-text>problem <strong>13</strong> out of 25 problems</p></div>","0","","","","","","","","","","","","","","","","","","","","","","","","",""
"","","","","","single-stim-button","182","346033","0.0-2.0-46.0-0.0","55bce852fdf99b268358f83b","B2","batch2","","6457","tol_tohand","","","","tol_peg_1","6457","6457","0","[[1,0,0],[3,0],[0]]","1","[[0,0,0],[2,3],[1]]","12","0","","","","","","4","","","","","","","","",""
"","","","","","single-stim-button","183","346615","0.0-2.0-46.0-1.0","55bce852fdf99b268358f83b","B2","batch2","","582","tol_toboard","","","","tol_peg_2","582","582","0","[[1,0,0],[3,2],[0]]","1","[[0,0,0],[2,3],[1]]","12","0","","","","","","4","","","","","","","","",""
"","","","","","single-stim-button","184","347338","0.0-2.0-46.1-0.1","55bce852fdf99b268358f83b","B2","batch2","","723","tol_tohand","","","","tol_peg_1","723","723","0","[[0,0,0],[3,2],[0]]","2","[[0,0,0],[2,3],[1]]","12","0","","","","","","4","","","","","","","","",""
"","","","","","single-stim-button","185","348048","0.0-2.0-46.1-1.1","55bce852fdf99b268358f83b","B2","batch2","","710","tol_toboard","","","","tol_peg_3","710","710","0","[[0,0,0],[3,2],[1]]","2","[[0,0,0],[2,3],[1]]","12","0","","","","","","4","","","","","","","","",""
"","","","","","single-stim-button","186","353119","0.0-2.0-46.2-0.2","55bce852fdf99b268358f83b","B2","batch2","","5071","tol_tohand","","","","tol_peg_3","5071","5071","0","[[0,0,0],[3,2],[0]]","3","[[0,0,0],[2,3],[1]]","12","0","","","","","","4","","","","","","","","",""
"","","","","","single-stim-button","187","353706","0.0-2.0-46.2-1.2","55bce852fdf99b268358f83b","B2","batch2","","587","tol_toboard","","","","tol_peg_1","587","587","0","[[1,0,0],[3,2],[0]]","3","[[0,0,0],[2,3],[1]]","12","0","","","","","","4","","","","","","","","",""
"","","","","","single-stim-button","188","355031","0.0-2.0-46.3-0.3","55bce852fdf99b268358f83b","B2","batch2","","1325","tol_tohand","","","","tol_peg_2","1325","1325","0","[[1,0,0],[3,0],[0]]","4","[[0,0,0],[2,3],[1]]","12","0","","","","","","4","","","","","","","","",""
"","","","","","single-stim-button","189","355652","0.0-2.0-46.3-1.3","55bce852fdf99b268358f83b","B2","batch2","","621","tol_toboard","","","","tol_peg_3","621","621","0","[[1,0,0],[3,0],[2]]","4","[[0,0,0],[2,3],[1]]","12","0","","","","","","4","","","","","","","","",""
"","","","","","single-stim-button","190","356055","0.0-2.0-46.4-0.4","55bce852fdf99b268358f83b","B2","batch2","","403","tol_tohand","","","","tol_peg_2","403","403","0","[[1,0,0],[0,0],[2]]","5","[[0,0,0],[2,3],[1]]","12","0","","","","","","4","","","","","","","","",""
"","","","","","single-stim-button","191","356590","0.0-2.0-46.4-1.4","55bce852fdf99b268358f83b","B2","batch2","","535","tol_toboard","","","","tol_peg_1","535","535","0","[[1,3,0],[0,0],[2]]","5","[[0,0,0],[2,3],[1]]","12","0","","","","","","4","","","","","","","","",""
"","","","","","single-stim-button","192","357070","0.0-2.0-46.5-0.5","55bce852fdf99b268358f83b","B2","batch2","","480","tol_tohand","","","","tol_peg_3","480","480","0","[[1,3,0],[0,0],[0]]","6","[[0,0,0],[2,3],[1]]","12","0","","","","","","4","","","","","","","","",""
"","","","","","single-stim-button","193","357633","0.0-2.0-46.5-1.5","55bce852fdf99b268358f83b","B2","batch2","","563","tol_toboard","","","","tol_peg_2","563","563","0","[[1,3,0],[2,0],[0]]","6","[[0,0,0],[2,3],[1]]","12","0","","","","","","4","","","","","","","","",""
"","","","","","single-stim-button","194","358211","0.0-2.0-46.6-0.6","55bce852fdf99b268358f83b","B2","batch2","","578","tol_tohand","","","","tol_peg_1","578","578","0","[[1,0,0],[2,0],[0]]","7","[[0,0,0],[2,3],[1]]","12","0","","","","","","4","","","","","","","","",""
"","","","","","single-stim-button","195","358654","0.0-2.0-46.6-1.6","55bce852fdf99b268358f83b","B2","batch2","","443","tol_toboard","","","","tol_peg_2","443","443","0","[[1,0,0],[2,3],[0]]","7","[[0,0,0],[2,3],[1]]","12","0","","","","","","4","","","","","","","","",""
"","","","","","single-stim-button","196","359034","0.0-2.0-46.7-0.7","55bce852fdf99b268358f83b","B2","batch2","","380","tol_tohand","","","","tol_peg_1","380","380","0","[[0,0,0],[2,3],[0]]","8","[[0,0,0],[2,3],[1]]","12","0","","","","","","4","","","","","","","","",""
"","","","","","single-stim-button","197","359658","0.0-2.0-46.7-1.7","55bce852fdf99b268358f83b","B2","batch2","","624","tol_toboard","","","","tol_peg_3","624","624","0","[[0,0,0],[2,3],[1]]","8","[[0,0,0],[2,3],[1]]","12","0","","","","","","4","","","","","","","","",""
"","","","","","poldrack-single-stim","198","360668","0.0-2.0-47.0","55bce852fdf99b268358f83b","B2","batch2","","-1","tol_feedback","","","true","","1000","1000","500","","","","","","-1","none","true","6457","15417","","","","","","","","","",""
"","","","","","html-button-response","199","367270","0.0-2.0-48.0","55bce852fdf99b268358f83b","B2","batch2","","6600.800000011921","attention_check","<p class = block-text>How many balls are in your board<br></p>","1","true","","","","","","","","","","","","","","","","","","","","","","","",""
"","","","","","html-button-response","200","368706","0.0-2.0-49.0","55bce852fdf99b268358f83b","B2","batch2","","1435.300000011921","tol_trial_num","<div class = centerbox><p class = center-block-text>problem <strong>14</strong> out of 25 problems</p></div>","0","","","","","","","","","","","","","","","","","","","","","","","","",""
"","","","","","single-stim-button","201","372909","0.0-2.0-50.0-0.0","55bce852fdf99b268358f83b","B2","batch2","","4203","tol_tohand","","","","tol_peg_1","4203","4203","0","[[2,0,0],[3,0],[0]]","1","[[1,2,0],[3,0],[0]]","13","0","","","","","","4","","","","","","","","",""
"","","","","","single-stim-button","202","374906","0.0-2.0-50.0-1.0","55bce852fdf99b268358f83b","B2","batch2","","1997","tol_toboard","","","","tol_peg_2","1997","1997","0","[[2,0,0],[3,1],[0]]","1","[[1,2,0],[3,0],[0]]","13","0","","","","","","4","","","","","","","","",""
"","","","","","single-stim-button","203","375374","0.0-2.0-50.1-0.1","55bce852fdf99b268358f83b","B2","batch2","","467","tol_tohand","","","","tol_peg_1","467","467","0","[[0,0,0],[3,1],[0]]","2","[[1,2,0],[3,0],[0]]","13","0","","","","","","4","","","","","","","","",""
"","","","","","single-stim-button","204","375846","0.0-2.0-50.1-1.1","55bce852fdf99b268358f83b","B2","batch2","","472","tol_toboard","","","","tol_peg_3","472","472","0","[[0,0,0],[3,1],[2]]","2","[[1,2,0],[3,0],[0]]","13","0","","","","","","4","","","","","","","","",""
"","","","","","single-stim-button","205","376359","0.0-2.0-50.2-0.2","55bce852fdf99b268358f83b","B2","batch2","","513","tol_tohand","","","","tol_peg_2","513","513","0","[[0,0,0],[3,0],[2]]","3","[[1,2,0],[3,0],[0]]","13","0","","","","","","4","","","","","","","","",""
"","","","","","single-stim-button","206","377007","0.0-2.0-50.2-1.2","55bce852fdf99b268358f83b","B2","batch2","","648","tol_toboard","","","","tol_peg_1","648","648","0","[[1,0,0],[3,0],[2]]","3","[[1,2,0],[3,0],[0]]","13","0","","","","","","4","","","","","","","","",""
"","","","","","single-stim-button","207","377442","0.0-2.0-50.3-0.3","55bce852fdf99b268358f83b","B2","batch2","","435","tol_tohand","","","","tol_peg_3","435","435","0","[[1,0,0],[3,0],[0]]","4","[[1,2,0],[3,0],[0]]","13","0","","","","","","4","","","","","","","","",""
"","","","","","single-stim-button","208","378092","0.0-2.0-50.3-1.3","55bce852fdf99b268358f83b","B2","batch2","","650","tol_toboard","","","","tol_peg_1","650","650","0","[[1,2,0],[3,0],[0]]","4","[[1,2,0],[3,0],[0]]","13","0","","","","","","4","","","","","","","","",""
"","","","","","poldrack-single-stim","209","379093","0.0-2.0-51.0","55bce852fdf99b268358f83b","B2","batch2","","-1","tol_feedback","","","true","","1000","1000","500","","","","","","-1","none","true","4203","5618","","","","","","","","","",""
"","","","","","html-button-response","210","379931","0.0-2.0-52.0","55bce852fdf99b268358f83b","B2","batch2","","837","tol_trial_num","<div class = centerbox><p class = center-block-text>problem <strong>15</strong> out of 25 problems</p></div>","0","","","","","","","","","","","","","","","","","","","","","","","","",""
"","","","","","single-stim-button","211","382978","0.0-2.0-53.0-0.0","55bce852fdf99b268358f83b","B2","batch2","","3047","tol_tohand","","","","tol_peg_1","3047","3047","0","[[1,0,0],[3,0],[0]]","1","[[2,0,0],[3,0],[1]]","14","0","","","","","","3","","","","","","","","",""
"","","","","","single-stim-button","212","383489","0.0-2.0-53.0-1.0","55bce852fdf99b268358f83b","B2","batch2","","510","tol_toboard","","","","tol_peg_2","510","510","0","[[1,0,0],[3,2],[0]]","1","[[2,0,0],[3,0],[1]]","14","0","","","","","","3","","","","","","","","",""
"","","","","","single-stim-button","213","383942","0.0-2.0-53.1-0.1","55bce852fdf99b268358f83b","B2","batch2","","452","tol_tohand","","","","tol_peg_1","452","452","0","[[0,0,0],[3,2],[0]]","2","[[2,0,0],[3,0],[1]]","14","0","","","","","","3","","","","","","","","",""
"","","","","","single-stim-button","214","384434","0.0-2.0-53.1-1.1","55bce852fdf99b268358f83b","B2","batch2","","492","tol_toboard","","","","tol_peg_3","492","492","0","[[0,0,0],[3,2],[1]]","2","[[2,0,0],[3,0],[1]]","14","0","","","","","","3","","","","","","","","",""
"","","","","","single-stim-button","215","384928","0.0-2.0-53.2-0.2","55bce852fdf99b268358f83b","B2","batch2","","494","tol_tohand","","","","tol_peg_2","494","494","0","[[0,0,0],[3,0],[1]]","3","[[2,0,0],[3,0],[1]]","14","0","","","","","","3","","","","","","","","",""
"","","","","","single-stim-button","216","385533","0.0-2.0-53.2-1.2","55bce852fdf99b268358f83b","B2","batch2","","604","tol_toboard","","","","tol_peg_1","604","604","0","[[2,0,0],[3,0],[1]]","3","[[2,0,0],[3,0],[1]]","14","0","","","","","","3","","","","","","","","",""
"","","","","","poldrack-single-stim","217","386534","0.0-2.0-54.0","55bce852fdf99b268358f83b","B2","batch2","","-1","tol_feedback","","","true","","1000","1000","500","","","","","","-1","none","true","3047","3993","","","","","","","","","",""
"","","","","","html-button-response","218","387235","0.0-2.0-55.0","55bce852fdf99b268358f83b","B2","batch2","","700.3000000119209","tol_trial_num","<div class = centerbox><p class = center-block-text>problem <strong>16</strong> out of 25 problems</p></div>","0","","","","","","","","","","","","","","","","","","","","","","","","",""
"","","","","","single-stim-button","219","392805","0.0-2.0-56.0-0.0","55bce852fdf99b268358f83b","B2","batch2","","5570","tol_tohand","","","","tol_peg_3","5570","5570","0","[[0,0,0],[2,3],[0]]","1","[[2,3,0],[1,0],[0]]","15","0","","","","","","7","","","","","","","","",""
"","","","","","single-stim-button","220","393546","0.0-2.0-56.0-1.0","55bce852fdf99b268358f83b","B2","batch2","","741","tol_toboard","","","","tol_peg_1","741","741","0","[[1,0,0],[2,3],[0]]","1","[[2,3,0],[1,0],[0]]","15","0","","","","","","7","","","","","","","","",""
"","","","","","single-stim-button","221","394060","0.0-2.0-56.1-0.1","55bce852fdf99b268358f83b","B2","batch2","","514","tol_tohand","","","","tol_peg_2","514","514","0","[[1,0,0],[2,0],[0]]","2","[[2,3,0],[1,0],[0]]","15","0","","","","","","7","","","","","","","","",""
"","","","","","single-stim-button","222","394621","0.0-2.0-56.1-1.1","55bce852fdf99b268358f83b","B2","batch2","","559","tol_toboard","","","","tol_peg_3","559","559","0","[[1,0,0],[2,0],[3]]","2","[[2,3,0],[1,0],[0]]","15","0","","","","","","7","","","","","","","","",""
"","","","","","single-stim-button","223","397596","0.0-2.0-56.2-0.2","55bce852fdf99b268358f83b","B2","batch2","","2975","tol_tohand","","","","tol_peg_2","2975","2975","0","[[1,0,0],[0,0],[3]]","3","[[2,3,0],[1,0],[0]]","15","0","","","","","","7","","","","","","","","",""
"","","","","","single-stim-button","224","399083","0.0-2.0-56.2-1.2","55bce852fdf99b268358f83b","B2","batch2","","1487","tol_toboard","","","","tol_peg_1","1487","1487","0","[[1,2,0],[0,0],[3]]","3","[[2,3,0],[1,0],[0]]","15","0","","","","","","7","","","","","","","","",""
"","","","","","single-stim-button","225","400959","0.0-2.0-56.3-0.3","55bce852fdf99b268358f83b","B2","batch2","","1875","tol_tohand","","","","tol_peg_3","1875","1875","0","[[1,2,0],[0,0],[0]]","4","[[2,3,0],[1,0],[0]]","15","0","","","","","","7","","","","","","","","",""
"","","","","","single-stim-button","226","401954","0.0-2.0-56.3-1.3","55bce852fdf99b268358f83b","B2","batch2","","994","tol_toboard","","","","tol_peg_2","994","994","0","[[1,2,0],[3,0],[0]]","4","[[2,3,0],[1,0],[0]]","15","0","","","","","","7","","","","","","","","",""
"","","","","","single-stim-button","227","402455","0.0-2.0-56.4-0.4","55bce852fdf99b268358f83b","B2","batch2","","500","tol_tohand","","","","tol_peg_1","500","500","0","[[1,0,0],[3,0],[0]]","5","[[2,3,0],[1,0],[0]]","15","0","","","","","","7","","","","","","","","",""
"","","","","","single-stim-button","228","403073","0.0-2.0-56.4-1.4","55bce852fdf99b268358f83b","B2","batch2","","618","tol_toboard","","","","tol_peg_3","618","618","0","[[1,0,0],[3,0],[2]]","5","[[2,3,0],[1,0],[0]]","15","0","","","","","","7","","","","","","","","",""
"","","","","","single-stim-button","229","403699","0.0-2.0-56.5-0.5","55bce852fdf99b268358f83b","B2","batch2","","625","tol_tohand","","","","tol_peg_1","625","625","0","[[0,0,0],[3,0],[2]]","6","[[2,3,0],[1,0],[0]]","15","0","","","","","","7","","","","","","","","",""
"","","","","","single-stim-button","230","404156","0.0-2.0-56.5-1.5","55bce852fdf99b268358f83b","B2","batch2","","457","tol_toboard","","","","tol_peg_2","457","457","0","[[0,0,0],[3,1],[2]]","6","[[2,3,0],[1,0],[0]]","15","0","","","","","","7","","","","","","","","",""
"","","","","","single-stim-button","231","404637","0.0-2.0-56.6-0.6","55bce852fdf99b268358f83b","B2","batch2","","481","tol_tohand","","","","tol_peg_3","481","481","0","[[0,0,0],[3,1],[0]]","7","[[2,3,0],[1,0],[0]]","15","0","","","","","","7","","","","","","","","",""
"","","","","","single-stim-button","232","405322","0.0-2.0-56.6-1.6","55bce852fdf99b268358f83b","B2","batch2","","684","tol_toboard","","","","tol_peg_1","684","684","0","[[2,0,0],[3,1],[0]]","7","[[2,3,0],[1,0],[0]]","15","0","","","","","","7","","","","","","","","",""
"","","","","","single-stim-button","233","406759","0.0-2.0-56.7-0.7","55bce852fdf99b268358f83b","B2","batch2","","1437","tol_tohand","","","","tol_peg_2","1437","1437","0","[[2,0,0],[3,0],[0]]","8","[[2,3,0],[1,0],[0]]","15","0","","","","","","7","","","","","","","","",""
"","","","","","single-stim-button","234","407169","0.0-2.0-56.7-1.7","55bce852fdf99b268358f83b","B2","batch2","","409","tol_toboard","","","","tol_peg_3","409","409","0","[[2,0,0],[3,0],[1]]","8","[[2,3,0],[1,0],[0]]","15","0","","","","","","7","","","","","","","","",""
"","","","","","single-stim-button","235","407511","0.0-2.0-56.8-0.8","55bce852fdf99b268358f83b","B2","batch2","","342","tol_tohand","","","","tol_peg_2","342","342","0","[[2,0,0],[0,0],[1]]","9","[[2,3,0],[1,0],[0]]","15","0","","","","","","7","","","","","","","","",""
"","","","","","single-stim-button","236","407997","0.0-2.0-56.8-1.8","55bce852fdf99b268358f83b","B2","batch2","","486","tol_toboard","","","","tol_peg_1","486","486","0","[[2,3,0],[0,0],[1]]","9","[[2,3,0],[1,0],[0]]","15","0","","","","","","7","","","","","","","","",""
"","","","","","single-stim-button","237","408456","0.0-2.0-56.9-0.9","55bce852fdf99b268358f83b","B2","batch2","","458","tol_tohand","","","","tol_peg_3","458","458","0","[[2,3,0],[0,0],[0]]","10","[[2,3,0],[1,0],[0]]","15","0","","","","","","7","","","","","","","","",""
"","","","","","single-stim-button","238","408979","0.0-2.0-56.9-1.9","55bce852fdf99b268358f83b","B2","batch2","","523","tol_toboard","","","","tol_peg_2","523","523","0","[[2,3,0],[1,0],[0]]","10","[[2,3,0],[1,0],[0]]","15","0","","","","","","7","","","","","","","","",""
"","","","","","poldrack-single-stim","239","409987","0.0-2.0-57.0","55bce852fdf99b268358f83b","B2","batch2","","-1","tol_feedback","","","true","","1000","1000","500","","","","","","-1","none","true","5570","14777","","","","","","","","","",""
"","","","","","html-button-response","240","410788","0.0-2.0-58.0","55bce852fdf99b268358f83b","B2","batch2","","799.8000000119209","tol_trial_num","<div class = centerbox><p class = center-block-text>problem <strong>17</strong> out of 25 problems</p></div>","0","","","","","","","","","","","","","","","","","","","","","","","","",""
"","","","","","single-stim-button","241","421217","0.0-2.0-59.0-0.0","55bce852fdf99b268358f83b","B2","batch2","","10429","tol_tohand","","","","tol_peg_2","10429","10429","0","[[1,2,0],[0,0],[0]]","1","[[3,1,0],[2,0],[0]]","16","0","","","","","","5","","","","","","","","",""
"","","","","","single-stim-button","242","421705","0.0-2.0-59.0-1.0","55bce852fdf99b268358f83b","B2","batch2","","487","tol_toboard","","","","tol_peg_3","487","487","0","[[1,2,0],[0,0],[3]]","1","[[3,1,0],[2,0],[0]]","16","0","","","","","","5","","","","","","","","",""
"","","","","","single-stim-button","243","423591","0.0-2.0-59.1-0.1","55bce852fdf99b268358f83b","B2","batch2","","1886","tol_tohand","","","","tol_peg_1","1886","1886","0","[[1,0,0],[0,0],[3]]","2","[[3,1,0],[2,0],[0]]","16","0","","","","","","5","","","","","","","","",""
"","","","","","single-stim-button","244","424072","0.0-2.0-59.1-1.1","55bce852fdf99b268358f83b","B2","batch2","","481","tol_toboard","","","","tol_peg_2","481","481","0","[[1,0,0],[2,0],[3]]","2","[[3,1,0],[2,0],[0]]","16","0","","","","","","5","","","","","","","","",""
"","","","","","single-stim-button","245","424519","0.0-2.0-59.2-0.2","55bce852fdf99b268358f83b","B2","batch2","","447","tol_tohand","","","","tol_peg_1","447","447","0","[[0,0,0],[2,0],[3]]","3","[[3,1,0],[2,0],[0]]","16","0","","","","","","5","","","","","","","","",""
"","","","","","single-stim-button","246","424937","0.0-2.0-59.2-1.2","55bce852fdf99b268358f83b","B2","batch2","","418","tol_toboard","","","","tol_peg_2","418","418","0","[[0,0,0],[2,1],[3]]","3","[[3,1,0],[2,0],[0]]","16","0","","","","","","5","","","","","","","","",""
"","","","","","single-stim-button","247","425334","0.0-2.0-59.3-0.3","55bce852fdf99b268358f83b","B2","batch2","","397","tol_tohand","","","","tol_peg_3","397","397","0","[[0,0,0],[2,1],[0]]","4","[[3,1,0],[2,0],[0]]","16","0","","","","","","5","","","","","","","","",""
"","","","","","single-stim-button","248","425904","0.0-2.0-59.3-1.3","55bce852fdf99b268358f83b","B2","batch2","","570","tol_toboard","","","","tol_peg_1","570","570","0","[[3,0,0],[2,1],[0]]","4","[[3,1,0],[2,0],[0]]","16","0","","","","","","5","","","","","","","","",""
"","","","","","single-stim-button","249","426355","0.0-2.0-59.4-0.4","55bce852fdf99b268358f83b","B2","batch2","","451","tol_tohand","","","","tol_peg_2","451","451","0","[[3,0,0],[2,0],[0]]","5","[[3,1,0],[2,0],[0]]","16","0","","","","","","5","","","","","","","","",""
"","","","","","single-stim-button","250","426804","0.0-2.0-59.4-1.4","55bce852fdf99b268358f83b","B2","batch2","","449","tol_toboard","","","","tol_peg_1","449","449","0","[[3,1,0],[2,0],[0]]","5","[[3,1,0],[2,0],[0]]","16","0","","","","","","5","","","","","","","","",""
"","","","","","poldrack-single-stim","251","427814","0.0-2.0-60.0","55bce852fdf99b268358f83b","B2","batch2","","-1","tol_feedback","","","true","","1000","1000","500","","","","","","-1","none","true","10429","13610","","","","","","","","","",""
"","","","","","html-button-response","252","428837","0.0-2.0-61.0","55bce852fdf99b268358f83b","B2","batch2","","1022.6999999880791","tol_trial_num","<div class = centerbox><p class = center-block-text>problem <strong>18</strong> out of 25 problems</p></div>","0","","","","","","","","","","","","","","","","","","","","","","","","",""
"","","","","","single-stim-button","253","432074","0.0-2.0-62.0-0.0","55bce852fdf99b268358f83b","B2","batch2","","3237","tol_tohand","","","","tol_peg_1","3237","3237","0","[[1,0,0],[3,0],[0]]","1","[[3,0,0],[2,0],[1]]","17","0","","","","","","5","","","","","","","","",""
"","","","","","single-stim-button","254","432493","0.0-2.0-62.0-1.0","55bce852fdf99b268358f83b","B2","batch2","","418","tol_toboard","","","","tol_peg_2","418","418","0","[[1,0,0],[3,2],[0]]","1","[[3,0,0],[2,0],[1]]","17","0","","","","","","5","","","","","","","","",""
"","","","","","single-stim-button","255","432930","0.0-2.0-62.1-0.1","55bce852fdf99b268358f83b","B2","batch2","","437","tol_tohand","","","","tol_peg_1","437","437","0","[[0,0,0],[3,2],[0]]","2","[[3,0,0],[2,0],[1]]","17","0","","","","","","5","","","","","","","","",""
"","","","","","single-stim-button","256","433702","0.0-2.0-62.1-1.1","55bce852fdf99b268358f83b","B2","batch2","","772","tol_toboard","","","","tol_peg_3","772","772","0","[[0,0,0],[3,2],[1]]","2","[[3,0,0],[2,0],[1]]","17","0","","","","","","5","","","","","","","","",""
"","","","","","single-stim-button","257","437125","0.0-2.0-62.2-0.2","55bce852fdf99b268358f83b","B2","batch2","","3423","tol_tohand","","","","tol_peg_2","3423","3423","0","[[0,0,0],[3,0],[1]]","3","[[3,0,0],[2,0],[1]]","17","0","","","","","","5","","","","","","","","",""
"","","","","","single-stim-button","258","437676","0.0-2.0-62.2-1.2","55bce852fdf99b268358f83b","B2","batch2","","551","tol_toboard","","","","tol_peg_1","551","551","0","[[2,0,0],[3,0],[1]]","3","[[3,0,0],[2,0],[1]]","17","0","","","","","","5","","","","","","","","",""
"","","","","","single-stim-button","259","439247","0.0-2.0-62.3-0.3","55bce852fdf99b268358f83b","B2","batch2","","1571","tol_tohand","","","","tol_peg_3","1571","1571","0","[[2,0,0],[3,0],[0]]","4","[[3,0,0],[2,0],[1]]","17","0","","","","","","5","","","","","","","","",""
"","","","","","single-stim-button","260","444943","0.0-2.0-62.3-1.3","55bce852fdf99b268358f83b","B2","batch2","","5695","tol_toboard","","","","tol_peg_2","5695","5695","0","[[2,0,0],[3,1],[0]]","4","[[3,0,0],[2,0],[1]]","17","0","","","","","","5","","","","","","","","",""
"","","","","","single-stim-button","261","448207","0.0-2.0-62.4-0.4","55bce852fdf99b268358f83b","B2","batch2","","3264","tol_tohand","","","","tol_peg_2","3264","3264","0","[[2,0,0],[3,0],[0]]","5","[[3,0,0],[2,0],[1]]","17","0","","","","","","5","","","","","","","","",""
"","","","","","single-stim-button","262","448690","0.0-2.0-62.4-1.4","55bce852fdf99b268358f83b","B2","batch2","","483","tol_toboard","","","","tol_peg_1","483","483","0","[[2,1,0],[3,0],[0]]","5","[[3,0,0],[2,0],[1]]","17","0","","","","","","5","","","","","","","","",""
"","","","","","single-stim-button","263","449133","0.0-2.0-62.5-0.5","55bce852fdf99b268358f83b","B2","batch2","","443","tol_tohand","","","","tol_peg_2","443","443","0","[[2,1,0],[0,0],[0]]","6","[[3,0,0],[2,0],[1]]","17","0","","","","","","5","","","","","","","","",""
"","","","","","single-stim-button","264","449729","0.0-2.0-62.5-1.5","55bce852fdf99b268358f83b","B2","batch2","","596","tol_toboard","","","","tol_peg_3","596","596","0","[[2,1,0],[0,0],[3]]","6","[[3,0,0],[2,0],[1]]","17","0","","","","","","5","","","","","","","","",""
"","","","","","single-stim-button","265","450335","0.0-2.0-62.6-0.6","55bce852fdf99b268358f83b","B2","batch2","","606","tol_tohand","","","","tol_peg_1","606","606","0","[[2,0,0],[0,0],[3]]","7","[[3,0,0],[2,0],[1]]","17","0","","","","","","5","","","","","","","","",""
"","","","","","single-stim-button","266","451346","0.0-2.0-62.6-1.6","55bce852fdf99b268358f83b","B2","batch2","","1011","tol_toboard","","","","tol_peg_2","1011","1011","0","[[2,0,0],[1,0],[3]]","7","[[3,0,0],[2,0],[1]]","17","0","","","","","","5","","","","","","","","",""
"","","","","","single-stim-button","267","451724","0.0-2.0-62.7-0.7","55bce852fdf99b268358f83b","B2","batch2","","378","tol_tohand","","","","tol_peg_1","378","378","0","[[0,0,0],[1,0],[3]]","8","[[3,0,0],[2,0],[1]]","17","0","","","","","","5","","","","","","","","",""
"","","","","","single-stim-button","268","452475","0.0-2.0-62.7-1.7","55bce852fdf99b268358f83b","B2","batch2","","751","tol_toboard","","","","tol_peg_2","751","751","0","[[0,0,0],[1,2],[3]]","8","[[3,0,0],[2,0],[1]]","17","0","","","","","","5","","","","","","","","",""
"","","","","","single-stim-button","269","453079","0.0-2.0-62.8-0.8","55bce852fdf99b268358f83b","B2","batch2","","604","tol_tohand","","","","tol_peg_3","604","604","0","[[0,0,0],[1,2],[0]]","9","[[3,0,0],[2,0],[1]]","17","0","","","","","","5","","","","","","","","",""
"","","","","","single-stim-button","270","453750","0.0-2.0-62.8-1.8","55bce852fdf99b268358f83b","B2","batch2","","671","tol_toboard","","","","tol_peg_1","671","671","0","[[3,0,0],[1,2],[0]]","9","[[3,0,0],[2,0],[1]]","17","0","","","","","","5","","","","","","","","",""
"","","","","","single-stim-button","271","455056","0.0-2.0-62.9-0.9","55bce852fdf99b268358f83b","B2","batch2","","1306","tol_tohand","","","","tol_peg_2","1306","1306","0","[[3,0,0],[1,0],[0]]","10","[[3,0,0],[2,0],[1]]","17","0","","","","","","5","","","","","","","","",""
"","","","","","single-stim-button","272","456130","0.0-2.0-62.9-1.9","55bce852fdf99b268358f83b","B2","batch2","","1074","tol_toboard","","","","tol_peg_1","1074","1074","0","[[3,2,0],[1,0],[0]]","10","[[3,0,0],[2,0],[1]]","17","0","","","","","","5","","","","","","","","",""
"","","","","","single-stim-button","273","456603","0.0-2.0-62.10-0.10","55bce852fdf99b268358f83b","B2","batch2","","473","tol_tohand","","","","tol_peg_2","473","473","0","[[3,2,0],[0,0],[0]]","11","[[3,0,0],[2,0],[1]]","17","0","","","","","","5","","","","","","","","",""
"","","","","","single-stim-button","274","457148","0.0-2.0-62.10-1.10","55bce852fdf99b268358f83b","B2","batch2","","545","tol_toboard","","","","tol_peg_3","545","545","0","[[3,2,0],[0,0],[1]]","11","[[3,0,0],[2,0],[1]]","17","0","","","","","","5","","","","","","","","",""
"","","","","","single-stim-button","275","457912","0.0-2.0-62.11-0.11","55bce852fdf99b268358f83b","B2","batch2","","764","tol_tohand","","","","tol_peg_1","764","764","0","[[3,0,0],[0,0],[1]]","12","[[3,0,0],[2,0],[1]]","17","0","","","","","","5","","","","","","","","",""
"","","","","","single-stim-button","276","458484","0.0-2.0-62.11-1.11","55bce852fdf99b268358f83b","B2","batch2","","572","tol_toboard","","","","tol_peg_2","572","572","0","[[3,0,0],[2,0],[1]]","12","[[3,0,0],[2,0],[1]]","17","0","","","","","","5","","","","","","","","",""
"","","","","","poldrack-single-stim","277","459498","0.0-2.0-63.0","55bce852fdf99b268358f83b","B2","batch2","","-1","tol_feedback","","","true","","1000","1000","500","","","","","","-1","none","true","3237","16506","","","","","","","","","",""
"","","","","","html-button-response","278","460261","0.0-2.0-64.0","55bce852fdf99b268358f83b","B2","batch2","","762.3999999761581","tol_trial_num","<div class = centerbox><p class = center-block-text>problem <strong>19</strong> out of 25 problems</p></div>","0","","","","","","","","","","","","","","","","","","","","","","","","",""
"","","","","","single-stim-button","279","475820","0.0-2.0-65.0-0.0","55bce852fdf99b268358f83b","B2","batch2","","15559","tol_tohand","","","","tol_peg_2","15559","15559","0","[[1,2,0],[0,0],[0]]","1","[[0,0,0],[1,2],[3]]","18","0","","","","","","7","","","","","","","","",""
"","","","","","single-stim-button","280","478633","0.0-2.0-65.0-1.0","55bce852fdf99b268358f83b","B2","batch2","","2812","tol_toboard","","","","tol_peg_3","2812","2812","0","[[1,2,0],[0,0],[3]]","1","[[0,0,0],[1,2],[3]]","18","0","","","","","","7","","","","","","","","",""
"","","","","","single-stim-button","281","481764","0.0-2.0-65.1-0.1","55bce852fdf99b268358f83b","B2","batch2","","3131","tol_tohand","","","","tol_peg_1","3131","3131","0","[[1,0,0],[0,0],[3]]","2","[[0,0,0],[1,2],[3]]","18","0","","","","","","7","","","","","","","","",""
"","","","","","single-stim-button","282","482454","0.0-2.0-65.1-1.1","55bce852fdf99b268358f83b","B2","batch2","","690","tol_toboard","","","","tol_peg_2","690","690","0","[[1,0,0],[2,0],[3]]","2","[[0,0,0],[1,2],[3]]","18","0","","","","","","7","","","","","","","","",""
"","","","","","single-stim-button","283","486006","0.0-2.0-65.2-0.2","55bce852fdf99b268358f83b","B2","batch2","","3552","tol_tohand","","","","tol_peg_1","3552","3552","0","[[0,0,0],[2,0],[3]]","3","[[0,0,0],[1,2],[3]]","18","0","","","","","","7","","","","","","","","",""
"","","","","","single-stim-button","284","486543","0.0-2.0-65.2-1.2","55bce852fdf99b268358f83b","B2","batch2","","536","tol_toboard","","","","tol_peg_2","536","536","0","[[0,0,0],[2,1],[3]]","3","[[0,0,0],[1,2],[3]]","18","0","","","","","","7","","","","","","","","",""
"","","","","","single-stim-button","285","487371","0.0-2.0-65.3-0.3","55bce852fdf99b268358f83b","B2","batch2","","828","tol_tohand","","","","tol_peg_3","828","828","0","[[0,0,0],[2,1],[0]]","4","[[0,0,0],[1,2],[3]]","18","0","","","","","","7","","","","","","","","",""
"","","","","","single-stim-button","286","488053","0.0-2.0-65.3-1.3","55bce852fdf99b268358f83b","B2","batch2","","681","tol_toboard","","","","tol_peg_1","681","681","0","[[3,0,0],[2,1],[0]]","4","[[0,0,0],[1,2],[3]]","18","0","","","","","","7","","","","","","","","",""
"","","","","","single-stim-button","287","488554","0.0-2.0-65.4-0.4","55bce852fdf99b268358f83b","B2","batch2","","499","tol_tohand","","","","tol_peg_2","499","499","0","[[3,0,0],[2,0],[0]]","5","[[0,0,0],[1,2],[3]]","18","0","","","","","","7","","","","","","","","",""
"","","","","","single-stim-button","288","489093","0.0-2.0-65.4-1.4","55bce852fdf99b268358f83b","B2","batch2","","539","tol_toboard","","","","tol_peg_3","539","539","0","[[3,0,0],[2,0],[1]]","5","[[0,0,0],[1,2],[3]]","18","0","","","","","","7","","","","","","","","",""
"","","","","","single-stim-button","289","489486","0.0-2.0-65.5-0.5","55bce852fdf99b268358f83b","B2","batch2","","391","tol_tohand","","","","tol_peg_2","391","391","0","[[3,0,0],[0,0],[1]]","6","[[0,0,0],[1,2],[3]]","18","0","","","","","","7","","","","","","","","",""
"","","","","","single-stim-button","290","489905","0.0-2.0-65.5-1.5","55bce852fdf99b268358f83b","B2","batch2","","419","tol_toboard","","","","tol_peg_1","419","419","0","[[3,2,0],[0,0],[1]]","6","[[0,0,0],[1,2],[3]]","18","0","","","","","","7","","","","","","","","",""
"","","","","","single-stim-button","291","490626","0.0-2.0-65.6-0.6","55bce852fdf99b268358f83b","B2","batch2","","720","tol_tohand","","","","tol_peg_3","720","720","0","[[3,2,0],[0,0],[0]]","7","[[0,0,0],[1,2],[3]]","18","0","","","","","","7","","","","","","","","",""
"","","","","","single-stim-button","292","491326","0.0-2.0-65.6-1.6","55bce852fdf99b268358f83b","B2","batch2","","699","tol_toboard","","","","tol_peg_2","699","699","0","[[3,2,0],[1,0],[0]]","7","[[0,0,0],[1,2],[3]]","18","0","","","","","","7","","","","","","","","",""
"","","","","","single-stim-button","293","491781","0.0-2.0-65.7-0.7","55bce852fdf99b268358f83b","B2","batch2","","454","tol_tohand","","","","tol_peg_1","454","454","0","[[3,0,0],[1,0],[0]]","8","[[0,0,0],[1,2],[3]]","18","0","","","","","","7","","","","","","","","",""
"","","","","","single-stim-button","294","492186","0.0-2.0-65.7-1.7","55bce852fdf99b268358f83b","B2","batch2","","403","tol_toboard","","","","tol_peg_2","403","403","0","[[3,0,0],[1,2],[0]]","8","[[0,0,0],[1,2],[3]]","18","0","","","","","","7","","","","","","","","",""
"","","","","","single-stim-button","295","492583","0.0-2.0-65.8-0.8","55bce852fdf99b268358f83b","B2","batch2","","397","tol_tohand","","","","tol_peg_1","397","397","0","[[0,0,0],[1,2],[0]]","9","[[0,0,0],[1,2],[3]]","18","0","","","","","","7","","","","","","","","",""
"","","","","","single-stim-button","296","493200","0.0-2.0-65.8-1.8","55bce852fdf99b268358f83b","B2","batch2","","617","tol_toboard","","","","tol_peg_3","617","617","0","[[0,0,0],[1,2],[3]]","9","[[0,0,0],[1,2],[3]]","18","0","","","","","","7","","","","","","","","",""
"","","","","","poldrack-single-stim","297","494216","0.0-2.0-66.0","55bce852fdf99b268358f83b","B2","batch2","","-1","tol_feedback","","","true","","1000","1000","500","","","","","","-1","none","true","15559","25531","","","","","","","","","",""
"","","","","","html-button-response","298","494862","0.0-2.0-67.0","55bce852fdf99b268358f83b","B2","batch2","","645.2999999821186","tol_trial_num","<div class = centerbox><p class = center-block-text>problem <strong>20</strong> out of 25 problems</p></div>","0","","","","","","","","","","","","","","","","","","","","","","","","",""
"","","","","","single-stim-button","299","497665","0.0-2.0-68.0-0.0","55bce852fdf99b268358f83b","B2","batch2","","2803","tol_tohand","","","","tol_peg_1","2803","2803","0","[[1,0,0],[3,0],[0]]","1","[[2,1,0],[0,0],[3]]","19","0","","","","","","5","","","","","","","","",""
"","","","","","single-stim-button","300","500776","0.0-2.0-68.0-1.0","55bce852fdf99b268358f83b","B2","batch2","","3109","tol_toboard","","","","tol_peg_2","3109","3109","0","[[1,0,0],[3,2],[0]]","1","[[2,1,0],[0,0],[3]]","19","0","","","","","","5","","","","","","","","",""
"","","","","","single-stim-button","301","501313","0.0-2.0-68.1-0.1","55bce852fdf99b268358f83b","B2","batch2","","536","tol_tohand","","","","tol_peg_1","536","536","0","[[0,0,0],[3,2],[0]]","2","[[2,1,0],[0,0],[3]]","19","0","","","","","","5","","","","","","","","",""
"","","","","","single-stim-button","302","502123","0.0-2.0-68.1-1.1","55bce852fdf99b268358f83b","B2","batch2","","810","tol_toboard","","","","tol_peg_3","810","810","0","[[0,0,0],[3,2],[1]]","2","[[2,1,0],[0,0],[3]]","19","0","","","","","","5","","","","","","","","",""
"","","","","","single-stim-button","303","502615","0.0-2.0-68.2-0.2","55bce852fdf99b268358f83b","B2","batch2","","491","tol_tohand","","","","tol_peg_2","491","491","0","[[0,0,0],[3,0],[1]]","3","[[2,1,0],[0,0],[3]]","19","0","","","","","","5","","","","","","","","",""
"","","","","","single-stim-button","304","503127","0.0-2.0-68.2-1.2","55bce852fdf99b268358f83b","B2","batch2","","512","tol_toboard","","","","tol_peg_1","512","512","0","[[2,0,0],[3,0],[1]]","3","[[2,1,0],[0,0],[3]]","19","0","","","","","","5","","","","","","","","",""
"","","","","","single-stim-button","305","503678","0.0-2.0-68.3-0.3","55bce852fdf99b268358f83b","B2","batch2","","549","tol_tohand","","","","tol_peg_3","549","549","0","[[2,0,0],[3,0],[0]]","4","[[2,1,0],[0,0],[3]]","19","0","","","","","","5","","","","","","","","",""
"","","","","","single-stim-button","306","504255","0.0-2.0-68.3-1.3","55bce852fdf99b268358f83b","B2","batch2","","576","tol_toboard","","","","tol_peg_1","576","576","0","[[2,1,0],[3,0],[0]]","4","[[2,1,0],[0,0],[3]]","19","0","","","","","","5","","","","","","","","",""
"","","","","","single-stim-button","307","504670","0.0-2.0-68.4-0.4","55bce852fdf99b268358f83b","B2","batch2","","414","tol_tohand","","","","tol_peg_2","414","414","0","[[2,1,0],[0,0],[0]]","5","[[2,1,0],[0,0],[3]]","19","0","","","","","","5","","","","","","","","",""
"","","","","","single-stim-button","308","505106","0.0-2.0-68.4-1.4","55bce852fdf99b268358f83b","B2","batch2","","436","tol_toboard","","","","tol_peg_3","436","436","0","[[2,1,0],[0,0],[3]]","5","[[2,1,0],[0,0],[3]]","19","0","","","","","","5","","","","","","","","",""
"","","","","","poldrack-single-stim","309","506116","0.0-2.0-69.0","55bce852fdf99b268358f83b","B2","batch2","","-1","tol_feedback","","","true","","1000","1000","500","","","","","","-1","none","true","2803","4793","","","","","","","","","",""
"","","","","","html-button-response","310","506990","0.0-2.0-70.0","55bce852fdf99b268358f83b","B2","batch2","","873.5","tol_trial_num","<div class = centerbox><p class = center-block-text>problem <strong>21</strong> out of 25 problems</p></div>","0","","","","","","","","","","","","","","","","","","","","","","","","",""
"","","","","","single-stim-button","311","510809","0.0-2.0-71.0-0.0","55bce852fdf99b268358f83b","B2","batch2","","3818","tol_tohand","","","","tol_peg_1","3818","3818","0","[[1,0,0],[3,0],[0]]","1","[[3,2,0],[0,0],[1]]","20","0","","","","","","6","","","","","","","","",""
"","","","","","single-stim-button","312","514204","0.0-2.0-71.0-1.0","55bce852fdf99b268358f83b","B2","batch2","","3394","tol_toboard","","","","tol_peg_1","3394","3394","0","[[1,2,0],[3,0],[0]]","1","[[3,2,0],[0,0],[1]]","20","0","","","","","","6","","","","","","","","",""
"","","","","","single-stim-button","313","514843","0.0-2.0-71.1-0.1","55bce852fdf99b268358f83b","B2","batch2","","639","tol_tohand","","","","tol_peg_2","639","639","0","[[1,2,0],[0,0],[0]]","2","[[3,2,0],[0,0],[1]]","20","0","","","","","","6","","","","","","","","",""
"","","","","","single-stim-button","314","515314","0.0-2.0-71.1-1.1","55bce852fdf99b268358f83b","B2","batch2","","471","tol_toboard","","","","tol_peg_3","471","471","0","[[1,2,0],[0,0],[3]]","2","[[3,2,0],[0,0],[1]]","20","0","","","","","","6","","","","","","","","",""
"","","","","","single-stim-button","315","515984","0.0-2.0-71.2-0.2","55bce852fdf99b268358f83b","B2","batch2","","669","tol_tohand","","","","tol_peg_1","669","669","0","[[1,0,0],[0,0],[3]]","3","[[3,2,0],[0,0],[1]]","20","0","","","","","","6","","","","","","","","",""
"","","","","","single-stim-button","316","516593","0.0-2.0-71.2-1.2","55bce852fdf99b268358f83b","B2","batch2","","608","tol_toboard","","","","tol_peg_2","608","608","0","[[1,0,0],[2,0],[3]]","3","[[3,2,0],[0,0],[1]]","20","0","","","","","","6","","","","","","","","",""
"","","","","","single-stim-button","317","517095","0.0-2.0-71.3-0.3","55bce852fdf99b268358f83b","B2","batch2","","501","tol_tohand","","","","tol_peg_1","501","501","0","[[0,0,0],[2,0],[3]]","4","[[3,2,0],[0,0],[1]]","20","0","","","","","","6","","","","","","","","",""
"","","","","","single-stim-button","318","517711","0.0-2.0-71.3-1.3","55bce852fdf99b268358f83b","B2","batch2","","614","tol_toboard","","","","tol_peg_2","614","614","0","[[0,0,0],[2,1],[3]]","4","[[3,2,0],[0,0],[1]]","20","0","","","","","","6","","","","","","","","",""
"","","","","","single-stim-button","319","518235","0.0-2.0-71.4-0.4","55bce852fdf99b268358f83b","B2","batch2","","524","tol_tohand","","","","tol_peg_3","524","524","0","[[0,0,0],[2,1],[0]]","5","[[3,2,0],[0,0],[1]]","20","0","","","","","","6","","","","","","","","",""
"","","","","","single-stim-button","320","518997","0.0-2.0-71.4-1.4","55bce852fdf99b268358f83b","B2","batch2","","760","tol_toboard","","","","tol_peg_1","760","760","0","[[3,0,0],[2,1],[0]]","5","[[3,2,0],[0,0],[1]]","20","0","","","","","","6","","","","","","","","",""
"","","","","","single-stim-button","321","520959","0.0-2.0-71.5-0.5","55bce852fdf99b268358f83b","B2","batch2","","1962","tol_tohand","","","","tol_peg_2","1962","1962","0","[[3,0,0],[2,0],[0]]","6","[[3,2,0],[0,0],[1]]","20","0","","","","","","6","","","","","","","","",""
"","","","","","single-stim-button","322","521540","0.0-2.0-71.5-1.5","55bce852fdf99b268358f83b","B2","batch2","","580","tol_toboard","","","","tol_peg_3","580","580","0","[[3,0,0],[2,0],[1]]","6","[[3,2,0],[0,0],[1]]","20","0","","","","","","6","","","","","","","","",""
"","","","","","single-stim-button","323","522003","0.0-2.0-71.6-0.6","55bce852fdf99b268358f83b","B2","batch2","","462","tol_tohand","","","","tol_peg_2","462","462","0","[[3,0,0],[0,0],[1]]","7","[[3,2,0],[0,0],[1]]","20","0","","","","","","6","","","","","","","","",""
"","","","","","single-stim-button","324","522517","0.0-2.0-71.6-1.6","55bce852fdf99b268358f83b","B2","batch2","","512","tol_toboard","","","","tol_peg_1","512","512","0","[[3,2,0],[0,0],[1]]","7","[[3,2,0],[0,0],[1]]","20","0","","","","","","6","","","","","","","","",""
"","","","","","poldrack-single-stim","325","523517","0.0-2.0-72.0","55bce852fdf99b268358f83b","B2","batch2","","-1","tol_feedback","","","true","","1000","1000","500","","","","","","-1","none","true","3818","8575","","","","","","","","","",""
"","","","","","html-button-response","326","524526","0.0-2.0-73.0","55bce852fdf99b268358f83b","B2","batch2","","1007.8999999761581","tol_trial_num","<div class = centerbox><p class = center-block-text>problem <strong>22</strong> out of 25 problems</p></div>","0","","","","","","","","","","","","","","","","","","","","","","","","",""
"","","","","","single-stim-button","327","529937","0.0-2.0-74.0-0.0","55bce852fdf99b268358f83b","B2","batch2","","5411","tol_tohand","","","","tol_peg_2","5411","5411","0","[[1,0,0],[2,0],[0]]","1","[[0,0,0],[1,2],[3]]","21","0","","","","","","6","","","","","","","","",""
"","","","","","single-stim-button","328","533056","0.0-2.0-74.0-1.0","55bce852fdf99b268358f83b","B2","batch2","","3119","tol_toboard","","","","tol_peg_1","3119","3119","0","[[1,3,0],[2,0],[0]]","1","[[0,0,0],[1,2],[3]]","21","0","","","","","","6","","","","","","","","",""
"","","","","","single-stim-button","329","533542","0.0-2.0-74.1-0.1","55bce852fdf99b268358f83b","B2","batch2","","485","tol_tohand","","","","tol_peg_2","485","485","0","[[1,3,0],[0,0],[0]]","2","[[0,0,0],[1,2],[3]]","21","0","","","","","","6","","","","","","","","",""
"","","","","","single-stim-button","330","535469","0.0-2.0-74.1-1.1","55bce852fdf99b268358f83b","B2","batch2","","1926","tol_toboard","","","","tol_peg_3","1926","1926","0","[[1,3,0],[0,0],[2]]","2","[[0,0,0],[1,2],[3]]","21","0","","","","","","6","","","","","","","","",""
"","","","","","single-stim-button","331","536152","0.0-2.0-74.2-0.2","55bce852fdf99b268358f83b","B2","batch2","","682","tol_tohand","","","","tol_peg_1","682","682","0","[[1,0,0],[0,0],[2]]","3","[[0,0,0],[1,2],[3]]","21","0","","","","","","6","","","","","","","","",""
"","","","","","single-stim-button","332","538732","0.0-2.0-74.2-1.2","55bce852fdf99b268358f83b","B2","batch2","","2578","tol_toboard","","","","tol_peg_2","2578","2578","0","[[1,0,0],[3,0],[2]]","3","[[0,0,0],[1,2],[3]]","21","0","","","","","","6","","","","","","","","",""
"","","","","","single-stim-button","333","544044","0.0-2.0-74.3-0.3","55bce852fdf99b268358f83b","B2","batch2","","5312","tol_tohand","","","","tol_peg_1","5312","5312","0","[[0,0,0],[3,0],[2]]","4","[[0,0,0],[1,2],[3]]","21","0","","","","","","6","","","","","","","","",""
"","","","","","single-stim-button","334","544497","0.0-2.0-74.3-1.3","55bce852fdf99b268358f83b","B2","batch2","","452","tol_toboard","","","","tol_peg_2","452","452","0","[[0,0,0],[3,1],[2]]","4","[[0,0,0],[1,2],[3]]","21","0","","","","","","6","","","","","","","","",""
"","","","","","single-stim-button","335","544866","0.0-2.0-74.4-0.4","55bce852fdf99b268358f83b","B2","batch2","","367","tol_tohand","","","","tol_peg_3","367","367","0","[[0,0,0],[3,1],[0]]","5","[[0,0,0],[1,2],[3]]","21","0","","","","","","6","","","","","","","","",""
"","","","","","single-stim-button","336","545392","0.0-2.0-74.4-1.4","55bce852fdf99b268358f83b","B2","batch2","","526","tol_toboard","","","","tol_peg_1","526","526","0","[[2,0,0],[3,1],[0]]","5","[[0,0,0],[1,2],[3]]","21","0","","","","","","6","","","","","","","","",""
"","","","","","single-stim-button","337","545787","0.0-2.0-74.5-0.5","55bce852fdf99b268358f83b","B2","batch2","","395","tol_tohand","","","","tol_peg_2","395","395","0","[[2,0,0],[3,0],[0]]","6","[[0,0,0],[1,2],[3]]","21","0","","","","","","6","","","","","","","","",""
"","","","","","single-stim-button","338","546439","0.0-2.0-74.5-1.5","55bce852fdf99b268358f83b","B2","batch2","","652","tol_toboard","","","","tol_peg_3","652","652","0","[[2,0,0],[3,0],[1]]","6","[[0,0,0],[1,2],[3]]","21","0","","","","","","6","","","","","","","","",""
"","","","","","single-stim-button","339","546950","0.0-2.0-74.6-0.6","55bce852fdf99b268358f83b","B2","batch2","","510","tol_tohand","","","","tol_peg_2","510","510","0","[[2,0,0],[0,0],[1]]","7","[[0,0,0],[1,2],[3]]","21","0","","","","","","6","","","","","","","","",""
"","","","","","single-stim-button","340","547427","0.0-2.0-74.6-1.6","55bce852fdf99b268358f83b","B2","batch2","","477","tol_toboard","","","","tol_peg_1","477","477","0","[[2,3,0],[0,0],[1]]","7","[[0,0,0],[1,2],[3]]","21","0","","","","","","6","","","","","","","","",""
"","","","","","single-stim-button","341","548057","0.0-2.0-74.7-0.7","55bce852fdf99b268358f83b","B2","batch2","","628","tol_tohand","","","","tol_peg_3","628","628","0","[[2,3,0],[0,0],[0]]","8","[[0,0,0],[1,2],[3]]","21","0","","","","","","6","","","","","","","","",""
"","","","","","single-stim-button","342","548559","0.0-2.0-74.7-1.7","55bce852fdf99b268358f83b","B2","batch2","","502","tol_toboard","","","","tol_peg_2","502","502","0","[[2,3,0],[1,0],[0]]","8","[[0,0,0],[1,2],[3]]","21","0","","","","","","6","","","","","","","","",""
"","","","","","single-stim-button","343","549031","0.0-2.0-74.8-0.8","55bce852fdf99b268358f83b","B2","batch2","","472","tol_tohand","","","","tol_peg_1","472","472","0","[[2,0,0],[1,0],[0]]","9","[[0,0,0],[1,2],[3]]","21","0","","","","","","6","","","","","","","","",""
"","","","","","single-stim-button","344","549687","0.0-2.0-74.8-1.8","55bce852fdf99b268358f83b","B2","batch2","","655","tol_toboard","","","","tol_peg_3","655","655","0","[[2,0,0],[1,0],[3]]","9","[[0,0,0],[1,2],[3]]","21","0","","","","","","6","","","","","","","","",""
"","","","","","single-stim-button","345","550193","0.0-2.0-74.9-0.9","55bce852fdf99b268358f83b","B2","batch2","","505","tol_tohand","","","","tol_peg_1","505","505","0","[[0,0,0],[1,0],[3]]","10","[[0,0,0],[1,2],[3]]","21","0","","","","","","6","","","","","","","","",""
"","","","","","single-stim-button","346","550670","0.0-2.0-74.9-1.9","55bce852fdf99b268358f83b","B2","batch2","","476","tol_toboard","","","","tol_peg_2","476","476","0","[[0,0,0],[1,2],[3]]","10","[[0,0,0],[1,2],[3]]","21","0","","","","","","6","","","","","","","","",""
"","","","","","poldrack-single-stim","347","551672","0.0-2.0-75.0","55bce852fdf99b268358f83b","B2","batch2","","-1","tol_feedback","","","true","","1000","1000","500","","","","","","-1","none","true","5411","14767","","","","","","","","","",""
"","","","","","html-button-response","348","552331","0.0-2.0-76.0","55bce852fdf99b268358f83b","B2","batch2","","658.9000000059605","tol_trial_num","<div class = centerbox><p class = center-block-text>problem <strong>23</strong> out of 25 problems</p></div>","0","","","","","","","","","","","","","","","","","","","","","","","","",""
"","","","","","single-stim-button","349","556719","0.0-2.0-77.0-0.0","55bce852fdf99b268358f83b","B2","batch2","","4388","tol_tohand","","","","tol_peg_1","4388","4388","0","[[1,0,0],[3,0],[0]]","1","[[1,3,2],[0,0],[0]]","22","0","","","","","","3","","","","","","","","",""
"","","","","","single-stim-button","350","557375","0.0-2.0-77.0-1.0","55bce852fdf99b268358f83b","B2","batch2","","654","tol_toboard","","","","tol_peg_3","654","654","0","[[1,0,0],[3,0],[2]]","1","[[1,3,2],[0,0],[0]]","22","0","","","","","","3","","","","","","","","",""
"","","","","","single-stim-button","351","557806","0.0-2.0-77.1-0.1","55bce852fdf99b268358f83b","B2","batch2","","431","tol_tohand","","","","tol_peg_2","431","431","0","[[1,0,0],[0,0],[2]]","2","[[1,3,2],[0,0],[0]]","22","0","","","","","","3","","","","","","","","",""
"","","","","","single-stim-button","352","558344","0.0-2.0-77.1-1.1","55bce852fdf99b268358f83b","B2","batch2","","536","tol_toboard","","","","tol_peg_1","536","536","0","[[1,3,0],[0,0],[2]]","2","[[1,3,2],[0,0],[0]]","22","0","","","","","","3","","","","","","","","",""
"","","","","","single-stim-button","353","558824","0.0-2.0-77.2-0.2","55bce852fdf99b268358f83b","B2","batch2","","480","tol_tohand","","","","tol_peg_3","480","480","0","[[1,3,0],[0,0],[0]]","3","[[1,3,2],[0,0],[0]]","22","0","","","","","","3","","","","","","","","",""
"","","","","","single-stim-button","354","559425","0.0-2.0-77.2-1.2","55bce852fdf99b268358f83b","B2","batch2","","599","tol_toboard","","","","tol_peg_1","599","599","0","[[1,3,2],[0,0],[0]]","3","[[1,3,2],[0,0],[0]]","22","0","","","","","","3","","","","","","","","",""
"","","","","","poldrack-single-stim","355","560425","0.0-2.0-78.0","55bce852fdf99b268358f83b","B2","batch2","","-1","tol_feedback","","","true","","1000","1000","500","","","","","","-1","none","true","4388","5299","","","","","","","","","",""
"","","","","","html-button-response","356","561333","0.0-2.0-79.0","55bce852fdf99b268358f83b","B2","batch2","","907.8000000119209","tol_trial_num","<div class = centerbox><p class = center-block-text>problem <strong>24</strong> out of 25 problems</p></div>","0","","","","","","","","","","","","","","","","","","","","","","","","",""
