"success","timeout","failed_images","failed_audio","failed_video","trial_type","trial_index","time_elapsed","internal_node_id","subject_id","study_id","session_id","task","rt","stimulus","response","item","answer","correct","spm_correct","spm_rt","view_history","fiar_detect_rt","fiar_detect_correct","total_correct_fiar_detect","post_trial_gap","choices","mouse_click","stim_duration","block_duration","timing_post_trial","current_position","tol_num_moves_made","tol_target","tol_problem_id","tol_rt","key_press","possible_responses","tol_correct","preplanning","tol_rt_per_trial","tol_min_moves"
"true","false","[]","[]","[]","preload","0","35457","0.0-0.0","55c82012fdf99b02adc2a36e","C3","batch3","","","","","","","","","","","","","","","","","","","","","","","","","","","","","",""
"true","","","","","fullscreen","1","49620","0.0-1.0-0.0","55c82012fdf99b02adc2a36e","C3","batch3","","","","","","","","","","","","","","","","","","","","","","","","","","","","","",""
"true","","","","","fullscreen","2","52338","0.0-2.0-0.0","55c82012fdf99b02adc2a36e","C3","batch3","spm_fullscreen","","","","","","","","","","","","","","","","","","","","","","","","","","","","",""
"","","","","","html-button-response","3","63352","0.0-2.0-1.0","55c82012fdf99b02adc2a36e","C3","batch3","","11010.299999952316","<p class = block-text><b>Instructions</b> <br>This is a widely used intelligence test in research. <br>In this test, a figure with a missing piece will be presented.<br>Below the figure are alternative pieces to complete the figure, only one of which is correct.<br> Different figures might involve different principles for obtaining the missing piece<br>Your job is to select the most logical piece to complete the figure.</p>","0","","","","","","","","","","","","","","","","","","","","","","","","","",""
"","","","","","html-keyboard-response","4","64162","0.0-2.0-2.0-0.0","55c82012fdf99b02adc2a36e","C3","batch3","spm_show_trial_num","null","<p class=block-text>Trial 1 out of 60</p>","null","","","","","","","","","","","","","","","","","","","","","","","","","",""
"","","","","","image-button-response","5","80608","0.0-2.0-2.0-1.0","55c82012fdf99b02adc2a36e","C3","batch3","spm_respsonse","16429.599999904633","img/question_1_1.jpeg","3","mat_01","4","1","1","16429.599999904633","","","","","","","","","","","","","","","","","","","","",""
"","","","","","html-keyboard-response","6","81683","0.0-2.0-2.0-0.1","55c82012fdf99b02adc2a36e","C3","batch3","spm_show_trial_num","null","<p class=block-text>Trial 2 out of 60</p>","null","","","","","","","","","","","","","","","","","","","","","","","","","",""
"","","","","","image-button-response","7","85316","0.0-2.0-2.0-1.1","55c82012fdf99b02adc2a36e","C3","batch3","spm_respsonse","3627.2000000476837","img/question_1_2.jpeg","4","mat_02","5","1","1","3627.2000000476837","","","","","","","","","","","","","","","","","","","","",""
"","","","","","html-keyboard-response","8","86389","0.0-2.0-2.0-0.2","55c82012fdf99b02adc2a36e","C3","batch3","spm_show_trial_num","null","<p class=block-text>Trial 3 out of 60</p>","null","","","","","","","","","","","","","","","","","","","","","","","","","",""
"","","","","","image-button-response","9","90094","0.0-2.0-2.0-1.2","55c82012fdf99b02adc2a36e","C3","batch3","spm_respsonse","3700.4000000953674","img/question_1_3.jpeg","0","mat_03","1","1","1","3700.4000000953674","","","","","","","","","","","","","","","","","","","","",""
"","","","","","html-keyboard-response","10","91164","0.0-2.0-2.0-0.3","55c82012fdf99b02adc2a36e","C3","batch3","spm_show_trial_num","null","<p class=block-text>Trial 4 out of 60</p>","null","","","","","","","","","","","","","","","","","","","","","","","","","",""
"","","","","","image-button-response","11","94875","0.0-2.0-2.0-1.3","55c82012fdf99b02adc2a36e","C3","batch3","spm_respsonse","3705.0999999046326","img/question_1_4.jpeg","1","mat_04","2","1","1","3705.0999999046326","","","","","","","","","","","","","","","","","","","","",""
"","","","","","html-keyboard-response","12","95944","0.0-2.0-2.0-0.4","55c82012fdf99b02adc2a36e","C3","batch3","spm_show_trial_num","null","<p class=block-text>Trial 5 out of 60</p>","null","","","","","","","","","","","","","","","","","","","","","","","","","",""
"","","","","","image-button-response","13","100264","0.0-2.0-2.0-1.4","55c82012fdf99b02adc2a36e","C3","batch3","spm_respsonse","4315.099999904633","img/question_1_5.jpeg","5","mat_05","6","1","1","4315.099999904633","","","","","","","","","","","","","","","","","","","","",""
"","","","","","html-keyboard-response","14","101327","0.0-2.0-2.0-0.5","55c82012fdf99b02adc2a36e","C3","batch3","spm_show_trial_num","null","<p class=block-text>Trial 6 out of 60</p>","null","","","","","","","","","","","","","","","","","","","","","","","","","",""
"","","","","","image-button-response","15","105334","0.0-2.0-2.0-1.5","55c82012fdf99b02adc2a36e","C3","batch3","spm_respsonse","4001.4000000953674","img/question_1_6.jpeg","2","mat_06","3","1","1","4001.4000000953674","","","","","","","","","","","","","","","","","","","","",""
"","","","","","html-keyboard-response","16","106388","0.0-2.0-2.0-0.6","55c82012fdf99b02adc2a36e","C3","batch3","spm_show_trial_num","null","<p class=block-text>Trial 7 out of 60</p>","null","","","","","","","","","","","","","","","","","","","","","","","","","",""
"","","","","","image-button-response","17","112049","0.0-2.0-2.0-1.6","55c82012fdf99b02adc2a36e","C3","batch3","spm_respsonse","5655.599999904633","img/question_1_7.jpeg","5","mat_07","6","1","1","5655.599999904633","","","","","","","","","","","","","","","","","","","","",""
"","","","","","html-keyboard-response","18","113102","0.0-2.0-2.0-0.7","55c82012fdf99b02adc2a36e","C3","batch3","spm_show_trial_num","null","<p class=block-text>Trial 8 out of 60</p>","null","","","","","","","","","","","","","","","","","","","","","","","","","",""
"","","","","","image-button-response","19","117737","0.0-2.0-2.0-1.7","55c82012fdf99b02adc2a36e","C3","batch3","spm_respsonse","4630.400000095367","img/question_1_8.jpeg","1","mat_08","2","1","1","4630.400000095367","","","","","","","","","","","","","","","","","","","","",""
"","","","","","html-keyboard-response","20","118788","0.0-2.0-2.0-0.8","55c82012fdf99b02adc2a36e","C3","batch3","spm_show_trial_num","null","<p class=block-text>Trial 9 out of 60</p>","null","","","","","","","","","","","","","","","","","","","","","","","","","",""
"","","","","","image-button-response","21","124003","0.0-2.0-2.0-1.8","55c82012fdf99b02adc2a36e","C3","batch3","spm_respsonse","5208.200000047684","img/question_1_9.jpeg","0","mat_09","1","1","1","5208.200000047684","","","","","","","","","","","","","","","","","","","","",""
"","","","","","html-keyboard-response","22","125071","0.0-2.0-2.0-0.9","55c82012fdf99b02adc2a36e","C3","batch3","spm_show_trial_num","null","<p class=block-text>Trial 10 out of 60</p>","null","","","","","","","","","","","","","","","","","","","","","","","","","",""
"","","","","","image-button-response","23","129865","0.0-2.0-2.0-1.9","55c82012fdf99b02adc2a36e","C3","batch3","spm_respsonse","4788.399999856949","img/question_1_10.jpeg","2","mat_10","3","1","1","4788.399999856949","","","","","","","","","","","","","","","","","","","","",""
"","","","","","html-keyboard-response","24","130919","0.0-2.0-2.0-0.10","55c82012fdf99b02adc2a36e","C3","batch3","spm_show_trial_num","null","<p class=block-text>Trial 11 out of 60</p>","null","","","","","","","","","","","","","","","","","","","","","","","","","",""
"","","","","","image-button-response","25","144069","0.0-2.0-2.0-1.10","55c82012fdf99b02adc2a36e","C3","batch3","spm_respsonse","13144.900000095367","img/question_1_11.jpeg","3","mat_11","4","1","1","13144.900000095367","","","","","","","","","","","","","","","","","","","","",""
"","","","","","html-keyboard-response","26","145128","0.0-2.0-2.0-0.11","55c82012fdf99b02adc2a36e","C3","batch3","spm_show_trial_num","null","<p class=block-text>Trial 12 out of 60</p>","null","","","","","","","","","","","","","","","","","","","","","","","","","",""
"","","","","","image-button-response","27","154079","0.0-2.0-2.0-1.11","55c82012fdf99b02adc2a36e","C3","batch3","spm_respsonse","8945.100000143051","img/question_1_12.jpeg","4","mat_12","5","1","1","8945.100000143051","","","","","","","","","","","","","","","","","","","","",""
"","","","","","html-keyboard-response","28","155147","0.0-2.0-2.0-0.12","55c82012fdf99b02adc2a36e","C3","batch3","spm_show_trial_num","null","<p class=block-text>Trial 13 out of 60</p>","null","","","","","","","","","","","","","","","","","","","","","","","","","",""
"","","","","","image-button-response","29","157413","0.0-2.0-2.0-1.12","55c82012fdf99b02adc2a36e","C3","batch3","spm_respsonse","2260.2999999523163","img/question_2_1.jpeg","1","mat_13","2","1","1","2260.2999999523163","","","","","","","","","","","","","","","","","","","","",""
"","","","","","html-keyboard-response","30","158474","0.0-2.0-2.0-0.13","55c82012fdf99b02adc2a36e","C3","batch3","spm_show_trial_num","null","<p class=block-text>Trial 14 out of 60</p>","null","","","","","","","","","","","","","","","","","","","","","","","","","",""
"","","","","","image-button-response","31","162870","0.0-2.0-2.0-1.13","55c82012fdf99b02adc2a36e","C3","batch3","spm_respsonse","4391.299999952316","img/question_2_2.jpeg","5","mat_14","6","1","1","4391.299999952316","","","","","","","","","","","","","","","","","","","","",""
"","","","","","html-keyboard-response","32","163925","0.0-2.0-2.0-0.14","55c82012fdf99b02adc2a36e","C3","batch3","spm_show_trial_num","null","<p class=block-text>Trial 15 out of 60</p>","null","","","","","","","","","","","","","","","","","","","","","","","","","",""
"","","","","","image-button-response","33","167975","0.0-2.0-2.0-1.14","55c82012fdf99b02adc2a36e","C3","batch3","spm_respsonse","4044.4000000953674","img/question_2_3.jpeg","0","mat_15","1","1","1","4044.4000000953674","","","","","","","","","","","","","","","","","","","","",""
"","","","","","html-keyboard-response","34","169043","0.0-2.0-2.0-0.15","55c82012fdf99b02adc2a36e","C3","batch3","spm_show_trial_num","null","<p class=block-text>Trial 16 out of 60</p>","null","","","","","","","","","","","","","","","","","","","","","","","","","",""
"","","","","","image-button-response","35","172434","0.0-2.0-2.0-1.15","55c82012fdf99b02adc2a36e","C3","batch3","spm_respsonse","3389","img/question_2_4.jpeg","1","mat_16","2","1","1","3389","","","","","","","","","","","","","","","","","","","","",""
"","","","","","html-keyboard-response","36","173504","0.0-2.0-2.0-0.16","55c82012fdf99b02adc2a36e","C3","batch3","spm_show_trial_num","null","<p class=block-text>Trial 17 out of 60</p>","null","","","","","","","","","","","","","","","","","","","","","","","","","",""
"","","","","","image-button-response","37","178501","0.0-2.0-2.0-1.16","55c82012fdf99b02adc2a36e","C3","batch3","spm_respsonse","4991.200000047684","img/question_2_5.jpeg","0","mat_17","1","1","1","4991.200000047684","","","","","","","","","","","","","","","","","","","","",""
"","","","","","html-keyboard-response","38","179562","0.0-2.0-2.0-0.17","55c82012fdf99b02adc2a36e","C3","batch3","spm_show_trial_num","null","<p class=block-text>Trial 18 out of 60</p>","null","","","","","","","","","","","","","","","","","","","","","","","","","",""
"","","","","","image-button-response","39","187271","0.0-2.0-2.0-1.17","55c82012fdf99b02adc2a36e","C3","batch3","spm_respsonse","7702.5","img/question_2_6.jpeg","2","mat_18","3","1","1","7702.5","","","","","","","","","","","","","","","","","","","","",""
"","","","","","html-keyboard-response","40","188336","0.0-2.0-2.0-0.18","55c82012fdf99b02adc2a36e","C3","batch3","spm_show_trial_num","null","<p class=block-text>Trial 19 out of 60</p>","null","","","","","","","","","","","","","","","","","","","","","","","","","",""
"","","","","","image-button-response","41","191738","0.0-2.0-2.0-1.18","55c82012fdf99b02adc2a36e","C3","batch3","spm_respsonse","3396.600000143051","img/question_2_7.jpeg","4","mat_19","5","1","1","3396.600000143051","","","","","","","","","","","","","","","","","","","","",""
"","","","","","html-keyboard-response","42","192791","0.0-2.0-2.0-0.19","55c82012fdf99b02adc2a36e","C3","batch3","spm_show_trial_num","null","<p class=block-text>Trial 20 out of 60</p>","null","","","","","","","","","","","","","","","","","","","","","","","","","",""
"","","","","","image-button-response","43","196530","0.0-2.0-2.0-1.19","55c82012fdf99b02adc2a36e","C3","batch3","spm_respsonse","3735.100000143051","img/question_2_8.jpeg","5","mat_20","6","1","1","3735.100000143051","","","","","","","","","","","","","","","","","","","","",""
"","","","","","html-keyboard-response","44","197599","0.0-2.0-2.0-0.20","55c82012fdf99b02adc2a36e","C3","batch3","spm_show_trial_num","null","<p class=block-text>Trial 21 out of 60</p>","null","","","","","","","","","","","","","","","","","","","","","","","","","",""
"","","","","","image-button-response","45","203066","0.0-2.0-2.0-1.20","55c82012fdf99b02adc2a36e","C3","batch3","spm_respsonse","5461.5","img/question_2_9.jpeg","3","mat_21","4","1","1","5461.5","","","","","","","","","","","","","","","","","","","","",""
"","","","","","html-keyboard-response","46","204129","0.0-2.0-2.0-0.21","55c82012fdf99b02adc2a36e","C3","batch3","spm_show_trial_num","null","<p class=block-text>Trial 22 out of 60</p>","null","","","","","","","","","","","","","","","","","","","","","","","","","",""
"","","","","","image-button-response","47","208559","0.0-2.0-2.0-1.21","55c82012fdf99b02adc2a36e","C3","batch3","spm_respsonse","4424.900000095367","img/question_2_10.jpeg","2","mat_22","3","1","1","4424.900000095367","","","","","","","","","","","","","","","","","","","","",""
"","","","","","html-keyboard-response","48","209620","0.0-2.0-2.0-0.22","55c82012fdf99b02adc2a36e","C3","batch3","spm_show_trial_num","null","<p class=block-text>Trial 23 out of 60</p>","null","","","","","","","","","","","","","","","","","","","","","","","","","",""
"","","","","","image-button-response","49","214827","0.0-2.0-2.0-1.22","55c82012fdf99b02adc2a36e","C3","batch3","spm_respsonse","5201.400000095367","img/question_2_11.jpeg","3","mat_23","4","1","1","5201.400000095367","","","","","","","","","","","","","","","","","","","","",""
"","","","","","html-keyboard-response","50","215886","0.0-2.0-2.0-0.23","55c82012fdf99b02adc2a36e","C3","batch3","spm_show_trial_num","null","<p class=block-text>Trial 24 out of 60</p>","null","","","","","","","","","","","","","","","","","","","","","","","","","",""
"","","","","","image-button-response","51","225563","0.0-2.0-2.0-1.23","55c82012fdf99b02adc2a36e","C3","batch3","spm_respsonse","9672.400000095367","img/question_2_12.jpeg","4","mat_24","5","1","1","9672.400000095367","","","","","","","","","","","","","","","","","","","","",""
"","","","","","html-button-response","52","227835","0.0-2.0-3.0","55c82012fdf99b02adc2a36e","C3","batch3","attention_check","2011.6000001430511","<p class = block-text>Attention check: Please choose 1<br></p>","0","","","true","","","","","","","","","","","","","","","","","","","","","","",""
"","","","","","html-keyboard-response","53","228637","0.0-2.0-4.0-0.0","55c82012fdf99b02adc2a36e","C3","batch3","spm_show_trial_num","null","<p class=block-text>Trial 25 out of 60</p>","null","","","","","","","","","","","","","","","","","","","","","","","","","",""
"","","","","","image-button-response","54","237060","0.0-2.0-4.0-1.0","55c82012fdf99b02adc2a36e","C3","batch3","spm_respsonse","8418.400000095367","img/question_3_1.jpeg","7","mat_25","8","1","1","8418.400000095367","","","","","","","","","","","","","","","","","","","","",""
"","","","","","html-keyboard-response","55","238120","0.0-2.0-4.0-0.1","55c82012fdf99b02adc2a36e","C3","batch3","spm_show_trial_num","null","<p class=block-text>Trial 26 out of 60</p>","null","","","","","","","","","","","","","","","","","","","","","","","","","",""
"","","","","","image-button-response","56","246195","0.0-2.0-4.0-1.1","55c82012fdf99b02adc2a36e","C3","batch3","spm_respsonse","8071.400000095367","img/question_3_2.jpeg","1","mat_26","2","1","1","8071.400000095367","","","","","","","","","","","","","","","","","","","","",""
"","","","","","html-keyboard-response","57","247261","0.0-2.0-4.0-0.2","55c82012fdf99b02adc2a36e","C3","batch3","spm_show_trial_num","null","<p class=block-text>Trial 27 out of 60</p>","null","","","","","","","","","","","","","","","","","","","","","","","","","",""
"","","","","","image-button-response","58","262796","0.0-2.0-4.0-1.2","55c82012fdf99b02adc2a36e","C3","batch3","spm_respsonse","15530","img/question_3_3.jpeg","2","mat_27","3","1","1","15530","","","","","","","","","","","","","","","","","","","","",""
"","","","","","html-keyboard-response","59","263859","0.0-2.0-4.0-0.3","55c82012fdf99b02adc2a36e","C3","batch3","spm_show_trial_num","null","<p class=block-text>Trial 28 out of 60</p>","null","","","","","","","","","","","","","","","","","","","","","","","","","",""
"","","","","","image-button-response","60","270848","0.0-2.0-4.0-1.3","55c82012fdf99b02adc2a36e","C3","batch3","spm_respsonse","6982.400000095367","img/question_3_4.jpeg","7","mat_28","8","1","1","6982.400000095367","","","","","","","","","","","","","","","","","","","","",""
"","","","","","html-keyboard-response","61","271922","0.0-2.0-4.0-0.4","55c82012fdf99b02adc2a36e","C3","batch3","spm_show_trial_num","null","<p class=block-text>Trial 29 out of 60</p>","null","","","","","","","","","","","","","","","","","","","","","","","","","",""
"","","","","","image-button-response","62","277458","0.0-2.0-4.0-1.4","55c82012fdf99b02adc2a36e","C3","batch3","spm_respsonse","5529.899999856949","img/question_3_5.jpeg","6","mat_29","7","1","1","5529.899999856949","","","","","","","","","","","","","","","","","","","","",""
"","","","","","html-keyboard-response","63","278525","0.0-2.0-4.0-0.5","55c82012fdf99b02adc2a36e","C3","batch3","spm_show_trial_num","null","<p class=block-text>Trial 30 out of 60</p>","null","","","","","","","","","","","","","","","","","","","","","","","","","",""
"","","","","","image-button-response","64","285946","0.0-2.0-4.0-1.5","55c82012fdf99b02adc2a36e","C3","batch3","spm_respsonse","7417","img/question_3_6.jpeg","3","mat_30","4","1","1","7417","","","","","","","","","","","","","","","","","","","","",""
"","","","","","html-keyboard-response","65","287016","0.0-2.0-4.0-0.6","55c82012fdf99b02adc2a36e","C3","batch3","spm_show_trial_num","null","<p class=block-text>Trial 31 out of 60</p>","null","","","","","","","","","","","","","","","","","","","","","","","","","",""
"","","","","","image-button-response","66","298853","0.0-2.0-4.0-1.6","55c82012fdf99b02adc2a36e","C3","batch3","spm_respsonse","11831.700000047684","img/question_3_7.jpeg","4","mat_31","5","1","1","11831.700000047684","","","","","","","","","","","","","","","","","","","","",""
"","","","","","html-keyboard-response","67","299923","0.0-2.0-4.0-0.7","55c82012fdf99b02adc2a36e","C3","batch3","spm_show_trial_num","null","<p class=block-text>Trial 32 out of 60</p>","null","","","","","","","","","","","","","","","","","","","","","","","","","",""
"","","","","","image-button-response","68","315928","0.0-2.0-4.0-1.7","55c82012fdf99b02adc2a36e","C3","batch3","spm_respsonse","15999.600000143051","img/question_3_8.jpeg","0","mat_32","1","1","1","15999.600000143051","","","","","","","","","","","","","","","","","","","","",""
"","","","","","html-keyboard-response","69","316980","0.0-2.0-4.0-0.8","55c82012fdf99b02adc2a36e","C3","batch3","spm_show_trial_num","null","<p class=block-text>Trial 33 out of 60</p>","null","","","","","","","","","","","","","","","","","","","","","","","","","",""
"","","","","","image-button-response","70","322702","0.0-2.0-4.0-1.8","55c82012fdf99b02adc2a36e","C3","batch3","spm_respsonse","5716.5","img/question_3_9.jpeg","6","mat_33","7","1","1","5716.5","","","","","","","","","","","","","","","","","","","","",""
"","","","","","html-keyboard-response","71","323764","0.0-2.0-4.0-0.9","55c82012fdf99b02adc2a36e","C3","batch3","spm_show_trial_num","null","<p class=block-text>Trial 34 out of 60</p>","null","","","","","","","","","","","","","","","","","","","","","","","","","",""
"","","","","","image-button-response","72","350659","0.0-2.0-4.0-1.9","55c82012fdf99b02adc2a36e","C3","batch3","spm_respsonse","26891.799999952316","img/question_3_10.jpeg","5","mat_34","6","1","1","26891.799999952316","","","","","","","","","","","","","","","","","","","","",""
"","","","","","html-keyboard-response","73","351712","0.0-2.0-4.0-0.10","55c82012fdf99b02adc2a36e","C3","batch3","spm_show_trial_num","null","<p class=block-text>Trial 35 out of 60</p>","null","","","","","","","","","","","","","","","","","","","","","","","","","",""
"","","","","","image-button-response","74","376056","0.0-2.0-4.0-1.10","55c82012fdf99b02adc2a36e","C3","batch3","spm_respsonse","24340.900000095367","img/question_3_11.jpeg","0","mat_35","1","1","1","24340.900000095367","","","","","","","","","","","","","","","","","","","","",""
"","","","","","html-keyboard-response","75","377114","0.0-2.0-4.0-0.11","55c82012fdf99b02adc2a36e","C3","batch3","spm_show_trial_num","null","<p class=block-text>Trial 36 out of 60</p>","null","","","","","","","","","","","","","","","","","","","","","","","","","",""
"","","","","","image-button-response","76","389882","0.0-2.0-4.0-1.11","55c82012fdf99b02adc2a36e","C3","batch3","spm_respsonse","12762.5","img/question_3_12.jpeg","1","mat_36","2","1","1","12762.5","","","","","","","","","","","","","","","","","","","","",""
"","","","","","html-keyboard-response","77","390937","0.0-2.0-4.0-0.12","55c82012fdf99b02adc2a36e","C3","batch3","spm_show_trial_num","null","<p class=block-text>Trial 37 out of 60</p>","null","","","","","","","","","","","","","","","","","","","","","","","","","",""
"","","","","","image-button-response","78","423013","0.0-2.0-4.0-1.12","55c82012fdf99b02adc2a36e","C3","batch3","spm_respsonse","32071.099999904633","img/question_4_1.jpeg","2","mat_37","3","1","1","32071.099999904633","","","","","","","","","","","","","","","","","","","","",""
"","","","","","html-keyboard-response","79","424084","0.0-2.0-4.0-0.13","55c82012fdf99b02adc2a36e","C3","batch3","spm_show_trial_num","null","<p class=block-text>Trial 38 out of 60</p>","null","","","","","","","","","","","","","","","","","","","","","","","","","",""
"","","","","","image-button-response","80","429995","0.0-2.0-4.0-1.13","55c82012fdf99b02adc2a36e","C3","batch3","spm_respsonse","5905.400000095367","img/question_4_2.jpeg","3","mat_38","4","1","1","5905.400000095367","","","","","","","","","","","","","","","","","","","","",""
"","","","","","html-keyboard-response","81","431056","0.0-2.0-4.0-0.14","55c82012fdf99b02adc2a36e","C3","batch3","spm_show_trial_num","null","<p class=block-text>Trial 39 out of 60</p>","null","","","","","","","","","","","","","","","","","","","","","","","","","",""
"","","","","","image-button-response","82","436302","0.0-2.0-4.0-1.14","55c82012fdf99b02adc2a36e","C3","batch3","spm_respsonse","5243","img/question_4_3.jpeg","2","mat_39","3","1","1","5243","","","","","","","","","","","","","","","","","","","","",""
"","","","","","html-keyboard-response","83","437375","0.0-2.0-4.0-0.15","55c82012fdf99b02adc2a36e","C3","batch3","spm_show_trial_num","null","<p class=block-text>Trial 40 out of 60</p>","null","","","","","","","","","","","","","","","","","","","","","","","","","",""
"","","","","","image-button-response","84","444225","0.0-2.0-4.0-1.15","55c82012fdf99b02adc2a36e","C3","batch3","spm_respsonse","6845.100000143051","img/question_4_4.jpeg","6","mat_40","7","1","1","6845.100000143051","","","","","","","","","","","","","","","","","","","","",""
"","","","","","html-keyboard-response","85","445278","0.0-2.0-4.0-0.16","55c82012fdf99b02adc2a36e","C3","batch3","spm_show_trial_num","null","<p class=block-text>Trial 41 out of 60</p>","null","","","","","","","","","","","","","","","","","","","","","","","","","",""
"","","","","","image-button-response","86","455243","0.0-2.0-4.0-1.16","55c82012fdf99b02adc2a36e","C3","batch3","spm_respsonse","9959.600000143051","img/question_4_5.jpeg","7","mat_41","8","1","1","9959.600000143051","","","","","","","","","","","","","","","","","","","","",""
"","","","","","html-keyboard-response","87","456303","0.0-2.0-4.0-0.17","55c82012fdf99b02adc2a36e","C3","batch3","spm_show_trial_num","null","<p class=block-text>Trial 42 out of 60</p>","null","","","","","","","","","","","","","","","","","","","","","","","","","",""
"","","","","","image-button-response","88","465951","0.0-2.0-4.0-1.17","55c82012fdf99b02adc2a36e","C3","batch3","spm_respsonse","9642.100000143051","img/question_4_6.jpeg","4","mat_42","6","0","0","9642.100000143051","","","","","","","","","","","","","","","","","","","","",""
"","","","","","html-keyboard-response","89","467025","0.0-2.0-4.0-0.18","55c82012fdf99b02adc2a36e","C3","batch3","spm_show_trial_num","null","<p class=block-text>Trial 43 out of 60</p>","null","","","","","","","","","","","","","","","","","","","","","","","","","",""
"","","","","","image-button-response","90","486869","0.0-2.0-4.0-1.18","55c82012fdf99b02adc2a36e","C3","batch3","spm_respsonse","19838.799999952316","img/question_4_7.jpeg","4","mat_43","5","1","1","19838.799999952316","","","","","","","","","","","","","","","","","","","","",""
"","","","","","html-keyboard-response","91","487922","0.0-2.0-4.0-0.19","55c82012fdf99b02adc2a36e","C3","batch3","spm_show_trial_num","null","<p class=block-text>Trial 44 out of 60</p>","null","","","","","","","","","","","","","","","","","","","","","","","","","",""
"","","","","","image-button-response","92","494690","0.0-2.0-4.0-1.19","55c82012fdf99b02adc2a36e","C3","batch3","spm_respsonse","6761.900000095367","img/question_4_8.jpeg","3","mat_44","4","1","1","6761.900000095367","","","","","","","","","","","","","","","","","","","","",""
"","","","","","html-keyboard-response","93","495750","0.0-2.0-4.0-0.20","55c82012fdf99b02adc2a36e","C3","batch3","spm_show_trial_num","null","<p class=block-text>Trial 45 out of 60</p>","null","","","","","","","","","","","","","","","","","","","","","","","","","",""
"","","","","","image-button-response","94","513814","0.0-2.0-4.0-1.20","55c82012fdf99b02adc2a36e","C3","batch3","spm_respsonse","18059.300000190735","img/question_4_9.jpeg","0","mat_45","1","1","1","18059.300000190735","","","","","","","","","","","","","","","","","","","","",""
"","","","","","html-keyboard-response","95","514881","0.0-2.0-4.0-0.21","55c82012fdf99b02adc2a36e","C3","batch3","spm_show_trial_num","null","<p class=block-text>Trial 46 out of 60</p>","null","","","","","","","","","","","","","","","","","","","","","","","","","",""
"","","","","","image-button-response","96","545167","0.0-2.0-4.0-1.21","55c82012fdf99b02adc2a36e","C3","batch3","spm_respsonse","30279.099999904633","img/question_4_10.jpeg","1","mat_46","2","1","1","30279.099999904633","","","","","","","","","","","","","","","","","","","","",""
"","","","","","html-keyboard-response","97","546234","0.0-2.0-4.0-0.22","55c82012fdf99b02adc2a36e","C3","batch3","spm_show_trial_num","null","<p class=block-text>Trial 47 out of 60</p>","null","","","","","","","","","","","","","","","","","","","","","","","","","",""
"","","","","","image-button-response","98","613940","0.0-2.0-4.0-1.22","55c82012fdf99b02adc2a36e","C3","batch3","spm_respsonse","67700.29999995232","img/question_4_11.jpeg","4","mat_47","5","1","1","67700.29999995232","","","","","","","","","","","","","","","","","","","","",""
"","","","","","html-keyboard-response","99","615008","0.0-2.0-4.0-0.23","55c82012fdf99b02adc2a36e","C3","batch3","spm_show_trial_num","null","<p class=block-text>Trial 48 out of 60</p>","null","","","","","","","","","","","","","","","","","","","","","","","","","",""
"","","","","","image-button-response","100","685652","0.0-2.0-4.0-1.23","55c82012fdf99b02adc2a36e","C3","batch3","spm_respsonse","70637.70000004768","img/question_4_12.jpeg","4","mat_48","6","0","0","70637.70000004768","","","","","","","","","","","","","","","","","","","","",""
"","","","","","html-keyboard-response","101","686708","0.0-2.0-4.0-0.24","55c82012fdf99b02adc2a36e","C3","batch3","spm_show_trial_num","null","<p class=block-text>Trial 49 out of 60</p>","null","","","","","","","","","","","","","","","","","","","","","","","","","",""
"","","","","","image-button-response","102","705014","0.0-2.0-4.0-1.24","55c82012fdf99b02adc2a36e","C3","batch3","spm_respsonse","18300.200000047684","img/question_5_1.jpeg","6","mat_49","7","1","1","18300.200000047684","","","","","","","","","","","","","","","","","","","","",""
"","","","","","html-keyboard-response","103","706080","0.0-2.0-4.0-0.25","55c82012fdf99b02adc2a36e","C3","batch3","spm_show_trial_num","null","<p class=block-text>Trial 50 out of 60</p>","null","","","","","","","","","","","","","","","","","","","","","","","","","",""
"","","","","","image-button-response","104","822356","0.0-2.0-4.0-1.25","55c82012fdf99b02adc2a36e","C3","batch3","spm_respsonse","116270.10000014305","img/question_5_2.jpeg","5","mat_50","6","1","1","116270.10000014305","","","","","","","","","","","","","","","","","","","","",""
"","","","","","html-keyboard-response","105","823409","0.0-2.0-4.0-0.26","55c82012fdf99b02adc2a36e","C3","batch3","spm_show_trial_num","null","<p class=block-text>Trial 51 out of 60</p>","null","","","","","","","","","","","","","","","","","","","","","","","","","",""
"","","","","","image-button-response","106","840763","0.0-2.0-4.0-1.26","55c82012fdf99b02adc2a36e","C3","batch3","spm_respsonse","17350.099999904633","img/question_5_3.jpeg","7","mat_51","8","1","1","17350.099999904633","","","","","","","","","","","","","","","","","","","","",""
"","","","","","html-keyboard-response","107","841818","0.0-2.0-4.0-0.27","55c82012fdf99b02adc2a36e","C3","batch3","spm_show_trial_num","null","<p class=block-text>Trial 52 out of 60</p>","null","","","","","","","","","","","","","","","","","","","","","","","","","",""
"","","","","","image-button-response","108","861849","0.0-2.0-4.0-1.27","55c82012fdf99b02adc2a36e","C3","batch3","spm_respsonse","20024.799999952316","img/question_5_4.jpeg","1","mat_52","2","1","1","20024.799999952316","","","","","","","","","","","","","","","","","","","","",""
"","","","","","html-keyboard-response","109","862901","0.0-2.0-4.0-0.28","55c82012fdf99b02adc2a36e","C3","batch3","spm_show_trial_num","null","<p class=block-text>Trial 53 out of 60</p>","null","","","","","","","","","","","","","","","","","","","","","","","","","",""
"","","","","","image-button-response","110","916607","0.0-2.0-4.0-1.28","55c82012fdf99b02adc2a36e","C3","batch3","spm_respsonse","53700.800000190735","img/question_5_5.jpeg","2","mat_53","1","0","0","53700.800000190735","","","","","","","","","","","","","","","","","","","","",""
"","","","","","html-keyboard-response","111","917679","0.0-2.0-4.0-0.29","55c82012fdf99b02adc2a36e","C3","batch3","spm_show_trial_num","null","<p class=block-text>Trial 54 out of 60</p>","null","","","","","","","","","","","","","","","","","","","","","","","","","",""
"","","","","","image-button-response","112","976976","0.0-2.0-4.0-1.29","55c82012fdf99b02adc2a36e","C3","batch3","spm_respsonse","59291.09999990463","img/question_5_6.jpeg","5","mat_54","5","0","0","59291.09999990463","","","","","","","","","","","","","","","","","","","","",""
"","","","","","html-keyboard-response","113","978040","0.0-2.0-4.0-0.30","55c82012fdf99b02adc2a36e","C3","batch3","spm_show_trial_num","null","<p class=block-text>Trial 55 out of 60</p>","null","","","","","","","","","","","","","","","","","","","","","","","","","",""
"","","","","","image-button-response","114","993434","0.0-2.0-4.0-1.30","55c82012fdf99b02adc2a36e","C3","batch3","spm_respsonse","15388.099999904633","img/question_5_7.jpeg","0","mat_55","1","1","1","15388.099999904633","","","","","","","","","","","","","","","","","","","","",""
"","","","","","html-keyboard-response","115","994487","0.0-2.0-4.0-0.31","55c82012fdf99b02adc2a36e","C3","batch3","spm_show_trial_num","null","<p class=block-text>Trial 56 out of 60</p>","null","","","","","","","","","","","","","","","","","","","","","","","","","",""
"","","","","","image-button-response","116","1004352","0.0-2.0-4.0-1.31","55c82012fdf99b02adc2a36e","C3","batch3","spm_respsonse","9858.099999904633","img/question_5_8.jpeg","5","mat_56","6","1","1","9858.099999904633","","","","","","","","","","","","","","","","","","","","",""
"","","","","","html-keyboard-response","117","1005409","0.0-2.0-4.0-0.32","55c82012fdf99b02adc2a36e","C3","batch3","spm_show_trial_num","null","<p class=block-text>Trial 57 out of 60</p>","null","","","","","","","","","","","","","","","","","","","","","","","","","",""
"","","","","","image-button-response","118","1023699","0.0-2.0-4.0-1.32","55c82012fdf99b02adc2a36e","C3","batch3","spm_respsonse","18284.300000190735","img/question_5_9.jpeg","2","mat_57","3","1","1","18284.300000190735","","","","","","","","","","","","","","","","","","","","",""
"","","","","","html-keyboard-response","119","1024771","0.0-2.0-4.0-0.33","55c82012fdf99b02adc2a36e","C3","batch3","spm_show_trial_num","null","<p class=block-text>Trial 58 out of 60</p>","null","","","","","","","","","","","","","","","","","","","","","","","","","",""
"","","","","","image-button-response","120","1088801","0.0-2.0-4.0-1.33","55c82012fdf99b02adc2a36e","C3","batch3","spm_respsonse","64024.89999985695","img/question_5_10.jpeg","4","mat_58","2","0","0","64024.89999985695","","","","","","","","","","","","","","","","","","","","",""
"","","","","","html-keyboard-response","121","1089861","0.0-2.0-4.0-0.34","55c82012fdf99b02adc2a36e","C3","batch3","spm_show_trial_num","null","<p class=block-text>Trial 59 out of 60</p>","null","","","","","","","","","","","","","","","","","","","","","","","","","",""
"","","","","","image-button-response","122","1197792","0.0-2.0-4.0-1.34","55c82012fdf99b02adc2a36e","C3","batch3","spm_respsonse","107926.59999990463","img/question_5_11.jpeg","3","mat_59","4","1","1","107926.59999990463","","","","","","","","","","","","","","","","","","","","",""
"","","","","","html-keyboard-response","123","1198848","0.0-2.0-4.0-0.35","55c82012fdf99b02adc2a36e","C3","batch3","spm_show_trial_num","null","<p class=block-text>Trial 60 out of 60</p>","null","","","","","","","","","","","","","","","","","","","","","","","","","",""
"","","","","","image-button-response","124","1235771","0.0-2.0-4.0-1.35","55c82012fdf99b02adc2a36e","C3","batch3","spm_respsonse","36917.40000009537","img/question_5_12.jpeg","0","mat_60","5","0","0","36917.40000009537","","","","","","","","","","","","","","","","","","","","",""
"","","","","","html-button-response","125","1237630","0.0-2.0-5.0","55c82012fdf99b02adc2a36e","C3","batch3","spm_goodbye","1607.1000001430511","<p class= block-text>This concludes the Standard Progressive Matrix game. Thank you for your responses!<br> When you are ready, click the button continue</p>","0","","","","","","","","","","","","","","","","","","","","","","","","","",""
"true","","","","","fullscreen","126","1398162","0.0-3.0-0.0","55c82012fdf99b02adc2a36e","C3","batch3","","","","","","","","","","","","","","","","","","","","","","","","","","","","","",""
"","","","","","instructions","127","1413667","0.0-3.0-1.0-0.0","55c82012fdf99b02adc2a36e","C3","batch3","","15502.899999856949","","","","","","","","[{""page_index"":0,""viewing_time"":7824.599999904633},{""page_index"":1,""viewing_time"":7678}]","","","","","","","","","","","","","","","","","","","",""
"","","","","","html-button-response","128","1415345","0.0-3.0-1.0-1.0-0.0","55c82012fdf99b02adc2a36e","C3","batch3","pattern_enter_quiz","1676.7999999523163","<p class=block-text> Let's answer a few questions <br>","0","","","","","","","","","","","","","","","","","","","","","","","","","",""
"","","","","","html-button-response","129","1418253","0.0-3.0-1.0-1.0-1.0","55c82012fdf99b02adc2a36e","C3","batch3","pattern_quiz","2907.0999999046326","<p class = block-text>True or False: You will have as much time as you want to make each choice. <br></p>","1","","","true","","","","","","","","","","","","","","","","","","","","","","",""
"","","","","","html-button-response","130","1419755","0.0-3.0-1.0-1.0-2.0","55c82012fdf99b02adc2a36e","C3","batch3","pattern_quiz_feedback","1500.5","<p class = block-text>Correct! You should make your choice <strong> as fast as you can</strong>.</p>","0","","","","","","","","","","","","","","","","","","","","","","","","","",""
"","","","","","html-button-response","131","1422476","0.0-3.0-1.0-1.0-3.0","55c82012fdf99b02adc2a36e","C3","batch3","pattern_quiz","2720.0999999046326","<p class = block-text>True or False: You will look for 4 pieces in black or white color connected in a row either horizontally, vertically or diagonally. <br></p>","0","","","true","","","","","","","","","","","","","","","","","","","","","","",""
"","","","","","html-button-response","132","1423403","0.0-3.0-1.0-1.0-4.0","55c82012fdf99b02adc2a36e","C3","batch3","pattern_quiz_feedback","925.5","<p class = block-text>Correct! </p>","0","","","","","","","","","","","","","","","","","","","","","","","","","",""
"","","","","","html-button-response","133","1426020","0.0-3.0-2.0","55c82012fdf99b02adc2a36e","C3","batch3","pattern_enter_practice","2615.2999999523163","<p class=block-text> Now that you've understood the game, let's do a few practice trials before we start!<br> <br>","0","","","","","","","","","","","","","","","","","","","","","","","","","",""
"","","","","","image-keyboard-response","134","1431897","0.0-3.0-3.0-0.0","55c82012fdf99b02adc2a36e","C3","batch3","pattern_practice","5874.700000047684","stim/prac_yes_20_dia_b1.png","f","","f","true","","","","","","","","","","","","","","","","","","","","","","",""
"","","","","","html-keyboard-response","135","1432915","0.0-3.0-3.0-1.0","55c82012fdf99b02adc2a36e","C3","batch3","pattern_feedback","null","<p style=""font-size:30px;color:green;"">Correct!</p>","null","","","","","","","","","","","","","","","","","","","","","","","","","",""
"","","","","","image-keyboard-response","136","1435151","0.0-3.0-3.0-0.1","55c82012fdf99b02adc2a36e","C3","batch3","pattern_practice","2234.5","stim/prac_no_16_1.png","j","","j","true","","","","","","","","","","","","","","","","","","","","","","",""
"","","","","","html-keyboard-response","137","1436156","0.0-3.0-3.0-1.1","55c82012fdf99b02adc2a36e","C3","batch3","pattern_feedback","null","<p style=""font-size:30px;color:green;"">Correct!</p>","null","","","","","","","","","","","","","","","","","","","","","","","","","",""
"","","","","","image-keyboard-response","138","1439386","0.0-3.0-3.0-0.2","55c82012fdf99b02adc2a36e","C3","batch3","pattern_practice","3224.600000143051","stim/prac_no_18_1.png","j","","j","true","","","","","","","","","","","","","","","","","","","","","","",""
"","","","","","html-keyboard-response","139","1440388","0.0-3.0-3.0-1.2","55c82012fdf99b02adc2a36e","C3","batch3","pattern_feedback","null","<p style=""font-size:30px;color:green;"">Correct!</p>","null","","","","","","","","","","","","","","","","","","","","","","","","","",""
"","","","","","image-keyboard-response","140","1441532","0.0-3.0-3.0-0.3","55c82012fdf99b02adc2a36e","C3","batch3","pattern_practice","1138","stim/prac_yes_16_ver_w1.png","f","","f","true","","","","","","","","","","","","","","","","","","","","","","",""
"","","","","","html-keyboard-response","141","1442538","0.0-3.0-3.0-1.3","55c82012fdf99b02adc2a36e","C3","batch3","pattern_feedback","null","<p style=""font-size:30px;color:green;"">Correct!</p>","null","","","","","","","","","","","","","","","","","","","","","","","","","",""
"","","","","","image-keyboard-response","142","1444002","0.0-3.0-3.0-0.4","55c82012fdf99b02adc2a36e","C3","batch3","pattern_practice","1459.7000000476837","stim/prac_yes_18_hor_w1.png","f","","f","true","","","","","","","","","","","","","","","","","","","","","","",""
"","","","","","html-keyboard-response","143","1445012","0.0-3.0-3.0-1.4","55c82012fdf99b02adc2a36e","C3","batch3","pattern_feedback","null","<p style=""font-size:30px;color:green;"">Correct!</p>","null","","","","","","","","","","","","","","","","","","","","","","","","","",""
"","","","","","html-button-response","144","1682645","0.0-3.0-4.0","55c82012fdf99b02adc2a36e","C3","batch3","pattern_enter_official_trials","237630.70000004768","<p class=block-text> Good job! You are done with practice trials!<br>
        You responded correctly on 100% of the trials.<br>
        Press the button below to start official trials. Now you won't see any feedback about your response</p>","0","","","","","","","","","","","","","","","","","","","","","","","","","",""
"","","","","","html-keyboard-response","145","1683450","0.0-3.0-5.0-0.0","55c82012fdf99b02adc2a36e","C3","batch3","pattern_show_trial_num","null","<p class=block-text>Trial 1 out of 78</p>","null","","","","","","","","","","","","","","","","","","","","","","","","","",""
"","","","","","image-keyboard-response","146","1685371","0.0-3.0-5.0-1.0","55c82012fdf99b02adc2a36e","C3","batch3","pattern_response","1918.6000001430511","stim/yes_17_ver_b1_b.png","f","pattern_46","f","true","","","","1918.6000001430511","true","1","","","","","","","","","","","","","","","","",""
"","","","","","html-keyboard-response","147","1686701","0.0-3.0-5.0-0.1","55c82012fdf99b02adc2a36e","C3","batch3","pattern_show_trial_num","null","<p class=block-text>Trial 2 out of 78</p>","null","","","","","","","","","","","","","","","","","","","","","","","","","",""
"","","","","","image-keyboard-response","148","1687734","0.0-3.0-5.0-1.1","55c82012fdf99b02adc2a36e","C3","batch3","pattern_response","1029.8999998569489","stim/yes_26_dia_w2_w.png","f","pattern_50","f","true","","","","1029.8999998569489","true","2","","","","","","","","","","","","","","","","",""
"","","","","","html-keyboard-response","149","1689051","0.0-3.0-5.0-0.2","55c82012fdf99b02adc2a36e","C3","batch3","pattern_show_trial_num","null","<p class=block-text>Trial 3 out of 78</p>","null","","","","","","","","","","","","","","","","","","","","","","","","","",""
"","","","","","image-keyboard-response","150","1691099","0.0-3.0-5.0-1.2","55c82012fdf99b02adc2a36e","C3","batch3","pattern_response","2044.0999999046326","stim/no_18_1_b.png","j","pattern_05","j","true","","","","2044.0999999046326","true","3","","","","","","","","","","","","","","","","",""
"","","","","","html-keyboard-response","151","1692407","0.0-3.0-5.0-0.3","55c82012fdf99b02adc2a36e","C3","batch3","pattern_show_trial_num","null","<p class=block-text>Trial 4 out of 78</p>","null","","","","","","","","","","","","","","","","","","","","","","","","","",""
"","","","","","image-keyboard-response","152","1694579","0.0-3.0-5.0-1.3","55c82012fdf99b02adc2a36e","C3","batch3","pattern_response","2167.899999856949","stim/no_22_1_b.png","j","pattern_07","j","true","","","","2167.899999856949","true","4","","","","","","","","","","","","","","","","",""
"","","","","","html-keyboard-response","153","1695888","0.0-3.0-5.0-0.4","55c82012fdf99b02adc2a36e","C3","batch3","pattern_show_trial_num","null","<p class=block-text>Trial 5 out of 78</p>","null","","","","","","","","","","","","","","","","","","","","","","","","","",""
"","","","","","image-keyboard-response","154","1702469","0.0-3.0-5.0-1.4","55c82012fdf99b02adc2a36e","C3","batch3","pattern_response","6578.299999952316","stim/no_43_2_b.png","j","pattern_23","j","true","","","","6578.299999952316","true","5","","","","","","","","","","","","","","","","",""
"","","","","","html-keyboard-response","155","1703782","0.0-3.0-5.0-0.5","55c82012fdf99b02adc2a36e","C3","batch3","pattern_show_trial_num","null","<p class=block-text>Trial 6 out of 78</p>","null","","","","","","","","","","","","","","","","","","","","","","","","","",""
"","","","","","image-keyboard-response","156","1706919","0.0-3.0-5.0-1.5","55c82012fdf99b02adc2a36e","C3","batch3","pattern_response","3131.7000000476837","stim/yes_42_dia_w1_w.png","f","pattern_64","f","true","","","","3131.7000000476837","true","6","","","","","","","","","","","","","","","","",""
"","","","","","html-keyboard-response","157","1708234","0.0-3.0-5.0-0.6","55c82012fdf99b02adc2a36e","C3","batch3","pattern_show_trial_num","null","<p class=block-text>Trial 7 out of 78</p>","null","","","","","","","","","","","","","","","","","","","","","","","","","",""
"","","","","","image-keyboard-response","158","1709651","0.0-3.0-5.0-1.6","55c82012fdf99b02adc2a36e","C3","batch3","pattern_response","1416","stim/yes_23_ver_b1.png","j","pattern_48","f","false","","","","1416","false","6","","","","","","","","","","","","","","","","",""
"","","","","","html-keyboard-response","159","1710956","0.0-3.0-5.0-0.7","55c82012fdf99b02adc2a36e","C3","batch3","pattern_show_trial_num","null","<p class=block-text>Trial 8 out of 78</p>","null","","","","","","","","","","","","","","","","","","","","","","","","","",""
"","","","","","image-keyboard-response","160","1715751","0.0-3.0-5.0-1.7","55c82012fdf99b02adc2a36e","C3","batch3","pattern_response","4790.700000047684","stim/no_30_1_b.png","j","pattern_13","j","true","","","","4790.700000047684","true","7","","","","","","","","","","","","","","","","",""
"","","","","","html-keyboard-response","161","1717067","0.0-3.0-5.0-0.8","55c82012fdf99b02adc2a36e","C3","batch3","pattern_show_trial_num","null","<p class=block-text>Trial 9 out of 78</p>","null","","","","","","","","","","","","","","","","","","","","","","","","","",""
"","","","","","image-keyboard-response","162","1718149","0.0-3.0-5.0-1.8","55c82012fdf99b02adc2a36e","C3","batch3","pattern_response","1077.7000000476837","stim/yes_39_hor_w1_w.png","f","pattern_62","f","true","","","","1077.7000000476837","true","8","","","","","","","","","","","","","","","","",""
"","","","","","html-keyboard-response","163","1719476","0.0-3.0-5.0-0.9","55c82012fdf99b02adc2a36e","C3","batch3","pattern_show_trial_num","null","<p class=block-text>Trial 10 out of 78</p>","null","","","","","","","","","","","","","","","","","","","","","","","","","",""
"","","","","","image-keyboard-response","164","1723906","0.0-3.0-5.0-1.9","55c82012fdf99b02adc2a36e","C3","batch3","pattern_response","4426.799999952316","stim/no_28_2.png","j","pattern_11","j","true","","","","4426.799999952316","true","9","","","","","","","","","","","","","","","","",""
"","","","","","html-keyboard-response","165","1725217","0.0-3.0-5.0-0.10","55c82012fdf99b02adc2a36e","C3","batch3","pattern_show_trial_num","null","<p class=block-text>Trial 11 out of 78</p>","null","","","","","","","","","","","","","","","","","","","","","","","","","",""
"","","","","","image-keyboard-response","166","1726294","0.0-3.0-5.0-1.10","55c82012fdf99b02adc2a36e","C3","batch3","pattern_response","1073.7000000476837","stim/yes_70_ver_b1.png","f","pattern_80","f","true","","","","1073.7000000476837","true","10","","","","","","","","","","","","","","","","",""
"","","","","","html-keyboard-response","167","1727608","0.0-3.0-5.0-0.11","55c82012fdf99b02adc2a36e","C3","batch3","pattern_show_trial_num","null","<p class=block-text>Trial 12 out of 78</p>","null","","","","","","","","","","","","","","","","","","","","","","","","","",""
"","","","","","image-keyboard-response","168","1736625","0.0-3.0-5.0-1.11","55c82012fdf99b02adc2a36e","C3","batch3","pattern_response","9013.600000143051","stim/no_58_1_w.png","j","pattern_35","j","true","","","","9013.600000143051","true","11","","","","","","","","","","","","","","","","",""
"","","","","","html-keyboard-response","169","1737956","0.0-3.0-5.0-0.12","55c82012fdf99b02adc2a36e","C3","batch3","pattern_show_trial_num","null","<p class=block-text>Trial 13 out of 78</p>","null","","","","","","","","","","","","","","","","","","","","","","","","","",""
"","","","","","image-keyboard-response","170","1739083","0.0-3.0-5.0-1.12","55c82012fdf99b02adc2a36e","C3","batch3","pattern_response","1121.7999999523163","stim/yes_37_hor_w1_w.png","f","pattern_60","f","true","","","","1121.7999999523163","true","12","","","","","","","","","","","","","","","","",""
"","","","","","html-keyboard-response","171","1740387","0.0-3.0-5.0-0.13","55c82012fdf99b02adc2a36e","C3","batch3","pattern_show_trial_num","null","<p class=block-text>Trial 14 out of 78</p>","null","","","","","","","","","","","","","","","","","","","","","","","","","",""
"","","","","","image-keyboard-response","172","1741709","0.0-3.0-5.0-1.13","55c82012fdf99b02adc2a36e","C3","batch3","pattern_response","1317.7999999523163","stim/yes_30_ver_b1_b.png","f","pattern_54","f","true","","","","1317.7999999523163","true","13","","","","","","","","","","","","","","","","",""
"","","","","","html-keyboard-response","173","1743015","0.0-3.0-5.0-0.14","55c82012fdf99b02adc2a36e","C3","batch3","pattern_show_trial_num","null","<p class=block-text>Trial 15 out of 78</p>","null","","","","","","","","","","","","","","","","","","","","","","","","","",""
"","","","","","image-keyboard-response","174","1749125","0.0-3.0-5.0-1.14","55c82012fdf99b02adc2a36e","C3","batch3","pattern_response","6105.299999952316","stim/no_33_1_b.png","j","pattern_15","j","true","","","","6105.299999952316","true","14","","","","","","","","","","","","","","","","",""
"","","","","","html-keyboard-response","175","1750440","0.0-3.0-5.0-0.15","55c82012fdf99b02adc2a36e","C3","batch3","pattern_show_trial_num","null","<p class=block-text>Trial 16 out of 78</p>","null","","","","","","","","","","","","","","","","","","","","","","","","","",""
"","","","","","image-keyboard-response","176","1759015","0.0-3.0-5.0-1.15","55c82012fdf99b02adc2a36e","C3","batch3","pattern_response","8569.899999856949","stim/no_67_1.png","j","pattern_39","j","true","","","","8569.899999856949","true","15","","","","","","","","","","","","","","","","",""
"","","","","","html-keyboard-response","177","1760324","0.0-3.0-5.0-0.16","55c82012fdf99b02adc2a36e","C3","batch3","pattern_show_trial_num","null","<p class=block-text>Trial 17 out of 78</p>","null","","","","","","","","","","","","","","","","","","","","","","","","","",""
"","","","","","image-keyboard-response","178","1761197","0.0-3.0-5.0-1.16","55c82012fdf99b02adc2a36e","C3","batch3","pattern_response","871.0999999046326","stim/yes_36_ver_w1_w.png","f","pattern_58","f","true","","","","871.0999999046326","true","16","","","","","","","","","","","","","","","","",""
"","","","","","html-keyboard-response","179","1762507","0.0-3.0-5.0-0.17","55c82012fdf99b02adc2a36e","C3","batch3","pattern_show_trial_num","null","<p class=block-text>Trial 18 out of 78</p>","null","","","","","","","","","","","","","","","","","","","","","","","","","",""
"","","","","","image-keyboard-response","180","1764369","0.0-3.0-5.0-1.17","55c82012fdf99b02adc2a36e","C3","batch3","pattern_response","1858.3999998569489","stim/yes_53_ver_b1_b.png","f","pattern_74","f","true","","","","1858.3999998569489","true","17","","","","","","","","","","","","","","","","",""
"","","","","","html-keyboard-response","181","1765675","0.0-3.0-5.0-0.18","55c82012fdf99b02adc2a36e","C3","batch3","pattern_show_trial_num","null","<p class=block-text>Trial 19 out of 78</p>","null","","","","","","","","","","","","","","","","","","","","","","","","","",""
"","","","","","image-keyboard-response","182","1770211","0.0-3.0-5.0-1.18","55c82012fdf99b02adc2a36e","C3","batch3","pattern_response","4531.399999856949","stim/no_25_1_b.png","j","pattern_09","j","true","","","","4531.399999856949","true","18","","","","","","","","","","","","","","","","",""
"","","","","","html-keyboard-response","183","1771527","0.0-3.0-5.0-0.19","55c82012fdf99b02adc2a36e","C3","batch3","pattern_show_trial_num","null","<p class=block-text>Trial 20 out of 78</p>","null","","","","","","","","","","","","","","","","","","","","","","","","","",""
"","","","","","image-keyboard-response","184","1779511","0.0-3.0-5.0-1.19","55c82012fdf99b02adc2a36e","C3","batch3","pattern_response","7979.199999809265","stim/no_39_1_w.png","j","pattern_21","j","true","","","","7979.199999809265","true","19","","","","","","","","","","","","","","","","",""
"","","","","","html-keyboard-response","185","1780827","0.0-3.0-5.0-0.20","55c82012fdf99b02adc2a36e","C3","batch3","pattern_show_trial_num","null","<p class=block-text>Trial 21 out of 78</p>","null","","","","","","","","","","","","","","","","","","","","","","","","","",""
"","","","","","image-keyboard-response","186","1782341","0.0-3.0-5.0-1.20","55c82012fdf99b02adc2a36e","C3","batch3","pattern_response","1511.2000000476837","stim/yes_15_dia_b1u_b.png","f","pattern_44","f","true","","","","1511.2000000476837","true","20","","","","","","","","","","","","","","","","",""
"","","","","","html-keyboard-response","187","1783659","0.0-3.0-5.0-0.21","55c82012fdf99b02adc2a36e","C3","batch3","pattern_show_trial_num","null","<p class=block-text>Trial 22 out of 78</p>","null","","","","","","","","","","","","","","","","","","","","","","","","","",""
"","","","","","image-keyboard-response","188","1785138","0.0-3.0-5.0-1.21","55c82012fdf99b02adc2a36e","C3","batch3","pattern_response","1475.5999999046326","stim/yes_49_hor_w1_b.png","f","pattern_70","f","true","","","","1475.5999999046326","true","21","","","","","","","","","","","","","","","","",""
"","","","","","html-keyboard-response","189","1786457","0.0-3.0-5.0-0.22","55c82012fdf99b02adc2a36e","C3","batch3","pattern_show_trial_num","null","<p class=block-text>Trial 23 out of 78</p>","null","","","","","","","","","","","","","","","","","","","","","","","","","",""
"","","","","","image-keyboard-response","190","1787937","0.0-3.0-5.0-1.22","55c82012fdf99b02adc2a36e","C3","batch3","pattern_response","1474.3999998569489","stim/yes_33_dia_w1_w.png","f","pattern_56","f","true","","","","1474.3999998569489","true","22","","","","","","","","","","","","","","","","",""
"","","","","","html-keyboard-response","191","1789250","0.0-3.0-5.0-0.23","55c82012fdf99b02adc2a36e","C3","batch3","pattern_show_trial_num","null","<p class=block-text>Trial 24 out of 78</p>","null","","","","","","","","","","","","","","","","","","","","","","","","","",""
"","","","","","image-keyboard-response","192","1798611","0.0-3.0-5.0-1.23","55c82012fdf99b02adc2a36e","C3","batch3","pattern_response","9357.200000047684","stim/no_36_1_b.png","j","pattern_17","j","true","","","","9357.200000047684","true","23","","","","","","","","","","","","","","","","",""
"","","","","","html-keyboard-response","193","1799927","0.0-3.0-5.0-0.24","55c82012fdf99b02adc2a36e","C3","batch3","pattern_show_trial_num","null","<p class=block-text>Trial 25 out of 78</p>","null","","","","","","","","","","","","","","","","","","","","","","","","","",""
"","","","","","image-keyboard-response","194","1810120","0.0-3.0-5.0-1.24","55c82012fdf99b02adc2a36e","C3","batch3","pattern_response","10189.5","stim/yes_58_dia_w1_w.png","j","pattern_76","f","false","","","","10189.5","false","23","","","","","","","","","","","","","","","","",""
"","","","","","html-keyboard-response","195","1811423","0.0-3.0-5.0-0.25","55c82012fdf99b02adc2a36e","C3","batch3","pattern_show_trial_num","null","<p class=block-text>Trial 26 out of 78</p>","null","","","","","","","","","","","","","","","","","","","","","","","","","",""
"","","","","","image-keyboard-response","196","1822548","0.0-3.0-5.0-1.25","55c82012fdf99b02adc2a36e","C3","batch3","pattern_response","11121.799999952316","stim/no_53_1_b.png","j","pattern_33","j","true","","","","11121.799999952316","true","24","","","","","","","","","","","","","","","","",""
"","","","","","html-keyboard-response","197","1823852","0.0-3.0-5.0-0.26","55c82012fdf99b02adc2a36e","C3","batch3","pattern_show_trial_num","null","<p class=block-text>Trial 27 out of 78</p>","null","","","","","","","","","","","","","","","","","","","","","","","","","",""
"","","","","","image-keyboard-response","198","1828569","0.0-3.0-5.0-1.26","55c82012fdf99b02adc2a36e","C3","batch3","pattern_response","4711.700000047684","stim/no_37_2_w.png","j","pattern_19","j","true","","","","4711.700000047684","true","25","","","","","","","","","","","","","","","","",""
"","","","","","html-keyboard-response","199","1829874","0.0-3.0-5.0-0.27","55c82012fdf99b02adc2a36e","C3","batch3","pattern_show_trial_num","null","<p class=block-text>Trial 28 out of 78</p>","null","","","","","","","","","","","","","","","","","","","","","","","","","",""
"","","","","","image-keyboard-response","200","1831753","0.0-3.0-5.0-1.27","55c82012fdf99b02adc2a36e","C3","batch3","pattern_response","1874.2999999523163","stim/no_12_1.png","j","pattern_01","j","true","","","","1874.2999999523163","true","26","","","","","","","","","","","","","","","","",""
"","","","","","html-keyboard-response","201","1833062","0.0-3.0-5.0-0.28","55c82012fdf99b02adc2a36e","C3","batch3","pattern_show_trial_num","null","<p class=block-text>Trial 29 out of 78</p>","null","","","","","","","","","","","","","","","","","","","","","","","","","",""
"","","","","","image-keyboard-response","202","1840624","0.0-3.0-5.0-1.28","55c82012fdf99b02adc2a36e","C3","batch3","pattern_response","7557.5","stim/no_49_2_b.png","j","pattern_29","j","true","","","","7557.5","true","27","","","","","","","","","","","","","","","","",""
"","","","","","html-keyboard-response","203","1841932","0.0-3.0-5.0-0.29","55c82012fdf99b02adc2a36e","C3","batch3","pattern_show_trial_num","null","<p class=block-text>Trial 30 out of 78</p>","null","","","","","","","","","","","","","","","","","","","","","","","","","",""
"","","","","","image-keyboard-response","204","1846464","0.0-3.0-5.0-1.29","55c82012fdf99b02adc2a36e","C3","batch3","pattern_response","4527.300000190735","stim/yes_51_dia_b1.png","f","pattern_72","f","true","","","","4527.300000190735","true","28","","","","","","","","","","","","","","","","",""
"","","","","","html-keyboard-response","205","1847780","0.0-3.0-5.0-0.30","55c82012fdf99b02adc2a36e","C3","batch3","pattern_show_trial_num","null","<p class=block-text>Trial 31 out of 78</p>","null","","","","","","","","","","","","","","","","","","","","","","","","","",""
"","","","","","image-keyboard-response","206","1848826","0.0-3.0-5.0-1.30","55c82012fdf99b02adc2a36e","C3","batch3","pattern_response","1043.5","stim/yes_12_hor_w1_w.png","f","pattern_42","f","true","","","","1043.5","true","29","","","","","","","","","","","","","","","","",""
"","","","","","html-keyboard-response","207","1850145","0.0-3.0-5.0-0.31","55c82012fdf99b02adc2a36e","C3","batch3","pattern_show_trial_num","null","<p class=block-text>Trial 32 out of 78</p>","null","","","","","","","","","","","","","","","","","","","","","","","","","",""
"","","","","","image-keyboard-response","208","1850941","0.0-3.0-5.0-1.31","55c82012fdf99b02adc2a36e","C3","batch3","pattern_response","792","stim/yes_29_hor_b1_b.png","f","pattern_52","f","true","","","","792","true","30","","","","","","","","","","","","","","","","",""
"","","","","","html-keyboard-response","209","1852255","0.0-3.0-5.0-0.32","55c82012fdf99b02adc2a36e","C3","batch3","pattern_show_trial_num","null","<p class=block-text>Trial 33 out of 78</p>","null","","","","","","","","","","","","","","","","","","","","","","","","","",""
"","","","","","image-keyboard-response","210","1860189","0.0-3.0-5.0-1.32","55c82012fdf99b02adc2a36e","C3","batch3","pattern_response","7929.700000047684","stim/no_47_1_b.png","j","pattern_27","j","true","","","","7929.700000047684","true","31","","","","","","","","","","","","","","","","",""
"","","","","","html-keyboard-response","211","1861515","0.0-3.0-5.0-0.33","55c82012fdf99b02adc2a36e","C3","batch3","pattern_show_trial_num","null","<p class=block-text>Trial 34 out of 78</p>","null","","","","","","","","","","","","","","","","","","","","","","","","","",""
"","","","","","image-keyboard-response","212","1869261","0.0-3.0-5.0-1.33","55c82012fdf99b02adc2a36e","C3","batch3","pattern_response","7740.799999952316","stim/yes_46_ver_b1_b.png","j","pattern_68","f","false","","","","7740.799999952316","false","31","","","","","","","","","","","","","","","","",""
"","","","","","html-keyboard-response","213","1870568","0.0-3.0-5.0-0.34","55c82012fdf99b02adc2a36e","C3","batch3","pattern_show_trial_num","null","<p class=block-text>Trial 35 out of 78</p>","null","","","","","","","","","","","","","","","","","","","","","","","","","",""
"","","","","","image-keyboard-response","214","1872835","0.0-3.0-5.0-1.34","55c82012fdf99b02adc2a36e","C3","batch3","pattern_response","2261.5","stim/no_15_1_w.png","j","pattern_03","j","true","","","","2261.5","true","32","","","","","","","","","","","","","","","","",""
"","","","","","html-keyboard-response","215","1874144","0.0-3.0-5.0-0.35","55c82012fdf99b02adc2a36e","C3","batch3","pattern_show_trial_num","null","<p class=block-text>Trial 36 out of 78</p>","null","","","","","","","","","","","","","","","","","","","","","","","","","",""
"","","","","","image-keyboard-response","216","1884756","0.0-3.0-5.0-1.35","55c82012fdf99b02adc2a36e","C3","batch3","pattern_response","10606.399999856949","stim/no_51_1.png","j","pattern_31","j","true","","","","10606.399999856949","true","33","","","","","","","","","","","","","","","","",""
"","","","","","html-keyboard-response","217","1886088","0.0-3.0-5.0-0.36","55c82012fdf99b02adc2a36e","C3","batch3","pattern_show_trial_num","null","<p class=block-text>Trial 37 out of 78</p>","null","","","","","","","","","","","","","","","","","","","","","","","","","",""
"","","","","","image-keyboard-response","218","1896551","0.0-3.0-5.0-1.36","55c82012fdf99b02adc2a36e","C3","batch3","pattern_response","10457.700000047684","stim/yes_44_ver_w1_w.png","j","pattern_66","f","false","","","","10457.700000047684","false","33","","","","","","","","","","","","","","","","",""
"","","","","","html-keyboard-response","219","1897867","0.0-3.0-5.0-0.37","55c82012fdf99b02adc2a36e","C3","batch3","pattern_show_trial_num","null","<p class=block-text>Trial 38 out of 78</p>","null","","","","","","","","","","","","","","","","","","","","","","","","","",""
"","","","","","image-keyboard-response","220","1905473","0.0-3.0-5.0-1.37","55c82012fdf99b02adc2a36e","C3","batch3","pattern_response","7601.200000047684","stim/no_45_1_w.png","j","pattern_25","j","true","","","","7601.200000047684","true","34","","","","","","","","","","","","","","","","",""
"","","","","","html-keyboard-response","221","1906781","0.0-3.0-5.0-0.38","55c82012fdf99b02adc2a36e","C3","batch3","pattern_show_trial_num","null","<p class=block-text>Trial 39 out of 78</p>","null","","","","","","","","","","","","","","","","","","","","","","","","","",""
"","","","","","image-keyboard-response","222","1917502","0.0-3.0-5.0-1.38","55c82012fdf99b02adc2a36e","C3","batch3","pattern_response","10715.399999856949","stim/yes_63_dia_b1.png","f","pattern_78","f","true","","","","10715.399999856949","true","35","","","","","","","","","","","","","","","","",""
"","","","","","image-keyboard-response","223","1920018","0.0-3.0-6.0","55c82012fdf99b02adc2a36e","C3","batch3","attention_check","2005.5","stim/empty_board.png","j","","j","true","","","","","","","500","[""f"",""j""]","","","","","","","","","","","","","","",""
"","","","","","html-keyboard-response","224","1920821","0.0-3.0-7.0-0.0","55c82012fdf99b02adc2a36e","C3","batch3","pattern_show_trial_num","null","<p class=block-text>Trial 40 out of 78</p>","null","","","","","","","","","","","","","","","","","","","","","","","","","",""
"","","","","","image-keyboard-response","225","1925274","0.0-3.0-7.0-1.0","55c82012fdf99b02adc2a36e","C3","batch3","pattern_response","4447.5","stim/no_26_1_w.png","j","pattern_10","j","true","","","","4447.5","true","36","","","","","","","","","","","","","","","","",""
"","","","","","html-keyboard-response","226","1926591","0.0-3.0-7.0-0.1","55c82012fdf99b02adc2a36e","C3","batch3","pattern_show_trial_num","null","<p class=block-text>Trial 41 out of 78</p>","null","","","","","","","","","","","","","","","","","","","","","","","","","",""
"","","","","","image-keyboard-response","227","1930683","0.0-3.0-7.0-1.1","55c82012fdf99b02adc2a36e","C3","batch3","pattern_response","4090.5","stim/no_29_1_b.png","j","pattern_12","j","true","","","","4090.5","true","37","","","","","","","","","","","","","","","","",""
"","","","","","html-keyboard-response","228","1931985","0.0-3.0-7.0-0.2","55c82012fdf99b02adc2a36e","C3","batch3","pattern_show_trial_num","null","<p class=block-text>Trial 42 out of 78</p>","null","","","","","","","","","","","","","","","","","","","","","","","","","",""
"","","","","","image-keyboard-response","229","1944207","0.0-3.0-7.0-1.2","55c82012fdf99b02adc2a36e","C3","batch3","pattern_response","12216.5","stim/no_70_2.png","j","pattern_40","j","true","","","","12216.5","true","38","","","","","","","","","","","","","","","","",""
"","","","","","html-keyboard-response","230","1945521","0.0-3.0-7.0-0.3","55c82012fdf99b02adc2a36e","C3","batch3","pattern_show_trial_num","null","<p class=block-text>Trial 43 out of 78</p>","null","","","","","","","","","","","","","","","","","","","","","","","","","",""
"","","","","","image-keyboard-response","231","1948756","0.0-3.0-7.0-1.3","55c82012fdf99b02adc2a36e","C3","batch3","pattern_response","3233.199999809265","stim/no_23_1.png","j","pattern_08","j","true","","","","3233.199999809265","true","39","","","","","","","","","","","","","","","","",""
"","","","","","html-keyboard-response","232","1950070","0.0-3.0-7.0-0.4","55c82012fdf99b02adc2a36e","C3","batch3","pattern_show_trial_num","null","<p class=block-text>Trial 44 out of 78</p>","null","","","","","","","","","","","","","","","","","","","","","","","","","",""
"","","","","","image-keyboard-response","233","1951213","0.0-3.0-7.0-1.4","55c82012fdf99b02adc2a36e","C3","batch3","pattern_response","1136.7000000476837","stim/yes_22_ver_w1.png","f","pattern_47","f","true","","","","1136.7000000476837","true","40","","","","","","","","","","","","","","","","",""
"","","","","","html-keyboard-response","234","1952535","0.0-3.0-7.0-0.5","55c82012fdf99b02adc2a36e","C3","batch3","pattern_show_trial_num","null","<p class=block-text>Trial 45 out of 78</p>","null","","","","","","","","","","","","","","","","","","","","","","","","","",""
"","","","","","image-keyboard-response","235","1958903","0.0-3.0-7.0-1.5","55c82012fdf99b02adc2a36e","C3","batch3","pattern_response","6363.700000047684","stim/no_34_1_b.png","j","pattern_16","j","true","","","","6363.700000047684","true","41","","","","","","","","","","","","","","","","",""
"","","","","","html-keyboard-response","236","1960209","0.0-3.0-7.0-0.6","55c82012fdf99b02adc2a36e","C3","batch3","pattern_show_trial_num","null","<p class=block-text>Trial 46 out of 78</p>","null","","","","","","","","","","","","","","","","","","","","","","","","","",""
"","","","","","image-keyboard-response","237","1961140","0.0-3.0-7.0-1.6","55c82012fdf99b02adc2a36e","C3","batch3","pattern_response","925.7999999523163","stim/yes_14_hor_b1_w.png","f","pattern_43","f","true","","","","925.7999999523163","true","42","","","","","","","","","","","","","","","","",""
"","","","","","html-keyboard-response","238","1962462","0.0-3.0-7.0-0.7","55c82012fdf99b02adc2a36e","C3","batch3","pattern_show_trial_num","null","<p class=block-text>Trial 47 out of 78</p>","null","","","","","","","","","","","","","","","","","","","","","","","","","",""
"","","","","","image-keyboard-response","239","1964020","0.0-3.0-7.0-1.7","55c82012fdf99b02adc2a36e","C3","batch3","pattern_response","1554","stim/yes_60_ver_b1_b.png","f","pattern_77","f","true","","","","1554","true","43","","","","","","","","","","","","","","","","",""
"","","","","","html-keyboard-response","240","1965332","0.0-3.0-7.0-0.8","55c82012fdf99b02adc2a36e","C3","batch3","pattern_show_trial_num","null","<p class=block-text>Trial 48 out of 78</p>","null","","","","","","","","","","","","","","","","","","","","","","","","","",""
"","","","","","image-keyboard-response","241","1970448","0.0-3.0-7.0-1.8","55c82012fdf99b02adc2a36e","C3","batch3","pattern_response","5112.5","stim/no_32_1_w.png","j","pattern_14","j","true","","","","5112.5","true","44","","","","","","","","","","","","","","","","",""
"","","","","","html-keyboard-response","242","1971767","0.0-3.0-7.0-0.9","55c82012fdf99b02adc2a36e","C3","batch3","pattern_show_trial_num","null","<p class=block-text>Trial 49 out of 78</p>","null","","","","","","","","","","","","","","","","","","","","","","","","","",""
"","","","","","image-keyboard-response","243","1972995","0.0-3.0-7.0-1.9","55c82012fdf99b02adc2a36e","C3","batch3","pattern_response","1226.2999999523163","stim/yes_38_hor_b1_b.png","f","pattern_61","f","true","","","","1226.2999999523163","true","45","","","","","","","","","","","","","","","","",""
"","","","","","html-keyboard-response","244","1974303","0.0-3.0-7.0-0.10","55c82012fdf99b02adc2a36e","C3","batch3","pattern_show_trial_num","null","<p class=block-text>Trial 50 out of 78</p>","null","","","","","","","","","","","","","","","","","","","","","","","","","",""
"","","","","","image-keyboard-response","245","1975958","0.0-3.0-7.0-1.10","55c82012fdf99b02adc2a36e","C3","batch3","pattern_response","1653.0999999046326","stim/yes_45_hor_b2_b.png","f","pattern_67","f","true","","","","1653.0999999046326","true","46","","","","","","","","","","","","","","","","",""
"","","","","","html-keyboard-response","246","1977269","0.0-3.0-7.0-0.11","55c82012fdf99b02adc2a36e","C3","batch3","pattern_show_trial_num","null","<p class=block-text>Trial 51 out of 78</p>","null","","","","","","","","","","","","","","","","","","","","","","","","","",""
"","","","","","image-keyboard-response","247","1978781","0.0-3.0-7.0-1.11","55c82012fdf99b02adc2a36e","C3","batch3","pattern_response","1510.1000001430511","stim/no_13_2_b.png","j","pattern_02","j","true","","","","1510.1000001430511","true","47","","","","","","","","","","","","","","","","",""
"","","","","","html-keyboard-response","248","1980103","0.0-3.0-7.0-0.12","55c82012fdf99b02adc2a36e","C3","batch3","pattern_show_trial_num","null","<p class=block-text>Trial 52 out of 78</p>","null","","","","","","","","","","","","","","","","","","","","","","","","","",""
"","","","","","image-keyboard-response","249","1988350","0.0-3.0-7.0-1.12","55c82012fdf99b02adc2a36e","C3","batch3","pattern_response","8242.299999952316","stim/no_55_1_w.png","j","pattern_34","j","true","","","","8242.299999952316","true","48","","","","","","","","","","","","","","","","",""
"","","","","","html-keyboard-response","250","1989673","0.0-3.0-7.0-0.13","55c82012fdf99b02adc2a36e","C3","batch3","pattern_show_trial_num","null","<p class=block-text>Trial 53 out of 78</p>","null","","","","","","","","","","","","","","","","","","","","","","","","","",""
"","","","","","image-keyboard-response","251","1991663","0.0-3.0-7.0-1.13","55c82012fdf99b02adc2a36e","C3","batch3","pattern_response","1983.9000000953674","stim/no_17_1_w.png","j","pattern_04","j","true","","","","1983.9000000953674","true","49","","","","","","","","","","","","","","","","",""
"","","","","","html-keyboard-response","252","1992975","0.0-3.0-7.0-0.14","55c82012fdf99b02adc2a36e","C3","batch3","pattern_show_trial_num","null","<p class=block-text>Trial 54 out of 78</p>","null","","","","","","","","","","","","","","","","","","","","","","","","","",""
"","","","","","image-keyboard-response","253","1993875","0.0-3.0-7.0-1.14","55c82012fdf99b02adc2a36e","C3","batch3","pattern_response","895.2000000476837","stim/yes_55_hor_w1_w.png","f","pattern_75","f","true","","","","895.2000000476837","true","50","","","","","","","","","","","","","","","","",""
"","","","","","html-keyboard-response","254","1995185","0.0-3.0-7.0-0.15","55c82012fdf99b02adc2a36e","C3","batch3","pattern_show_trial_num","null","<p class=block-text>Trial 55 out of 78</p>","null","","","","","","","","","","","","","","","","","","","","","","","","","",""
"","","","","","image-keyboard-response","255","2000257","0.0-3.0-7.0-1.15","55c82012fdf99b02adc2a36e","C3","batch3","pattern_response","5070.400000095367","stim/no_46_1_b.png","j","pattern_26","j","true","","","","5070.400000095367","true","51","","","","","","","","","","","","","","","","",""
"","","","","","html-keyboard-response","256","2001578","0.0-3.0-7.0-0.16","55c82012fdf99b02adc2a36e","C3","batch3","pattern_show_trial_num","null","<p class=block-text>Trial 56 out of 78</p>","null","","","","","","","","","","","","","","","","","","","","","","","","","",""
"","","","","","image-keyboard-response","257","2002436","0.0-3.0-7.0-1.16","55c82012fdf99b02adc2a36e","C3","batch3","pattern_response","856.5","stim/yes_17_dia_w1.png","f","pattern_45","f","true","","","","856.5","true","52","","","","","","","","","","","","","","","","",""
"","","","","","html-keyboard-response","258","2003753","0.0-3.0-7.0-0.17","55c82012fdf99b02adc2a36e","C3","batch3","pattern_show_trial_num","null","<p class=block-text>Trial 57 out of 78</p>","null","","","","","","","","","","","","","","","","","","","","","","","","","",""
"","","","","","image-keyboard-response","259","2010353","0.0-3.0-7.0-1.17","55c82012fdf99b02adc2a36e","C3","batch3","pattern_response","6595.399999856949","stim/yes_40_dia_b1_b.png","j","pattern_63","f","false","","","","6595.399999856949","false","52","","","","","","","","","","","","","","","","",""
"","","","","","html-keyboard-response","260","2011680","0.0-3.0-7.0-0.18","55c82012fdf99b02adc2a36e","C3","batch3","pattern_show_trial_num","null","<p class=block-text>Trial 58 out of 78</p>","null","","","","","","","","","","","","","","","","","","","","","","","","","",""
"","","","","","image-keyboard-response","261","2012525","0.0-3.0-7.0-1.18","55c82012fdf99b02adc2a36e","C3","batch3","pattern_response","837.4000000953674","stim/yes_67_hor_b1.png","f","pattern_79","f","true","","","","837.4000000953674","true","53","","","","","","","","","","","","","","","","",""
"","","","","","html-keyboard-response","262","2013841","0.0-3.0-7.0-0.19","55c82012fdf99b02adc2a36e","C3","batch3","pattern_show_trial_num","null","<p class=block-text>Trial 59 out of 78</p>","null","","","","","","","","","","","","","","","","","","","","","","","","","",""
"","","","","","image-keyboard-response","263","2015797","0.0-3.0-7.0-1.19","55c82012fdf99b02adc2a36e","C3","batch3","pattern_response","1951.9000000953674","stim/no_20_1_w.png","j","pattern_06","j","true","","","","1951.9000000953674","true","54","","","","","","","","","","","","","","","","",""
"","","","","","html-keyboard-response","264","2017109","0.0-3.0-7.0-0.20","55c82012fdf99b02adc2a36e","C3","batch3","pattern_show_trial_num","null","<p class=block-text>Trial 60 out of 78</p>","null","","","","","","","","","","","","","","","","","","","","","","","","","",""
"","","","","","image-keyboard-response","265","2018079","0.0-3.0-7.0-1.20","55c82012fdf99b02adc2a36e","C3","batch3","pattern_response","967.7000000476837","stim/yes_43_ver_w1_w.png","f","pattern_65","f","true","","","","967.7000000476837","true","55","","","","","","","","","","","","","","","","",""
"","","","","","html-keyboard-response","266","2019408","0.0-3.0-7.0-0.21","55c82012fdf99b02adc2a36e","C3","batch3","pattern_show_trial_num","null","<p class=block-text>Trial 61 out of 78</p>","null","","","","","","","","","","","","","","","","","","","","","","","","","",""
"","","","","","image-keyboard-response","267","2022574","0.0-3.0-7.0-1.21","55c82012fdf99b02adc2a36e","C3","batch3","pattern_response","3162.5","stim/yes_50_dia_w1.png","f","pattern_71","f","true","","","","3162.5","true","56","","","","","","","","","","","","","","","","",""
"","","","","","html-keyboard-response","268","2023888","0.0-3.0-7.0-0.22","55c82012fdf99b02adc2a36e","C3","batch3","pattern_show_trial_num","null","<p class=block-text>Trial 62 out of 78</p>","null","","","","","","","","","","","","","","","","","","","","","","","","","",""
"","","","","","image-keyboard-response","269","2026018","0.0-3.0-7.0-1.22","55c82012fdf99b02adc2a36e","C3","batch3","pattern_response","2125.5","stim/yes_29_ver_w1.png","f","pattern_53","f","true","","","","2125.5","true","57","","","","","","","","","","","","","","","","",""
"","","","","","html-keyboard-response","270","2027333","0.0-3.0-7.0-0.23","55c82012fdf99b02adc2a36e","C3","batch3","pattern_show_trial_num","null","<p class=block-text>Trial 63 out of 78</p>","null","","","","","","","","","","","","","","","","","","","","","","","","","",""
"","","","","","image-keyboard-response","271","2028362","0.0-3.0-7.0-1.23","55c82012fdf99b02adc2a36e","C3","batch3","pattern_response","1026.8999998569489","stim/yes_28_ver_b1.png","f","pattern_51","f","true","","","","1026.8999998569489","true","58","","","","","","","","","","","","","","","","",""
"","","","","","html-keyboard-response","272","2029694","0.0-3.0-7.0-0.24","55c82012fdf99b02adc2a36e","C3","batch3","pattern_show_trial_num","null","<p class=block-text>Trial 64 out of 78</p>","null","","","","","","","","","","","","","","","","","","","","","","","","","",""
"","","","","","image-keyboard-response","273","2031290","0.0-3.0-7.0-1.24","55c82012fdf99b02adc2a36e","C3","batch3","pattern_response","1592.6999998092651","stim/yes_31_hor_b1.png","f","pattern_55","f","true","","","","1592.6999998092651","true","59","","","","","","","","","","","","","","","","",""
"","","","","","html-keyboard-response","274","2032593","0.0-3.0-7.0-0.25","55c82012fdf99b02adc2a36e","C3","batch3","pattern_show_trial_num","null","<p class=block-text>Trial 65 out of 78</p>","null","","","","","","","","","","","","","","","","","","","","","","","","","",""
"","","","","","image-keyboard-response","275","2037269","0.0-3.0-7.0-1.25","55c82012fdf99b02adc2a36e","C3","batch3","pattern_response","4674.700000047684","stim/no_38_1_b.png","j","pattern_20","j","true","","","","4674.700000047684","true","60","","","","","","","","","","","","","","","","",""
"","","","","","html-keyboard-response","276","2038585","0.0-3.0-7.0-0.26","55c82012fdf99b02adc2a36e","C3","batch3","pattern_show_trial_num","null","<p class=block-text>Trial 66 out of 78</p>","null","","","","","","","","","","","","","","","","","","","","","","","","","",""
"","","","","","image-keyboard-response","277","2039988","0.0-3.0-7.0-1.26","55c82012fdf99b02adc2a36e","C3","batch3","pattern_response","1398.0999999046326","stim/yes_52_ver_w1.png","f","pattern_73","f","true","","","","1398.0999999046326","true","61","","","","","","","","","","","","","","","","",""
"","","","","","html-keyboard-response","278","2041296","0.0-3.0-7.0-0.27","55c82012fdf99b02adc2a36e","C3","batch3","pattern_show_trial_num","null","<p class=block-text>Trial 67 out of 78</p>","null","","","","","","","","","","","","","","","","","","","","","","","","","",""
"","","","","","image-keyboard-response","279","2050223","0.0-3.0-7.0-1.27","55c82012fdf99b02adc2a36e","C3","batch3","pattern_response","8922.200000047684","stim/no_65_1_b.png","j","pattern_38","j","true","","","","8922.200000047684","true","62","","","","","","","","","","","","","","","","",""
"","","","","","html-keyboard-response","280","2051530","0.0-3.0-7.0-0.28","55c82012fdf99b02adc2a36e","C3","batch3","pattern_show_trial_num","null","<p class=block-text>Trial 68 out of 78</p>","null","","","","","","","","","","","","","","","","","","","","","","","","","",""
"","","","","","image-keyboard-response","281","2056271","0.0-3.0-7.0-1.28","55c82012fdf99b02adc2a36e","C3","batch3","pattern_response","4737","stim/no_42_1_w.png","j","pattern_22","j","true","","","","4737","true","63","","","","","","","","","","","","","","","","",""
"","","","","","html-keyboard-response","282","2057603","0.0-3.0-7.0-0.29","55c82012fdf99b02adc2a36e","C3","batch3","pattern_show_trial_num","null","<p class=block-text>Trial 69 out of 78</p>","null","","","","","","","","","","","","","","","","","","","","","","","","","",""
"","","","","","image-keyboard-response","283","2066945","0.0-3.0-7.0-1.29","55c82012fdf99b02adc2a36e","C3","batch3","pattern_response","9336.700000047684","stim/no_44_1.png","j","pattern_24","j","true","","","","9336.700000047684","true","64","","","","","","","","","","","","","","","","",""
"","","","","","html-keyboard-response","284","2068256","0.0-3.0-7.0-0.30","55c82012fdf99b02adc2a36e","C3","batch3","pattern_show_trial_num","null","<p class=block-text>Trial 70 out of 78</p>","null","","","","","","","","","","","","","","","","","","","","","","","","","",""
"","","","","","image-keyboard-response","285","2073673","0.0-3.0-7.0-1.30","55c82012fdf99b02adc2a36e","C3","batch3","pattern_response","5412.299999952316","stim/no_50_1.png","j","pattern_30","j","true","","","","5412.299999952316","true","65","","","","","","","","","","","","","","","","",""
"","","","","","html-keyboard-response","286","2075002","0.0-3.0-7.0-0.31","55c82012fdf99b02adc2a36e","C3","batch3","pattern_show_trial_num","null","<p class=block-text>Trial 71 out of 78</p>","null","","","","","","","","","","","","","","","","","","","","","","","","","",""
"","","","","","image-keyboard-response","287","2077285","0.0-3.0-7.0-1.31","55c82012fdf99b02adc2a36e","C3","batch3","pattern_response","2278.4000000953674","stim/yes_35_dia_b1.png","f","pattern_57","f","true","","","","2278.4000000953674","true","66","","","","","","","","","","","","","","","","",""
"","","","","","html-keyboard-response","288","2078605","0.0-3.0-7.0-0.32","55c82012fdf99b02adc2a36e","C3","batch3","pattern_show_trial_num","null","<p class=block-text>Trial 72 out of 78</p>","null","","","","","","","","","","","","","","","","","","","","","","","","","",""
"","","","","","image-keyboard-response","289","2083276","0.0-3.0-7.0-1.32","55c82012fdf99b02adc2a36e","C3","batch3","pattern_response","4665.5","stim/no_48_1_w.png","j","pattern_28","j","true","","","","4665.5","true","67","","","","","","","","","","","","","","","","",""
"","","","","","html-keyboard-response","290","2084581","0.0-3.0-7.0-0.33","55c82012fdf99b02adc2a36e","C3","batch3","pattern_show_trial_num","null","<p class=block-text>Trial 73 out of 78</p>","null","","","","","","","","","","","","","","","","","","","","","","","","","",""
"","","","","","image-keyboard-response","291","2089561","0.0-3.0-7.0-1.33","55c82012fdf99b02adc2a36e","C3","batch3","pattern_response","4974.899999856949","stim/no_36_2_w.png","j","pattern_18","j","true","","","","4974.899999856949","true","68","","","","","","","","","","","","","","","","",""
"","","","","","html-keyboard-response","292","2090884","0.0-3.0-7.0-0.34","55c82012fdf99b02adc2a36e","C3","batch3","pattern_show_trial_num","null","<p class=block-text>Trial 74 out of 78</p>","null","","","","","","","","","","","","","","","","","","","","","","","","","",""
"","","","","","image-keyboard-response","293","2097656","0.0-3.0-7.0-1.34","55c82012fdf99b02adc2a36e","C3","batch3","pattern_response","6767.299999952316","stim/no_52_1.png","j","pattern_32","j","true","","","","6767.299999952316","true","69","","","","","","","","","","","","","","","","",""
"","","","","","html-keyboard-response","294","2098964","0.0-3.0-7.0-0.35","55c82012fdf99b02adc2a36e","C3","batch3","pattern_show_trial_num","null","<p class=block-text>Trial 75 out of 78</p>","null","","","","","","","","","","","","","","","","","","","","","","","","","",""
"","","","","","image-keyboard-response","295","2101606","0.0-3.0-7.0-1.35","55c82012fdf99b02adc2a36e","C3","batch3","pattern_response","2636.5","stim/yes_48_dia_w1_w.png","f","pattern_69","f","true","","","","2636.5","true","70","","","","","","","","","","","","","","","","",""
"","","","","","html-keyboard-response","296","2102921","0.0-3.0-7.0-0.36","55c82012fdf99b02adc2a36e","C3","batch3","pattern_show_trial_num","null","<p class=block-text>Trial 76 out of 78</p>","null","","","","","","","","","","","","","","","","","","","","","","","","","",""
"","","","","","image-keyboard-response","297","2104121","0.0-3.0-7.0-1.36","55c82012fdf99b02adc2a36e","C3","batch3","pattern_response","1195.2999999523163","stim/yes_25_hor_b1_b.png","f","pattern_49","f","true","","","","1195.2999999523163","true","71","","","","","","","","","","","","","","","","",""
"","","","","","html-keyboard-response","298","2105434","0.0-3.0-7.0-0.37","55c82012fdf99b02adc2a36e","C3","batch3","pattern_show_trial_num","null","<p class=block-text>Trial 77 out of 78</p>","null","","","","","","","","","","","","","","","","","","","","","","","","","",""
"","","","","","image-keyboard-response","299","2107610","0.0-3.0-7.0-1.37","55c82012fdf99b02adc2a36e","C3","batch3","pattern_response","2172","stim/yes_37_dia_w1.png","f","pattern_59","f","true","","","","2172","true","72","","","","","","","","","","","","","","","","",""
"","","","","","html-keyboard-response","300","2108929","0.0-3.0-7.0-0.38","55c82012fdf99b02adc2a36e","C3","batch3","pattern_show_trial_num","null","<p class=block-text>Trial 78 out of 78</p>","null","","","","","","","","","","","","","","","","","","","","","","","","","",""
"","","","","","image-keyboard-response","301","2120107","0.0-3.0-7.0-1.38","55c82012fdf99b02adc2a36e","C3","batch3","pattern_response","11173.200000047684","stim/no_62_1_w.png","j","pattern_36","j","true","","","","11173.200000047684","true","73","","","","","","","","","","","","","","","","",""
"","","","","","html-button-response","302","2293177","0.0-3.0-8.0","55c82012fdf99b02adc2a36e","C3","batch3","","172553.20000004768","<p class = block-text>This concludes the 4-in-a-row detection game.Thank you for your responses!<br>
            You responded correctly on 94% of the trials.<br>
            When you are ready, press ""Continue"" button to continue </p>","0","","","","","","","","","","","","","","","","","","","","","","","","","",""
"true","","","","","fullscreen","303","2333902","0.0-4.0-0.0","55c82012fdf99b02adc2a36e","C3","batch3","","","","","","","","","","","","","","","","","","","","","","","","","","","","","",""
"","","","","","instructions","304","2436529","0.0-4.0-1.0-0.0-0.0","55c82012fdf99b02adc2a36e","C3","batch3","tol-instructions","102625.60000014305","","","","","","","","[{""page_index"":0,""viewing_time"":27727.299999952316},{""page_index"":1,""viewing_time"":6933},{""page_index"":2,""viewing_time"":3511.7000000476837},{""page_index"":3,""viewing_time"":20859.5},{""page_index"":4,""viewing_time"":13921.600000143051},{""page_index"":5,""viewing_time"":22670.799999952316},{""page_index"":6,""viewing_time"":7001.399999856949}]","","","","","","","","","","","","","","","","","","","",""
"","","","","","html-button-response","305","2439495","0.0-4.0-1.0-1.0-0.0","55c82012fdf99b02adc2a36e","C3","batch3","tol_enter_quiz","2965.2999999523163","<p class=block-text> Let's answer a few questions <br>","0","","","","","","","","","","","","","","","","","","","","","","","","","",""
"","","","","","html-button-response","306","2443289","0.0-4.0-1.0-1.0-1.0","55c82012fdf99b02adc2a36e","C3","batch3","tol_quiz","3792.5999999046326","<p class = block-text>True or False: You can only move the ball on top of a peg. <br></p>","0","","","true","","","","","","","","","","","","","","","","","","","","","","",""
"","","","","","html-button-response","307","2450167","0.0-4.0-1.0-1.0-2.0","55c82012fdf99b02adc2a36e","C3","batch3","tol_quiz_feedback","6877.099999904633","<p class = block-text>Correct! You can only move the ball on top of a peg.</p>","0","","","","","","","","","","","","","","","","","","","","","","","","","",""
"","","","","","html-button-response","308","2454888","0.0-4.0-1.0-1.0-3.0","55c82012fdf99b02adc2a36e","C3","batch3","tol_quiz","4719.599999904633","<p class = block-text>True or False: You should try to match your board with the target board with fewest moves possible. <br></p>","0","","","true","","","","","","","","","","","","","","","","","","","","","","",""
"","","","","","html-button-response","309","2455942","0.0-4.0-1.0-1.0-4.0","55c82012fdf99b02adc2a36e","C3","batch3","tol_quiz_feedback","1053.0999999046326","<p class = block-text>Correct! </p>","0","","","","","","","","","","","","","","","","","","","","","","","","","",""
"","","","","","html-button-response","310","2461730","0.0-4.0-2.0","55c82012fdf99b02adc2a36e","C3","batch3","","5787.5","<p class=block-text> Now that you've understood the game, let's practice a few easier examples before we start!<br> <br>","0","","","","","","","","","","","","","","","","","","","","","","","","","",""
"","","","","","single-stim-button","311","2465369","0.0-4.0-3.0-0.0","55c82012fdf99b02adc2a36e","C3","batch3","tol_practice","3637","","","","","","","","","","","","","","tol_peg_2","3637","3637","0","[[1,2,0],[0,0],[0]]","1","[[1,2,0],[0,0],[3]]","practice","3637","","","","","",""
"","","","","","single-stim-button","312","2466347","0.0-4.0-3.0-1.0","55c82012fdf99b02adc2a36e","C3","batch3","tol_practice","977","","","","","","","","","","","","","","tol_peg_3","977","977","0","[[1,2,0],[0,0],[3]]","1","[[1,2,0],[0,0],[3]]","practice","977","","","","","",""
"","","","","","poldrack-single-stim","313","2467349","0.0-4.0-4.0","55c82012fdf99b02adc2a36e","C3","batch3","tol_feedback","-1","","","","","true","","","","","","","","","","1000","1000","500","","","","","","-1","none","true","","0",""
"","","","","","single-stim-button","314","2471684","0.0-4.0-5.0-0.0","55c82012fdf99b02adc2a36e","C3","batch3","tol_practice","4333","","","","","","","","","","","","","","tol_peg_1","4333","4333","0","[[1,0,0],[3,0],[0]]","2","[[0,0,0],[3,1],[2]]","practice","4333","","","","","",""
"","","","","","single-stim-button","315","2473150","0.0-4.0-5.0-1.0","55c82012fdf99b02adc2a36e","C3","batch3","tol_practice","1466","","","","","","","","","","","","","","tol_peg_3","1466","1466","0","[[1,0,0],[3,0],[2]]","2","[[0,0,0],[3,1],[2]]","practice","1466","","","","","",""
"","","","","","single-stim-button","316","2474509","0.0-4.0-5.1-0.1","55c82012fdf99b02adc2a36e","C3","batch3","tol_practice","1359","","","","","","","","","","","","","","tol_peg_1","1359","1359","0","[[0,0,0],[3,0],[2]]","3","[[0,0,0],[3,1],[2]]","practice","1359","","","","","",""
"","","","","","single-stim-button","317","2475726","0.0-4.0-5.1-1.1","55c82012fdf99b02adc2a36e","C3","batch3","tol_practice","1217","","","","","","","","","","","","","","tol_peg_2","1217","1217","0","[[0,0,0],[3,1],[2]]","3","[[0,0,0],[3,1],[2]]","practice","1217","","","","","",""
"","","","","","poldrack-single-stim","318","2476728","0.0-4.0-6.0","55c82012fdf99b02adc2a36e","C3","batch3","tol_feedback","-1","","","","","true","","","","","","","","","","1000","1000","500","","","","","","-1","none","true","","0",""
"","","","","","single-stim-button","319","2480051","0.0-4.0-7.0-0.0","55c82012fdf99b02adc2a36e","C3","batch3","tol_practice","3322","","","","","","","","","","","","","","tol_peg_2","3322","3322","0","[[1,2,0],[0,0],[0]]","4","[[1,0,0],[2,0],[3]]","practice","3322","","","","","",""
"","","","","","single-stim-button","320","2481170","0.0-4.0-7.0-1.0","55c82012fdf99b02adc2a36e","C3","batch3","tol_practice","1118","","","","","","","","","","","","","","tol_peg_3","1118","1118","0","[[1,2,0],[0,0],[3]]","4","[[1,0,0],[2,0],[3]]","practice","1118","","","","","",""
"","","","","","single-stim-button","321","2482210","0.0-4.0-7.1-0.1","55c82012fdf99b02adc2a36e","C3","batch3","tol_practice","1040","","","","","","","","","","","","","","tol_peg_1","1040","1040","0","[[1,0,0],[0,0],[3]]","5","[[1,0,0],[2,0],[3]]","practice","1040","","","","","",""
"","","","","","single-stim-button","322","2483546","0.0-4.0-7.1-1.1","55c82012fdf99b02adc2a36e","C3","batch3","tol_practice","1336","","","","","","","","","","","","","","tol_peg_2","1336","1336","0","[[1,0,0],[2,0],[3]]","5","[[1,0,0],[2,0],[3]]","practice","1336","","","","","",""
"","","","","","poldrack-single-stim","323","2484551","0.0-4.0-8.0","55c82012fdf99b02adc2a36e","C3","batch3","tol_feedback","-1","","","","","true","","","","","","","","","","1000","1000","500","","","","","","-1","none","true","","0",""
"","","","","","html-button-response","324","2526848","0.0-4.0-9.0","55c82012fdf99b02adc2a36e","C3","batch3","tol_instruction","42296","<div class = centerbox><p class = center-block-text>Great job! You are done with practice trials<br>You are about to start official trials.<br> <br> Problem <strong>1</strong> out of 25 problems</p></div>","0","","","","","","","","","","","","","","","","","","","","","","","","","",""
"","","","","","single-stim-button","325","2530150","0.0-4.0-10.0-0.0","55c82012fdf99b02adc2a36e","C3","batch3","tol_tohand","2300","","","","","","","","","","","","","","tol_peg_1","2300","2300","0","[[1,0,0],[3,0],[0]]","1","[[1,3,0],[2,0],[0]]","0","0","","","","","","3"
"","","","","","single-stim-button","326","2536296","0.0-4.0-10.0-1.0","55c82012fdf99b02adc2a36e","C3","batch3","tol_toboard","6145","","","","","","","","","","","","","","tol_peg_3","6145","6145","0","[[1,0,0],[3,0],[2]]","1","[[1,3,0],[2,0],[0]]","0","0","","","","","","3"
"","","","","","single-stim-button","327","2537544","0.0-4.0-10.1-0.1","55c82012fdf99b02adc2a36e","C3","batch3","tol_tohand","1246","","","","","","","","","","","","","","tol_peg_2","1246","1246","0","[[1,0,0],[0,0],[2]]","2","[[1,3,0],[2,0],[0]]","0","0","","","","","","3"
"","","","","","single-stim-button","328","2538612","0.0-4.0-10.1-1.1","55c82012fdf99b02adc2a36e","C3","batch3","tol_toboard","1068","","","","","","","","","","","","","","tol_peg_1","1068","1068","0","[[1,3,0],[0,0],[2]]","2","[[1,3,0],[2,0],[0]]","0","0","","","","","","3"
"","","","","","single-stim-button","329","2539817","0.0-4.0-10.2-0.2","55c82012fdf99b02adc2a36e","C3","batch3","tol_tohand","1205","","","","","","","","","","","","","","tol_peg_3","1205","1205","0","[[1,3,0],[0,0],[0]]","3","[[1,3,0],[2,0],[0]]","0","0","","","","","","3"
"","","","","","single-stim-button","330","2540926","0.0-4.0-10.2-1.2","55c82012fdf99b02adc2a36e","C3","batch3","tol_toboard","1109","","","","","","","","","","","","","","tol_peg_2","1109","1109","0","[[1,3,0],[2,0],[0]]","3","[[1,3,0],[2,0],[0]]","0","0","","","","","","3"
"","","","","","poldrack-single-stim","331","2541934","0.0-4.0-11.0","55c82012fdf99b02adc2a36e","C3","batch3","tol_feedback","-1","","","","","true","","","","","","","","","","1000","1000","500","","","","","","-1","none","true","2300","4751",""
"","","","","","html-button-response","332","2543126","0.0-4.0-12.0","55c82012fdf99b02adc2a36e","C3","batch3","tol_trial_num","1190.9000000953674","<div class = centerbox><p class = center-block-text>problem <strong>2</strong> out of 25 problems</p></div>","0","","","","","","","","","","","","","","","","","","","","","","","","","",""
"","","","","","single-stim-button","333","2549612","0.0-4.0-13.0-0.0","55c82012fdf99b02adc2a36e","C3","batch3","tol_tohand","6485","","","","","","","","","","","","","","tol_peg_1","6485","6485","0","[[1,0,0],[3,0],[0]]","1","[[2,1,3],[0,0],[0]]","1","0","","","","","","5"
"","","","","","single-stim-button","334","2560936","0.0-4.0-13.0-1.0","55c82012fdf99b02adc2a36e","C3","batch3","tol_toboard","11324","","","","","","","","","","","","","","tol_peg_2","11324","11324","0","[[1,0,0],[3,2],[0]]","1","[[2,1,3],[0,0],[0]]","1","0","","","","","","5"
"","","","","","single-stim-button","335","2562940","0.0-4.0-13.1-0.1","55c82012fdf99b02adc2a36e","C3","batch3","tol_tohand","2003","","","","","","","","","","","","","","tol_peg_1","2003","2003","0","[[0,0,0],[3,2],[0]]","2","[[2,1,3],[0,0],[0]]","1","0","","","","","","5"
"","","","","","single-stim-button","336","2564838","0.0-4.0-13.1-1.1","55c82012fdf99b02adc2a36e","C3","batch3","tol_toboard","1897","","","","","","","","","","","","","","tol_peg_3","1897","1897","0","[[0,0,0],[3,2],[1]]","2","[[2,1,3],[0,0],[0]]","1","0","","","","","","5"
"","","","","","single-stim-button","337","2565662","0.0-4.0-13.2-0.2","55c82012fdf99b02adc2a36e","C3","batch3","tol_tohand","823","","","","","","","","","","","","","","tol_peg_2","823","823","0","[[0,0,0],[3,0],[1]]","3","[[2,1,3],[0,0],[0]]","1","0","","","","","","5"
"","","","","","single-stim-button","338","2566657","0.0-4.0-13.2-1.2","55c82012fdf99b02adc2a36e","C3","batch3","tol_toboard","995","","","","","","","","","","","","","","tol_peg_1","995","995","0","[[2,0,0],[3,0],[1]]","3","[[2,1,3],[0,0],[0]]","1","0","","","","","","5"
"","","","","","single-stim-button","339","2567585","0.0-4.0-13.3-0.3","55c82012fdf99b02adc2a36e","C3","batch3","tol_tohand","928","","","","","","","","","","","","","","tol_peg_3","928","928","0","[[2,0,0],[3,0],[0]]","4","[[2,1,3],[0,0],[0]]","1","0","","","","","","5"
"","","","","","single-stim-button","340","2568577","0.0-4.0-13.3-1.3","55c82012fdf99b02adc2a36e","C3","batch3","tol_toboard","992","","","","","","","","","","","","","","tol_peg_1","992","992","0","[[2,1,0],[3,0],[0]]","4","[[2,1,3],[0,0],[0]]","1","0","","","","","","5"
"","","","","","single-stim-button","341","2569849","0.0-4.0-13.4-0.4","55c82012fdf99b02adc2a36e","C3","batch3","tol_tohand","1272","","","","","","","","","","","","","","tol_peg_2","1272","1272","0","[[2,1,0],[0,0],[0]]","5","[[2,1,3],[0,0],[0]]","1","0","","","","","","5"
"","","","","","single-stim-button","342","2570700","0.0-4.0-13.4-1.4","55c82012fdf99b02adc2a36e","C3","batch3","tol_toboard","851","","","","","","","","","","","","","","tol_peg_1","851","851","0","[[2,1,3],[0,0],[0]]","5","[[2,1,3],[0,0],[0]]","1","0","","","","","","5"
"","","","","","poldrack-single-stim","343","2571717","0.0-4.0-14.0","55c82012fdf99b02adc2a36e","C3","batch3","tol_feedback","-1","","","","","true","","","","","","","","","","1000","1000","500","","","","","","-1","none","true","6485","11511",""
"","","","","","html-button-response","344","2572825","0.0-4.0-15.0","55c82012fdf99b02adc2a36e","C3","batch3","tol_trial_num","1105.9000000953674","<div class = centerbox><p class = center-block-text>problem <strong>3</strong> out of 25 problems</p></div>","0","","","","","","","","","","","","","","","","","","","","","","","","","",""
"","","","","","single-stim-button","345","2576523","0.0-4.0-16.0-0.0","55c82012fdf99b02adc2a36e","C3","batch3","tol_tohand","3698","","","","","","","","","","","","","","tol_peg_1","3698","3698","0","[[2,0,0],[0,0],[1]]","1","[[1,2,0],[3,0],[0]]","2","0","","","","","","4"
"","","","","","single-stim-button","346","2577734","0.0-4.0-16.0-1.0","55c82012fdf99b02adc2a36e","C3","batch3","tol_toboard","1211","","","","","","","","","","","","","","tol_peg_2","1211","1211","0","[[2,0,0],[3,0],[1]]","1","[[1,2,0],[3,0],[0]]","2","0","","","","","","4"
