"success","timeout","failed_images","failed_audio","failed_video","trial_type","trial_index","time_elapsed","internal_node_id","subject_id","study_id","session_id","view_history","rt","task","stimulus","response","correct","mouse_click","stim_duration","block_duration","timing_post_trial","current_position","tol_num_moves_made","tol_target","tol_problem_id","tol_rt","key_press","possible_responses","tol_correct","preplanning","tol_rt_per_trial","tol_min_moves","item","answer","spm_correct","spm_rt","fiar_detect_rt","fiar_detect_correct","total_correct_fiar_detect","post_trial_gap","choices"
"true","false","[]","[]","[]","preload","0","762","0.0-0.0","55cb5f66fdf99b2da2a053af","E1","batch5","","","","","","","","","","","","","","","","","","","","","","","","","","","","","",""
"true","","","","","fullscreen","1","27898","0.0-1.0-0.0","55cb5f66fdf99b2da2a053af","E1","batch5","","","","","","","","","","","","","","","","","","","","","","","","","","","","","",""
"true","","","","","fullscreen","2","31102","0.0-2.0-0.0","55cb5f66fdf99b2da2a053af","E1","batch5","","","","","","","","","","","","","","","","","","","","","","","","","","","","","",""
"","","","","","instructions","3","87986","0.0-2.0-1.0-0.0-0.0","55cb5f66fdf99b2da2a053af","E1","batch5","[{""page_index"":0,""viewing_time"":8002.299999952316},{""page_index"":1,""viewing_time"":12527.700000047684},{""page_index"":2,""viewing_time"":6295.899999856949},{""page_index"":3,""viewing_time"":12575.900000095367},{""page_index"":4,""viewing_time"":6928.200000047684},{""page_index"":5,""viewing_time"":6848.099999904633},{""page_index"":6,""viewing_time"":3703.7999999523163}]","56882.09999990463","tol-instructions","","","","","","","","","","","","","","","","","","","","","","","","","","",""
"","","","","","html-button-response","4","89274","0.0-2.0-1.0-1.0-0.0","55cb5f66fdf99b2da2a053af","E1","batch5","","1287.5999999046326","tol_enter_quiz","<p class=block-text> Let's answer a few questions <br>","0","","","","","","","","","","","","","","","","","","","","","","","","",""
"","","","","","html-button-response","5","100378","0.0-2.0-1.0-1.0-1.0","55cb5f66fdf99b2da2a053af","E1","batch5","","11102.5","tol_quiz","<p class = block-text>True or False: You can only move the ball on top of a peg. <br></p>","0","true","","","","","","","","","","","","","","","","","","","","","","","",""
"","","","","","html-button-response","6","101914","0.0-2.0-1.0-1.0-2.0","55cb5f66fdf99b2da2a053af","E1","batch5","","1534.5","tol_quiz_feedback","<p class = block-text>Correct! You can only move the ball on top of a peg.</p>","0","","","","","","","","","","","","","","","","","","","","","","","","",""
"","","","","","html-button-response","7","105482","0.0-2.0-1.0-1.0-3.0","55cb5f66fdf99b2da2a053af","E1","batch5","","3567.399999856949","tol_quiz","<p class = block-text>True or False: You should try to match your board with the target board with fewest moves possible. <br></p>","0","true","","","","","","","","","","","","","","","","","","","","","","","",""
"","","","","","html-button-response","8","106522","0.0-2.0-1.0-1.0-4.0","55cb5f66fdf99b2da2a053af","E1","batch5","","1039","tol_quiz_feedback","<p class = block-text>Correct! </p>","0","","","","","","","","","","","","","","","","","","","","","","","","",""
"","","","","","html-button-response","9","108865","0.0-2.0-2.0","55cb5f66fdf99b2da2a053af","E1","batch5","","2342.5","","<p class=block-text> Now that you've understood the game, let's practice a few easier examples before we start!<br> <br>","0","","","","","","","","","","","","","","","","","","","","","","","","",""
"","","","","","single-stim-button","10","112163","0.0-2.0-3.0-0.0","55cb5f66fdf99b2da2a053af","E1","batch5","","3296","tol_practice","","","","tol_peg_2","3296","3296","0","[[1,2,0],[0,0],[0]]","1","[[1,2,0],[0,0],[3]]","practice","3296","","","","","","","","","","","","","","",""
"","","","","","single-stim-button","11","115834","0.0-2.0-3.0-1.0","55cb5f66fdf99b2da2a053af","E1","batch5","","3671","tol_practice","","","","tol_peg_3","3671","3671","0","[[1,2,0],[0,0],[3]]","1","[[1,2,0],[0,0],[3]]","practice","3671","","","","","","","","","","","","","","",""
"","","","","","poldrack-single-stim","12","116849","0.0-2.0-4.0","55cb5f66fdf99b2da2a053af","E1","batch5","","-1","tol_feedback","","","true","","1000","1000","500","","","","","","-1","none","true","","0","","","","","","","","","",""
"","","","","","single-stim-button","13","119923","0.0-2.0-5.0-0.0","55cb5f66fdf99b2da2a053af","E1","batch5","","3074","tol_practice","","","","tol_peg_1","3074","3074","0","[[1,0,0],[3,0],[0]]","2","[[0,0,0],[3,1],[2]]","practice","3074","","","","","","","","","","","","","","",""
"","","","","","single-stim-button","14","121514","0.0-2.0-5.0-1.0","55cb5f66fdf99b2da2a053af","E1","batch5","","1591","tol_practice","","","","tol_peg_3","1591","1591","0","[[1,0,0],[3,0],[2]]","2","[[0,0,0],[3,1],[2]]","practice","1591","","","","","","","","","","","","","","",""
"","","","","","single-stim-button","15","122418","0.0-2.0-5.1-0.1","55cb5f66fdf99b2da2a053af","E1","batch5","","903","tol_practice","","","","tol_peg_1","903","903","0","[[0,0,0],[3,0],[2]]","3","[[0,0,0],[3,1],[2]]","practice","903","","","","","","","","","","","","","","",""
"","","","","","single-stim-button","16","123082","0.0-2.0-5.1-1.1","55cb5f66fdf99b2da2a053af","E1","batch5","","664","tol_practice","","","","tol_peg_2","664","664","0","[[0,0,0],[3,1],[2]]","3","[[0,0,0],[3,1],[2]]","practice","664","","","","","","","","","","","","","","",""
"","","","","","poldrack-single-stim","17","124088","0.0-2.0-6.0","55cb5f66fdf99b2da2a053af","E1","batch5","","-1","tol_feedback","","","true","","1000","1000","500","","","","","","-1","none","true","","0","","","","","","","","","",""
"","","","","","single-stim-button","18","125986","0.0-2.0-7.0-0.0","55cb5f66fdf99b2da2a053af","E1","batch5","","1896","tol_practice","","","","tol_peg_2","1896","1896","0","[[1,2,0],[0,0],[0]]","4","[[1,0,0],[2,0],[3]]","practice","1896","","","","","","","","","","","","","","",""
"","","","","","single-stim-button","19","126979","0.0-2.0-7.0-1.0","55cb5f66fdf99b2da2a053af","E1","batch5","","992","tol_practice","","","","tol_peg_3","992","992","0","[[1,2,0],[0,0],[3]]","4","[[1,0,0],[2,0],[3]]","practice","992","","","","","","","","","","","","","","",""
"","","","","","single-stim-button","20","127978","0.0-2.0-7.1-0.1","55cb5f66fdf99b2da2a053af","E1","batch5","","999","tol_practice","","","","tol_peg_1","999","999","0","[[1,0,0],[0,0],[3]]","5","[[1,0,0],[2,0],[3]]","practice","999","","","","","","","","","","","","","","",""
"","","","","","single-stim-button","21","129026","0.0-2.0-7.1-1.1","55cb5f66fdf99b2da2a053af","E1","batch5","","1048","tol_practice","","","","tol_peg_2","1048","1048","0","[[1,0,0],[2,0],[3]]","5","[[1,0,0],[2,0],[3]]","practice","1048","","","","","","","","","","","","","","",""
"","","","","","poldrack-single-stim","22","130035","0.0-2.0-8.0","55cb5f66fdf99b2da2a053af","E1","batch5","","-1","tol_feedback","","","true","","1000","1000","500","","","","","","-1","none","true","","0","","","","","","","","","",""
"","","","","","html-button-response","23","133546","0.0-2.0-9.0","55cb5f66fdf99b2da2a053af","E1","batch5","","3509.7000000476837","tol_instruction","<div class = centerbox><p class = center-block-text>Great job! You are done with practice trials<br>You are about to start official trials.<br> <br> Problem <strong>1</strong> out of 25 problems</p></div>","0","","","","","","","","","","","","","","","","","","","","","","","","",""
"","","","","","single-stim-button","24","140370","0.0-2.0-10.0-0.0","55cb5f66fdf99b2da2a053af","E1","batch5","","5816","tol_tohand","","","","tol_peg_2","5816","5816","0","[[1,2,0],[0,0],[0]]","1","[[1,3,0],[2,0],[0]]","0","0","","","","","","3","","","","","","","","",""
"","","","","","single-stim-button","25","141114","0.0-2.0-10.0-1.0","55cb5f66fdf99b2da2a053af","E1","batch5","","744","tol_toboard","","","","tol_peg_3","744","744","0","[[1,2,0],[0,0],[3]]","1","[[1,3,0],[2,0],[0]]","0","0","","","","","","3","","","","","","","","",""
"","","","","","single-stim-button","26","142010","0.0-2.0-10.1-0.1","55cb5f66fdf99b2da2a053af","E1","batch5","","895","tol_tohand","","","","tol_peg_1","895","895","0","[[1,0,0],[0,0],[3]]","2","[[1,3,0],[2,0],[0]]","0","0","","","","","","3","","","","","","","","",""
"","","","","","single-stim-button","27","142866","0.0-2.0-10.1-1.1","55cb5f66fdf99b2da2a053af","E1","batch5","","856","tol_toboard","","","","tol_peg_2","856","856","0","[[1,0,0],[2,0],[3]]","2","[[1,3,0],[2,0],[0]]","0","0","","","","","","3","","","","","","","","",""
"","","","","","single-stim-button","28","143682","0.0-2.0-10.2-0.2","55cb5f66fdf99b2da2a053af","E1","batch5","","816","tol_tohand","","","","tol_peg_3","816","816","0","[[1,0,0],[2,0],[0]]","3","[[1,3,0],[2,0],[0]]","0","0","","","","","","3","","","","","","","","",""
"","","","","","single-stim-button","29","144458","0.0-2.0-10.2-1.2","55cb5f66fdf99b2da2a053af","E1","batch5","","776","tol_toboard","","","","tol_peg_1","776","776","0","[[1,3,0],[2,0],[0]]","3","[[1,3,0],[2,0],[0]]","0","0","","","","","","3","","","","","","","","",""
"","","","","","poldrack-single-stim","30","145460","0.0-2.0-11.0","55cb5f66fdf99b2da2a053af","E1","batch5","","-1","tol_feedback","","","true","","1000","1000","500","","","","","","-1","none","true","5816","7527","","","","","","","","","",""
"","","","","","html-button-response","31","146578","0.0-2.0-12.0","55cb5f66fdf99b2da2a053af","E1","batch5","","1116.5","tol_trial_num","<div class = centerbox><p class = center-block-text>problem <strong>2</strong> out of 25 problems</p></div>","0","","","","","","","","","","","","","","","","","","","","","","","","",""
"","","","","","single-stim-button","32","149249","0.0-2.0-13.0-0.0","55cb5f66fdf99b2da2a053af","E1","batch5","","2671","tol_tohand","","","","tol_peg_1","2671","2671","0","[[1,0,0],[3,0],[0]]","1","[[2,1,3],[0,0],[0]]","1","0","","","","","","5","","","","","","","","",""
"","","","","","single-stim-button","33","154889","0.0-2.0-13.0-1.0","55cb5f66fdf99b2da2a053af","E1","batch5","","5639","tol_toboard","","","","tol_peg_3","5639","5639","0","[[1,0,0],[3,0],[2]]","1","[[2,1,3],[0,0],[0]]","1","0","","","","","","5","","","","","","","","",""
"","","","","","single-stim-button","34","155705","0.0-2.0-13.1-0.1","55cb5f66fdf99b2da2a053af","E1","batch5","","815","tol_tohand","","","","tol_peg_1","815","815","0","[[0,0,0],[3,0],[2]]","2","[[2,1,3],[0,0],[0]]","1","0","","","","","","5","","","","","","","","",""
"","","","","","single-stim-button","35","156322","0.0-2.0-13.1-1.1","55cb5f66fdf99b2da2a053af","E1","batch5","","615","tol_toboard","","","","tol_peg_2","615","615","0","[[0,0,0],[3,1],[2]]","2","[[2,1,3],[0,0],[0]]","1","0","","","","","","5","","","","","","","","",""
"","","","","","single-stim-button","36","157057","0.0-2.0-13.2-0.2","55cb5f66fdf99b2da2a053af","E1","batch5","","735","tol_tohand","","","","tol_peg_3","735","735","0","[[0,0,0],[3,1],[0]]","3","[[2,1,3],[0,0],[0]]","1","0","","","","","","5","","","","","","","","",""
"","","","","","single-stim-button","37","158163","0.0-2.0-13.2-1.2","55cb5f66fdf99b2da2a053af","E1","batch5","","1105","tol_toboard","","","","tol_peg_1","1105","1105","0","[[2,0,0],[3,1],[0]]","3","[[2,1,3],[0,0],[0]]","1","0","","","","","","5","","","","","","","","",""
"","","","","","single-stim-button","38","158729","0.0-2.0-13.3-0.3","55cb5f66fdf99b2da2a053af","E1","batch5","","566","tol_tohand","","","","tol_peg_2","566","566","0","[[2,0,0],[3,0],[0]]","4","[[2,1,3],[0,0],[0]]","1","0","","","","","","5","","","","","","","","",""
"","","","","","single-stim-button","39","159417","0.0-2.0-13.3-1.3","55cb5f66fdf99b2da2a053af","E1","batch5","","687","tol_toboard","","","","tol_peg_1","687","687","0","[[2,1,0],[3,0],[0]]","4","[[2,1,3],[0,0],[0]]","1","0","","","","","","5","","","","","","","","",""
"","","","","","single-stim-button","40","160009","0.0-2.0-13.4-0.4","55cb5f66fdf99b2da2a053af","E1","batch5","","591","tol_tohand","","","","tol_peg_2","591","591","0","[[2,1,0],[0,0],[0]]","5","[[2,1,3],[0,0],[0]]","1","0","","","","","","5","","","","","","","","",""
"","","","","","single-stim-button","41","160523","0.0-2.0-13.4-1.4","55cb5f66fdf99b2da2a053af","E1","batch5","","513","tol_toboard","","","","tol_peg_1","513","513","0","[[2,1,3],[0,0],[0]]","5","[[2,1,3],[0,0],[0]]","1","0","","","","","","5","","","","","","","","",""
"","","","","","poldrack-single-stim","42","161539","0.0-2.0-14.0","55cb5f66fdf99b2da2a053af","E1","batch5","","-1","tol_feedback","","","true","","1000","1000","500","","","","","","-1","none","true","2671","5378","","","","","","","","","",""
"","","","","","html-button-response","43","162665","0.0-2.0-15.0","55cb5f66fdf99b2da2a053af","E1","batch5","","1125.7999999523163","tol_trial_num","<div class = centerbox><p class = center-block-text>problem <strong>3</strong> out of 25 problems</p></div>","0","","","","","","","","","","","","","","","","","","","","","","","","",""
"","","","","","single-stim-button","44","165354","0.0-2.0-16.0-0.0","55cb5f66fdf99b2da2a053af","E1","batch5","","2687","tol_tohand","","","","tol_peg_1","2687","2687","0","[[2,0,0],[0,0],[1]]","1","[[1,2,0],[3,0],[0]]","2","0","","","","","","4","","","","","","","","",""
"","","","","","single-stim-button","45","166866","0.0-2.0-16.0-1.0","55cb5f66fdf99b2da2a053af","E1","batch5","","1512","tol_toboard","","","","tol_peg_2","1512","1512","0","[[2,0,0],[3,0],[1]]","1","[[1,2,0],[3,0],[0]]","2","0","","","","","","4","","","","","","","","",""
"","","","","","single-stim-button","46","168194","0.0-2.0-16.1-0.1","55cb5f66fdf99b2da2a053af","E1","batch5","","1328","tol_tohand","","","","tol_peg_1","1328","1328","0","[[0,0,0],[3,0],[1]]","2","[[1,2,0],[3,0],[0]]","2","0","","","","","","4","","","","","","","","",""
"","","","","","single-stim-button","47","168681","0.0-2.0-16.1-1.1","55cb5f66fdf99b2da2a053af","E1","batch5","","487","tol_toboard","","","","tol_peg_2","487","487","0","[[0,0,0],[3,2],[1]]","2","[[1,2,0],[3,0],[0]]","2","0","","","","","","4","","","","","","","","",""
"","","","","","single-stim-button","48","169161","0.0-2.0-16.2-0.2","55cb5f66fdf99b2da2a053af","E1","batch5","","479","tol_tohand","","","","tol_peg_3","479","479","0","[[0,0,0],[3,2],[0]]","3","[[1,2,0],[3,0],[0]]","2","0","","","","","","4","","","","","","","","",""
"","","","","","single-stim-button","49","170138","0.0-2.0-16.2-1.2","55cb5f66fdf99b2da2a053af","E1","batch5","","975","tol_toboard","","","","tol_peg_1","975","975","0","[[1,0,0],[3,2],[0]]","3","[[1,2,0],[3,0],[0]]","2","0","","","","","","4","","","","","","","","",""
"","","","","","single-stim-button","50","170657","0.0-2.0-16.3-0.3","55cb5f66fdf99b2da2a053af","E1","batch5","","519","tol_tohand","","","","tol_peg_2","519","519","0","[[1,0,0],[3,0],[0]]","4","[[1,2,0],[3,0],[0]]","2","0","","","","","","4","","","","","","","","",""
"","","","","","single-stim-button","51","171441","0.0-2.0-16.3-1.3","55cb5f66fdf99b2da2a053af","E1","batch5","","783","tol_toboard","","","","tol_peg_1","783","783","0","[[1,2,0],[3,0],[0]]","4","[[1,2,0],[3,0],[0]]","2","0","","","","","","4","","","","","","","","",""
"","","","","","poldrack-single-stim","52","172456","0.0-2.0-17.0","55cb5f66fdf99b2da2a053af","E1","batch5","","-1","tol_feedback","","","true","","1000","1000","500","","","","","","-1","none","true","2687","5013","","","","","","","","","",""
"","","","","","html-button-response","53","173426","0.0-2.0-18.0","55cb5f66fdf99b2da2a053af","E1","batch5","","968.7000000476837","tol_trial_num","<div class = centerbox><p class = center-block-text>problem <strong>4</strong> out of 25 problems</p></div>","0","","","","","","","","","","","","","","","","","","","","","","","","",""
"","","","","","single-stim-button","54","177002","0.0-2.0-19.0-0.0","55cb5f66fdf99b2da2a053af","E1","batch5","","3575","tol_tohand","","","","tol_peg_2","3575","3575","0","[[3,0,0],[2,0],[0]]","1","[[3,0,0],[1,0],[2]]","3","0","","","","","","3","","","","","","","","",""
"","","","","","single-stim-button","55","177769","0.0-2.0-19.0-1.0","55cb5f66fdf99b2da2a053af","E1","batch5","","767","tol_toboard","","","","tol_peg_1","767","767","0","[[3,1,0],[2,0],[0]]","1","[[3,0,0],[1,0],[2]]","3","0","","","","","","3","","","","","","","","",""
"","","","","","single-stim-button","56","178385","0.0-2.0-19.1-0.1","55cb5f66fdf99b2da2a053af","E1","batch5","","615","tol_tohand","","","","tol_peg_2","615","615","0","[[3,1,0],[0,0],[0]]","2","[[3,0,0],[1,0],[2]]","3","0","","","","","","3","","","","","","","","",""
"","","","","","single-stim-button","57","178977","0.0-2.0-19.1-1.1","55cb5f66fdf99b2da2a053af","E1","batch5","","592","tol_toboard","","","","tol_peg_3","592","592","0","[[3,1,0],[0,0],[2]]","2","[[3,0,0],[1,0],[2]]","3","0","","","","","","3","","","","","","","","",""
"","","","","","single-stim-button","58","179787","0.0-2.0-19.2-0.2","55cb5f66fdf99b2da2a053af","E1","batch5","","808","tol_tohand","","","","tol_peg_1","808","808","0","[[3,0,0],[0,0],[2]]","3","[[3,0,0],[1,0],[2]]","3","0","","","","","","3","","","","","","","","",""
"","","","","","single-stim-button","59","180385","0.0-2.0-19.2-1.2","55cb5f66fdf99b2da2a053af","E1","batch5","","598","tol_toboard","","","","tol_peg_2","598","598","0","[[3,0,0],[1,0],[2]]","3","[[3,0,0],[1,0],[2]]","3","0","","","","","","3","","","","","","","","",""
"","","","","","poldrack-single-stim","60","181395","0.0-2.0-20.0","55cb5f66fdf99b2da2a053af","E1","batch5","","-1","tol_feedback","","","true","","1000","1000","500","","","","","","-1","none","true","3575","4998","","","","","","","","","",""
"","","","","","html-button-response","61","182242","0.0-2.0-21.0","55cb5f66fdf99b2da2a053af","E1","batch5","","845.2999999523163","tol_trial_num","<div class = centerbox><p class = center-block-text>problem <strong>5</strong> out of 25 problems</p></div>","0","","","","","","","","","","","","","","","","","","","","","","","","",""
"","","","","","single-stim-button","62","184361","0.0-2.0-22.0-0.0","55cb5f66fdf99b2da2a053af","E1","batch5","","2119","tol_tohand","","","","tol_peg_2","2119","2119","0","[[1,0,0],[0,0],[3]]","1","[[0,0,0],[1,2],[3]]","4","0","","","","","","7","","","","","","","","",""
"","","","","","single-stim-button","63","193866","0.0-2.0-22.0-1.0","55cb5f66fdf99b2da2a053af","E1","batch5","","9504","tol_toboard","","","","tol_peg_1","9504","9504","0","[[1,2,0],[0,0],[3]]","1","[[0,0,0],[1,2],[3]]","4","0","","","","","","7","","","","","","","","",""
"","","","","","single-stim-button","64","194553","0.0-2.0-22.1-0.1","55cb5f66fdf99b2da2a053af","E1","batch5","","687","tol_tohand","","","","tol_peg_3","687","687","0","[[1,2,0],[0,0],[0]]","2","[[0,0,0],[1,2],[3]]","4","0","","","","","","7","","","","","","","","",""
"","","","","","single-stim-button","65","195497","0.0-2.0-22.1-1.1","55cb5f66fdf99b2da2a053af","E1","batch5","","943","tol_toboard","","","","tol_peg_2","943","943","0","[[1,2,0],[3,0],[0]]","2","[[0,0,0],[1,2],[3]]","4","0","","","","","","7","","","","","","","","",""
"","","","","","single-stim-button","66","202802","0.0-2.0-22.2-0.2","55cb5f66fdf99b2da2a053af","E1","batch5","","7304","tol_tohand","","","","tol_peg_1","7304","7304","0","[[1,0,0],[3,0],[0]]","3","[[0,0,0],[1,2],[3]]","4","0","","","","","","7","","","","","","","","",""
"","","","","","single-stim-button","67","203506","0.0-2.0-22.2-1.2","55cb5f66fdf99b2da2a053af","E1","batch5","","704","tol_toboard","","","","tol_peg_2","704","704","0","[[1,0,0],[3,2],[0]]","3","[[0,0,0],[1,2],[3]]","4","0","","","","","","7","","","","","","","","",""
"","","","","","single-stim-button","68","204265","0.0-2.0-22.3-0.3","55cb5f66fdf99b2da2a053af","E1","batch5","","759","tol_tohand","","","","tol_peg_1","759","759","0","[[0,0,0],[3,2],[0]]","4","[[0,0,0],[1,2],[3]]","4","0","","","","","","7","","","","","","","","",""
"","","","","","single-stim-button","69","204921","0.0-2.0-22.3-1.3","55cb5f66fdf99b2da2a053af","E1","batch5","","655","tol_toboard","","","","tol_peg_3","655","655","0","[[0,0,0],[3,2],[1]]","4","[[0,0,0],[1,2],[3]]","4","0","","","","","","7","","","","","","","","",""
"","","","","","single-stim-button","70","208018","0.0-2.0-22.4-0.4","55cb5f66fdf99b2da2a053af","E1","batch5","","3096","tol_tohand","","","","tol_peg_2","3096","3096","0","[[0,0,0],[3,0],[1]]","5","[[0,0,0],[1,2],[3]]","4","0","","","","","","7","","","","","","","","",""
"","","","","","single-stim-button","71","209978","0.0-2.0-22.4-1.4","55cb5f66fdf99b2da2a053af","E1","batch5","","1959","tol_toboard","","","","tol_peg_1","1959","1959","0","[[2,0,0],[3,0],[1]]","5","[[0,0,0],[1,2],[3]]","4","0","","","","","","7","","","","","","","","",""
"","","","","","single-stim-button","72","211226","0.0-2.0-22.5-0.5","55cb5f66fdf99b2da2a053af","E1","batch5","","1248","tol_tohand","","","","tol_peg_2","1248","1248","0","[[2,0,0],[0,0],[1]]","6","[[0,0,0],[1,2],[3]]","4","0","","","","","","7","","","","","","","","",""
"","","","","","single-stim-button","73","213906","0.0-2.0-22.5-1.5","55cb5f66fdf99b2da2a053af","E1","batch5","","2680","tol_toboard","","","","tol_peg_1","2680","2680","0","[[2,3,0],[0,0],[1]]","6","[[0,0,0],[1,2],[3]]","4","0","","","","","","7","","","","","","","","",""
"","","","","","single-stim-button","74","214602","0.0-2.0-22.6-0.6","55cb5f66fdf99b2da2a053af","E1","batch5","","696","tol_tohand","","","","tol_peg_3","696","696","0","[[2,3,0],[0,0],[0]]","7","[[0,0,0],[1,2],[3]]","4","0","","","","","","7","","","","","","","","",""
"","","","","","single-stim-button","75","215202","0.0-2.0-22.6-1.6","55cb5f66fdf99b2da2a053af","E1","batch5","","600","tol_toboard","","","","tol_peg_2","600","600","0","[[2,3,0],[1,0],[0]]","7","[[0,0,0],[1,2],[3]]","4","0","","","","","","7","","","","","","","","",""
"","","","","","single-stim-button","76","216250","0.0-2.0-22.7-0.7","55cb5f66fdf99b2da2a053af","E1","batch5","","1048","tol_tohand","","","","tol_peg_1","1048","1048","0","[[2,0,0],[1,0],[0]]","8","[[0,0,0],[1,2],[3]]","4","0","","","","","","7","","","","","","","","",""
"","","","","","single-stim-button","77","217002","0.0-2.0-22.7-1.7","55cb5f66fdf99b2da2a053af","E1","batch5","","752","tol_toboard","","","","tol_peg_3","752","752","0","[[2,0,0],[1,0],[3]]","8","[[0,0,0],[1,2],[3]]","4","0","","","","","","7","","","","","","","","",""
"","","","","","single-stim-button","78","217882","0.0-2.0-22.8-0.8","55cb5f66fdf99b2da2a053af","E1","batch5","","880","tol_tohand","","","","tol_peg_1","880","880","0","[[0,0,0],[1,0],[3]]","9","[[0,0,0],[1,2],[3]]","4","0","","","","","","7","","","","","","","","",""
"","","","","","single-stim-button","79","218610","0.0-2.0-22.8-1.8","55cb5f66fdf99b2da2a053af","E1","batch5","","728","tol_toboard","","","","tol_peg_2","728","728","0","[[0,0,0],[1,2],[3]]","9","[[0,0,0],[1,2],[3]]","4","0","","","","","","7","","","","","","","","",""
"","","","","","poldrack-single-stim","80","219611","0.0-2.0-23.0","55cb5f66fdf99b2da2a053af","E1","batch5","","-1","tol_feedback","","","true","","1000","1000","500","","","","","","-1","none","true","2119","17837","","","","","","","","","",""
"","","","","","html-button-response","81","220482","0.0-2.0-24.0","55cb5f66fdf99b2da2a053af","E1","batch5","","869.6999998092651","tol_trial_num","<div class = centerbox><p class = center-block-text>problem <strong>6</strong> out of 25 problems</p></div>","0","","","","","","","","","","","","","","","","","","","","","","","","",""
"","","","","","single-stim-button","82","233258","0.0-2.0-25.0-0.0","55cb5f66fdf99b2da2a053af","E1","batch5","","12776","tol_tohand","","","","tol_peg_3","12776","12776","0","[[0,0,0],[1,2],[0]]","1","[[1,0,0],[2,3],[0]]","5","0","","","","","","6","","","","","","","","",""
"","","","","","single-stim-button","83","234266","0.0-2.0-25.0-1.0","55cb5f66fdf99b2da2a053af","E1","batch5","","1007","tol_toboard","","","","tol_peg_1","1007","1007","0","[[3,0,0],[1,2],[0]]","1","[[1,0,0],[2,3],[0]]","5","0","","","","","","6","","","","","","","","",""
"","","","","","single-stim-button","84","236218","0.0-2.0-25.1-0.1","55cb5f66fdf99b2da2a053af","E1","batch5","","1952","tol_tohand","","","","tol_peg_2","1952","1952","0","[[3,0,0],[1,0],[0]]","2","[[1,0,0],[2,3],[0]]","5","0","","","","","","6","","","","","","","","",""
"","","","","","single-stim-button","85","239131","0.0-2.0-25.1-1.1","55cb5f66fdf99b2da2a053af","E1","batch5","","2912","tol_toboard","","","","tol_peg_1","2912","2912","0","[[3,2,0],[1,0],[0]]","2","[[1,0,0],[2,3],[0]]","5","0","","","","","","6","","","","","","","","",""
"","","","","","single-stim-button","86","239954","0.0-2.0-25.2-0.2","55cb5f66fdf99b2da2a053af","E1","batch5","","823","tol_tohand","","","","tol_peg_2","823","823","0","[[3,2,0],[0,0],[0]]","3","[[1,0,0],[2,3],[0]]","5","0","","","","","","6","","","","","","","","",""
"","","","","","single-stim-button","87","240634","0.0-2.0-25.2-1.2","55cb5f66fdf99b2da2a053af","E1","batch5","","680","tol_toboard","","","","tol_peg_3","680","680","0","[[3,2,0],[0,0],[1]]","3","[[1,0,0],[2,3],[0]]","5","0","","","","","","6","","","","","","","","",""
"","","","","","single-stim-button","88","241314","0.0-2.0-25.3-0.3","55cb5f66fdf99b2da2a053af","E1","batch5","","680","tol_tohand","","","","tol_peg_1","680","680","0","[[3,0,0],[0,0],[1]]","4","[[1,0,0],[2,3],[0]]","5","0","","","","","","6","","","","","","","","",""
"","","","","","single-stim-button","89","241978","0.0-2.0-25.3-1.3","55cb5f66fdf99b2da2a053af","E1","batch5","","663","tol_toboard","","","","tol_peg_2","663","663","0","[[3,0,0],[2,0],[1]]","4","[[1,0,0],[2,3],[0]]","5","0","","","","","","6","","","","","","","","",""
"","","","","","single-stim-button","90","242562","0.0-2.0-25.4-0.4","55cb5f66fdf99b2da2a053af","E1","batch5","","584","tol_tohand","","","","tol_peg_1","584","584","0","[[0,0,0],[2,0],[1]]","5","[[1,0,0],[2,3],[0]]","5","0","","","","","","6","","","","","","","","",""
"","","","","","single-stim-button","91","243082","0.0-2.0-25.4-1.4","55cb5f66fdf99b2da2a053af","E1","batch5","","520","tol_toboard","","","","tol_peg_2","520","520","0","[[0,0,0],[2,3],[1]]","5","[[1,0,0],[2,3],[0]]","5","0","","","","","","6","","","","","","","","",""
"","","","","","single-stim-button","92","243562","0.0-2.0-25.5-0.5","55cb5f66fdf99b2da2a053af","E1","batch5","","480","tol_tohand","","","","tol_peg_3","480","480","0","[[0,0,0],[2,3],[0]]","6","[[1,0,0],[2,3],[0]]","5","0","","","","","","6","","","","","","","","",""
"","","","","","single-stim-button","93","244273","0.0-2.0-25.5-1.5","55cb5f66fdf99b2da2a053af","E1","batch5","","711","tol_toboard","","","","tol_peg_1","711","711","0","[[1,0,0],[2,3],[0]]","6","[[1,0,0],[2,3],[0]]","5","0","","","","","","6","","","","","","","","",""
"","","","","","poldrack-single-stim","94","245281","0.0-2.0-26.0","55cb5f66fdf99b2da2a053af","E1","batch5","","-1","tol_feedback","","","true","","1000","1000","500","","","","","","-1","none","true","12776","17295","","","","","","","","","",""
"","","","","","html-button-response","95","246331","0.0-2.0-27.0","55cb5f66fdf99b2da2a053af","E1","batch5","","1049.2000000476837","tol_trial_num","<div class = centerbox><p class = center-block-text>problem <strong>7</strong> out of 25 problems</p></div>","0","","","","","","","","","","","","","","","","","","","","","","","","",""
"","","","","","single-stim-button","96","251531","0.0-2.0-28.0-0.0","55cb5f66fdf99b2da2a053af","E1","batch5","","5200","tol_tohand","","","","tol_peg_3","5200","5200","0","[[2,1,0],[0,0],[0]]","1","[[1,2,0],[3,0],[0]]","6","0","","","","","","5","","","","","","","","",""
"","","","","","single-stim-button","97","252298","0.0-2.0-28.0-1.0","55cb5f66fdf99b2da2a053af","E1","batch5","","766","tol_toboard","","","","tol_peg_2","766","766","0","[[2,1,0],[3,0],[0]]","1","[[1,2,0],[3,0],[0]]","6","0","","","","","","5","","","","","","","","",""
"","","","","","single-stim-button","98","253257","0.0-2.0-28.1-0.1","55cb5f66fdf99b2da2a053af","E1","batch5","","959","tol_tohand","","","","tol_peg_1","959","959","0","[[2,0,0],[3,0],[0]]","2","[[1,2,0],[3,0],[0]]","6","0","","","","","","5","","","","","","","","",""
"","","","","","single-stim-button","99","253978","0.0-2.0-28.1-1.1","55cb5f66fdf99b2da2a053af","E1","batch5","","720","tol_toboard","","","","tol_peg_3","720","720","0","[[2,0,0],[3,0],[1]]","2","[[1,2,0],[3,0],[0]]","6","0","","","","","","5","","","","","","","","",""
"","","","","","single-stim-button","100","254578","0.0-2.0-28.2-0.2","55cb5f66fdf99b2da2a053af","E1","batch5","","600","tol_tohand","","","","tol_peg_1","600","600","0","[[0,0,0],[3,0],[1]]","3","[[1,2,0],[3,0],[0]]","6","0","","","","","","5","","","","","","","","",""
"","","","","","single-stim-button","101","255106","0.0-2.0-28.2-1.2","55cb5f66fdf99b2da2a053af","E1","batch5","","527","tol_toboard","","","","tol_peg_2","527","527","0","[[0,0,0],[3,2],[1]]","3","[[1,2,0],[3,0],[0]]","6","0","","","","","","5","","","","","","","","",""
"","","","","","single-stim-button","102","255898","0.0-2.0-28.3-0.3","55cb5f66fdf99b2da2a053af","E1","batch5","","792","tol_tohand","","","","tol_peg_3","792","792","0","[[0,0,0],[3,2],[0]]","4","[[1,2,0],[3,0],[0]]","6","0","","","","","","5","","","","","","","","",""
"","","","","","single-stim-button","103","256818","0.0-2.0-28.3-1.3","55cb5f66fdf99b2da2a053af","E1","batch5","","920","tol_toboard","","","","tol_peg_1","920","920","0","[[1,0,0],[3,2],[0]]","4","[[1,2,0],[3,0],[0]]","6","0","","","","","","5","","","","","","","","",""
"","","","","","single-stim-button","104","257394","0.0-2.0-28.4-0.4","55cb5f66fdf99b2da2a053af","E1","batch5","","575","tol_tohand","","","","tol_peg_2","575","575","0","[[1,0,0],[3,0],[0]]","5","[[1,2,0],[3,0],[0]]","6","0","","","","","","5","","","","","","","","",""
"","","","","","single-stim-button","105","258682","0.0-2.0-28.4-1.4","55cb5f66fdf99b2da2a053af","E1","batch5","","1288","tol_toboard","","","","tol_peg_1","1288","1288","0","[[1,2,0],[3,0],[0]]","5","[[1,2,0],[3,0],[0]]","6","0","","","","","","5","","","","","","","","",""
"","","","","","poldrack-single-stim","106","259686","0.0-2.0-29.0","55cb5f66fdf99b2da2a053af","E1","batch5","","-1","tol_feedback","","","true","","1000","1000","500","","","","","","-1","none","true","5200","8126","","","","","","","","","",""
"","","","","","html-button-response","107","260522","0.0-2.0-30.0","55cb5f66fdf99b2da2a053af","E1","batch5","","834.2000000476837","tol_trial_num","<div class = centerbox><p class = center-block-text>problem <strong>8</strong> out of 25 problems</p></div>","0","","","","","","","","","","","","","","","","","","","","","","","","",""
"","","","","","single-stim-button","108","263418","0.0-2.0-31.0-0.0","55cb5f66fdf99b2da2a053af","E1","batch5","","2896","tol_tohand","","","","tol_peg_3","2896","2896","0","[[0,0,0],[2,3],[0]]","1","[[1,2,0],[3,0],[0]]","7","0","","","","","","4","","","","","","","","",""
"","","","","","single-stim-button","109","264482","0.0-2.0-31.0-1.0","55cb5f66fdf99b2da2a053af","E1","batch5","","1064","tol_toboard","","","","tol_peg_1","1064","1064","0","[[1,0,0],[2,3],[0]]","1","[[1,2,0],[3,0],[0]]","7","0","","","","","","4","","","","","","","","",""
"","","","","","single-stim-button","110","265154","0.0-2.0-31.1-0.1","55cb5f66fdf99b2da2a053af","E1","batch5","","672","tol_tohand","","","","tol_peg_2","672","672","0","[[1,0,0],[2,0],[0]]","2","[[1,2,0],[3,0],[0]]","7","0","","","","","","4","","","","","","","","",""
"","","","","","single-stim-button","111","265970","0.0-2.0-31.1-1.1","55cb5f66fdf99b2da2a053af","E1","batch5","","816","tol_toboard","","","","tol_peg_3","816","816","0","[[1,0,0],[2,0],[3]]","2","[[1,2,0],[3,0],[0]]","7","0","","","","","","4","","","","","","","","",""
"","","","","","single-stim-button","112","266450","0.0-2.0-31.2-0.2","55cb5f66fdf99b2da2a053af","E1","batch5","","480","tol_tohand","","","","tol_peg_2","480","480","0","[[1,0,0],[0,0],[3]]","3","[[1,2,0],[3,0],[0]]","7","0","","","","","","4","","","","","","","","",""
"","","","","","single-stim-button","113","267138","0.0-2.0-31.2-1.2","55cb5f66fdf99b2da2a053af","E1","batch5","","688","tol_toboard","","","","tol_peg_1","688","688","0","[[1,2,0],[0,0],[3]]","3","[[1,2,0],[3,0],[0]]","7","0","","","","","","4","","","","","","","","",""
"","","","","","single-stim-button","114","267946","0.0-2.0-31.3-0.3","55cb5f66fdf99b2da2a053af","E1","batch5","","808","tol_tohand","","","","tol_peg_3","808","808","0","[[1,2,0],[0,0],[0]]","4","[[1,2,0],[3,0],[0]]","7","0","","","","","","4","","","","","","","","",""
"","","","","","single-stim-button","115","268650","0.0-2.0-31.3-1.3","55cb5f66fdf99b2da2a053af","E1","batch5","","703","tol_toboard","","","","tol_peg_2","703","703","0","[[1,2,0],[3,0],[0]]","4","[[1,2,0],[3,0],[0]]","7","0","","","","","","4","","","","","","","","",""
"","","","","","poldrack-single-stim","116","269659","0.0-2.0-32.0","55cb5f66fdf99b2da2a053af","E1","batch5","","-1","tol_feedback","","","true","","1000","1000","500","","","","","","-1","none","true","2896","4856","","","","","","","","","",""
"","","","","","html-button-response","117","270522","0.0-2.0-33.0","55cb5f66fdf99b2da2a053af","E1","batch5","","861.2000000476837","tol_trial_num","<div class = centerbox><p class = center-block-text>problem <strong>9</strong> out of 25 problems</p></div>","0","","","","","","","","","","","","","","","","","","","","","","","","",""
"","","","","","single-stim-button","118","274826","0.0-2.0-34.0-0.0","55cb5f66fdf99b2da2a053af","E1","batch5","","4304","tol_tohand","","","","tol_peg_3","4304","4304","0","[[3,2,0],[0,0],[0]]","1","[[2,1,0],[3,0],[0]]","8","0","","","","","","6","","","","","","","","",""
"","","","","","single-stim-button","119","275698","0.0-2.0-34.0-1.0","55cb5f66fdf99b2da2a053af","E1","batch5","","870","tol_toboard","","","","tol_peg_2","870","870","0","[[3,2,0],[1,0],[0]]","1","[[2,1,0],[3,0],[0]]","8","0","","","","","","6","","","","","","","","",""
"","","","","","single-stim-button","120","276442","0.0-2.0-34.1-0.1","55cb5f66fdf99b2da2a053af","E1","batch5","","744","tol_tohand","","","","tol_peg_1","744","744","0","[[3,0,0],[1,0],[0]]","2","[[2,1,0],[3,0],[0]]","8","0","","","","","","6","","","","","","","","",""
"","","","","","single-stim-button","121","277042","0.0-2.0-34.1-1.1","55cb5f66fdf99b2da2a053af","E1","batch5","","600","tol_toboard","","","","tol_peg_3","600","600","0","[[3,0,0],[1,0],[2]]","2","[[2,1,0],[3,0],[0]]","8","0","","","","","","6","","","","","","","","",""
"","","","","","single-stim-button","122","277618","0.0-2.0-34.2-0.2","55cb5f66fdf99b2da2a053af","E1","batch5","","575","tol_tohand","","","","tol_peg_1","575","575","0","[[0,0,0],[1,0],[2]]","3","[[2,1,0],[3,0],[0]]","8","0","","","","","","6","","","","","","","","",""
"","","","","","single-stim-button","123","278057","0.0-2.0-34.2-1.2","55cb5f66fdf99b2da2a053af","E1","batch5","","439","tol_toboard","","","","tol_peg_2","439","439","0","[[0,0,0],[1,3],[2]]","3","[[2,1,0],[3,0],[0]]","8","0","","","","","","6","","","","","","","","",""
"","","","","","single-stim-button","124","278681","0.0-2.0-34.3-0.3","55cb5f66fdf99b2da2a053af","E1","batch5","","623","tol_tohand","","","","tol_peg_3","623","623","0","[[0,0,0],[1,3],[0]]","4","[[2,1,0],[3,0],[0]]","8","0","","","","","","6","","","","","","","","",""
"","","","","","single-stim-button","125","279746","0.0-2.0-34.3-1.3","55cb5f66fdf99b2da2a053af","E1","batch5","","1063","tol_toboard","","","","tol_peg_1","1063","1063","0","[[2,0,0],[1,3],[0]]","4","[[2,1,0],[3,0],[0]]","8","0","","","","","","6","","","","","","","","",""
"","","","","","single-stim-button","126","280329","0.0-2.0-34.4-0.4","55cb5f66fdf99b2da2a053af","E1","batch5","","583","tol_tohand","","","","tol_peg_2","583","583","0","[[2,0,0],[1,0],[0]]","5","[[2,1,0],[3,0],[0]]","8","0","","","","","","6","","","","","","","","",""
"","","","","","single-stim-button","127","281178","0.0-2.0-34.4-1.4","55cb5f66fdf99b2da2a053af","E1","batch5","","847","tol_toboard","","","","tol_peg_3","847","847","0","[[2,0,0],[1,0],[3]]","5","[[2,1,0],[3,0],[0]]","8","0","","","","","","6","","","","","","","","",""
"","","","","","single-stim-button","128","281706","0.0-2.0-34.5-0.5","55cb5f66fdf99b2da2a053af","E1","batch5","","528","tol_tohand","","","","tol_peg_2","528","528","0","[[2,0,0],[0,0],[3]]","6","[[2,1,0],[3,0],[0]]","8","0","","","","","","6","","","","","","","","",""
"","","","","","single-stim-button","129","282370","0.0-2.0-34.5-1.5","55cb5f66fdf99b2da2a053af","E1","batch5","","663","tol_toboard","","","","tol_peg_1","663","663","0","[[2,1,0],[0,0],[3]]","6","[[2,1,0],[3,0],[0]]","8","0","","","","","","6","","","","","","","","",""
"","","","","","single-stim-button","130","282937","0.0-2.0-34.6-0.6","55cb5f66fdf99b2da2a053af","E1","batch5","","567","tol_tohand","","","","tol_peg_3","567","567","0","[[2,1,0],[0,0],[0]]","7","[[2,1,0],[3,0],[0]]","8","0","","","","","","6","","","","","","","","",""
"","","","","","single-stim-button","131","283778","0.0-2.0-34.6-1.6","55cb5f66fdf99b2da2a053af","E1","batch5","","839","tol_toboard","","","","tol_peg_2","839","839","0","[[2,1,0],[3,0],[0]]","7","[[2,1,0],[3,0],[0]]","8","0","","","","","","6","","","","","","","","",""
"","","","","","poldrack-single-stim","132","284788","0.0-2.0-35.0","55cb5f66fdf99b2da2a053af","E1","batch5","","-1","tol_feedback","","","true","","1000","1000","500","","","","","","-1","none","true","4304","7924","","","","","","","","","",""
"","","","","","html-button-response","133","286066","0.0-2.0-36.0","55cb5f66fdf99b2da2a053af","E1","batch5","","1276.7999999523163","tol_trial_num","<div class = centerbox><p class = center-block-text>problem <strong>10</strong> out of 25 problems</p></div>","0","","","","","","","","","","","","","","","","","","","","","","","","",""
"","","","","","single-stim-button","134","289282","0.0-2.0-37.0-0.0","55cb5f66fdf99b2da2a053af","E1","batch5","","3215","tol_tohand","","","","tol_peg_2","3215","3215","0","[[3,0,0],[0,0],[2]]","1","[[3,0,0],[2,1],[0]]","9","0","","","","","","3","","","","","","","","",""
"","","","","","single-stim-button","135","290089","0.0-2.0-37.0-1.0","55cb5f66fdf99b2da2a053af","E1","batch5","","807","tol_toboard","","","","tol_peg_1","807","807","0","[[3,1,0],[0,0],[2]]","1","[[3,0,0],[2,1],[0]]","9","0","","","","","","3","","","","","","","","",""
"","","","","","single-stim-button","136","290754","0.0-2.0-37.1-0.1","55cb5f66fdf99b2da2a053af","E1","batch5","","663","tol_tohand","","","","tol_peg_3","663","663","0","[[3,1,0],[0,0],[0]]","2","[[3,0,0],[2,1],[0]]","9","0","","","","","","3","","","","","","","","",""
"","","","","","single-stim-button","137","291282","0.0-2.0-37.1-1.1","55cb5f66fdf99b2da2a053af","E1","batch5","","527","tol_toboard","","","","tol_peg_2","527","527","0","[[3,1,0],[2,0],[0]]","2","[[3,0,0],[2,1],[0]]","9","0","","","","","","3","","","","","","","","",""
"","","","","","single-stim-button","138","291849","0.0-2.0-37.2-0.2","55cb5f66fdf99b2da2a053af","E1","batch5","","567","tol_tohand","","","","tol_peg_1","567","567","0","[[3,0,0],[2,0],[0]]","3","[[3,0,0],[2,1],[0]]","9","0","","","","","","3","","","","","","","","",""
"","","","","","single-stim-button","139","292450","0.0-2.0-37.2-1.2","55cb5f66fdf99b2da2a053af","E1","batch5","","599","tol_toboard","","","","tol_peg_2","599","599","0","[[3,0,0],[2,1],[0]]","3","[[3,0,0],[2,1],[0]]","9","0","","","","","","3","","","","","","","","",""
"","","","","","poldrack-single-stim","140","293455","0.0-2.0-38.0","55cb5f66fdf99b2da2a053af","E1","batch5","","-1","tol_feedback","","","true","","1000","1000","500","","","","","","-1","none","true","3215","4445","","","","","","","","","",""
"","","","","","html-button-response","141","294178","0.0-2.0-39.0","55cb5f66fdf99b2da2a053af","E1","batch5","","722.5","tol_trial_num","<div class = centerbox><p class = center-block-text>problem <strong>11</strong> out of 25 problems</p></div>","0","","","","","","","","","","","","","","","","","","","","","","","","",""
"","","","","","single-stim-button","142","300666","0.0-2.0-40.0-0.0","55cb5f66fdf99b2da2a053af","E1","batch5","","6487","tol_tohand","","","","tol_peg_1","6487","6487","0","[[1,0,0],[3,0],[0]]","1","[[2,0,0],[1,3],[0]]","10","0","","","","","","6","","","","","","","","",""
"","","","","","single-stim-button","143","301185","0.0-2.0-40.0-1.0","55cb5f66fdf99b2da2a053af","E1","batch5","","519","tol_toboard","","","","tol_peg_2","519","519","0","[[1,0,0],[3,2],[0]]","1","[[2,0,0],[1,3],[0]]","10","0","","","","","","6","","","","","","","","",""
"","","","","","single-stim-button","144","301674","0.0-2.0-40.1-0.1","55cb5f66fdf99b2da2a053af","E1","batch5","","487","tol_tohand","","","","tol_peg_1","487","487","0","[[0,0,0],[3,2],[0]]","2","[[2,0,0],[1,3],[0]]","10","0","","","","","","6","","","","","","","","",""
"","","","","","single-stim-button","145","302401","0.0-2.0-40.1-1.1","55cb5f66fdf99b2da2a053af","E1","batch5","","727","tol_toboard","","","","tol_peg_3","727","727","0","[[0,0,0],[3,2],[1]]","2","[[2,0,0],[1,3],[0]]","10","0","","","","","","6","","","","","","","","",""
"","","","","","single-stim-button","146","302962","0.0-2.0-40.2-0.2","55cb5f66fdf99b2da2a053af","E1","batch5","","559","tol_tohand","","","","tol_peg_2","559","559","0","[[0,0,0],[3,0],[1]]","3","[[2,0,0],[1,3],[0]]","10","0","","","","","","6","","","","","","","","",""
"","","","","","single-stim-button","147","304130","0.0-2.0-40.2-1.2","55cb5f66fdf99b2da2a053af","E1","batch5","","1167","tol_toboard","","","","tol_peg_1","1167","1167","0","[[2,0,0],[3,0],[1]]","3","[[2,0,0],[1,3],[0]]","10","0","","","","","","6","","","","","","","","",""
"","","","","","single-stim-button","148","304601","0.0-2.0-40.3-0.3","55cb5f66fdf99b2da2a053af","E1","batch5","","471","tol_tohand","","","","tol_peg_2","471","471","0","[[2,0,0],[0,0],[1]]","4","[[2,0,0],[1,3],[0]]","10","0","","","","","","6","","","","","","","","",""
"","","","","","single-stim-button","149","305105","0.0-2.0-40.3-1.3","55cb5f66fdf99b2da2a053af","E1","batch5","","503","tol_toboard","","","","tol_peg_1","503","503","0","[[2,3,0],[0,0],[1]]","4","[[2,0,0],[1,3],[0]]","10","0","","","","","","6","","","","","","","","",""
"","","","","","single-stim-button","150","305634","0.0-2.0-40.4-0.4","55cb5f66fdf99b2da2a053af","E1","batch5","","528","tol_tohand","","","","tol_peg_3","528","528","0","[[2,3,0],[0,0],[0]]","5","[[2,0,0],[1,3],[0]]","10","0","","","","","","6","","","","","","","","",""
"","","","","","single-stim-button","151","306154","0.0-2.0-40.4-1.4","55cb5f66fdf99b2da2a053af","E1","batch5","","519","tol_toboard","","","","tol_peg_2","519","519","0","[[2,3,0],[1,0],[0]]","5","[[2,0,0],[1,3],[0]]","10","0","","","","","","6","","","","","","","","",""
"","","","","","single-stim-button","152","307601","0.0-2.0-40.5-0.5","55cb5f66fdf99b2da2a053af","E1","batch5","","1447","tol_tohand","","","","tol_peg_1","1447","1447","0","[[2,0,0],[1,0],[0]]","6","[[2,0,0],[1,3],[0]]","10","0","","","","","","6","","","","","","","","",""
"","","","","","single-stim-button","153","308377","0.0-2.0-40.5-1.5","55cb5f66fdf99b2da2a053af","E1","batch5","","775","tol_toboard","","","","tol_peg_2","775","775","0","[[2,0,0],[1,3],[0]]","6","[[2,0,0],[1,3],[0]]","10","0","","","","","","6","","","","","","","","",""
"","","","","","poldrack-single-stim","154","309378","0.0-2.0-41.0","55cb5f66fdf99b2da2a053af","E1","batch5","","-1","tol_feedback","","","true","","1000","1000","500","","","","","","-1","none","true","6487","9979","","","","","","","","","",""
"","","","","","html-button-response","155","310002","0.0-2.0-42.0","55cb5f66fdf99b2da2a053af","E1","batch5","","621.8999998569489","tol_trial_num","<div class = centerbox><p class = center-block-text>problem <strong>12</strong> out of 25 problems</p></div>","0","","","","","","","","","","","","","","","","","","","","","","","","",""
"","","","","","single-stim-button","156","315801","0.0-2.0-43.0-0.0","55cb5f66fdf99b2da2a053af","E1","batch5","","5799","tol_tohand","","","","tol_peg_2","5799","5799","0","[[1,2,0],[0,0],[0]]","1","[[2,3,0],[0,0],[1]]","11","0","","","","","","4","","","","","","","","",""
"","","","","","single-stim-button","157","316561","0.0-2.0-43.0-1.0","55cb5f66fdf99b2da2a053af","E1","batch5","","759","tol_toboard","","","","tol_peg_3","759","759","0","[[1,2,0],[0,0],[3]]","1","[[2,3,0],[0,0],[1]]","11","0","","","","","","4","","","","","","","","",""
"","","","","","single-stim-button","158","317289","0.0-2.0-43.1-0.1","55cb5f66fdf99b2da2a053af","E1","batch5","","727","tol_tohand","","","","tol_peg_1","727","727","0","[[1,0,0],[0,0],[3]]","2","[[2,3,0],[0,0],[1]]","11","0","","","","","","4","","","","","","","","",""
"","","","","","single-stim-button","159","324922","0.0-2.0-43.1-1.1","55cb5f66fdf99b2da2a053af","E1","batch5","","7631","tol_toboard","","","","tol_peg_2","7631","7631","0","[[1,0,0],[2,0],[3]]","2","[[2,3,0],[0,0],[1]]","11","0","","","","","","4","","","","","","","","",""
"","","","","","single-stim-button","160","328282","0.0-2.0-43.2-0.2","55cb5f66fdf99b2da2a053af","E1","batch5","","3359","tol_tohand","","","","tol_peg_1","3359","3359","0","[[0,0,0],[2,0],[3]]","3","[[2,3,0],[0,0],[1]]","11","0","","","","","","4","","","","","","","","",""
"","","","","","single-stim-button","161","328947","0.0-2.0-43.2-1.2","55cb5f66fdf99b2da2a053af","E1","batch5","","665","tol_toboard","","","","tol_peg_2","665","665","0","[[0,0,0],[2,1],[3]]","3","[[2,3,0],[0,0],[1]]","11","0","","","","","","4","","","","","","","","",""
"","","","","","single-stim-button","162","329746","0.0-2.0-43.3-0.3","55cb5f66fdf99b2da2a053af","E1","batch5","","799","tol_tohand","","","","tol_peg_3","799","799","0","[[0,0,0],[2,1],[0]]","4","[[2,3,0],[0,0],[1]]","11","0","","","","","","4","","","","","","","","",""
"","","","","","single-stim-button","163","330562","0.0-2.0-43.3-1.3","55cb5f66fdf99b2da2a053af","E1","batch5","","816","tol_toboard","","","","tol_peg_1","816","816","0","[[3,0,0],[2,1],[0]]","4","[[2,3,0],[0,0],[1]]","11","0","","","","","","4","","","","","","","","",""
"","","","","","single-stim-button","164","331058","0.0-2.0-43.4-0.4","55cb5f66fdf99b2da2a053af","E1","batch5","","496","tol_tohand","","","","tol_peg_2","496","496","0","[[3,0,0],[2,0],[0]]","5","[[2,3,0],[0,0],[1]]","11","0","","","","","","4","","","","","","","","",""
"","","","","","single-stim-button","165","339690","0.0-2.0-43.4-1.4","55cb5f66fdf99b2da2a053af","E1","batch5","","8632","tol_toboard","","","","tol_peg_3","8632","8632","0","[[3,0,0],[2,0],[1]]","5","[[2,3,0],[0,0],[1]]","11","0","","","","","","4","","","","","","","","",""
"","","","","","single-stim-button","166","341170","0.0-2.0-43.5-0.5","55cb5f66fdf99b2da2a053af","E1","batch5","","1479","tol_tohand","","","","tol_peg_2","1479","1479","0","[[3,0,0],[0,0],[1]]","6","[[2,3,0],[0,0],[1]]","11","0","","","","","","4","","","","","","","","",""
"","","","","","single-stim-button","167","342426","0.0-2.0-43.5-1.5","55cb5f66fdf99b2da2a053af","E1","batch5","","1256","tol_toboard","","","","tol_peg_1","1256","1256","0","[[3,2,0],[0,0],[1]]","6","[[2,3,0],[0,0],[1]]","11","0","","","","","","4","","","","","","","","",""
"","","","","","single-stim-button","168","344074","0.0-2.0-43.6-0.6","55cb5f66fdf99b2da2a053af","E1","batch5","","1648","tol_tohand","","","","tol_peg_1","1648","1648","0","[[3,0,0],[0,0],[1]]","7","[[2,3,0],[0,0],[1]]","11","0","","","","","","4","","","","","","","","",""
"","","","","","single-stim-button","169","344738","0.0-2.0-43.6-1.6","55cb5f66fdf99b2da2a053af","E1","batch5","","664","tol_toboard","","","","tol_peg_2","664","664","0","[[3,0,0],[2,0],[1]]","7","[[2,3,0],[0,0],[1]]","11","0","","","","","","4","","","","","","","","",""
"","","","","","single-stim-button","170","345698","0.0-2.0-43.7-0.7","55cb5f66fdf99b2da2a053af","E1","batch5","","960","tol_tohand","","","","tol_peg_1","960","960","0","[[0,0,0],[2,0],[1]]","8","[[2,3,0],[0,0],[1]]","11","0","","","","","","4","","","","","","","","",""
"","","","","","single-stim-button","171","346610","0.0-2.0-43.7-1.7","55cb5f66fdf99b2da2a053af","E1","batch5","","911","tol_toboard","","","","tol_peg_2","911","911","0","[[0,0,0],[2,3],[1]]","8","[[2,3,0],[0,0],[1]]","11","0","","","","","","4","","","","","","","","",""
"","","","","","single-stim-button","172","347155","0.0-2.0-43.8-0.8","55cb5f66fdf99b2da2a053af","E1","batch5","","544","tol_tohand","","","","tol_peg_3","544","544","0","[[0,0,0],[2,3],[0]]","9","[[2,3,0],[0,0],[1]]","11","0","","","","","","4","","","","","","","","",""
"","","","","","single-stim-button","173","347922","0.0-2.0-43.8-1.8","55cb5f66fdf99b2da2a053af","E1","batch5","","767","tol_toboard","","","","tol_peg_1","767","767","0","[[1,0,0],[2,3],[0]]","9","[[2,3,0],[0,0],[1]]","11","0","","","","","","4","","","","","","","","",""
"","","","","","single-stim-button","174","348466","0.0-2.0-43.9-0.9","55cb5f66fdf99b2da2a053af","E1","batch5","","544","tol_tohand","","","","tol_peg_2","544","544","0","[[1,0,0],[2,0],[0]]","10","[[2,3,0],[0,0],[1]]","11","0","","","","","","4","","","","","","","","",""
"","","","","","single-stim-button","175","349458","0.0-2.0-43.9-1.9","55cb5f66fdf99b2da2a053af","E1","batch5","","992","tol_toboard","","","","tol_peg_3","992","992","0","[[1,0,0],[2,0],[3]]","10","[[2,3,0],[0,0],[1]]","11","0","","","","","","4","","","","","","","","",""
"","","","","","single-stim-button","176","355658","0.0-2.0-43.10-0.10","55cb5f66fdf99b2da2a053af","E1","batch5","","6199","tol_tohand","","","","tol_peg_2","6199","6199","0","[[1,0,0],[0,0],[3]]","11","[[2,3,0],[0,0],[1]]","11","0","","","","","","4","","","","","","","","",""
"","","","","","single-stim-button","177","356418","0.0-2.0-43.10-1.10","55cb5f66fdf99b2da2a053af","E1","batch5","","760","tol_toboard","","","","tol_peg_1","760","760","0","[[1,2,0],[0,0],[3]]","11","[[2,3,0],[0,0],[1]]","11","0","","","","","","4","","","","","","","","",""
"","","","","","single-stim-button","178","359050","0.0-2.0-43.11-0.11","55cb5f66fdf99b2da2a053af","E1","batch5","","2632","tol_tohand","","","","tol_peg_3","2632","2632","0","[[1,2,0],[0,0],[0]]","12","[[2,3,0],[0,0],[1]]","11","0","","","","","","4","","","","","","","","",""
"","","","","","single-stim-button","179","359850","0.0-2.0-43.11-1.11","55cb5f66fdf99b2da2a053af","E1","batch5","","799","tol_toboard","","","","tol_peg_2","799","799","0","[[1,2,0],[3,0],[0]]","12","[[2,3,0],[0,0],[1]]","11","0","","","","","","4","","","","","","","","",""
"","","","","","single-stim-button","180","361506","0.0-2.0-43.12-0.12","55cb5f66fdf99b2da2a053af","E1","batch5","","1656","tol_tohand","","","","tol_peg_1","1656","1656","0","[[1,0,0],[3,0],[0]]","13","[[2,3,0],[0,0],[1]]","11","0","","","","","","4","","","","","","","","",""
"","","","","","single-stim-button","181","362090","0.0-2.0-43.12-1.12","55cb5f66fdf99b2da2a053af","E1","batch5","","584","tol_toboard","","","","tol_peg_2","584","584","0","[[1,0,0],[3,2],[0]]","13","[[2,3,0],[0,0],[1]]","11","0","","","","","","4","","","","","","","","",""
"","","","","","single-stim-button","182","362962","0.0-2.0-43.13-0.13","55cb5f66fdf99b2da2a053af","E1","batch5","","871","tol_tohand","","","","tol_peg_1","871","871","0","[[0,0,0],[3,2],[0]]","14","[[2,3,0],[0,0],[1]]","11","0","","","","","","4","","","","","","","","",""
"","","","","","single-stim-button","183","363874","0.0-2.0-43.13-1.13","55cb5f66fdf99b2da2a053af","E1","batch5","","912","tol_toboard","","","","tol_peg_3","912","912","0","[[0,0,0],[3,2],[1]]","14","[[2,3,0],[0,0],[1]]","11","0","","","","","","4","","","","","","","","",""
"","","","","","single-stim-button","184","364394","0.0-2.0-43.14-0.14","55cb5f66fdf99b2da2a053af","E1","batch5","","520","tol_tohand","","","","tol_peg_2","520","520","0","[[0,0,0],[3,0],[1]]","15","[[2,3,0],[0,0],[1]]","11","0","","","","","","4","","","","","","","","",""
"","","","","","single-stim-button","185","364994","0.0-2.0-43.14-1.14","55cb5f66fdf99b2da2a053af","E1","batch5","","600","tol_toboard","","","","tol_peg_1","600","600","0","[[2,0,0],[3,0],[1]]","15","[[2,3,0],[0,0],[1]]","11","0","","","","","","4","","","","","","","","",""
"","","","","","single-stim-button","186","365546","0.0-2.0-43.15-0.15","55cb5f66fdf99b2da2a053af","E1","batch5","","552","tol_tohand","","","","tol_peg_2","552","552","0","[[2,0,0],[0,0],[1]]","16","[[2,3,0],[0,0],[1]]","11","0","","","","","","4","","","","","","","","",""
"","","","","","single-stim-button","187","366034","0.0-2.0-43.15-1.15","55cb5f66fdf99b2da2a053af","E1","batch5","","488","tol_toboard","","","","tol_peg_1","488","488","0","[[2,3,0],[0,0],[1]]","16","[[2,3,0],[0,0],[1]]","11","0","","","","","","4","","","","","","","","",""
"","","","","","poldrack-single-stim","188","367050","0.0-2.0-44.0","55cb5f66fdf99b2da2a053af","E1","batch5","","-1","tol_feedback","","","true","","1000","1000","500","","","","","","-1","none","true","5799","28785","","","","","","","","","",""
"","","","","","html-button-response","189","368082","0.0-2.0-45.0","55cb5f66fdf99b2da2a053af","E1","batch5","","1031.2000000476837","tol_trial_num","<div class = centerbox><p class = center-block-text>problem <strong>13</strong> out of 25 problems</p></div>","0","","","","","","","","","","","","","","","","","","","","","","","","",""
"","","","","","single-stim-button","190","373394","0.0-2.0-46.0-0.0","55cb5f66fdf99b2da2a053af","E1","batch5","","5312","tol_tohand","","","","tol_peg_1","5312","5312","0","[[1,0,0],[3,0],[0]]","1","[[0,0,0],[2,3],[1]]","12","0","","","","","","4","","","","","","","","",""
"","","","","","single-stim-button","191","374146","0.0-2.0-46.0-1.0","55cb5f66fdf99b2da2a053af","E1","batch5","","751","tol_toboard","","","","tol_peg_2","751","751","0","[[1,0,0],[3,2],[0]]","1","[[0,0,0],[2,3],[1]]","12","0","","","","","","4","","","","","","","","",""
"","","","","","single-stim-button","192","374730","0.0-2.0-46.1-0.1","55cb5f66fdf99b2da2a053af","E1","batch5","","583","tol_tohand","","","","tol_peg_1","583","583","0","[[0,0,0],[3,2],[0]]","2","[[0,0,0],[2,3],[1]]","12","0","","","","","","4","","","","","","","","",""
"","","","","","single-stim-button","193","375562","0.0-2.0-46.1-1.1","55cb5f66fdf99b2da2a053af","E1","batch5","","832","tol_toboard","","","","tol_peg_3","832","832","0","[[0,0,0],[3,2],[1]]","2","[[0,0,0],[2,3],[1]]","12","0","","","","","","4","","","","","","","","",""
"","","","","","single-stim-button","194","376146","0.0-2.0-46.2-0.2","55cb5f66fdf99b2da2a053af","E1","batch5","","583","tol_tohand","","","","tol_peg_2","583","583","0","[[0,0,0],[3,0],[1]]","3","[[0,0,0],[2,3],[1]]","12","0","","","","","","4","","","","","","","","",""
"","","","","","single-stim-button","195","376724","0.0-2.0-46.2-1.2","55cb5f66fdf99b2da2a053af","E1","batch5","","578","tol_toboard","","","","tol_peg_1","578","578","0","[[2,0,0],[3,0],[1]]","3","[[0,0,0],[2,3],[1]]","12","0","","","","","","4","","","","","","","","",""
"","","","","","single-stim-button","196","377178","0.0-2.0-46.3-0.3","55cb5f66fdf99b2da2a053af","E1","batch5","","453","tol_tohand","","","","tol_peg_2","453","453","0","[[2,0,0],[0,0],[1]]","4","[[0,0,0],[2,3],[1]]","12","0","","","","","","4","","","","","","","","",""
"","","","","","single-stim-button","197","384034","0.0-2.0-46.3-1.3","55cb5f66fdf99b2da2a053af","E1","batch5","","6856","tol_toboard","","","","tol_peg_2","6856","6856","0","[[2,0,0],[3,0],[1]]","4","[[0,0,0],[2,3],[1]]","12","0","","","","","","4","","","","","","","","",""
"","","","","","single-stim-button","198","384682","0.0-2.0-46.4-0.4","55cb5f66fdf99b2da2a053af","E1","batch5","","648","tol_tohand","","","","tol_peg_3","648","648","0","[[2,0,0],[3,0],[0]]","5","[[0,0,0],[2,3],[1]]","12","0","","","","","","4","","","","","","","","",""
"","","","","","single-stim-button","199","385226","0.0-2.0-46.4-1.4","55cb5f66fdf99b2da2a053af","E1","batch5","","543","tol_toboard","","","","tol_peg_2","543","543","0","[[2,0,0],[3,1],[0]]","5","[[0,0,0],[2,3],[1]]","12","0","","","","","","4","","","","","","","","",""
"","","","","","single-stim-button","200","385778","0.0-2.0-46.5-0.5","55cb5f66fdf99b2da2a053af","E1","batch5","","552","tol_tohand","","","","tol_peg_1","552","552","0","[[0,0,0],[3,1],[0]]","6","[[0,0,0],[2,3],[1]]","12","0","","","","","","4","","","","","","","","",""
"","","","","","single-stim-button","201","386626","0.0-2.0-46.5-1.5","55cb5f66fdf99b2da2a053af","E1","batch5","","848","tol_toboard","","","","tol_peg_3","848","848","0","[[0,0,0],[3,1],[2]]","6","[[0,0,0],[2,3],[1]]","12","0","","","","","","4","","","","","","","","",""
"","","","","","single-stim-button","202","387402","0.0-2.0-46.6-0.6","55cb5f66fdf99b2da2a053af","E1","batch5","","775","tol_tohand","","","","tol_peg_2","775","775","0","[[0,0,0],[3,0],[2]]","7","[[0,0,0],[2,3],[1]]","12","0","","","","","","4","","","","","","","","",""
"","","","","","single-stim-button","203","388291","0.0-2.0-46.6-1.6","55cb5f66fdf99b2da2a053af","E1","batch5","","889","tol_toboard","","","","tol_peg_1","889","889","0","[[1,0,0],[3,0],[2]]","7","[[0,0,0],[2,3],[1]]","12","0","","","","","","4","","","","","","","","",""
"","","","","","single-stim-button","204","389068","0.0-2.0-46.7-0.7","55cb5f66fdf99b2da2a053af","E1","batch5","","776","tol_tohand","","","","tol_peg_2","776","776","0","[[1,0,0],[0,0],[2]]","8","[[0,0,0],[2,3],[1]]","12","0","","","","","","4","","","","","","","","",""
"","","","","","single-stim-button","205","389562","0.0-2.0-46.7-1.7","55cb5f66fdf99b2da2a053af","E1","batch5","","494","tol_toboard","","","","tol_peg_1","494","494","0","[[1,3,0],[0,0],[2]]","8","[[0,0,0],[2,3],[1]]","12","0","","","","","","4","","","","","","","","",""
"","","","","","single-stim-button","206","390066","0.0-2.0-46.8-0.8","55cb5f66fdf99b2da2a053af","E1","batch5","","504","tol_tohand","","","","tol_peg_3","504","504","0","[[1,3,0],[0,0],[0]]","9","[[0,0,0],[2,3],[1]]","12","0","","","","","","4","","","","","","","","",""
"","","","","","single-stim-button","207","390562","0.0-2.0-46.8-1.8","55cb5f66fdf99b2da2a053af","E1","batch5","","496","tol_toboard","","","","tol_peg_2","496","496","0","[[1,3,0],[2,0],[0]]","9","[[0,0,0],[2,3],[1]]","12","0","","","","","","4","","","","","","","","",""
"","","","","","single-stim-button","208","391034","0.0-2.0-46.9-0.9","55cb5f66fdf99b2da2a053af","E1","batch5","","471","tol_tohand","","","","tol_peg_1","471","471","0","[[1,0,0],[2,0],[0]]","10","[[0,0,0],[2,3],[1]]","12","0","","","","","","4","","","","","","","","",""
"","","","","","single-stim-button","209","391514","0.0-2.0-46.9-1.9","55cb5f66fdf99b2da2a053af","E1","batch5","","480","tol_toboard","","","","tol_peg_2","480","480","0","[[1,0,0],[2,3],[0]]","10","[[0,0,0],[2,3],[1]]","12","0","","","","","","4","","","","","","","","",""
"","","","","","single-stim-button","210","392010","0.0-2.0-46.10-0.10","55cb5f66fdf99b2da2a053af","E1","batch5","","496","tol_tohand","","","","tol_peg_1","496","496","0","[[0,0,0],[2,3],[0]]","11","[[0,0,0],[2,3],[1]]","12","0","","","","","","4","","","","","","","","",""
"","","","","","single-stim-button","211","392706","0.0-2.0-46.10-1.10","55cb5f66fdf99b2da2a053af","E1","batch5","","695","tol_toboard","","","","tol_peg_3","695","695","0","[[0,0,0],[2,3],[1]]","11","[[0,0,0],[2,3],[1]]","12","0","","","","","","4","","","","","","","","",""
"","","","","","poldrack-single-stim","212","393708","0.0-2.0-47.0","55cb5f66fdf99b2da2a053af","E1","batch5","","-1","tol_feedback","","","true","","1000","1000","500","","","","","","-1","none","true","5312","11153","","","","","","","","","",""
"","","","","","html-button-response","213","396034","0.0-2.0-48.0","55cb5f66fdf99b2da2a053af","E1","batch5","","2325.399999856949","attention_check","<p class = block-text>How many balls are in your board<br></p>","1","true","","","","","","","","","","","","","","","","","","","","","","","",""
"","","","","","html-button-response","214","397283","0.0-2.0-49.0","55cb5f66fdf99b2da2a053af","E1","batch5","","1248.2000000476837","tol_trial_num","<div class = centerbox><p class = center-block-text>problem <strong>14</strong> out of 25 problems</p></div>","0","","","","","","","","","","","","","","","","","","","","","","","","",""
"","","","","","single-stim-button","215","400394","0.0-2.0-50.0-0.0","55cb5f66fdf99b2da2a053af","E1","batch5","","3111","tol_tohand","","","","tol_peg_1","3111","3111","0","[[2,0,0],[3,0],[0]]","1","[[1,2,0],[3,0],[0]]","13","0","","","","","","4","","","","","","","","",""
"","","","","","single-stim-button","216","401674","0.0-2.0-50.0-1.0","55cb5f66fdf99b2da2a053af","E1","batch5","","1279","tol_toboard","","","","tol_peg_3","1279","1279","0","[[2,0,0],[3,0],[1]]","1","[[1,2,0],[3,0],[0]]","13","0","","","","","","4","","","","","","","","",""
"","","","","","single-stim-button","217","402306","0.0-2.0-50.1-0.1","55cb5f66fdf99b2da2a053af","E1","batch5","","632","tol_tohand","","","","tol_peg_1","632","632","0","[[0,0,0],[3,0],[1]]","2","[[1,2,0],[3,0],[0]]","13","0","","","","","","4","","","","","","","","",""
"","","","","","single-stim-button","218","402747","0.0-2.0-50.1-1.1","55cb5f66fdf99b2da2a053af","E1","batch5","","440","tol_toboard","","","","tol_peg_2","440","440","0","[[0,0,0],[3,2],[1]]","2","[[1,2,0],[3,0],[0]]","13","0","","","","","","4","","","","","","","","",""
"","","","","","single-stim-button","219","403210","0.0-2.0-50.2-0.2","55cb5f66fdf99b2da2a053af","E1","batch5","","463","tol_tohand","","","","tol_peg_3","463","463","0","[[0,0,0],[3,2],[0]]","3","[[1,2,0],[3,0],[0]]","13","0","","","","","","4","","","","","","","","",""
"","","","","","single-stim-button","220","403930","0.0-2.0-50.2-1.2","55cb5f66fdf99b2da2a053af","E1","batch5","","719","tol_toboard","","","","tol_peg_1","719","719","0","[[1,0,0],[3,2],[0]]","3","[[1,2,0],[3,0],[0]]","13","0","","","","","","4","","","","","","","","",""
"","","","","","single-stim-button","221","404427","0.0-2.0-50.3-0.3","55cb5f66fdf99b2da2a053af","E1","batch5","","496","tol_tohand","","","","tol_peg_2","496","496","0","[[1,0,0],[3,0],[0]]","4","[[1,2,0],[3,0],[0]]","13","0","","","","","","4","","","","","","","","",""
"","","","","","single-stim-button","222","404978","0.0-2.0-50.3-1.3","55cb5f66fdf99b2da2a053af","E1","batch5","","551","tol_toboard","","","","tol_peg_1","551","551","0","[[1,2,0],[3,0],[0]]","4","[[1,2,0],[3,0],[0]]","13","0","","","","","","4","","","","","","","","",""
"","","","","","poldrack-single-stim","223","405979","0.0-2.0-51.0","55cb5f66fdf99b2da2a053af","E1","batch5","","-1","tol_feedback","","","true","","1000","1000","500","","","","","","-1","none","true","3111","4702","","","","","","","","","",""
"","","","","","html-button-response","224","406914","0.0-2.0-52.0","55cb5f66fdf99b2da2a053af","E1","batch5","","933.4000000953674","tol_trial_num","<div class = centerbox><p class = center-block-text>problem <strong>15</strong> out of 25 problems</p></div>","0","","","","","","","","","","","","","","","","","","","","","","","","",""
"","","","","","single-stim-button","225","409354","0.0-2.0-53.0-0.0","55cb5f66fdf99b2da2a053af","E1","batch5","","2440","tol_tohand","","","","tol_peg_1","2440","2440","0","[[1,0,0],[3,0],[0]]","1","[[2,0,0],[3,0],[1]]","14","0","","","","","","3","","","","","","","","",""
"","","","","","single-stim-button","226","410258","0.0-2.0-53.0-1.0","55cb5f66fdf99b2da2a053af","E1","batch5","","904","tol_toboard","","","","tol_peg_2","904","904","0","[[1,0,0],[3,2],[0]]","1","[[2,0,0],[3,0],[1]]","14","0","","","","","","3","","","","","","","","",""
"","","","","","single-stim-button","227","410827","0.0-2.0-53.1-0.1","55cb5f66fdf99b2da2a053af","E1","batch5","","568","tol_tohand","","","","tol_peg_1","568","568","0","[[0,0,0],[3,2],[0]]","2","[[2,0,0],[3,0],[1]]","14","0","","","","","","3","","","","","","","","",""
"","","","","","single-stim-button","228","411546","0.0-2.0-53.1-1.1","55cb5f66fdf99b2da2a053af","E1","batch5","","719","tol_toboard","","","","tol_peg_3","719","719","0","[[0,0,0],[3,2],[1]]","2","[[2,0,0],[3,0],[1]]","14","0","","","","","","3","","","","","","","","",""
"","","","","","single-stim-button","229","412275","0.0-2.0-53.2-0.2","55cb5f66fdf99b2da2a053af","E1","batch5","","727","tol_tohand","","","","tol_peg_2","727","727","0","[[0,0,0],[3,0],[1]]","3","[[2,0,0],[3,0],[1]]","14","0","","","","","","3","","","","","","","","",""
"","","","","","single-stim-button","230","413122","0.0-2.0-53.2-1.2","55cb5f66fdf99b2da2a053af","E1","batch5","","846","tol_toboard","","","","tol_peg_1","846","846","0","[[2,0,0],[3,0],[1]]","3","[[2,0,0],[3,0],[1]]","14","0","","","","","","3","","","","","","","","",""
"","","","","","poldrack-single-stim","231","414124","0.0-2.0-54.0","55cb5f66fdf99b2da2a053af","E1","batch5","","-1","tol_feedback","","","true","","1000","1000","500","","","","","","-1","none","true","2440","3735","","","","","","","","","",""
"","","","","","html-button-response","232","415170","0.0-2.0-55.0","55cb5f66fdf99b2da2a053af","E1","batch5","","1044.5","tol_trial_num","<div class = centerbox><p class = center-block-text>problem <strong>16</strong> out of 25 problems</p></div>","0","","","","","","","","","","","","","","","","","","","","","","","","",""
"","","","","","single-stim-button","233","419098","0.0-2.0-56.0-0.0","55cb5f66fdf99b2da2a053af","E1","batch5","","3928","tol_tohand","","","","tol_peg_3","3928","3928","0","[[0,0,0],[2,3],[0]]","1","[[2,3,0],[1,0],[0]]","15","0","","","","","","7","","","","","","","","",""
"","","","","","single-stim-button","234","419826","0.0-2.0-56.0-1.0","55cb5f66fdf99b2da2a053af","E1","batch5","","728","tol_toboard","","","","tol_peg_1","728","728","0","[[1,0,0],[2,3],[0]]","1","[[2,3,0],[1,0],[0]]","15","0","","","","","","7","","","","","","","","",""
"","","","","","single-stim-button","235","423962","0.0-2.0-56.1-0.1","55cb5f66fdf99b2da2a053af","E1","batch5","","4135","tol_tohand","","","","tol_peg_2","4135","4135","0","[[1,0,0],[2,0],[0]]","2","[[2,3,0],[1,0],[0]]","15","0","","","","","","7","","","","","","","","",""
"","","","","","single-stim-button","236","424794","0.0-2.0-56.1-1.1","55cb5f66fdf99b2da2a053af","E1","batch5","","832","tol_toboard","","","","tol_peg_1","832","832","0","[[1,3,0],[2,0],[0]]","2","[[2,3,0],[1,0],[0]]","15","0","","","","","","7","","","","","","","","",""
"","","","","","single-stim-button","237","425714","0.0-2.0-56.2-0.2","55cb5f66fdf99b2da2a053af","E1","batch5","","919","tol_tohand","","","","tol_peg_2","919","919","0","[[1,3,0],[0,0],[0]]","3","[[2,3,0],[1,0],[0]]","15","0","","","","","","7","","","","","","","","",""
"","","","","","single-stim-button","238","426442","0.0-2.0-56.2-1.2","55cb5f66fdf99b2da2a053af","E1","batch5","","728","tol_toboard","","","","tol_peg_3","728","728","0","[[1,3,0],[0,0],[2]]","3","[[2,3,0],[1,0],[0]]","15","0","","","","","","7","","","","","","","","",""
"","","","","","single-stim-button","239","427130","0.0-2.0-56.3-0.3","55cb5f66fdf99b2da2a053af","E1","batch5","","688","tol_tohand","","","","tol_peg_1","688","688","0","[[1,0,0],[0,0],[2]]","4","[[2,3,0],[1,0],[0]]","15","0","","","","","","7","","","","","","","","",""
"","","","","","single-stim-button","240","428018","0.0-2.0-56.3-1.3","55cb5f66fdf99b2da2a053af","E1","batch5","","888","tol_toboard","","","","tol_peg_2","888","888","0","[[1,0,0],[3,0],[2]]","4","[[2,3,0],[1,0],[0]]","15","0","","","","","","7","","","","","","","","",""
"","","","","","single-stim-button","241","428835","0.0-2.0-56.4-0.4","55cb5f66fdf99b2da2a053af","E1","batch5","","817","tol_tohand","","","","tol_peg_1","817","817","0","[[0,0,0],[3,0],[2]]","5","[[2,3,0],[1,0],[0]]","15","0","","","","","","7","","","","","","","","",""
"","","","","","single-stim-button","242","429410","0.0-2.0-56.4-1.4","55cb5f66fdf99b2da2a053af","E1","batch5","","575","tol_toboard","","","","tol_peg_2","575","575","0","[[0,0,0],[3,1],[2]]","5","[[2,3,0],[1,0],[0]]","15","0","","","","","","7","","","","","","","","",""
"","","","","","single-stim-button","243","429994","0.0-2.0-56.5-0.5","55cb5f66fdf99b2da2a053af","E1","batch5","","584","tol_tohand","","","","tol_peg_3","584","584","0","[[0,0,0],[3,1],[0]]","6","[[2,3,0],[1,0],[0]]","15","0","","","","","","7","","","","","","","","",""
"","","","","","single-stim-button","244","430874","0.0-2.0-56.5-1.5","55cb5f66fdf99b2da2a053af","E1","batch5","","880","tol_toboard","","","","tol_peg_1","880","880","0","[[2,0,0],[3,1],[0]]","6","[[2,3,0],[1,0],[0]]","15","0","","","","","","7","","","","","","","","",""
"","","","","","single-stim-button","245","431482","0.0-2.0-56.6-0.6","55cb5f66fdf99b2da2a053af","E1","batch5","","608","tol_tohand","","","","tol_peg_2","608","608","0","[[2,0,0],[3,0],[0]]","7","[[2,3,0],[1,0],[0]]","15","0","","","","","","7","","","","","","","","",""
"","","","","","single-stim-button","246","432146","0.0-2.0-56.6-1.6","55cb5f66fdf99b2da2a053af","E1","batch5","","664","tol_toboard","","","","tol_peg_3","664","664","0","[[2,0,0],[3,0],[1]]","7","[[2,3,0],[1,0],[0]]","15","0","","","","","","7","","","","","","","","",""
"","","","","","single-stim-button","247","432626","0.0-2.0-56.7-0.7","55cb5f66fdf99b2da2a053af","E1","batch5","","480","tol_tohand","","","","tol_peg_2","480","480","0","[[2,0,0],[0,0],[1]]","8","[[2,3,0],[1,0],[0]]","15","0","","","","","","7","","","","","","","","",""
"","","","","","single-stim-button","248","433530","0.0-2.0-56.7-1.7","55cb5f66fdf99b2da2a053af","E1","batch5","","904","tol_toboard","","","","tol_peg_1","904","904","0","[[2,3,0],[0,0],[1]]","8","[[2,3,0],[1,0],[0]]","15","0","","","","","","7","","","","","","","","",""
"","","","","","single-stim-button","249","434154","0.0-2.0-56.8-0.8","55cb5f66fdf99b2da2a053af","E1","batch5","","624","tol_tohand","","","","tol_peg_3","624","624","0","[[2,3,0],[0,0],[0]]","9","[[2,3,0],[1,0],[0]]","15","0","","","","","","7","","","","","","","","",""
"","","","","","single-stim-button","250","434882","0.0-2.0-56.8-1.8","55cb5f66fdf99b2da2a053af","E1","batch5","","728","tol_toboard","","","","tol_peg_2","728","728","0","[[2,3,0],[1,0],[0]]","9","[[2,3,0],[1,0],[0]]","15","0","","","","","","7","","","","","","","","",""
"","","","","","poldrack-single-stim","251","435885","0.0-2.0-57.0","55cb5f66fdf99b2da2a053af","E1","batch5","","-1","tol_feedback","","","true","","1000","1000","500","","","","","","-1","none","true","3928","12783","","","","","","","","","",""
"","","","","","html-button-response","252","436818","0.0-2.0-58.0","55cb5f66fdf99b2da2a053af","E1","batch5","","931.5999999046326","tol_trial_num","<div class = centerbox><p class = center-block-text>problem <strong>17</strong> out of 25 problems</p></div>","0","","","","","","","","","","","","","","","","","","","","","","","","",""
"","","","","","single-stim-button","253","442298","0.0-2.0-59.0-0.0","55cb5f66fdf99b2da2a053af","E1","batch5","","5480","tol_tohand","","","","tol_peg_2","5480","5480","0","[[1,2,0],[0,0],[0]]","1","[[3,1,0],[2,0],[0]]","16","0","","","","","","5","","","","","","","","",""
"","","","","","single-stim-button","254","443202","0.0-2.0-59.0-1.0","55cb5f66fdf99b2da2a053af","E1","batch5","","903","tol_toboard","","","","tol_peg_3","903","903","0","[[1,2,0],[0,0],[3]]","1","[[3,1,0],[2,0],[0]]","16","0","","","","","","5","","","","","","","","",""
"","","","","","single-stim-button","255","444146","0.0-2.0-59.1-0.1","55cb5f66fdf99b2da2a053af","E1","batch5","","944","tol_tohand","","","","tol_peg_1","944","944","0","[[1,0,0],[0,0],[3]]","2","[[3,1,0],[2,0],[0]]","16","0","","","","","","5","","","","","","","","",""
"","","","","","single-stim-button","256","444890","0.0-2.0-59.1-1.1","55cb5f66fdf99b2da2a053af","E1","batch5","","744","tol_toboard","","","","tol_peg_2","744","744","0","[[1,0,0],[2,0],[3]]","2","[[3,1,0],[2,0],[0]]","16","0","","","","","","5","","","","","","","","",""
"","","","","","single-stim-button","257","445603","0.0-2.0-59.2-0.2","55cb5f66fdf99b2da2a053af","E1","batch5","","713","tol_tohand","","","","tol_peg_1","713","713","0","[[0,0,0],[2,0],[3]]","3","[[3,1,0],[2,0],[0]]","16","0","","","","","","5","","","","","","","","",""
"","","","","","single-stim-button","258","446194","0.0-2.0-59.2-1.2","55cb5f66fdf99b2da2a053af","E1","batch5","","591","tol_toboard","","","","tol_peg_2","591","591","0","[[0,0,0],[2,1],[3]]","3","[[3,1,0],[2,0],[0]]","16","0","","","","","","5","","","","","","","","",""
"","","","","","single-stim-button","259","446603","0.0-2.0-59.3-0.3","55cb5f66fdf99b2da2a053af","E1","batch5","","408","tol_tohand","","","","tol_peg_3","408","408","0","[[0,0,0],[2,1],[0]]","4","[[3,1,0],[2,0],[0]]","16","0","","","","","","5","","","","","","","","",""
"","","","","","single-stim-button","260","447322","0.0-2.0-59.3-1.3","55cb5f66fdf99b2da2a053af","E1","batch5","","719","tol_toboard","","","","tol_peg_1","719","719","0","[[3,0,0],[2,1],[0]]","4","[[3,1,0],[2,0],[0]]","16","0","","","","","","5","","","","","","","","",""
"","","","","","single-stim-button","261","447794","0.0-2.0-59.4-0.4","55cb5f66fdf99b2da2a053af","E1","batch5","","472","tol_tohand","","","","tol_peg_2","472","472","0","[[3,0,0],[2,0],[0]]","5","[[3,1,0],[2,0],[0]]","16","0","","","","","","5","","","","","","","","",""
"","","","","","single-stim-button","262","448666","0.0-2.0-59.4-1.4","55cb5f66fdf99b2da2a053af","E1","batch5","","872","tol_toboard","","","","tol_peg_1","872","872","0","[[3,1,0],[2,0],[0]]","5","[[3,1,0],[2,0],[0]]","16","0","","","","","","5","","","","","","","","",""
"","","","","","poldrack-single-stim","263","449667","0.0-2.0-60.0","55cb5f66fdf99b2da2a053af","E1","batch5","","-1","tol_feedback","","","true","","1000","1000","500","","","","","","-1","none","true","5480","8017","","","","","","","","","",""
"","","","","","html-button-response","264","450393","0.0-2.0-61.0","55cb5f66fdf99b2da2a053af","E1","batch5","","725.2999999523163","tol_trial_num","<div class = centerbox><p class = center-block-text>problem <strong>18</strong> out of 25 problems</p></div>","0","","","","","","","","","","","","","","","","","","","","","","","","",""
"","","","","","single-stim-button","265","456378","0.0-2.0-62.0-0.0","55cb5f66fdf99b2da2a053af","E1","batch5","","5984","tol_tohand","","","","tol_peg_2","5984","5984","0","[[1,2,0],[0,0],[0]]","1","[[3,0,0],[2,0],[1]]","17","0","","","","","","5","","","","","","","","",""
"","","","","","single-stim-button","266","456946","0.0-2.0-62.0-1.0","55cb5f66fdf99b2da2a053af","E1","batch5","","568","tol_toboard","","","","tol_peg_3","568","568","0","[[1,2,0],[0,0],[3]]","1","[[3,0,0],[2,0],[1]]","17","0","","","","","","5","","","","","","","","",""
"","","","","","single-stim-button","267","457674","0.0-2.0-62.1-0.1","55cb5f66fdf99b2da2a053af","E1","batch5","","727","tol_tohand","","","","tol_peg_1","727","727","0","[[1,0,0],[0,0],[3]]","2","[[3,0,0],[2,0],[1]]","17","0","","","","","","5","","","","","","","","",""
"","","","","","single-stim-button","268","458250","0.0-2.0-62.1-1.1","55cb5f66fdf99b2da2a053af","E1","batch5","","575","tol_toboard","","","","tol_peg_2","575","575","0","[[1,0,0],[2,0],[3]]","2","[[3,0,0],[2,0],[1]]","17","0","","","","","","5","","","","","","","","",""
"","","","","","single-stim-button","269","458778","0.0-2.0-62.2-0.2","55cb5f66fdf99b2da2a053af","E1","batch5","","527","tol_tohand","","","","tol_peg_1","527","527","0","[[0,0,0],[2,0],[3]]","3","[[3,0,0],[2,0],[1]]","17","0","","","","","","5","","","","","","","","",""
"","","","","","single-stim-button","270","459281","0.0-2.0-62.2-1.2","55cb5f66fdf99b2da2a053af","E1","batch5","","503","tol_toboard","","","","tol_peg_2","503","503","0","[[0,0,0],[2,1],[3]]","3","[[3,0,0],[2,0],[1]]","17","0","","","","","","5","","","","","","","","",""
"","","","","","single-stim-button","271","459778","0.0-2.0-62.3-0.3","55cb5f66fdf99b2da2a053af","E1","batch5","","496","tol_tohand","","","","tol_peg_3","496","496","0","[[0,0,0],[2,1],[0]]","4","[[3,0,0],[2,0],[1]]","17","0","","","","","","5","","","","","","","","",""
"","","","","","single-stim-button","272","460529","0.0-2.0-62.3-1.3","55cb5f66fdf99b2da2a053af","E1","batch5","","751","tol_toboard","","","","tol_peg_1","751","751","0","[[3,0,0],[2,1],[0]]","4","[[3,0,0],[2,0],[1]]","17","0","","","","","","5","","","","","","","","",""
"","","","","","single-stim-button","273","461090","0.0-2.0-62.4-0.4","55cb5f66fdf99b2da2a053af","E1","batch5","","559","tol_tohand","","","","tol_peg_2","559","559","0","[[3,0,0],[2,0],[0]]","5","[[3,0,0],[2,0],[1]]","17","0","","","","","","5","","","","","","","","",""
"","","","","","single-stim-button","274","461753","0.0-2.0-62.4-1.4","55cb5f66fdf99b2da2a053af","E1","batch5","","663","tol_toboard","","","","tol_peg_3","663","663","0","[[3,0,0],[2,0],[1]]","5","[[3,0,0],[2,0],[1]]","17","0","","","","","","5","","","","","","","","",""
"","","","","","poldrack-single-stim","275","462755","0.0-2.0-63.0","55cb5f66fdf99b2da2a053af","E1","batch5","","-1","tol_feedback","","","true","","1000","1000","500","","","","","","-1","none","true","5984","8293","","","","","","","","","",""
"","","","","","html-button-response","276","463537","0.0-2.0-64.0","55cb5f66fdf99b2da2a053af","E1","batch5","","780.8999998569489","tol_trial_num","<div class = centerbox><p class = center-block-text>problem <strong>19</strong> out of 25 problems</p></div>","0","","","","","","","","","","","","","","","","","","","","","","","","",""
"","","","","","single-stim-button","277","466145","0.0-2.0-65.0-0.0","55cb5f66fdf99b2da2a053af","E1","batch5","","2607","tol_tohand","","","","tol_peg_2","2607","2607","0","[[1,2,0],[0,0],[0]]","1","[[0,0,0],[1,2],[3]]","18","0","","","","","","7","","","","","","","","",""
"","","","","","single-stim-button","278","466889","0.0-2.0-65.0-1.0","55cb5f66fdf99b2da2a053af","E1","batch5","","743","tol_toboard","","","","tol_peg_3","743","743","0","[[1,2,0],[0,0],[3]]","1","[[0,0,0],[1,2],[3]]","18","0","","","","","","7","","","","","","","","",""
"","","","","","single-stim-button","279","476609","0.0-2.0-65.1-0.1","55cb5f66fdf99b2da2a053af","E1","batch5","","9719","tol_tohand","","","","tol_peg_3","9719","9719","0","[[1,2,0],[0,0],[0]]","2","[[0,0,0],[1,2],[3]]","18","0","","","","","","7","","","","","","","","",""
"","","","","","single-stim-button","280","477418","0.0-2.0-65.1-1.1","55cb5f66fdf99b2da2a053af","E1","batch5","","808","tol_toboard","","","","tol_peg_2","808","808","0","[[1,2,0],[3,0],[0]]","2","[[0,0,0],[1,2],[3]]","18","0","","","","","","7","","","","","","","","",""
"","","","","","single-stim-button","281","479153","0.0-2.0-65.2-0.2","55cb5f66fdf99b2da2a053af","E1","batch5","","1735","tol_tohand","","","","tol_peg_1","1735","1735","0","[[1,0,0],[3,0],[0]]","3","[[0,0,0],[1,2],[3]]","18","0","","","","","","7","","","","","","","","",""
"","","","","","single-stim-button","282","480058","0.0-2.0-65.2-1.2","55cb5f66fdf99b2da2a053af","E1","batch5","","904","tol_toboard","","","","tol_peg_3","904","904","0","[[1,0,0],[3,0],[2]]","3","[[0,0,0],[1,2],[3]]","18","0","","","","","","7","","","","","","","","",""
"","","","","","single-stim-button","283","483370","0.0-2.0-65.3-0.3","55cb5f66fdf99b2da2a053af","E1","batch5","","3310","tol_tohand","","","","tol_peg_1","3310","3310","0","[[0,0,0],[3,0],[2]]","4","[[0,0,0],[1,2],[3]]","18","0","","","","","","7","","","","","","","","",""
"","","","","","single-stim-button","284","483953","0.0-2.0-65.3-1.3","55cb5f66fdf99b2da2a053af","E1","batch5","","583","tol_toboard","","","","tol_peg_2","583","583","0","[[0,0,0],[3,1],[2]]","4","[[0,0,0],[1,2],[3]]","18","0","","","","","","7","","","","","","","","",""
"","","","","","single-stim-button","285","484514","0.0-2.0-65.4-0.4","55cb5f66fdf99b2da2a053af","E1","batch5","","559","tol_tohand","","","","tol_peg_3","559","559","0","[[0,0,0],[3,1],[0]]","5","[[0,0,0],[1,2],[3]]","18","0","","","","","","7","","","","","","","","",""
"","","","","","single-stim-button","286","485425","0.0-2.0-65.4-1.4","55cb5f66fdf99b2da2a053af","E1","batch5","","911","tol_toboard","","","","tol_peg_1","911","911","0","[[2,0,0],[3,1],[0]]","5","[[0,0,0],[1,2],[3]]","18","0","","","","","","7","","","","","","","","",""
"","","","","","single-stim-button","287","486106","0.0-2.0-65.5-0.5","55cb5f66fdf99b2da2a053af","E1","batch5","","680","tol_tohand","","","","tol_peg_2","680","680","0","[[2,0,0],[3,0],[0]]","6","[[0,0,0],[1,2],[3]]","18","0","","","","","","7","","","","","","","","",""
"","","","","","single-stim-button","288","486874","0.0-2.0-65.5-1.5","55cb5f66fdf99b2da2a053af","E1","batch5","","767","tol_toboard","","","","tol_peg_1","767","767","0","[[2,1,0],[3,0],[0]]","6","[[0,0,0],[1,2],[3]]","18","0","","","","","","7","","","","","","","","",""
"","","","","","single-stim-button","289","487490","0.0-2.0-65.6-0.6","55cb5f66fdf99b2da2a053af","E1","batch5","","616","tol_tohand","","","","tol_peg_2","616","616","0","[[2,1,0],[0,0],[0]]","7","[[0,0,0],[1,2],[3]]","18","0","","","","","","7","","","","","","","","",""
"","","","","","single-stim-button","290","488146","0.0-2.0-65.6-1.6","55cb5f66fdf99b2da2a053af","E1","batch5","","656","tol_toboard","","","","tol_peg_3","656","656","0","[[2,1,0],[0,0],[3]]","7","[[0,0,0],[1,2],[3]]","18","0","","","","","","7","","","","","","","","",""
"","","","","","single-stim-button","291","488977","0.0-2.0-65.7-0.7","55cb5f66fdf99b2da2a053af","E1","batch5","","830","tol_tohand","","","","tol_peg_1","830","830","0","[[2,0,0],[0,0],[3]]","8","[[0,0,0],[1,2],[3]]","18","0","","","","","","7","","","","","","","","",""
"","","","","","single-stim-button","292","489834","0.0-2.0-65.7-1.7","55cb5f66fdf99b2da2a053af","E1","batch5","","856","tol_toboard","","","","tol_peg_2","856","856","0","[[2,0,0],[1,0],[3]]","8","[[0,0,0],[1,2],[3]]","18","0","","","","","","7","","","","","","","","",""
"","","","","","single-stim-button","293","490290","0.0-2.0-65.8-0.8","55cb5f66fdf99b2da2a053af","E1","batch5","","455","tol_tohand","","","","tol_peg_1","455","455","0","[[0,0,0],[1,0],[3]]","9","[[0,0,0],[1,2],[3]]","18","0","","","","","","7","","","","","","","","",""
"","","","","","single-stim-button","294","491097","0.0-2.0-65.8-1.8","55cb5f66fdf99b2da2a053af","E1","batch5","","807","tol_toboard","","","","tol_peg_2","807","807","0","[[0,0,0],[1,2],[3]]","9","[[0,0,0],[1,2],[3]]","18","0","","","","","","7","","","","","","","","",""
"","","","","","poldrack-single-stim","295","492100","0.0-2.0-66.0","55cb5f66fdf99b2da2a053af","E1","batch5","","-1","tol_feedback","","","true","","1000","1000","500","","","","","","-1","none","true","2607","20511","","","","","","","","","",""
"","","","","","html-button-response","296","493137","0.0-2.0-67.0","55cb5f66fdf99b2da2a053af","E1","batch5","","1036.2000000476837","tol_trial_num","<div class = centerbox><p class = center-block-text>problem <strong>20</strong> out of 25 problems</p></div>","0","","","","","","","","","","","","","","","","","","","","","","","","",""
"","","","","","single-stim-button","297","498057","0.0-2.0-68.0-0.0","55cb5f66fdf99b2da2a053af","E1","batch5","","4920","tol_tohand","","","","tol_peg_1","4920","4920","0","[[1,0,0],[3,0],[0]]","1","[[2,1,0],[0,0],[3]]","19","0","","","","","","5","","","","","","","","",""
"","","","","","single-stim-button","298","498713","0.0-2.0-68.0-1.0","55cb5f66fdf99b2da2a053af","E1","batch5","","655","tol_toboard","","","","tol_peg_2","655","655","0","[[1,0,0],[3,2],[0]]","1","[[2,1,0],[0,0],[3]]","19","0","","","","","","5","","","","","","","","",""
"","","","","","single-stim-button","299","499226","0.0-2.0-68.1-0.1","55cb5f66fdf99b2da2a053af","E1","batch5","","511","tol_tohand","","","","tol_peg_1","511","511","0","[[0,0,0],[3,2],[0]]","2","[[2,1,0],[0,0],[3]]","19","0","","","","","","5","","","","","","","","",""
"","","","","","single-stim-button","300","499850","0.0-2.0-68.1-1.1","55cb5f66fdf99b2da2a053af","E1","batch5","","623","tol_toboard","","","","tol_peg_3","623","623","0","[[0,0,0],[3,2],[1]]","2","[[2,1,0],[0,0],[3]]","19","0","","","","","","5","","","","","","","","",""
"","","","","","single-stim-button","301","500466","0.0-2.0-68.2-0.2","55cb5f66fdf99b2da2a053af","E1","batch5","","615","tol_tohand","","","","tol_peg_2","615","615","0","[[0,0,0],[3,0],[1]]","3","[[2,1,0],[0,0],[3]]","19","0","","","","","","5","","","","","","","","",""
"","","","","","single-stim-button","302","500978","0.0-2.0-68.2-1.2","55cb5f66fdf99b2da2a053af","E1","batch5","","512","tol_toboard","","","","tol_peg_1","512","512","0","[[2,0,0],[3,0],[1]]","3","[[2,1,0],[0,0],[3]]","19","0","","","","","","5","","","","","","","","",""
"","","","","","single-stim-button","303","501506","0.0-2.0-68.3-0.3","55cb5f66fdf99b2da2a053af","E1","batch5","","527","tol_tohand","","","","tol_peg_3","527","527","0","[[2,0,0],[3,0],[0]]","4","[[2,1,0],[0,0],[3]]","19","0","","","","","","5","","","","","","","","",""
"","","","","","single-stim-button","304","502218","0.0-2.0-68.3-1.3","55cb5f66fdf99b2da2a053af","E1","batch5","","712","tol_toboard","","","","tol_peg_1","712","712","0","[[2,1,0],[3,0],[0]]","4","[[2,1,0],[0,0],[3]]","19","0","","","","","","5","","","","","","","","",""
"","","","","","single-stim-button","305","502770","0.0-2.0-68.4-0.4","55cb5f66fdf99b2da2a053af","E1","batch5","","552","tol_tohand","","","","tol_peg_2","552","552","0","[[2,1,0],[0,0],[0]]","5","[[2,1,0],[0,0],[3]]","19","0","","","","","","5","","","","","","","","",""
"","","","","","single-stim-button","306","503313","0.0-2.0-68.4-1.4","55cb5f66fdf99b2da2a053af","E1","batch5","","543","tol_toboard","","","","tol_peg_3","543","543","0","[[2,1,0],[0,0],[3]]","5","[[2,1,0],[0,0],[3]]","19","0","","","","","","5","","","","","","","","",""
"","","","","","poldrack-single-stim","307","504315","0.0-2.0-69.0","55cb5f66fdf99b2da2a053af","E1","batch5","","-1","tol_feedback","","","true","","1000","1000","500","","","","","","-1","none","true","4920","7125","","","","","","","","","",""
"","","","","","html-button-response","308","505146","0.0-2.0-70.0","55cb5f66fdf99b2da2a053af","E1","batch5","","830.5","tol_trial_num","<div class = centerbox><p class = center-block-text>problem <strong>21</strong> out of 25 problems</p></div>","0","","","","","","","","","","","","","","","","","","","","","","","","",""
"","","","","","single-stim-button","309","508186","0.0-2.0-71.0-0.0","55cb5f66fdf99b2da2a053af","E1","batch5","","3039","tol_tohand","","","","tol_peg_1","3039","3039","0","[[1,0,0],[3,0],[0]]","1","[[3,2,0],[0,0],[1]]","20","0","","","","","","6","","","","","","","","",""
"","","","","","single-stim-button","310","508914","0.0-2.0-71.0-1.0","55cb5f66fdf99b2da2a053af","E1","batch5","","727","tol_toboard","","","","tol_peg_2","727","727","0","[[1,0,0],[3,2],[0]]","1","[[3,2,0],[0,0],[1]]","20","0","","","","","","6","","","","","","","","",""
"","","","","","single-stim-button","311","509570","0.0-2.0-71.1-0.1","55cb5f66fdf99b2da2a053af","E1","batch5","","656","tol_tohand","","","","tol_peg_1","656","656","0","[[0,0,0],[3,2],[0]]","2","[[3,2,0],[0,0],[1]]","20","0","","","","","","6","","","","","","","","",""
"","","","","","single-stim-button","312","514434","0.0-2.0-71.1-1.1","55cb5f66fdf99b2da2a053af","E1","batch5","","4864","tol_toboard","","","","tol_peg_1","4864","4864","0","[[1,0,0],[3,2],[0]]","2","[[3,2,0],[0,0],[1]]","20","0","","","","","","6","","","","","","","","",""
"","","","","","single-stim-button","313","525930","0.0-2.0-71.2-0.2","55cb5f66fdf99b2da2a053af","E1","batch5","","11496","tol_tohand","","","","tol_peg_2","11496","11496","0","[[1,0,0],[3,0],[0]]","3","[[3,2,0],[0,0],[1]]","20","0","","","","","","6","","","","","","","","",""
"","","","","","single-stim-button","314","527146","0.0-2.0-71.2-1.2","55cb5f66fdf99b2da2a053af","E1","batch5","","1216","tol_toboard","","","","tol_peg_3","1216","1216","0","[[1,0,0],[3,0],[2]]","3","[[3,2,0],[0,0],[1]]","20","0","","","","","","6","","","","","","","","",""
"","","","","","single-stim-button","315","527961","0.0-2.0-71.3-0.3","55cb5f66fdf99b2da2a053af","E1","batch5","","815","tol_tohand","","","","tol_peg_2","815","815","0","[[1,0,0],[0,0],[2]]","4","[[3,2,0],[0,0],[1]]","20","0","","","","","","6","","","","","","","","",""
"","","","","","single-stim-button","316","528690","0.0-2.0-71.3-1.3","55cb5f66fdf99b2da2a053af","E1","batch5","","728","tol_toboard","","","","tol_peg_1","728","728","0","[[1,3,0],[0,0],[2]]","4","[[3,2,0],[0,0],[1]]","20","0","","","","","","6","","","","","","","","",""
"","","","","","single-stim-button","317","529394","0.0-2.0-71.4-0.4","55cb5f66fdf99b2da2a053af","E1","batch5","","704","tol_tohand","","","","tol_peg_3","704","704","0","[[1,3,0],[0,0],[0]]","5","[[3,2,0],[0,0],[1]]","20","0","","","","","","6","","","","","","","","",""
"","","","","","single-stim-button","318","529946","0.0-2.0-71.4-1.4","55cb5f66fdf99b2da2a053af","E1","batch5","","551","tol_toboard","","","","tol_peg_2","551","551","0","[[1,3,0],[2,0],[0]]","5","[[3,2,0],[0,0],[1]]","20","0","","","","","","6","","","","","","","","",""
"","","","","","single-stim-button","319","530505","0.0-2.0-71.5-0.5","55cb5f66fdf99b2da2a053af","E1","batch5","","559","tol_tohand","","","","tol_peg_1","559","559","0","[[1,0,0],[2,0],[0]]","6","[[3,2,0],[0,0],[1]]","20","0","","","","","","6","","","","","","","","",""
"","","","","","single-stim-button","320","531186","0.0-2.0-71.5-1.5","55cb5f66fdf99b2da2a053af","E1","batch5","","680","tol_toboard","","","","tol_peg_2","680","680","0","[[1,0,0],[2,3],[0]]","6","[[3,2,0],[0,0],[1]]","20","0","","","","","","6","","","","","","","","",""
"","","","","","single-stim-button","321","531706","0.0-2.0-71.6-0.6","55cb5f66fdf99b2da2a053af","E1","batch5","","520","tol_tohand","","","","tol_peg_1","520","520","0","[[0,0,0],[2,3],[0]]","7","[[3,2,0],[0,0],[1]]","20","0","","","","","","6","","","","","","","","",""
"","","","","","single-stim-button","322","532401","0.0-2.0-71.6-1.6","55cb5f66fdf99b2da2a053af","E1","batch5","","694","tol_toboard","","","","tol_peg_3","694","694","0","[[0,0,0],[2,3],[1]]","7","[[3,2,0],[0,0],[1]]","20","0","","","","","","6","","","","","","","","",""
"","","","","","single-stim-button","323","532986","0.0-2.0-71.7-0.7","55cb5f66fdf99b2da2a053af","E1","batch5","","584","tol_tohand","","","","tol_peg_2","584","584","0","[[0,0,0],[2,0],[1]]","8","[[3,2,0],[0,0],[1]]","20","0","","","","","","6","","","","","","","","",""
"","","","","","single-stim-button","324","533851","0.0-2.0-71.7-1.7","55cb5f66fdf99b2da2a053af","E1","batch5","","864","tol_toboard","","","","tol_peg_1","864","864","0","[[3,0,0],[2,0],[1]]","8","[[3,2,0],[0,0],[1]]","20","0","","","","","","6","","","","","","","","",""
"","","","","","single-stim-button","325","534418","0.0-2.0-71.8-0.8","55cb5f66fdf99b2da2a053af","E1","batch5","","567","tol_tohand","","","","tol_peg_2","567","567","0","[[3,0,0],[0,0],[1]]","9","[[3,2,0],[0,0],[1]]","20","0","","","","","","6","","","","","","","","",""
"","","","","","single-stim-button","326","534953","0.0-2.0-71.8-1.8","55cb5f66fdf99b2da2a053af","E1","batch5","","535","tol_toboard","","","","tol_peg_1","535","535","0","[[3,2,0],[0,0],[1]]","9","[[3,2,0],[0,0],[1]]","20","0","","","","","","6","","","","","","","","",""
"","","","","","poldrack-single-stim","327","535955","0.0-2.0-72.0","55cb5f66fdf99b2da2a053af","E1","batch5","","-1","tol_feedback","","","true","","1000","1000","500","","","","","","-1","none","true","3039","18940","","","","","","","","","",""
"","","","","","html-button-response","328","536898","0.0-2.0-73.0","55cb5f66fdf99b2da2a053af","E1","batch5","","941.8999998569489","tol_trial_num","<div class = centerbox><p class = center-block-text>problem <strong>22</strong> out of 25 problems</p></div>","0","","","","","","","","","","","","","","","","","","","","","","","","",""
"","","","","","single-stim-button","329","544945","0.0-2.0-74.0-0.0","55cb5f66fdf99b2da2a053af","E1","batch5","","8047","tol_tohand","","","","tol_peg_2","8047","8047","0","[[1,0,0],[2,0],[0]]","1","[[0,0,0],[1,2],[3]]","21","0","","","","","","6","","","","","","","","",""
"","","","","","single-stim-button","330","545930","0.0-2.0-74.0-1.0","55cb5f66fdf99b2da2a053af","E1","batch5","","984","tol_toboard","","","","tol_peg_1","984","984","0","[[1,3,0],[2,0],[0]]","1","[[0,0,0],[1,2],[3]]","21","0","","","","","","6","","","","","","","","",""
"","","","","","single-stim-button","331","546578","0.0-2.0-74.1-0.1","55cb5f66fdf99b2da2a053af","E1","batch5","","648","tol_tohand","","","","tol_peg_2","648","648","0","[[1,3,0],[0,0],[0]]","2","[[0,0,0],[1,2],[3]]","21","0","","","","","","6","","","","","","","","",""
"","","","","","single-stim-button","332","547658","0.0-2.0-74.1-1.1","55cb5f66fdf99b2da2a053af","E1","batch5","","1080","tol_toboard","","","","tol_peg_3","1080","1080","0","[[1,3,0],[0,0],[2]]","2","[[0,0,0],[1,2],[3]]","21","0","","","","","","6","","","","","","","","",""
"","","","","","single-stim-button","333","548938","0.0-2.0-74.2-0.2","55cb5f66fdf99b2da2a053af","E1","batch5","","1280","tol_tohand","","","","tol_peg_1","1280","1280","0","[[1,0,0],[0,0],[2]]","3","[[0,0,0],[1,2],[3]]","21","0","","","","","","6","","","","","","","","",""
"","","","","","single-stim-button","334","549482","0.0-2.0-74.2-1.2","55cb5f66fdf99b2da2a053af","E1","batch5","","544","tol_toboard","","","","tol_peg_2","544","544","0","[[1,0,0],[3,0],[2]]","3","[[0,0,0],[1,2],[3]]","21","0","","","","","","6","","","","","","","","",""
"","","","","","single-stim-button","335","553858","0.0-2.0-74.3-0.3","55cb5f66fdf99b2da2a053af","E1","batch5","","4376","tol_tohand","","","","tol_peg_1","4376","4376","0","[[0,0,0],[3,0],[2]]","4","[[0,0,0],[1,2],[3]]","21","0","","","","","","6","","","","","","","","",""
"","","","","","single-stim-button","336","554594","0.0-2.0-74.3-1.3","55cb5f66fdf99b2da2a053af","E1","batch5","","736","tol_toboard","","","","tol_peg_2","736","736","0","[[0,0,0],[3,1],[2]]","4","[[0,0,0],[1,2],[3]]","21","0","","","","","","6","","","","","","","","",""
"","","","","","single-stim-button","337","556041","0.0-2.0-74.4-0.4","55cb5f66fdf99b2da2a053af","E1","batch5","","1447","tol_tohand","","","","tol_peg_3","1447","1447","0","[[0,0,0],[3,1],[0]]","5","[[0,0,0],[1,2],[3]]","21","0","","","","","","6","","","","","","","","",""
"","","","","","single-stim-button","338","556762","0.0-2.0-74.4-1.4","55cb5f66fdf99b2da2a053af","E1","batch5","","720","tol_toboard","","","","tol_peg_1","720","720","0","[[2,0,0],[3,1],[0]]","5","[[0,0,0],[1,2],[3]]","21","0","","","","","","6","","","","","","","","",""
"","","","","","single-stim-button","339","557490","0.0-2.0-74.5-0.5","55cb5f66fdf99b2da2a053af","E1","batch5","","728","tol_tohand","","","","tol_peg_2","728","728","0","[[2,0,0],[3,0],[0]]","6","[[0,0,0],[1,2],[3]]","21","0","","","","","","6","","","","","","","","",""
"","","","","","single-stim-button","340","558058","0.0-2.0-74.5-1.5","55cb5f66fdf99b2da2a053af","E1","batch5","","568","tol_toboard","","","","tol_peg_1","568","568","0","[[2,1,0],[3,0],[0]]","6","[[0,0,0],[1,2],[3]]","21","0","","","","","","6","","","","","","","","",""
"","","","","","single-stim-button","341","558603","0.0-2.0-74.6-0.6","55cb5f66fdf99b2da2a053af","E1","batch5","","545","tol_tohand","","","","tol_peg_2","545","545","0","[[2,1,0],[0,0],[0]]","7","[[0,0,0],[1,2],[3]]","21","0","","","","","","6","","","","","","","","",""
"","","","","","single-stim-button","342","559137","0.0-2.0-74.6-1.6","55cb5f66fdf99b2da2a053af","E1","batch5","","534","tol_toboard","","","","tol_peg_3","534","534","0","[[2,1,0],[0,0],[3]]","7","[[0,0,0],[1,2],[3]]","21","0","","","","","","6","","","","","","","","",""
"","","","","","single-stim-button","343","559841","0.0-2.0-74.7-0.7","55cb5f66fdf99b2da2a053af","E1","batch5","","703","tol_tohand","","","","tol_peg_1","703","703","0","[[2,0,0],[0,0],[3]]","8","[[0,0,0],[1,2],[3]]","21","0","","","","","","6","","","","","","","","",""
"","","","","","single-stim-button","344","560506","0.0-2.0-74.7-1.7","55cb5f66fdf99b2da2a053af","E1","batch5","","663","tol_toboard","","","","tol_peg_2","663","663","0","[[2,0,0],[1,0],[3]]","8","[[0,0,0],[1,2],[3]]","21","0","","","","","","6","","","","","","","","",""
"","","","","","single-stim-button","345","561178","0.0-2.0-74.8-0.8","55cb5f66fdf99b2da2a053af","E1","batch5","","672","tol_tohand","","","","tol_peg_1","672","672","0","[[0,0,0],[1,0],[3]]","9","[[0,0,0],[1,2],[3]]","21","0","","","","","","6","","","","","","","","",""
"","","","","","single-stim-button","346","562154","0.0-2.0-74.8-1.8","55cb5f66fdf99b2da2a053af","E1","batch5","","976","tol_toboard","","","","tol_peg_2","976","976","0","[[0,0,0],[1,2],[3]]","9","[[0,0,0],[1,2],[3]]","21","0","","","","","","6","","","","","","","","",""
"","","","","","poldrack-single-stim","347","563161","0.0-2.0-75.0","55cb5f66fdf99b2da2a053af","E1","batch5","","-1","tol_feedback","","","true","","1000","1000","500","","","","","","-1","none","true","8047","18446","","","","","","","","","",""
"","","","","","html-button-response","348","564138","0.0-2.0-76.0","55cb5f66fdf99b2da2a053af","E1","batch5","","974.2999999523163","tol_trial_num","<div class = centerbox><p class = center-block-text>problem <strong>23</strong> out of 25 problems</p></div>","0","","","","","","","","","","","","","","","","","","","","","","","","",""
"","","","","","single-stim-button","349","566866","0.0-2.0-77.0-0.0","55cb5f66fdf99b2da2a053af","E1","batch5","","2728","tol_tohand","","","","tol_peg_1","2728","2728","0","[[1,0,0],[3,0],[0]]","1","[[1,3,2],[0,0],[0]]","22","0","","","","","","3","","","","","","","","",""
"","","","","","single-stim-button","350","567546","0.0-2.0-77.0-1.0","55cb5f66fdf99b2da2a053af","E1","batch5","","679","tol_toboard","","","","tol_peg_3","679","679","0","[[1,0,0],[3,0],[2]]","1","[[1,3,2],[0,0],[0]]","22","0","","","","","","3","","","","","","","","",""
"","","","","","single-stim-button","351","568010","0.0-2.0-77.1-0.1","55cb5f66fdf99b2da2a053af","E1","batch5","","464","tol_tohand","","","","tol_peg_2","464","464","0","[[1,0,0],[0,0],[2]]","2","[[1,3,2],[0,0],[0]]","22","0","","","","","","3","","","","","","","","",""
"","","","","","single-stim-button","352","568738","0.0-2.0-77.1-1.1","55cb5f66fdf99b2da2a053af","E1","batch5","","728","tol_toboard","","","","tol_peg_1","728","728","0","[[1,3,0],[0,0],[2]]","2","[[1,3,2],[0,0],[0]]","22","0","","","","","","3","","","","","","","","",""
"","","","","","single-stim-button","353","569674","0.0-2.0-77.2-0.2","55cb5f66fdf99b2da2a053af","E1","batch5","","935","tol_tohand","","","","tol_peg_3","935","935","0","[[1,3,0],[0,0],[0]]","3","[[1,3,2],[0,0],[0]]","22","0","","","","","","3","","","","","","","","",""
"","","","","","single-stim-button","354","570210","0.0-2.0-77.2-1.2","55cb5f66fdf99b2da2a053af","E1","batch5","","536","tol_toboard","","","","tol_peg_1","536","536","0","[[1,3,2],[0,0],[0]]","3","[[1,3,2],[0,0],[0]]","22","0","","","","","","3","","","","","","","","",""
"","","","","","poldrack-single-stim","355","571211","0.0-2.0-78.0","55cb5f66fdf99b2da2a053af","E1","batch5","","-1","tol_feedback","","","true","","1000","1000","500","","","","","","-1","none","true","2728","4127","","","","","","","","","",""
"","","","","","html-button-response","356","571969","0.0-2.0-79.0","55cb5f66fdf99b2da2a053af","E1","batch5","","756.7999999523163","tol_trial_num","<div class = centerbox><p class = center-block-text>problem <strong>24</strong> out of 25 problems</p></div>","0","","","","","","","","","","","","","","","","","","","","","","","","",""
