"success","timeout","failed_images","failed_audio","failed_video","trial_type","trial_index","time_elapsed","internal_node_id","subject_id","study_id","session_id","view_history","rt","task","stimulus","response","correct","mouse_click","stim_duration","block_duration","timing_post_trial","current_position","tol_num_moves_made","tol_target","tol_problem_id","tol_rt","key_press","possible_responses","tol_correct","preplanning","tol_rt_per_trial","tol_min_moves","answer","item","fiar_detect_rt","fiar_detect_correct","total_correct_fiar_detect","post_trial_gap","choices","spm_correct","spm_rt"
"true","false","[]","[]","[]","preload","0","28462","0.0-0.0","55d5e2c9db6a810006fa078b","E1","batch5","","","","","","","","","","","","","","","","","","","","","","","","","","","","","",""
"true","","","","","fullscreen","1","445060","0.0-1.0-0.0","55d5e2c9db6a810006fa078b","E1","batch5","","","","","","","","","","","","","","","","","","","","","","","","","","","","","",""
"true","","","","","fullscreen","2","447528","0.0-2.0-0.0","55d5e2c9db6a810006fa078b","E1","batch5","","","","","","","","","","","","","","","","","","","","","","","","","","","","","",""
"","","","","","instructions","3","496111","0.0-2.0-1.0-0.0-0.0","55d5e2c9db6a810006fa078b","E1","batch5","[{""page_index"":0,""viewing_time"":7574.300000071526},{""page_index"":1,""viewing_time"":4072},{""page_index"":2,""viewing_time"":2791.899999976158},{""page_index"":3,""viewing_time"":10112},{""page_index"":4,""viewing_time"":10575.700000047684},{""page_index"":5,""viewing_time"":11543.899999976158},{""page_index"":6,""viewing_time"":1912.1000000238419}]","48582.10000002384","tol-instructions","","","","","","","","","","","","","","","","","","","","","","","","","","",""
"","","","","","html-button-response","4","497127","0.0-2.0-1.0-1.0-0.0","55d5e2c9db6a810006fa078b","E1","batch5","","1015.1000000238419","tol_enter_quiz","<p class=block-text> Let's answer a few questions <br>","0","","","","","","","","","","","","","","","","","","","","","","","","",""
"","","","","","html-button-response","5","501752","0.0-2.0-1.0-1.0-1.0","55d5e2c9db6a810006fa078b","E1","batch5","","4624","tol_quiz","<p class = block-text>True or False: You can only move the ball on top of a peg. <br></p>","0","true","","","","","","","","","","","","","","","","","","","","","","","",""
"","","","","","html-button-response","6","502919","0.0-2.0-1.0-1.0-2.0","55d5e2c9db6a810006fa078b","E1","batch5","","1166.3999999761581","tol_quiz_feedback","<p class = block-text>Correct! You can only move the ball on top of a peg.</p>","0","","","","","","","","","","","","","","","","","","","","","","","","",""
"","","","","","html-button-response","7","505534","0.0-2.0-1.0-1.0-3.0","55d5e2c9db6a810006fa078b","E1","batch5","","2614.899999976158","tol_quiz","<p class = block-text>True or False: You should try to match your board with the target board with fewest moves possible. <br></p>","0","true","","","","","","","","","","","","","","","","","","","","","","","",""
"","","","","","html-button-response","8","506327","0.0-2.0-1.0-1.0-4.0","55d5e2c9db6a810006fa078b","E1","batch5","","791.8999999761581","tol_quiz_feedback","<p class = block-text>Correct! </p>","0","","","","","","","","","","","","","","","","","","","","","","","","",""
"","","","","","html-button-response","9","507807","0.0-2.0-2.0","55d5e2c9db6a810006fa078b","E1","batch5","","1479","","<p class=block-text> Now that you've understood the game, let's practice a few easier examples before we start!<br> <br>","0","","","","","","","","","","","","","","","","","","","","","","","","",""
"","","","","","single-stim-button","10","515095","0.0-2.0-3.0-0.0","55d5e2c9db6a810006fa078b","E1","batch5","","7288","tol_practice","","","","tol_peg_2","7288","7288","0","[[1,2,0],[0,0],[0]]","1","[[1,2,0],[0,0],[3]]","practice","7288","","","","","","","","","","","","","","",""
"","","","","","single-stim-button","11","516286","0.0-2.0-3.0-1.0","55d5e2c9db6a810006fa078b","E1","batch5","","1190","tol_practice","","","","tol_peg_3","1190","1190","0","[[1,2,0],[0,0],[3]]","1","[[1,2,0],[0,0],[3]]","practice","1190","","","","","","","","","","","","","","",""
"","","","","","poldrack-single-stim","12","517287","0.0-2.0-4.0","55d5e2c9db6a810006fa078b","E1","batch5","","-1","tol_feedback","","","true","","1000","1000","500","","","","","","-1","none","true","","0","","","","","","","","","",""
"","","","","","single-stim-button","13","521447","0.0-2.0-5.0-0.0","55d5e2c9db6a810006fa078b","E1","batch5","","4158","tol_practice","","","","tol_peg_1","4158","4158","0","[[1,0,0],[3,0],[0]]","2","[[0,0,0],[3,1],[2]]","practice","4158","","","","","","","","","","","","","","",""
"","","","","","single-stim-button","14","524935","0.0-2.0-5.0-1.0","55d5e2c9db6a810006fa078b","E1","batch5","","3487","tol_practice","","","","tol_peg_3","3487","3487","0","[[1,0,0],[3,0],[2]]","2","[[0,0,0],[3,1],[2]]","practice","3487","","","","","","","","","","","","","","",""
"","","","","","single-stim-button","15","526030","0.0-2.0-5.1-0.1","55d5e2c9db6a810006fa078b","E1","batch5","","1095","tol_practice","","","","tol_peg_1","1095","1095","0","[[0,0,0],[3,0],[2]]","3","[[0,0,0],[3,1],[2]]","practice","1095","","","","","","","","","","","","","","",""
"","","","","","single-stim-button","16","526807","0.0-2.0-5.1-1.1","55d5e2c9db6a810006fa078b","E1","batch5","","776","tol_practice","","","","tol_peg_2","776","776","0","[[0,0,0],[3,1],[2]]","3","[[0,0,0],[3,1],[2]]","practice","776","","","","","","","","","","","","","","",""
"","","","","","poldrack-single-stim","17","527810","0.0-2.0-6.0","55d5e2c9db6a810006fa078b","E1","batch5","","-1","tol_feedback","","","true","","1000","1000","500","","","","","","-1","none","true","","0","","","","","","","","","",""
"","","","","","single-stim-button","18","530783","0.0-2.0-7.0-0.0","55d5e2c9db6a810006fa078b","E1","batch5","","2973","tol_practice","","","","tol_peg_2","2973","2973","0","[[1,2,0],[0,0],[0]]","4","[[1,0,0],[2,0],[3]]","practice","2973","","","","","","","","","","","","","","",""
"","","","","","single-stim-button","19","531447","0.0-2.0-7.0-1.0","55d5e2c9db6a810006fa078b","E1","batch5","","664","tol_practice","","","","tol_peg_3","664","664","0","[[1,2,0],[0,0],[3]]","4","[[1,0,0],[2,0],[3]]","practice","664","","","","","","","","","","","","","","",""
"","","","","","single-stim-button","20","532143","0.0-2.0-7.1-0.1","55d5e2c9db6a810006fa078b","E1","batch5","","696","tol_practice","","","","tol_peg_1","696","696","0","[[1,0,0],[0,0],[3]]","5","[[1,0,0],[2,0],[3]]","practice","696","","","","","","","","","","","","","","",""
"","","","","","single-stim-button","21","533095","0.0-2.0-7.1-1.1","55d5e2c9db6a810006fa078b","E1","batch5","","952","tol_practice","","","","tol_peg_2","952","952","0","[[1,0,0],[2,0],[3]]","5","[[1,0,0],[2,0],[3]]","practice","952","","","","","","","","","","","","","","",""
"","","","","","poldrack-single-stim","22","534096","0.0-2.0-8.0","55d5e2c9db6a810006fa078b","E1","batch5","","-1","tol_feedback","","","true","","1000","1000","500","","","","","","-1","none","true","","0","","","","","","","","","",""
"","","","","","html-button-response","23","535519","0.0-2.0-9.0","55d5e2c9db6a810006fa078b","E1","batch5","","1422.3999999761581","tol_instruction","<div class = centerbox><p class = center-block-text>Great job! You are done with practice trials<br>You are about to start official trials.<br> <br> Problem <strong>1</strong> out of 25 problems</p></div>","0","","","","","","","","","","","","","","","","","","","","","","","","",""
"","","","","","single-stim-button","24","542623","0.0-2.0-10.0-0.0","55d5e2c9db6a810006fa078b","E1","batch5","","6103","tol_tohand","","","","tol_peg_2","6103","6103","0","[[1,2,0],[0,0],[0]]","1","[[1,3,0],[2,0],[0]]","0","0","","","","","","3","","","","","","","","",""
"","","","","","single-stim-button","25","543327","0.0-2.0-10.0-1.0","55d5e2c9db6a810006fa078b","E1","batch5","","703","tol_toboard","","","","tol_peg_3","703","703","0","[[1,2,0],[0,0],[3]]","1","[[1,3,0],[2,0],[0]]","0","0","","","","","","3","","","","","","","","",""
"","","","","","single-stim-button","26","543991","0.0-2.0-10.1-0.1","55d5e2c9db6a810006fa078b","E1","batch5","","664","tol_tohand","","","","tol_peg_1","664","664","0","[[1,0,0],[0,0],[3]]","2","[[1,3,0],[2,0],[0]]","0","0","","","","","","3","","","","","","","","",""
"","","","","","single-stim-button","27","544958","0.0-2.0-10.1-1.1","55d5e2c9db6a810006fa078b","E1","batch5","","967","tol_toboard","","","","tol_peg_2","967","967","0","[[1,0,0],[2,0],[3]]","2","[[1,3,0],[2,0],[0]]","0","0","","","","","","3","","","","","","","","",""
"","","","","","single-stim-button","28","545982","0.0-2.0-10.2-0.2","55d5e2c9db6a810006fa078b","E1","batch5","","1024","tol_tohand","","","","tol_peg_3","1024","1024","0","[[1,0,0],[2,0],[0]]","3","[[1,3,0],[2,0],[0]]","0","0","","","","","","3","","","","","","","","",""
"","","","","","single-stim-button","29","546742","0.0-2.0-10.2-1.2","55d5e2c9db6a810006fa078b","E1","batch5","","759","tol_toboard","","","","tol_peg_1","759","759","0","[[1,3,0],[2,0],[0]]","3","[[1,3,0],[2,0],[0]]","0","0","","","","","","3","","","","","","","","",""
"","","","","","poldrack-single-stim","30","547744","0.0-2.0-11.0","55d5e2c9db6a810006fa078b","E1","batch5","","-1","tol_feedback","","","true","","1000","1000","500","","","","","","-1","none","true","6103","7791","","","","","","","","","",""
"","","","","","html-button-response","31","548895","0.0-2.0-12.0","55d5e2c9db6a810006fa078b","E1","batch5","","1150.1999999284744","tol_trial_num","<div class = centerbox><p class = center-block-text>problem <strong>2</strong> out of 25 problems</p></div>","0","","","","","","","","","","","","","","","","","","","","","","","","",""
"","","","","","single-stim-button","32","552302","0.0-2.0-13.0-0.0","55d5e2c9db6a810006fa078b","E1","batch5","","3407","tol_tohand","","","","tol_peg_1","3407","3407","0","[[1,0,0],[3,0],[0]]","1","[[2,1,3],[0,0],[0]]","1","0","","","","","","5","","","","","","","","",""
"","","","","","single-stim-button","33","554527","0.0-2.0-13.0-1.0","55d5e2c9db6a810006fa078b","E1","batch5","","2225","tol_toboard","","","","tol_peg_3","2225","2225","0","[[1,0,0],[3,0],[2]]","1","[[2,1,3],[0,0],[0]]","1","0","","","","","","5","","","","","","","","",""
"","","","","","single-stim-button","34","556287","0.0-2.0-13.1-0.1","55d5e2c9db6a810006fa078b","E1","batch5","","1760","tol_tohand","","","","tol_peg_1","1760","1760","0","[[0,0,0],[3,0],[2]]","2","[[2,1,3],[0,0],[0]]","1","0","","","","","","5","","","","","","","","",""
"","","","","","single-stim-button","35","557471","0.0-2.0-13.1-1.1","55d5e2c9db6a810006fa078b","E1","batch5","","1184","tol_toboard","","","","tol_peg_2","1184","1184","0","[[0,0,0],[3,1],[2]]","2","[[2,1,3],[0,0],[0]]","1","0","","","","","","5","","","","","","","","",""
"","","","","","single-stim-button","36","558079","0.0-2.0-13.2-0.2","55d5e2c9db6a810006fa078b","E1","batch5","","608","tol_tohand","","","","tol_peg_3","608","608","0","[[0,0,0],[3,1],[0]]","3","[[2,1,3],[0,0],[0]]","1","0","","","","","","5","","","","","","","","",""
"","","","","","single-stim-button","37","558807","0.0-2.0-13.2-1.2","55d5e2c9db6a810006fa078b","E1","batch5","","727","tol_toboard","","","","tol_peg_1","727","727","0","[[2,0,0],[3,1],[0]]","3","[[2,1,3],[0,0],[0]]","1","0","","","","","","5","","","","","","","","",""
"","","","","","single-stim-button","38","559543","0.0-2.0-13.3-0.3","55d5e2c9db6a810006fa078b","E1","batch5","","735","tol_tohand","","","","tol_peg_2","735","735","0","[[2,0,0],[3,0],[0]]","4","[[2,1,3],[0,0],[0]]","1","0","","","","","","5","","","","","","","","",""
"","","","","","single-stim-button","39","560263","0.0-2.0-13.3-1.3","55d5e2c9db6a810006fa078b","E1","batch5","","720","tol_toboard","","","","tol_peg_1","720","720","0","[[2,1,0],[3,0],[0]]","4","[[2,1,3],[0,0],[0]]","1","0","","","","","","5","","","","","","","","",""
"","","","","","single-stim-button","40","560783","0.0-2.0-13.4-0.4","55d5e2c9db6a810006fa078b","E1","batch5","","520","tol_tohand","","","","tol_peg_2","520","520","0","[[2,1,0],[0,0],[0]]","5","[[2,1,3],[0,0],[0]]","1","0","","","","","","5","","","","","","","","",""
"","","","","","single-stim-button","41","561615","0.0-2.0-13.4-1.4","55d5e2c9db6a810006fa078b","E1","batch5","","832","tol_toboard","","","","tol_peg_1","832","832","0","[[2,1,3],[0,0],[0]]","5","[[2,1,3],[0,0],[0]]","1","0","","","","","","5","","","","","","","","",""
"","","","","","poldrack-single-stim","42","562617","0.0-2.0-14.0","55d5e2c9db6a810006fa078b","E1","batch5","","-1","tol_feedback","","","true","","1000","1000","500","","","","","","-1","none","true","3407","7030","","","","","","","","","",""
"","","","","","html-button-response","43","563702","0.0-2.0-15.0","55d5e2c9db6a810006fa078b","E1","batch5","","1084.2999999523163","tol_trial_num","<div class = centerbox><p class = center-block-text>problem <strong>3</strong> out of 25 problems</p></div>","0","","","","","","","","","","","","","","","","","","","","","","","","",""
"","","","","","single-stim-button","44","568302","0.0-2.0-16.0-0.0","55d5e2c9db6a810006fa078b","E1","batch5","","4600","tol_tohand","","","","tol_peg_1","4600","4600","0","[[2,0,0],[0,0],[1]]","1","[[1,2,0],[3,0],[0]]","2","0","","","","","","4","","","","","","","","",""
"","","","","","single-stim-button","45","568982","0.0-2.0-16.0-1.0","55d5e2c9db6a810006fa078b","E1","batch5","","679","tol_toboard","","","","tol_peg_2","679","679","0","[[2,0,0],[3,0],[1]]","1","[[1,2,0],[3,0],[0]]","2","0","","","","","","4","","","","","","","","",""
"","","","","","single-stim-button","46","570694","0.0-2.0-16.1-0.1","55d5e2c9db6a810006fa078b","E1","batch5","","1711","tol_tohand","","","","tol_peg_1","1711","1711","0","[[0,0,0],[3,0],[1]]","2","[[1,2,0],[3,0],[0]]","2","0","","","","","","4","","","","","","","","",""
"","","","","","single-stim-button","47","571590","0.0-2.0-16.1-1.1","55d5e2c9db6a810006fa078b","E1","batch5","","896","tol_toboard","","","","tol_peg_2","896","896","0","[[0,0,0],[3,2],[1]]","2","[[1,2,0],[3,0],[0]]","2","0","","","","","","4","","","","","","","","",""
"","","","","","single-stim-button","48","572118","0.0-2.0-16.2-0.2","55d5e2c9db6a810006fa078b","E1","batch5","","528","tol_tohand","","","","tol_peg_3","528","528","0","[[0,0,0],[3,2],[0]]","3","[[1,2,0],[3,0],[0]]","2","0","","","","","","4","","","","","","","","",""
"","","","","","single-stim-button","49","572894","0.0-2.0-16.2-1.2","55d5e2c9db6a810006fa078b","E1","batch5","","776","tol_toboard","","","","tol_peg_1","776","776","0","[[1,0,0],[3,2],[0]]","3","[[1,2,0],[3,0],[0]]","2","0","","","","","","4","","","","","","","","",""
"","","","","","single-stim-button","50","573358","0.0-2.0-16.3-0.3","55d5e2c9db6a810006fa078b","E1","batch5","","463","tol_tohand","","","","tol_peg_2","463","463","0","[[1,0,0],[3,0],[0]]","4","[[1,2,0],[3,0],[0]]","2","0","","","","","","4","","","","","","","","",""
"","","","","","single-stim-button","51","574087","0.0-2.0-16.3-1.3","55d5e2c9db6a810006fa078b","E1","batch5","","728","tol_toboard","","","","tol_peg_1","728","728","0","[[1,2,0],[3,0],[0]]","4","[[1,2,0],[3,0],[0]]","2","0","","","","","","4","","","","","","","","",""
"","","","","","poldrack-single-stim","52","575102","0.0-2.0-17.0","55d5e2c9db6a810006fa078b","E1","batch5","","-1","tol_feedback","","","true","","1000","1000","500","","","","","","-1","none","true","4600","7302","","","","","","","","","",""
"","","","","","html-button-response","53","576230","0.0-2.0-18.0","55d5e2c9db6a810006fa078b","E1","batch5","","1127.5","tol_trial_num","<div class = centerbox><p class = center-block-text>problem <strong>4</strong> out of 25 problems</p></div>","0","","","","","","","","","","","","","","","","","","","","","","","","",""
"","","","","","single-stim-button","54","580398","0.0-2.0-19.0-0.0","55d5e2c9db6a810006fa078b","E1","batch5","","4167","tol_tohand","","","","tol_peg_2","4167","4167","0","[[3,0,0],[2,0],[0]]","1","[[3,0,0],[1,0],[2]]","3","0","","","","","","3","","","","","","","","",""
"","","","","","single-stim-button","55","581094","0.0-2.0-19.0-1.0","55d5e2c9db6a810006fa078b","E1","batch5","","695","tol_toboard","","","","tol_peg_1","695","695","0","[[3,1,0],[2,0],[0]]","1","[[3,0,0],[1,0],[2]]","3","0","","","","","","3","","","","","","","","",""
"","","","","","single-stim-button","56","581526","0.0-2.0-19.1-0.1","55d5e2c9db6a810006fa078b","E1","batch5","","431","tol_tohand","","","","tol_peg_2","431","431","0","[[3,1,0],[0,0],[0]]","2","[[3,0,0],[1,0],[2]]","3","0","","","","","","3","","","","","","","","",""
"","","","","","single-stim-button","57","582206","0.0-2.0-19.1-1.1","55d5e2c9db6a810006fa078b","E1","batch5","","679","tol_toboard","","","","tol_peg_3","679","679","0","[[3,1,0],[0,0],[2]]","2","[[3,0,0],[1,0],[2]]","3","0","","","","","","3","","","","","","","","",""
"","","","","","single-stim-button","58","582902","0.0-2.0-19.2-0.2","55d5e2c9db6a810006fa078b","E1","batch5","","696","tol_tohand","","","","tol_peg_1","696","696","0","[[3,0,0],[0,0],[2]]","3","[[3,0,0],[1,0],[2]]","3","0","","","","","","3","","","","","","","","",""
"","","","","","single-stim-button","59","583454","0.0-2.0-19.2-1.2","55d5e2c9db6a810006fa078b","E1","batch5","","552","tol_toboard","","","","tol_peg_2","552","552","0","[[3,0,0],[1,0],[2]]","3","[[3,0,0],[1,0],[2]]","3","0","","","","","","3","","","","","","","","",""
"","","","","","poldrack-single-stim","60","584467","0.0-2.0-20.0","55d5e2c9db6a810006fa078b","E1","batch5","","-1","tol_feedback","","","true","","1000","1000","500","","","","","","-1","none","true","4167","5294","","","","","","","","","",""
"","","","","","html-button-response","61","586622","0.0-2.0-21.0","55d5e2c9db6a810006fa078b","E1","batch5","","2154.5","tol_trial_num","<div class = centerbox><p class = center-block-text>problem <strong>5</strong> out of 25 problems</p></div>","0","","","","","","","","","","","","","","","","","","","","","","","","",""
"","","","","","single-stim-button","62","596094","0.0-2.0-22.0-0.0","55d5e2c9db6a810006fa078b","E1","batch5","","9471","tol_tohand","","","","tol_peg_3","9471","9471","0","[[1,0,0],[2,0],[0]]","1","[[0,0,0],[1,2],[3]]","4","0","","","","","","7","","","","","","","","",""
"","","","","","single-stim-button","63","596742","0.0-2.0-22.0-1.0","55d5e2c9db6a810006fa078b","E1","batch5","","647","tol_toboard","","","","tol_peg_2","647","647","0","[[1,0,0],[2,3],[0]]","1","[[0,0,0],[1,2],[3]]","4","0","","","","","","7","","","","","","","","",""
"","","","","","single-stim-button","64","601350","0.0-2.0-22.1-0.1","55d5e2c9db6a810006fa078b","E1","batch5","","4608","tol_tohand","","","","tol_peg_1","4608","4608","0","[[0,0,0],[2,3],[0]]","2","[[0,0,0],[1,2],[3]]","4","0","","","","","","7","","","","","","","","",""
"","","","","","single-stim-button","65","602406","0.0-2.0-22.1-1.1","55d5e2c9db6a810006fa078b","E1","batch5","","1055","tol_toboard","","","","tol_peg_3","1055","1055","0","[[0,0,0],[2,3],[1]]","2","[[0,0,0],[1,2],[3]]","4","0","","","","","","7","","","","","","","","",""
"","","","","","single-stim-button","66","603326","0.0-2.0-22.2-0.2","55d5e2c9db6a810006fa078b","E1","batch5","","919","tol_tohand","","","","tol_peg_2","919","919","0","[[0,0,0],[2,0],[1]]","3","[[0,0,0],[1,2],[3]]","4","0","","","","","","7","","","","","","","","",""
"","","","","","single-stim-button","67","603998","0.0-2.0-22.2-1.2","55d5e2c9db6a810006fa078b","E1","batch5","","672","tol_toboard","","","","tol_peg_1","672","672","0","[[3,0,0],[2,0],[1]]","3","[[0,0,0],[1,2],[3]]","4","0","","","","","","7","","","","","","","","",""
"","","","","","single-stim-button","68","604422","0.0-2.0-22.3-0.3","55d5e2c9db6a810006fa078b","E1","batch5","","423","tol_tohand","","","","tol_peg_2","423","423","0","[[3,0,0],[0,0],[1]]","4","[[0,0,0],[1,2],[3]]","4","0","","","","","","7","","","","","","","","",""
"","","","","","single-stim-button","69","605398","0.0-2.0-22.3-1.3","55d5e2c9db6a810006fa078b","E1","batch5","","976","tol_toboard","","","","tol_peg_1","976","976","0","[[3,2,0],[0,0],[1]]","4","[[0,0,0],[1,2],[3]]","4","0","","","","","","7","","","","","","","","",""
"","","","","","single-stim-button","70","606046","0.0-2.0-22.4-0.4","55d5e2c9db6a810006fa078b","E1","batch5","","647","tol_tohand","","","","tol_peg_3","647","647","0","[[3,2,0],[0,0],[0]]","5","[[0,0,0],[1,2],[3]]","4","0","","","","","","7","","","","","","","","",""
"","","","","","single-stim-button","71","606654","0.0-2.0-22.4-1.4","55d5e2c9db6a810006fa078b","E1","batch5","","607","tol_toboard","","","","tol_peg_2","607","607","0","[[3,2,0],[1,0],[0]]","5","[[0,0,0],[1,2],[3]]","4","0","","","","","","7","","","","","","","","",""
"","","","","","single-stim-button","72","607070","0.0-2.0-22.5-0.5","55d5e2c9db6a810006fa078b","E1","batch5","","416","tol_tohand","","","","tol_peg_1","416","416","0","[[3,0,0],[1,0],[0]]","6","[[0,0,0],[1,2],[3]]","4","0","","","","","","7","","","","","","","","",""
"","","","","","single-stim-button","73","607494","0.0-2.0-22.5-1.5","55d5e2c9db6a810006fa078b","E1","batch5","","424","tol_toboard","","","","tol_peg_2","424","424","0","[[3,0,0],[1,2],[0]]","6","[[0,0,0],[1,2],[3]]","4","0","","","","","","7","","","","","","","","",""
"","","","","","single-stim-button","74","607942","0.0-2.0-22.6-0.6","55d5e2c9db6a810006fa078b","E1","batch5","","447","tol_tohand","","","","tol_peg_1","447","447","0","[[0,0,0],[1,2],[0]]","7","[[0,0,0],[1,2],[3]]","4","0","","","","","","7","","","","","","","","",""
"","","","","","single-stim-button","75","608606","0.0-2.0-22.6-1.6","55d5e2c9db6a810006fa078b","E1","batch5","","664","tol_toboard","","","","tol_peg_3","664","664","0","[[0,0,0],[1,2],[3]]","7","[[0,0,0],[1,2],[3]]","4","0","","","","","","7","","","","","","","","",""
"","","","","","poldrack-single-stim","76","609611","0.0-2.0-23.0","55d5e2c9db6a810006fa078b","E1","batch5","","-1","tol_feedback","","","true","","1000","1000","500","","","","","","-1","none","true","9471","16931","","","","","","","","","",""
"","","","","","html-button-response","77","610606","0.0-2.0-24.0","55d5e2c9db6a810006fa078b","E1","batch5","","994.5","tol_trial_num","<div class = centerbox><p class = center-block-text>problem <strong>6</strong> out of 25 problems</p></div>","0","","","","","","","","","","","","","","","","","","","","","","","","",""
"","","","","","single-stim-button","78","620870","0.0-2.0-25.0-0.0","55d5e2c9db6a810006fa078b","E1","batch5","","10263","tol_tohand","","","","tol_peg_3","10263","10263","0","[[0,0,0],[1,2],[0]]","1","[[1,0,0],[2,3],[0]]","5","0","","","","","","6","","","","","","","","",""
"","","","","","single-stim-button","79","621678","0.0-2.0-25.0-1.0","55d5e2c9db6a810006fa078b","E1","batch5","","808","tol_toboard","","","","tol_peg_1","808","808","0","[[3,0,0],[1,2],[0]]","1","[[1,0,0],[2,3],[0]]","5","0","","","","","","6","","","","","","","","",""
"","","","","","single-stim-button","80","625319","0.0-2.0-25.1-0.1","55d5e2c9db6a810006fa078b","E1","batch5","","3639","tol_tohand","","","","tol_peg_2","3639","3639","0","[[3,0,0],[1,0],[0]]","2","[[1,0,0],[2,3],[0]]","5","0","","","","","","6","","","","","","","","",""
"","","","","","single-stim-button","81","626239","0.0-2.0-25.1-1.1","55d5e2c9db6a810006fa078b","E1","batch5","","920","tol_toboard","","","","tol_peg_3","920","920","0","[[3,0,0],[1,0],[2]]","2","[[1,0,0],[2,3],[0]]","5","0","","","","","","6","","","","","","","","",""
"","","","","","single-stim-button","82","627014","0.0-2.0-25.2-0.2","55d5e2c9db6a810006fa078b","E1","batch5","","775","tol_tohand","","","","tol_peg_2","775","775","0","[[3,0,0],[0,0],[2]]","3","[[1,0,0],[2,3],[0]]","5","0","","","","","","6","","","","","","","","",""
"","","","","","single-stim-button","83","627727","0.0-2.0-25.2-1.2","55d5e2c9db6a810006fa078b","E1","batch5","","712","tol_toboard","","","","tol_peg_1","712","712","0","[[3,1,0],[0,0],[2]]","3","[[1,0,0],[2,3],[0]]","5","0","","","","","","6","","","","","","","","",""
"","","","","","single-stim-button","84","628455","0.0-2.0-25.3-0.3","55d5e2c9db6a810006fa078b","E1","batch5","","727","tol_tohand","","","","tol_peg_3","727","727","0","[[3,1,0],[0,0],[0]]","4","[[1,0,0],[2,3],[0]]","5","0","","","","","","6","","","","","","","","",""
"","","","","","single-stim-button","85","629191","0.0-2.0-25.3-1.3","55d5e2c9db6a810006fa078b","E1","batch5","","736","tol_toboard","","","","tol_peg_2","736","736","0","[[3,1,0],[2,0],[0]]","4","[[1,0,0],[2,3],[0]]","5","0","","","","","","6","","","","","","","","",""
"","","","","","single-stim-button","86","629582","0.0-2.0-25.4-0.4","55d5e2c9db6a810006fa078b","E1","batch5","","391","tol_tohand","","","","tol_peg_1","391","391","0","[[3,0,0],[2,0],[0]]","5","[[1,0,0],[2,3],[0]]","5","0","","","","","","6","","","","","","","","",""
"","","","","","single-stim-button","87","630806","0.0-2.0-25.4-1.4","55d5e2c9db6a810006fa078b","E1","batch5","","1223","tol_toboard","","","","tol_peg_3","1223","1223","0","[[3,0,0],[2,0],[1]]","5","[[1,0,0],[2,3],[0]]","5","0","","","","","","6","","","","","","","","",""
"","","","","","single-stim-button","88","631358","0.0-2.0-25.5-0.5","55d5e2c9db6a810006fa078b","E1","batch5","","552","tol_tohand","","","","tol_peg_1","552","552","0","[[0,0,0],[2,0],[1]]","6","[[1,0,0],[2,3],[0]]","5","0","","","","","","6","","","","","","","","",""
"","","","","","single-stim-button","89","631806","0.0-2.0-25.5-1.5","55d5e2c9db6a810006fa078b","E1","batch5","","448","tol_toboard","","","","tol_peg_2","448","448","0","[[0,0,0],[2,3],[1]]","6","[[1,0,0],[2,3],[0]]","5","0","","","","","","6","","","","","","","","",""
"","","","","","single-stim-button","90","632462","0.0-2.0-25.6-0.6","55d5e2c9db6a810006fa078b","E1","batch5","","656","tol_tohand","","","","tol_peg_3","656","656","0","[[0,0,0],[2,3],[0]]","7","[[1,0,0],[2,3],[0]]","5","0","","","","","","6","","","","","","","","",""
"","","","","","single-stim-button","91","633214","0.0-2.0-25.6-1.6","55d5e2c9db6a810006fa078b","E1","batch5","","752","tol_toboard","","","","tol_peg_1","752","752","0","[[1,0,0],[2,3],[0]]","7","[[1,0,0],[2,3],[0]]","5","0","","","","","","6","","","","","","","","",""
"","","","","","poldrack-single-stim","92","634216","0.0-2.0-26.0","55d5e2c9db6a810006fa078b","E1","batch5","","-1","tol_feedback","","","true","","1000","1000","500","","","","","","-1","none","true","10263","17003","","","","","","","","","",""
"","","","","","html-button-response","93","635159","0.0-2.0-27.0","55d5e2c9db6a810006fa078b","E1","batch5","","941.1000000238419","tol_trial_num","<div class = centerbox><p class = center-block-text>problem <strong>7</strong> out of 25 problems</p></div>","0","","","","","","","","","","","","","","","","","","","","","","","","",""
"","","","","","single-stim-button","94","639502","0.0-2.0-28.0-0.0","55d5e2c9db6a810006fa078b","E1","batch5","","4343","tol_tohand","","","","tol_peg_3","4343","4343","0","[[2,1,0],[0,0],[0]]","1","[[1,2,0],[3,0],[0]]","6","0","","","","","","5","","","","","","","","",""
"","","","","","single-stim-button","95","640455","0.0-2.0-28.0-1.0","55d5e2c9db6a810006fa078b","E1","batch5","","951","tol_toboard","","","","tol_peg_2","951","951","0","[[2,1,0],[3,0],[0]]","1","[[1,2,0],[3,0],[0]]","6","0","","","","","","5","","","","","","","","",""
"","","","","","single-stim-button","96","642431","0.0-2.0-28.1-0.1","55d5e2c9db6a810006fa078b","E1","batch5","","1976","tol_tohand","","","","tol_peg_1","1976","1976","0","[[2,0,0],[3,0],[0]]","2","[[1,2,0],[3,0],[0]]","6","0","","","","","","5","","","","","","","","",""
"","","","","","single-stim-button","97","643447","0.0-2.0-28.1-1.1","55d5e2c9db6a810006fa078b","E1","batch5","","1015","tol_toboard","","","","tol_peg_2","1015","1015","0","[[2,0,0],[3,1],[0]]","2","[[1,2,0],[3,0],[0]]","6","0","","","","","","5","","","","","","","","",""
"","","","","","single-stim-button","98","644070","0.0-2.0-28.2-0.2","55d5e2c9db6a810006fa078b","E1","batch5","","623","tol_tohand","","","","tol_peg_1","623","623","0","[[0,0,0],[3,1],[0]]","3","[[1,2,0],[3,0],[0]]","6","0","","","","","","5","","","","","","","","",""
"","","","","","single-stim-button","99","644911","0.0-2.0-28.2-1.2","55d5e2c9db6a810006fa078b","E1","batch5","","839","tol_toboard","","","","tol_peg_3","839","839","0","[[0,0,0],[3,1],[2]]","3","[[1,2,0],[3,0],[0]]","6","0","","","","","","5","","","","","","","","",""
"","","","","","single-stim-button","100","645414","0.0-2.0-28.3-0.3","55d5e2c9db6a810006fa078b","E1","batch5","","503","tol_tohand","","","","tol_peg_2","503","503","0","[[0,0,0],[3,0],[2]]","4","[[1,2,0],[3,0],[0]]","6","0","","","","","","5","","","","","","","","",""
"","","","","","single-stim-button","101","646006","0.0-2.0-28.3-1.3","55d5e2c9db6a810006fa078b","E1","batch5","","591","tol_toboard","","","","tol_peg_1","591","591","0","[[1,0,0],[3,0],[2]]","4","[[1,2,0],[3,0],[0]]","6","0","","","","","","5","","","","","","","","",""
"","","","","","single-stim-button","102","646550","0.0-2.0-28.4-0.4","55d5e2c9db6a810006fa078b","E1","batch5","","543","tol_tohand","","","","tol_peg_3","543","543","0","[[1,0,0],[3,0],[0]]","5","[[1,2,0],[3,0],[0]]","6","0","","","","","","5","","","","","","","","",""
"","","","","","single-stim-button","103","647278","0.0-2.0-28.4-1.4","55d5e2c9db6a810006fa078b","E1","batch5","","727","tol_toboard","","","","tol_peg_1","727","727","0","[[1,2,0],[3,0],[0]]","5","[[1,2,0],[3,0],[0]]","6","0","","","","","","5","","","","","","","","",""
"","","","","","poldrack-single-stim","104","648279","0.0-2.0-29.0","55d5e2c9db6a810006fa078b","E1","batch5","","-1","tol_feedback","","","true","","1000","1000","500","","","","","","-1","none","true","4343","7988","","","","","","","","","",""
"","","","","","html-button-response","105","649391","0.0-2.0-30.0","55d5e2c9db6a810006fa078b","E1","batch5","","1111.2000000476837","tol_trial_num","<div class = centerbox><p class = center-block-text>problem <strong>8</strong> out of 25 problems</p></div>","0","","","","","","","","","","","","","","","","","","","","","","","","",""
"","","","","","single-stim-button","106","660342","0.0-2.0-31.0-0.0","55d5e2c9db6a810006fa078b","E1","batch5","","10951","tol_tohand","","","","tol_peg_2","10951","10951","0","[[0,0,0],[2,0],[1]]","1","[[1,2,0],[3,0],[0]]","7","0","","","","","","4","","","","","","","","",""
"","","","","","single-stim-button","107","661295","0.0-2.0-31.0-1.0","55d5e2c9db6a810006fa078b","E1","batch5","","951","tol_toboard","","","","tol_peg_1","951","951","0","[[3,0,0],[2,0],[1]]","1","[[1,2,0],[3,0],[0]]","7","0","","","","","","4","","","","","","","","",""
"","","","","","single-stim-button","108","661895","0.0-2.0-31.1-0.1","55d5e2c9db6a810006fa078b","E1","batch5","","599","tol_tohand","","","","tol_peg_3","599","599","0","[[3,0,0],[2,0],[0]]","2","[[1,2,0],[3,0],[0]]","7","0","","","","","","4","","","","","","","","",""
"","","","","","single-stim-button","109","662479","0.0-2.0-31.1-1.1","55d5e2c9db6a810006fa078b","E1","batch5","","583","tol_toboard","","","","tol_peg_2","583","583","0","[[3,0,0],[2,1],[0]]","2","[[1,2,0],[3,0],[0]]","7","0","","","","","","4","","","","","","","","",""
"","","","","","single-stim-button","110","663143","0.0-2.0-31.2-0.2","55d5e2c9db6a810006fa078b","E1","batch5","","663","tol_tohand","","","","tol_peg_1","663","663","0","[[0,0,0],[2,1],[0]]","3","[[1,2,0],[3,0],[0]]","7","0","","","","","","4","","","","","","","","",""
"","","","","","single-stim-button","111","664511","0.0-2.0-31.2-1.2","55d5e2c9db6a810006fa078b","E1","batch5","","1367","tol_toboard","","","","tol_peg_3","1367","1367","0","[[0,0,0],[2,1],[3]]","3","[[1,2,0],[3,0],[0]]","7","0","","","","","","4","","","","","","","","",""
"","","","","","single-stim-button","112","665566","0.0-2.0-31.3-0.3","55d5e2c9db6a810006fa078b","E1","batch5","","1055","tol_tohand","","","","tol_peg_2","1055","1055","0","[[0,0,0],[2,0],[3]]","4","[[1,2,0],[3,0],[0]]","7","0","","","","","","4","","","","","","","","",""
"","","","","","single-stim-button","113","666406","0.0-2.0-31.3-1.3","55d5e2c9db6a810006fa078b","E1","batch5","","840","tol_toboard","","","","tol_peg_1","840","840","0","[[1,0,0],[2,0],[3]]","4","[[1,2,0],[3,0],[0]]","7","0","","","","","","4","","","","","","","","",""
"","","","","","single-stim-button","114","666903","0.0-2.0-31.4-0.4","55d5e2c9db6a810006fa078b","E1","batch5","","495","tol_tohand","","","","tol_peg_2","495","495","0","[[1,0,0],[0,0],[3]]","5","[[1,2,0],[3,0],[0]]","7","0","","","","","","4","","","","","","","","",""
"","","","","","single-stim-button","115","667431","0.0-2.0-31.4-1.4","55d5e2c9db6a810006fa078b","E1","batch5","","528","tol_toboard","","","","tol_peg_1","528","528","0","[[1,2,0],[0,0],[3]]","5","[[1,2,0],[3,0],[0]]","7","0","","","","","","4","","","","","","","","",""
"","","","","","single-stim-button","116","667990","0.0-2.0-31.5-0.5","55d5e2c9db6a810006fa078b","E1","batch5","","559","tol_tohand","","","","tol_peg_3","559","559","0","[[1,2,0],[0,0],[0]]","6","[[1,2,0],[3,0],[0]]","7","0","","","","","","4","","","","","","","","",""
"","","","","","single-stim-button","117","668599","0.0-2.0-31.5-1.5","55d5e2c9db6a810006fa078b","E1","batch5","","608","tol_toboard","","","","tol_peg_2","608","608","0","[[1,2,0],[3,0],[0]]","6","[[1,2,0],[3,0],[0]]","7","0","","","","","","4","","","","","","","","",""
"","","","","","poldrack-single-stim","118","669601","0.0-2.0-32.0","55d5e2c9db6a810006fa078b","E1","batch5","","-1","tol_feedback","","","true","","1000","1000","500","","","","","","-1","none","true","10951","14322","","","","","","","","","",""
"","","","","","html-button-response","119","688973","0.0-2.0-33.0","55d5e2c9db6a810006fa078b","E1","batch5","","19372.399999976158","tol_trial_num","<div class = centerbox><p class = center-block-text>problem <strong>9</strong> out of 25 problems</p></div>","0","","","","","","","","","","","","","","","","","","","","","","","","",""
"","","","","","single-stim-button","120","694446","0.0-2.0-34.0-0.0","55d5e2c9db6a810006fa078b","E1","batch5","","5472","tol_tohand","","","","tol_peg_1","5472","5472","0","[[3,0,0],[0,0],[1]]","1","[[2,1,0],[3,0],[0]]","8","0","","","","","","6","","","","","","","","",""
"","","","","","single-stim-button","121","695214","0.0-2.0-34.0-1.0","55d5e2c9db6a810006fa078b","E1","batch5","","766","tol_toboard","","","","tol_peg_2","766","766","0","[[3,0,0],[2,0],[1]]","1","[[2,1,0],[3,0],[0]]","8","0","","","","","","6","","","","","","","","",""
"","","","","","single-stim-button","122","696261","0.0-2.0-34.1-0.1","55d5e2c9db6a810006fa078b","E1","batch5","","1047","tol_tohand","","","","tol_peg_1","1047","1047","0","[[0,0,0],[2,0],[1]]","2","[[2,1,0],[3,0],[0]]","8","0","","","","","","6","","","","","","","","",""
"","","","","","single-stim-button","123","696654","0.0-2.0-34.1-1.1","55d5e2c9db6a810006fa078b","E1","batch5","","392","tol_toboard","","","","tol_peg_2","392","392","0","[[0,0,0],[2,3],[1]]","2","[[2,1,0],[3,0],[0]]","8","0","","","","","","6","","","","","","","","",""
"","","","","","single-stim-button","124","697166","0.0-2.0-34.2-0.2","55d5e2c9db6a810006fa078b","E1","batch5","","512","tol_tohand","","","","tol_peg_3","512","512","0","[[0,0,0],[2,3],[0]]","3","[[2,1,0],[3,0],[0]]","8","0","","","","","","6","","","","","","","","",""
"","","","","","single-stim-button","125","698054","0.0-2.0-34.2-1.2","55d5e2c9db6a810006fa078b","E1","batch5","","888","tol_toboard","","","","tol_peg_1","888","888","0","[[1,0,0],[2,3],[0]]","3","[[2,1,0],[3,0],[0]]","8","0","","","","","","6","","","","","","","","",""
"","","","","","single-stim-button","126","698485","0.0-2.0-34.3-0.3","55d5e2c9db6a810006fa078b","E1","batch5","","431","tol_tohand","","","","tol_peg_2","431","431","0","[[1,0,0],[2,0],[0]]","4","[[2,1,0],[3,0],[0]]","8","0","","","","","","6","","","","","","","","",""
"","","","","","single-stim-button","127","701150","0.0-2.0-34.3-1.3","55d5e2c9db6a810006fa078b","E1","batch5","","2664","tol_toboard","","","","tol_peg_3","2664","2664","0","[[1,0,0],[2,0],[3]]","4","[[2,1,0],[3,0],[0]]","8","0","","","","","","6","","","","","","","","",""
"","","","","","single-stim-button","128","702478","0.0-2.0-34.4-0.4","55d5e2c9db6a810006fa078b","E1","batch5","","1328","tol_tohand","","","","tol_peg_1","1328","1328","0","[[0,0,0],[2,0],[3]]","5","[[2,1,0],[3,0],[0]]","8","0","","","","","","6","","","","","","","","",""
"","","","","","single-stim-button","129","705038","0.0-2.0-34.4-1.4","55d5e2c9db6a810006fa078b","E1","batch5","","2560","tol_toboard","","","","tol_peg_2","2560","2560","0","[[0,0,0],[2,1],[3]]","5","[[2,1,0],[3,0],[0]]","8","0","","","","","","6","","","","","","","","",""
"","","","","","single-stim-button","130","707198","0.0-2.0-34.5-0.5","55d5e2c9db6a810006fa078b","E1","batch5","","2159","tol_tohand","","","","tol_peg_3","2159","2159","0","[[0,0,0],[2,1],[0]]","6","[[2,1,0],[3,0],[0]]","8","0","","","","","","6","","","","","","","","",""
"","","","","","single-stim-button","131","707710","0.0-2.0-34.5-1.5","55d5e2c9db6a810006fa078b","E1","batch5","","512","tol_toboard","","","","tol_peg_1","512","512","0","[[3,0,0],[2,1],[0]]","6","[[2,1,0],[3,0],[0]]","8","0","","","","","","6","","","","","","","","",""
"","","","","","single-stim-button","132","710438","0.0-2.0-34.6-0.6","55d5e2c9db6a810006fa078b","E1","batch5","","2728","tol_tohand","","","","tol_peg_2","2728","2728","0","[[3,0,0],[2,0],[0]]","7","[[2,1,0],[3,0],[0]]","8","0","","","","","","6","","","","","","","","",""
"","","","","","single-stim-button","133","713117","0.0-2.0-34.6-1.6","55d5e2c9db6a810006fa078b","E1","batch5","","2679","tol_toboard","","","","tol_peg_1","2679","2679","0","[[3,1,0],[2,0],[0]]","7","[[2,1,0],[3,0],[0]]","8","0","","","","","","6","","","","","","","","",""
"","","","","","single-stim-button","134","713654","0.0-2.0-34.7-0.7","55d5e2c9db6a810006fa078b","E1","batch5","","536","tol_tohand","","","","tol_peg_2","536","536","0","[[3,1,0],[0,0],[0]]","8","[[2,1,0],[3,0],[0]]","8","0","","","","","","6","","","","","","","","",""
"","","","","","single-stim-button","135","714502","0.0-2.0-34.7-1.7","55d5e2c9db6a810006fa078b","E1","batch5","","848","tol_toboard","","","","tol_peg_3","848","848","0","[[3,1,0],[0,0],[2]]","8","[[2,1,0],[3,0],[0]]","8","0","","","","","","6","","","","","","","","",""
"","","","","","single-stim-button","136","716166","0.0-2.0-34.8-0.8","55d5e2c9db6a810006fa078b","E1","batch5","","1664","tol_tohand","","","","tol_peg_1","1664","1664","0","[[3,0,0],[0,0],[2]]","9","[[2,1,0],[3,0],[0]]","8","0","","","","","","6","","","","","","","","",""
"","","","","","single-stim-button","137","717526","0.0-2.0-34.8-1.8","55d5e2c9db6a810006fa078b","E1","batch5","","1360","tol_toboard","","","","tol_peg_2","1360","1360","0","[[3,0,0],[1,0],[2]]","9","[[2,1,0],[3,0],[0]]","8","0","","","","","","6","","","","","","","","",""
"","","","","","single-stim-button","138","718437","0.0-2.0-34.9-0.9","55d5e2c9db6a810006fa078b","E1","batch5","","911","tol_tohand","","","","tol_peg_1","911","911","0","[[0,0,0],[1,0],[2]]","10","[[2,1,0],[3,0],[0]]","8","0","","","","","","6","","","","","","","","",""
"","","","","","single-stim-button","139","718854","0.0-2.0-34.9-1.9","55d5e2c9db6a810006fa078b","E1","batch5","","416","tol_toboard","","","","tol_peg_2","416","416","0","[[0,0,0],[1,3],[2]]","10","[[2,1,0],[3,0],[0]]","8","0","","","","","","6","","","","","","","","",""
"","","","","","single-stim-button","140","719430","0.0-2.0-34.10-0.10","55d5e2c9db6a810006fa078b","E1","batch5","","576","tol_tohand","","","","tol_peg_3","576","576","0","[[0,0,0],[1,3],[0]]","11","[[2,1,0],[3,0],[0]]","8","0","","","","","","6","","","","","","","","",""
"","","","","","single-stim-button","141","720214","0.0-2.0-34.10-1.10","55d5e2c9db6a810006fa078b","E1","batch5","","784","tol_toboard","","","","tol_peg_1","784","784","0","[[2,0,0],[1,3],[0]]","11","[[2,1,0],[3,0],[0]]","8","0","","","","","","6","","","","","","","","",""
"","","","","","single-stim-button","142","720678","0.0-2.0-34.11-0.11","55d5e2c9db6a810006fa078b","E1","batch5","","464","tol_tohand","","","","tol_peg_2","464","464","0","[[2,0,0],[1,0],[0]]","12","[[2,1,0],[3,0],[0]]","8","0","","","","","","6","","","","","","","","",""
"","","","","","single-stim-button","143","721366","0.0-2.0-34.11-1.11","55d5e2c9db6a810006fa078b","E1","batch5","","688","tol_toboard","","","","tol_peg_3","688","688","0","[[2,0,0],[1,0],[3]]","12","[[2,1,0],[3,0],[0]]","8","0","","","","","","6","","","","","","","","",""
"","","","","","single-stim-button","144","722006","0.0-2.0-34.12-0.12","55d5e2c9db6a810006fa078b","E1","batch5","","639","tol_tohand","","","","tol_peg_2","639","639","0","[[2,0,0],[0,0],[3]]","13","[[2,1,0],[3,0],[0]]","8","0","","","","","","6","","","","","","","","",""
"","","","","","single-stim-button","145","722542","0.0-2.0-34.12-1.12","55d5e2c9db6a810006fa078b","E1","batch5","","536","tol_toboard","","","","tol_peg_1","536","536","0","[[2,1,0],[0,0],[3]]","13","[[2,1,0],[3,0],[0]]","8","0","","","","","","6","","","","","","","","",""
"","","","","","single-stim-button","146","723158","0.0-2.0-34.13-0.13","55d5e2c9db6a810006fa078b","E1","batch5","","616","tol_tohand","","","","tol_peg_3","616","616","0","[[2,1,0],[0,0],[0]]","14","[[2,1,0],[3,0],[0]]","8","0","","","","","","6","","","","","","","","",""
"","","","","","single-stim-button","147","723637","0.0-2.0-34.13-1.13","55d5e2c9db6a810006fa078b","E1","batch5","","479","tol_toboard","","","","tol_peg_2","479","479","0","[[2,1,0],[3,0],[0]]","14","[[2,1,0],[3,0],[0]]","8","0","","","","","","6","","","","","","","","",""
"","","","","","poldrack-single-stim","148","724639","0.0-2.0-35.0","55d5e2c9db6a810006fa078b","E1","batch5","","-1","tol_feedback","","","true","","1000","1000","500","","","","","","-1","none","true","5472","19083","","","","","","","","","",""
"","","","","","html-button-response","149","725702","0.0-2.0-36.0","55d5e2c9db6a810006fa078b","E1","batch5","","1062.6000000238419","tol_trial_num","<div class = centerbox><p class = center-block-text>problem <strong>10</strong> out of 25 problems</p></div>","0","","","","","","","","","","","","","","","","","","","","","","","","",""
"","","","","","single-stim-button","150","730414","0.0-2.0-37.0-0.0","55d5e2c9db6a810006fa078b","E1","batch5","","4712","tol_tohand","","","","tol_peg_2","4712","4712","0","[[3,0,0],[0,0],[2]]","1","[[3,0,0],[2,1],[0]]","9","0","","","","","","3","","","","","","","","",""
"","","","","","single-stim-button","151","730870","0.0-2.0-37.0-1.0","55d5e2c9db6a810006fa078b","E1","batch5","","456","tol_toboard","","","","tol_peg_1","456","456","0","[[3,1,0],[0,0],[2]]","1","[[3,0,0],[2,1],[0]]","9","0","","","","","","3","","","","","","","","",""
"","","","","","single-stim-button","152","731342","0.0-2.0-37.1-0.1","55d5e2c9db6a810006fa078b","E1","batch5","","472","tol_tohand","","","","tol_peg_3","472","472","0","[[3,1,0],[0,0],[0]]","2","[[3,0,0],[2,1],[0]]","9","0","","","","","","3","","","","","","","","",""
"","","","","","single-stim-button","153","731822","0.0-2.0-37.1-1.1","55d5e2c9db6a810006fa078b","E1","batch5","","480","tol_toboard","","","","tol_peg_2","480","480","0","[[3,1,0],[2,0],[0]]","2","[[3,0,0],[2,1],[0]]","9","0","","","","","","3","","","","","","","","",""
"","","","","","single-stim-button","154","732270","0.0-2.0-37.2-0.2","55d5e2c9db6a810006fa078b","E1","batch5","","448","tol_tohand","","","","tol_peg_1","448","448","0","[[3,0,0],[2,0],[0]]","3","[[3,0,0],[2,1],[0]]","9","0","","","","","","3","","","","","","","","",""
"","","","","","single-stim-button","155","732766","0.0-2.0-37.2-1.2","55d5e2c9db6a810006fa078b","E1","batch5","","496","tol_toboard","","","","tol_peg_2","496","496","0","[[3,0,0],[2,1],[0]]","3","[[3,0,0],[2,1],[0]]","9","0","","","","","","3","","","","","","","","",""
"","","","","","poldrack-single-stim","156","733768","0.0-2.0-38.0","55d5e2c9db6a810006fa078b","E1","batch5","","-1","tol_feedback","","","true","","1000","1000","500","","","","","","-1","none","true","4712","5632","","","","","","","","","",""
"","","","","","html-button-response","157","734998","0.0-2.0-39.0","55d5e2c9db6a810006fa078b","E1","batch5","","1229.2999999523163","tol_trial_num","<div class = centerbox><p class = center-block-text>problem <strong>11</strong> out of 25 problems</p></div>","0","","","","","","","","","","","","","","","","","","","","","","","","",""
"","","","","","single-stim-button","158","747774","0.0-2.0-40.0-0.0","55d5e2c9db6a810006fa078b","E1","batch5","","12776","tol_tohand","","","","tol_peg_2","12776","12776","0","[[1,2,0],[0,0],[0]]","1","[[2,0,0],[1,3],[0]]","10","0","","","","","","6","","","","","","","","",""
"","","","","","single-stim-button","159","748556","0.0-2.0-40.0-1.0","55d5e2c9db6a810006fa078b","E1","batch5","","782","tol_toboard","","","","tol_peg_3","782","782","0","[[1,2,0],[0,0],[3]]","1","[[2,0,0],[1,3],[0]]","10","0","","","","","","6","","","","","","","","",""
"","","","","","single-stim-button","160","749061","0.0-2.0-40.1-0.1","55d5e2c9db6a810006fa078b","E1","batch5","","504","tol_tohand","","","","tol_peg_1","504","504","0","[[1,0,0],[0,0],[3]]","2","[[2,0,0],[1,3],[0]]","10","0","","","","","","6","","","","","","","","",""
"","","","","","single-stim-button","161","749564","0.0-2.0-40.1-1.1","55d5e2c9db6a810006fa078b","E1","batch5","","503","tol_toboard","","","","tol_peg_2","503","503","0","[[1,0,0],[2,0],[3]]","2","[[2,0,0],[1,3],[0]]","10","0","","","","","","6","","","","","","","","",""
"","","","","","single-stim-button","162","750037","0.0-2.0-40.2-0.2","55d5e2c9db6a810006fa078b","E1","batch5","","472","tol_tohand","","","","tol_peg_1","472","472","0","[[0,0,0],[2,0],[3]]","3","[[2,0,0],[1,3],[0]]","10","0","","","","","","6","","","","","","","","",""
"","","","","","single-stim-button","163","750484","0.0-2.0-40.2-1.2","55d5e2c9db6a810006fa078b","E1","batch5","","447","tol_toboard","","","","tol_peg_2","447","447","0","[[0,0,0],[2,1],[3]]","3","[[2,0,0],[1,3],[0]]","10","0","","","","","","6","","","","","","","","",""
"","","","","","single-stim-button","164","754301","0.0-2.0-40.3-0.3","55d5e2c9db6a810006fa078b","E1","batch5","","3816","tol_tohand","","","","tol_peg_3","3816","3816","0","[[0,0,0],[2,1],[0]]","4","[[2,0,0],[1,3],[0]]","10","0","","","","","","6","","","","","","","","",""
"","","","","","single-stim-button","165","755029","0.0-2.0-40.3-1.3","55d5e2c9db6a810006fa078b","E1","batch5","","727","tol_toboard","","","","tol_peg_1","727","727","0","[[3,0,0],[2,1],[0]]","4","[[2,0,0],[1,3],[0]]","10","0","","","","","","6","","","","","","","","",""
"","","","","","single-stim-button","166","755485","0.0-2.0-40.4-0.4","55d5e2c9db6a810006fa078b","E1","batch5","","456","tol_tohand","","","","tol_peg_2","456","456","0","[[3,0,0],[2,0],[0]]","5","[[2,0,0],[1,3],[0]]","10","0","","","","","","6","","","","","","","","",""
"","","","","","single-stim-button","167","756149","0.0-2.0-40.4-1.4","55d5e2c9db6a810006fa078b","E1","batch5","","664","tol_toboard","","","","tol_peg_3","664","664","0","[[3,0,0],[2,0],[1]]","5","[[2,0,0],[1,3],[0]]","10","0","","","","","","6","","","","","","","","",""
"","","","","","single-stim-button","168","758253","0.0-2.0-40.5-0.5","55d5e2c9db6a810006fa078b","E1","batch5","","2104","tol_tohand","","","","tol_peg_2","2104","2104","0","[[3,0,0],[0,0],[1]]","6","[[2,0,0],[1,3],[0]]","10","0","","","","","","6","","","","","","","","",""
"","","","","","single-stim-button","169","758685","0.0-2.0-40.5-1.5","55d5e2c9db6a810006fa078b","E1","batch5","","432","tol_toboard","","","","tol_peg_1","432","432","0","[[3,2,0],[0,0],[1]]","6","[[2,0,0],[1,3],[0]]","10","0","","","","","","6","","","","","","","","",""
"","","","","","single-stim-button","170","759276","0.0-2.0-40.6-0.6","55d5e2c9db6a810006fa078b","E1","batch5","","591","tol_tohand","","","","tol_peg_3","591","591","0","[[3,2,0],[0,0],[0]]","7","[[2,0,0],[1,3],[0]]","10","0","","","","","","6","","","","","","","","",""
"","","","","","single-stim-button","171","759701","0.0-2.0-40.6-1.6","55d5e2c9db6a810006fa078b","E1","batch5","","424","tol_toboard","","","","tol_peg_2","424","424","0","[[3,2,0],[1,0],[0]]","7","[[2,0,0],[1,3],[0]]","10","0","","","","","","6","","","","","","","","",""
"","","","","","single-stim-button","172","760300","0.0-2.0-40.7-0.7","55d5e2c9db6a810006fa078b","E1","batch5","","599","tol_tohand","","","","tol_peg_1","599","599","0","[[3,0,0],[1,0],[0]]","8","[[2,0,0],[1,3],[0]]","10","0","","","","","","6","","","","","","","","",""
"","","","","","single-stim-button","173","760877","0.0-2.0-40.7-1.7","55d5e2c9db6a810006fa078b","E1","batch5","","576","tol_toboard","","","","tol_peg_3","576","576","0","[[3,0,0],[1,0],[2]]","8","[[2,0,0],[1,3],[0]]","10","0","","","","","","6","","","","","","","","",""
"","","","","","single-stim-button","174","761469","0.0-2.0-40.8-0.8","55d5e2c9db6a810006fa078b","E1","batch5","","592","tol_tohand","","","","tol_peg_1","592","592","0","[[0,0,0],[1,0],[2]]","9","[[2,0,0],[1,3],[0]]","10","0","","","","","","6","","","","","","","","",""
"","","","","","single-stim-button","175","761869","0.0-2.0-40.8-1.8","55d5e2c9db6a810006fa078b","E1","batch5","","399","tol_toboard","","","","tol_peg_2","399","399","0","[[0,0,0],[1,3],[2]]","9","[[2,0,0],[1,3],[0]]","10","0","","","","","","6","","","","","","","","",""
"","","","","","single-stim-button","176","762261","0.0-2.0-40.9-0.9","55d5e2c9db6a810006fa078b","E1","batch5","","391","tol_tohand","","","","tol_peg_3","391","391","0","[[0,0,0],[1,3],[0]]","10","[[2,0,0],[1,3],[0]]","10","0","","","","","","6","","","","","","","","",""
"","","","","","single-stim-button","177","763029","0.0-2.0-40.9-1.9","55d5e2c9db6a810006fa078b","E1","batch5","","768","tol_toboard","","","","tol_peg_1","768","768","0","[[2,0,0],[1,3],[0]]","10","[[2,0,0],[1,3],[0]]","10","0","","","","","","6","","","","","","","","",""
"","","","","","poldrack-single-stim","178","764034","0.0-2.0-41.0","55d5e2c9db6a810006fa078b","E1","batch5","","-1","tol_feedback","","","true","","1000","1000","500","","","","","","-1","none","true","12776","22301","","","","","","","","","",""
"","","","","","html-button-response","179","764941","0.0-2.0-42.0","55d5e2c9db6a810006fa078b","E1","batch5","","905.3999999761581","tol_trial_num","<div class = centerbox><p class = center-block-text>problem <strong>12</strong> out of 25 problems</p></div>","0","","","","","","","","","","","","","","","","","","","","","","","","",""
"","","","","","single-stim-button","180","770565","0.0-2.0-43.0-0.0","55d5e2c9db6a810006fa078b","E1","batch5","","5623","tol_tohand","","","","tol_peg_1","5623","5623","0","[[1,0,0],[3,0],[0]]","1","[[2,3,0],[0,0],[1]]","11","0","","","","","","4","","","","","","","","",""
"","","","","","single-stim-button","181","771237","0.0-2.0-43.0-1.0","55d5e2c9db6a810006fa078b","E1","batch5","","672","tol_toboard","","","","tol_peg_2","672","672","0","[[1,0,0],[3,2],[0]]","1","[[2,3,0],[0,0],[1]]","11","0","","","","","","4","","","","","","","","",""
"","","","","","single-stim-button","182","771845","0.0-2.0-43.1-0.1","55d5e2c9db6a810006fa078b","E1","batch5","","608","tol_tohand","","","","tol_peg_1","608","608","0","[[0,0,0],[3,2],[0]]","2","[[2,3,0],[0,0],[1]]","11","0","","","","","","4","","","","","","","","",""
"","","","","","single-stim-button","183","772517","0.0-2.0-43.1-1.1","55d5e2c9db6a810006fa078b","E1","batch5","","672","tol_toboard","","","","tol_peg_3","672","672","0","[[0,0,0],[3,2],[1]]","2","[[2,3,0],[0,0],[1]]","11","0","","","","","","4","","","","","","","","",""
"","","","","","single-stim-button","184","773077","0.0-2.0-43.2-0.2","55d5e2c9db6a810006fa078b","E1","batch5","","560","tol_tohand","","","","tol_peg_2","560","560","0","[[0,0,0],[3,0],[1]]","3","[[2,3,0],[0,0],[1]]","11","0","","","","","","4","","","","","","","","",""
"","","","","","single-stim-button","185","773629","0.0-2.0-43.2-1.2","55d5e2c9db6a810006fa078b","E1","batch5","","551","tol_toboard","","","","tol_peg_1","551","551","0","[[2,0,0],[3,0],[1]]","3","[[2,3,0],[0,0],[1]]","11","0","","","","","","4","","","","","","","","",""
"","","","","","single-stim-button","186","774125","0.0-2.0-43.3-0.3","55d5e2c9db6a810006fa078b","E1","batch5","","496","tol_tohand","","","","tol_peg_2","496","496","0","[[2,0,0],[0,0],[1]]","4","[[2,3,0],[0,0],[1]]","11","0","","","","","","4","","","","","","","","",""
"","","","","","single-stim-button","187","774621","0.0-2.0-43.3-1.3","55d5e2c9db6a810006fa078b","E1","batch5","","496","tol_toboard","","","","tol_peg_1","496","496","0","[[2,3,0],[0,0],[1]]","4","[[2,3,0],[0,0],[1]]","11","0","","","","","","4","","","","","","","","",""
"","","","","","poldrack-single-stim","188","775630","0.0-2.0-44.0","55d5e2c9db6a810006fa078b","E1","batch5","","-1","tol_feedback","","","true","","1000","1000","500","","","","","","-1","none","true","5623","7287","","","","","","","","","",""
"","","","","","html-button-response","189","776613","0.0-2.0-45.0","55d5e2c9db6a810006fa078b","E1","batch5","","982.8000000715256","tol_trial_num","<div class = centerbox><p class = center-block-text>problem <strong>13</strong> out of 25 problems</p></div>","0","","","","","","","","","","","","","","","","","","","","","","","","",""
"","","","","","single-stim-button","190","784181","0.0-2.0-46.0-0.0","55d5e2c9db6a810006fa078b","E1","batch5","","7568","tol_tohand","","","","tol_peg_2","7568","7568","0","[[1,2,0],[0,0],[0]]","1","[[0,0,0],[2,3],[1]]","12","0","","","","","","4","","","","","","","","",""
"","","","","","single-stim-button","191","784749","0.0-2.0-46.0-1.0","55d5e2c9db6a810006fa078b","E1","batch5","","568","tol_toboard","","","","tol_peg_3","568","568","0","[[1,2,0],[0,0],[3]]","1","[[0,0,0],[2,3],[1]]","12","0","","","","","","4","","","","","","","","",""
"","","","","","single-stim-button","192","785717","0.0-2.0-46.1-0.1","55d5e2c9db6a810006fa078b","E1","batch5","","968","tol_tohand","","","","tol_peg_1","968","968","0","[[1,0,0],[0,0],[3]]","2","[[0,0,0],[2,3],[1]]","12","0","","","","","","4","","","","","","","","",""
"","","","","","single-stim-button","193","786213","0.0-2.0-46.1-1.1","55d5e2c9db6a810006fa078b","E1","batch5","","496","tol_toboard","","","","tol_peg_2","496","496","0","[[1,0,0],[2,0],[3]]","2","[[0,0,0],[2,3],[1]]","12","0","","","","","","4","","","","","","","","",""
"","","","","","single-stim-button","194","786637","0.0-2.0-46.2-0.2","55d5e2c9db6a810006fa078b","E1","batch5","","424","tol_tohand","","","","tol_peg_3","424","424","0","[[1,0,0],[2,0],[0]]","3","[[0,0,0],[2,3],[1]]","12","0","","","","","","4","","","","","","","","",""
"","","","","","single-stim-button","195","787101","0.0-2.0-46.2-1.2","55d5e2c9db6a810006fa078b","E1","batch5","","464","tol_toboard","","","","tol_peg_2","464","464","0","[[1,0,0],[2,3],[0]]","3","[[0,0,0],[2,3],[1]]","12","0","","","","","","4","","","","","","","","",""
"","","","","","single-stim-button","196","787821","0.0-2.0-46.3-0.3","55d5e2c9db6a810006fa078b","E1","batch5","","720","tol_tohand","","","","tol_peg_1","720","720","0","[[0,0,0],[2,3],[0]]","4","[[0,0,0],[2,3],[1]]","12","0","","","","","","4","","","","","","","","",""
"","","","","","single-stim-button","197","788565","0.0-2.0-46.3-1.3","55d5e2c9db6a810006fa078b","E1","batch5","","744","tol_toboard","","","","tol_peg_3","744","744","0","[[0,0,0],[2,3],[1]]","4","[[0,0,0],[2,3],[1]]","12","0","","","","","","4","","","","","","","","",""
"","","","","","poldrack-single-stim","198","789567","0.0-2.0-47.0","55d5e2c9db6a810006fa078b","E1","batch5","","-1","tol_feedback","","","true","","1000","1000","500","","","","","","-1","none","true","7568","9680","","","","","","","","","",""
"","","","","","html-button-response","199","793052","0.0-2.0-48.0","55d5e2c9db6a810006fa078b","E1","batch5","","3485.100000023842","attention_check","<p class = block-text>How many balls are in your board<br></p>","1","true","","","","","","","","","","","","","","","","","","","","","","","",""
"","","","","","html-button-response","200","794221","0.0-2.0-49.0","55d5e2c9db6a810006fa078b","E1","batch5","","1167.7999999523163","tol_trial_num","<div class = centerbox><p class = center-block-text>problem <strong>14</strong> out of 25 problems</p></div>","0","","","","","","","","","","","","","","","","","","","","","","","","",""
"","","","","","single-stim-button","201","797933","0.0-2.0-50.0-0.0","55d5e2c9db6a810006fa078b","E1","batch5","","3711","tol_tohand","","","","tol_peg_1","3711","3711","0","[[2,0,0],[3,0],[0]]","1","[[1,2,0],[3,0],[0]]","13","0","","","","","","4","","","","","","","","",""
"","","","","","single-stim-button","202","799357","0.0-2.0-50.0-1.0","55d5e2c9db6a810006fa078b","E1","batch5","","1424","tol_toboard","","","","tol_peg_2","1424","1424","0","[[2,0,0],[3,1],[0]]","1","[[1,2,0],[3,0],[0]]","13","0","","","","","","4","","","","","","","","",""
"","","","","","single-stim-button","203","800028","0.0-2.0-50.1-0.1","55d5e2c9db6a810006fa078b","E1","batch5","","671","tol_tohand","","","","tol_peg_1","671","671","0","[[0,0,0],[3,1],[0]]","2","[[1,2,0],[3,0],[0]]","13","0","","","","","","4","","","","","","","","",""
"","","","","","single-stim-button","204","800708","0.0-2.0-50.1-1.1","55d5e2c9db6a810006fa078b","E1","batch5","","679","tol_toboard","","","","tol_peg_3","679","679","0","[[0,0,0],[3,1],[2]]","2","[[1,2,0],[3,0],[0]]","13","0","","","","","","4","","","","","","","","",""
"","","","","","single-stim-button","205","801116","0.0-2.0-50.2-0.2","55d5e2c9db6a810006fa078b","E1","batch5","","407","tol_tohand","","","","tol_peg_2","407","407","0","[[0,0,0],[3,0],[2]]","3","[[1,2,0],[3,0],[0]]","13","0","","","","","","4","","","","","","","","",""
"","","","","","single-stim-button","206","801676","0.0-2.0-50.2-1.2","55d5e2c9db6a810006fa078b","E1","batch5","","559","tol_toboard","","","","tol_peg_1","559","559","0","[[1,0,0],[3,0],[2]]","3","[[1,2,0],[3,0],[0]]","13","0","","","","","","4","","","","","","","","",""
"","","","","","single-stim-button","207","802244","0.0-2.0-50.3-0.3","55d5e2c9db6a810006fa078b","E1","batch5","","568","tol_tohand","","","","tol_peg_3","568","568","0","[[1,0,0],[3,0],[0]]","4","[[1,2,0],[3,0],[0]]","13","0","","","","","","4","","","","","","","","",""
"","","","","","single-stim-button","208","802837","0.0-2.0-50.3-1.3","55d5e2c9db6a810006fa078b","E1","batch5","","593","tol_toboard","","","","tol_peg_1","593","593","0","[[1,2,0],[3,0],[0]]","4","[[1,2,0],[3,0],[0]]","13","0","","","","","","4","","","","","","","","",""
"","","","","","poldrack-single-stim","209","803838","0.0-2.0-51.0","55d5e2c9db6a810006fa078b","E1","batch5","","-1","tol_feedback","","","true","","1000","1000","500","","","","","","-1","none","true","3711","5357","","","","","","","","","",""
"","","","","","html-button-response","210","805165","0.0-2.0-52.0","55d5e2c9db6a810006fa078b","E1","batch5","","1326.2999999523163","tol_trial_num","<div class = centerbox><p class = center-block-text>problem <strong>15</strong> out of 25 problems</p></div>","0","","","","","","","","","","","","","","","","","","","","","","","","",""
"","","","","","single-stim-button","211","810853","0.0-2.0-53.0-0.0","55d5e2c9db6a810006fa078b","E1","batch5","","5688","tol_tohand","","","","tol_peg_1","5688","5688","0","[[1,0,0],[3,0],[0]]","1","[[2,0,0],[3,0],[1]]","14","0","","","","","","3","","","","","","","","",""
"","","","","","single-stim-button","212","811493","0.0-2.0-53.0-1.0","55d5e2c9db6a810006fa078b","E1","batch5","","639","tol_toboard","","","","tol_peg_2","639","639","0","[[1,0,0],[3,2],[0]]","1","[[2,0,0],[3,0],[1]]","14","0","","","","","","3","","","","","","","","",""
"","","","","","single-stim-button","213","811982","0.0-2.0-53.1-0.1","55d5e2c9db6a810006fa078b","E1","batch5","","488","tol_tohand","","","","tol_peg_1","488","488","0","[[0,0,0],[3,2],[0]]","2","[[2,0,0],[3,0],[1]]","14","0","","","","","","3","","","","","","","","",""
"","","","","","single-stim-button","214","812581","0.0-2.0-53.1-1.1","55d5e2c9db6a810006fa078b","E1","batch5","","599","tol_toboard","","","","tol_peg_3","599","599","0","[[0,0,0],[3,2],[1]]","2","[[2,0,0],[3,0],[1]]","14","0","","","","","","3","","","","","","","","",""
"","","","","","single-stim-button","215","813205","0.0-2.0-53.2-0.2","55d5e2c9db6a810006fa078b","E1","batch5","","623","tol_tohand","","","","tol_peg_2","623","623","0","[[0,0,0],[3,0],[1]]","3","[[2,0,0],[3,0],[1]]","14","0","","","","","","3","","","","","","","","",""
"","","","","","single-stim-button","216","813925","0.0-2.0-53.2-1.2","55d5e2c9db6a810006fa078b","E1","batch5","","720","tol_toboard","","","","tol_peg_1","720","720","0","[[2,0,0],[3,0],[1]]","3","[[2,0,0],[3,0],[1]]","14","0","","","","","","3","","","","","","","","",""
"","","","","","poldrack-single-stim","217","814926","0.0-2.0-54.0","55d5e2c9db6a810006fa078b","E1","batch5","","-1","tol_feedback","","","true","","1000","1000","500","","","","","","-1","none","true","5688","6799","","","","","","","","","",""
"","","","","","html-button-response","218","867085","0.0-2.0-55.0","55d5e2c9db6a810006fa078b","E1","batch5","","52158.199999928474","tol_trial_num","<div class = centerbox><p class = center-block-text>problem <strong>16</strong> out of 25 problems</p></div>","0","","","","","","","","","","","","","","","","","","","","","","","","",""
"","","","","","single-stim-button","219","872252","0.0-2.0-56.0-0.0","55d5e2c9db6a810006fa078b","E1","batch5","","5166","tol_tohand","","","","tol_peg_2","5166","5166","0","[[0,0,0],[2,0],[1]]","1","[[2,3,0],[1,0],[0]]","15","0","","","","","","7","","","","","","","","",""
"","","","","","single-stim-button","220","872883","0.0-2.0-56.0-1.0","55d5e2c9db6a810006fa078b","E1","batch5","","631","tol_toboard","","","","tol_peg_1","631","631","0","[[3,0,0],[2,0],[1]]","1","[[2,3,0],[1,0],[0]]","15","0","","","","","","7","","","","","","","","",""
"","","","","","single-stim-button","221","874260","0.0-2.0-56.1-0.1","55d5e2c9db6a810006fa078b","E1","batch5","","1375","tol_tohand","","","","tol_peg_2","1375","1375","0","[[3,0,0],[0,0],[1]]","2","[[2,3,0],[1,0],[0]]","15","0","","","","","","7","","","","","","","","",""
"","","","","","single-stim-button","222","874636","0.0-2.0-56.1-1.1","55d5e2c9db6a810006fa078b","E1","batch5","","376","tol_toboard","","","","tol_peg_1","376","376","0","[[3,2,0],[0,0],[1]]","2","[[2,3,0],[1,0],[0]]","15","0","","","","","","7","","","","","","","","",""
"","","","","","single-stim-button","223","875324","0.0-2.0-56.2-0.2","55d5e2c9db6a810006fa078b","E1","batch5","","688","tol_tohand","","","","tol_peg_3","688","688","0","[[3,2,0],[0,0],[0]]","3","[[2,3,0],[1,0],[0]]","15","0","","","","","","7","","","","","","","","",""
"","","","","","single-stim-button","224","875988","0.0-2.0-56.2-1.2","55d5e2c9db6a810006fa078b","E1","batch5","","664","tol_toboard","","","","tol_peg_2","664","664","0","[[3,2,0],[1,0],[0]]","3","[[2,3,0],[1,0],[0]]","15","0","","","","","","7","","","","","","","","",""
"","","","","","single-stim-button","225","876492","0.0-2.0-56.3-0.3","55d5e2c9db6a810006fa078b","E1","batch5","","504","tol_tohand","","","","tol_peg_1","504","504","0","[[3,0,0],[1,0],[0]]","4","[[2,3,0],[1,0],[0]]","15","0","","","","","","7","","","","","","","","",""
"","","","","","single-stim-button","226","877236","0.0-2.0-56.3-1.3","55d5e2c9db6a810006fa078b","E1","batch5","","744","tol_toboard","","","","tol_peg_3","744","744","0","[[3,0,0],[1,0],[2]]","4","[[2,3,0],[1,0],[0]]","15","0","","","","","","7","","","","","","","","",""
"","","","","","single-stim-button","227","877828","0.0-2.0-56.4-0.4","55d5e2c9db6a810006fa078b","E1","batch5","","592","tol_tohand","","","","tol_peg_1","592","592","0","[[0,0,0],[1,0],[2]]","5","[[2,3,0],[1,0],[0]]","15","0","","","","","","7","","","","","","","","",""
"","","","","","single-stim-button","228","878276","0.0-2.0-56.4-1.4","55d5e2c9db6a810006fa078b","E1","batch5","","448","tol_toboard","","","","tol_peg_2","448","448","0","[[0,0,0],[1,3],[2]]","5","[[2,3,0],[1,0],[0]]","15","0","","","","","","7","","","","","","","","",""
"","","","","","single-stim-button","229","878700","0.0-2.0-56.5-0.5","55d5e2c9db6a810006fa078b","E1","batch5","","424","tol_tohand","","","","tol_peg_3","424","424","0","[[0,0,0],[1,3],[0]]","6","[[2,3,0],[1,0],[0]]","15","0","","","","","","7","","","","","","","","",""
"","","","","","single-stim-button","230","879492","0.0-2.0-56.5-1.5","55d5e2c9db6a810006fa078b","E1","batch5","","791","tol_toboard","","","","tol_peg_1","791","791","0","[[2,0,0],[1,3],[0]]","6","[[2,3,0],[1,0],[0]]","15","0","","","","","","7","","","","","","","","",""
"","","","","","single-stim-button","231","879907","0.0-2.0-56.6-0.6","55d5e2c9db6a810006fa078b","E1","batch5","","415","tol_tohand","","","","tol_peg_2","415","415","0","[[2,0,0],[1,0],[0]]","7","[[2,3,0],[1,0],[0]]","15","0","","","","","","7","","","","","","","","",""
"","","","","","single-stim-button","232","880451","0.0-2.0-56.6-1.6","55d5e2c9db6a810006fa078b","E1","batch5","","543","tol_toboard","","","","tol_peg_1","543","543","0","[[2,3,0],[1,0],[0]]","7","[[2,3,0],[1,0],[0]]","15","0","","","","","","7","","","","","","","","",""
"","","","","","poldrack-single-stim","233","881453","0.0-2.0-57.0","55d5e2c9db6a810006fa078b","E1","batch5","","-1","tol_feedback","","","true","","1000","1000","500","","","","","","-1","none","true","5166","9164","","","","","","","","","",""
"","","","","","html-button-response","234","882421","0.0-2.0-58.0","55d5e2c9db6a810006fa078b","E1","batch5","","966.5999999046326","tol_trial_num","<div class = centerbox><p class = center-block-text>problem <strong>17</strong> out of 25 problems</p></div>","0","","","","","","","","","","","","","","","","","","","","","","","","",""
"","","","","","single-stim-button","235","885452","0.0-2.0-59.0-0.0","55d5e2c9db6a810006fa078b","E1","batch5","","3031","tol_tohand","","","","tol_peg_2","3031","3031","0","[[1,2,0],[0,0],[0]]","1","[[3,1,0],[2,0],[0]]","16","0","","","","","","5","","","","","","","","",""
"","","","","","single-stim-button","236","886284","0.0-2.0-59.0-1.0","55d5e2c9db6a810006fa078b","E1","batch5","","832","tol_toboard","","","","tol_peg_3","832","832","0","[[1,2,0],[0,0],[3]]","1","[[3,1,0],[2,0],[0]]","16","0","","","","","","5","","","","","","","","",""
"","","","","","single-stim-button","237","886972","0.0-2.0-59.1-0.1","55d5e2c9db6a810006fa078b","E1","batch5","","688","tol_tohand","","","","tol_peg_1","688","688","0","[[1,0,0],[0,0],[3]]","2","[[3,1,0],[2,0],[0]]","16","0","","","","","","5","","","","","","","","",""
"","","","","","single-stim-button","238","887756","0.0-2.0-59.1-1.1","55d5e2c9db6a810006fa078b","E1","batch5","","784","tol_toboard","","","","tol_peg_2","784","784","0","[[1,0,0],[2,0],[3]]","2","[[3,1,0],[2,0],[0]]","16","0","","","","","","5","","","","","","","","",""
"","","","","","single-stim-button","239","888948","0.0-2.0-59.2-0.2","55d5e2c9db6a810006fa078b","E1","batch5","","1192","tol_tohand","","","","tol_peg_1","1192","1192","0","[[0,0,0],[2,0],[3]]","3","[[3,1,0],[2,0],[0]]","16","0","","","","","","5","","","","","","","","",""
"","","","","","single-stim-button","240","889492","0.0-2.0-59.2-1.2","55d5e2c9db6a810006fa078b","E1","batch5","","544","tol_toboard","","","","tol_peg_2","544","544","0","[[0,0,0],[2,1],[3]]","3","[[3,1,0],[2,0],[0]]","16","0","","","","","","5","","","","","","","","",""
"","","","","","single-stim-button","241","889876","0.0-2.0-59.3-0.3","55d5e2c9db6a810006fa078b","E1","batch5","","384","tol_tohand","","","","tol_peg_3","384","384","0","[[0,0,0],[2,1],[0]]","4","[[3,1,0],[2,0],[0]]","16","0","","","","","","5","","","","","","","","",""
"","","","","","single-stim-button","242","890636","0.0-2.0-59.3-1.3","55d5e2c9db6a810006fa078b","E1","batch5","","760","tol_toboard","","","","tol_peg_1","760","760","0","[[3,0,0],[2,1],[0]]","4","[[3,1,0],[2,0],[0]]","16","0","","","","","","5","","","","","","","","",""
"","","","","","single-stim-button","243","891044","0.0-2.0-59.4-0.4","55d5e2c9db6a810006fa078b","E1","batch5","","408","tol_tohand","","","","tol_peg_2","408","408","0","[[3,0,0],[2,0],[0]]","5","[[3,1,0],[2,0],[0]]","16","0","","","","","","5","","","","","","","","",""
"","","","","","single-stim-button","244","891604","0.0-2.0-59.4-1.4","55d5e2c9db6a810006fa078b","E1","batch5","","560","tol_toboard","","","","tol_peg_1","560","560","0","[[3,1,0],[2,0],[0]]","5","[[3,1,0],[2,0],[0]]","16","0","","","","","","5","","","","","","","","",""
"","","","","","poldrack-single-stim","245","892605","0.0-2.0-60.0","55d5e2c9db6a810006fa078b","E1","batch5","","-1","tol_feedback","","","true","","1000","1000","500","","","","","","-1","none","true","3031","5703","","","","","","","","","",""
"","","","","","html-button-response","246","893659","0.0-2.0-61.0","55d5e2c9db6a810006fa078b","E1","batch5","","1053.4000000953674","tol_trial_num","<div class = centerbox><p class = center-block-text>problem <strong>18</strong> out of 25 problems</p></div>","0","","","","","","","","","","","","","","","","","","","","","","","","",""
"","","","","","single-stim-button","247","900892","0.0-2.0-62.0-0.0","55d5e2c9db6a810006fa078b","E1","batch5","","7231","tol_tohand","","","","tol_peg_1","7231","7231","0","[[1,0,0],[3,0],[0]]","1","[[3,0,0],[2,0],[1]]","17","0","","","","","","5","","","","","","","","",""
"","","","","","single-stim-button","248","904028","0.0-2.0-62.0-1.0","55d5e2c9db6a810006fa078b","E1","batch5","","3136","tol_toboard","","","","tol_peg_2","3136","3136","0","[[1,0,0],[3,2],[0]]","1","[[3,0,0],[2,0],[1]]","17","0","","","","","","5","","","","","","","","",""
"","","","","","single-stim-button","249","904540","0.0-2.0-62.1-0.1","55d5e2c9db6a810006fa078b","E1","batch5","","511","tol_tohand","","","","tol_peg_1","511","511","0","[[0,0,0],[3,2],[0]]","2","[[3,0,0],[2,0],[1]]","17","0","","","","","","5","","","","","","","","",""
"","","","","","single-stim-button","250","905308","0.0-2.0-62.1-1.1","55d5e2c9db6a810006fa078b","E1","batch5","","768","tol_toboard","","","","tol_peg_3","768","768","0","[[0,0,0],[3,2],[1]]","2","[[3,0,0],[2,0],[1]]","17","0","","","","","","5","","","","","","","","",""
"","","","","","single-stim-button","251","908580","0.0-2.0-62.2-0.2","55d5e2c9db6a810006fa078b","E1","batch5","","3272","tol_tohand","","","","tol_peg_2","3272","3272","0","[[0,0,0],[3,0],[1]]","3","[[3,0,0],[2,0],[1]]","17","0","","","","","","5","","","","","","","","",""
"","","","","","single-stim-button","252","914676","0.0-2.0-62.2-1.2","55d5e2c9db6a810006fa078b","E1","batch5","","6096","tol_toboard","","","","tol_peg_2","6096","6096","0","[[0,0,0],[3,2],[1]]","3","[[3,0,0],[2,0],[1]]","17","0","","","","","","5","","","","","","","","",""
"","","","","","single-stim-button","253","915540","0.0-2.0-62.3-0.3","55d5e2c9db6a810006fa078b","E1","batch5","","863","tol_tohand","","","","tol_peg_3","863","863","0","[[0,0,0],[3,2],[0]]","4","[[3,0,0],[2,0],[1]]","17","0","","","","","","5","","","","","","","","",""
"","","","","","single-stim-button","254","916172","0.0-2.0-62.3-1.3","55d5e2c9db6a810006fa078b","E1","batch5","","632","tol_toboard","","","","tol_peg_1","632","632","0","[[1,0,0],[3,2],[0]]","4","[[3,0,0],[2,0],[1]]","17","0","","","","","","5","","","","","","","","",""
"","","","","","single-stim-button","255","916820","0.0-2.0-62.4-0.4","55d5e2c9db6a810006fa078b","E1","batch5","","648","tol_tohand","","","","tol_peg_2","648","648","0","[[1,0,0],[3,0],[0]]","5","[[3,0,0],[2,0],[1]]","17","0","","","","","","5","","","","","","","","",""
"","","","","","single-stim-button","256","917732","0.0-2.0-62.4-1.4","55d5e2c9db6a810006fa078b","E1","batch5","","912","tol_toboard","","","","tol_peg_3","912","912","0","[[1,0,0],[3,0],[2]]","5","[[3,0,0],[2,0],[1]]","17","0","","","","","","5","","","","","","","","",""
"","","","","","single-stim-button","257","919060","0.0-2.0-62.5-0.5","55d5e2c9db6a810006fa078b","E1","batch5","","1328","tol_tohand","","","","tol_peg_1","1328","1328","0","[[0,0,0],[3,0],[2]]","6","[[3,0,0],[2,0],[1]]","17","0","","","","","","5","","","","","","","","",""
"","","","","","single-stim-button","258","919828","0.0-2.0-62.5-1.5","55d5e2c9db6a810006fa078b","E1","batch5","","768","tol_toboard","","","","tol_peg_2","768","768","0","[[0,0,0],[3,1],[2]]","6","[[3,0,0],[2,0],[1]]","17","0","","","","","","5","","","","","","","","",""
"","","","","","single-stim-button","259","923100","0.0-2.0-62.6-0.6","55d5e2c9db6a810006fa078b","E1","batch5","","3272","tol_tohand","","","","tol_peg_3","3272","3272","0","[[0,0,0],[3,1],[0]]","7","[[3,0,0],[2,0],[1]]","17","0","","","","","","5","","","","","","","","",""
"","","","","","single-stim-button","260","923628","0.0-2.0-62.6-1.6","55d5e2c9db6a810006fa078b","E1","batch5","","527","tol_toboard","","","","tol_peg_1","527","527","0","[[2,0,0],[3,1],[0]]","7","[[3,0,0],[2,0],[1]]","17","0","","","","","","5","","","","","","","","",""
"","","","","","single-stim-button","261","925308","0.0-2.0-62.7-0.7","55d5e2c9db6a810006fa078b","E1","batch5","","1680","tol_tohand","","","","tol_peg_2","1680","1680","0","[[2,0,0],[3,0],[0]]","8","[[3,0,0],[2,0],[1]]","17","0","","","","","","5","","","","","","","","",""
"","","","","","single-stim-button","262","929004","0.0-2.0-62.7-1.7","55d5e2c9db6a810006fa078b","E1","batch5","","3696","tol_toboard","","","","tol_peg_2","3696","3696","0","[[2,0,0],[3,1],[0]]","8","[[3,0,0],[2,0],[1]]","17","0","","","","","","5","","","","","","","","",""
"","","","","","single-stim-button","263","933877","0.0-2.0-62.8-0.8","55d5e2c9db6a810006fa078b","E1","batch5","","4871","tol_tohand","","","","tol_peg_2","4871","4871","0","[[2,0,0],[3,0],[0]]","9","[[3,0,0],[2,0],[1]]","17","0","","","","","","5","","","","","","","","",""
"","","","","","single-stim-button","264","936068","0.0-2.0-62.8-1.8","55d5e2c9db6a810006fa078b","E1","batch5","","2191","tol_toboard","","","","tol_peg_3","2191","2191","0","[[2,0,0],[3,0],[1]]","9","[[3,0,0],[2,0],[1]]","17","0","","","","","","5","","","","","","","","",""
"","","","","","single-stim-button","265","936596","0.0-2.0-62.9-0.9","55d5e2c9db6a810006fa078b","E1","batch5","","528","tol_tohand","","","","tol_peg_2","528","528","0","[[2,0,0],[0,0],[1]]","10","[[3,0,0],[2,0],[1]]","17","0","","","","","","5","","","","","","","","",""
"","","","","","single-stim-button","266","937204","0.0-2.0-62.9-1.9","55d5e2c9db6a810006fa078b","E1","batch5","","608","tol_toboard","","","","tol_peg_1","608","608","0","[[2,3,0],[0,0],[1]]","10","[[3,0,0],[2,0],[1]]","17","0","","","","","","5","","","","","","","","",""
"","","","","","single-stim-button","267","937676","0.0-2.0-62.10-0.10","55d5e2c9db6a810006fa078b","E1","batch5","","471","tol_tohand","","","","tol_peg_3","471","471","0","[[2,3,0],[0,0],[0]]","11","[[3,0,0],[2,0],[1]]","17","0","","","","","","5","","","","","","","","",""
"","","","","","single-stim-button","268","938356","0.0-2.0-62.10-1.10","55d5e2c9db6a810006fa078b","E1","batch5","","679","tol_toboard","","","","tol_peg_2","679","679","0","[[2,3,0],[1,0],[0]]","11","[[3,0,0],[2,0],[1]]","17","0","","","","","","5","","","","","","","","",""
"","","","","","single-stim-button","269","938916","0.0-2.0-62.11-0.11","55d5e2c9db6a810006fa078b","E1","batch5","","559","tol_tohand","","","","tol_peg_1","559","559","0","[[2,0,0],[1,0],[0]]","12","[[3,0,0],[2,0],[1]]","17","0","","","","","","5","","","","","","","","",""
"","","","","","single-stim-button","270","939828","0.0-2.0-62.11-1.11","55d5e2c9db6a810006fa078b","E1","batch5","","912","tol_toboard","","","","tol_peg_3","912","912","0","[[2,0,0],[1,0],[3]]","12","[[3,0,0],[2,0],[1]]","17","0","","","","","","5","","","","","","","","",""
"","","","","","single-stim-button","271","940356","0.0-2.0-62.12-0.12","55d5e2c9db6a810006fa078b","E1","batch5","","527","tol_tohand","","","","tol_peg_1","527","527","0","[[0,0,0],[1,0],[3]]","13","[[3,0,0],[2,0],[1]]","17","0","","","","","","5","","","","","","","","",""
"","","","","","single-stim-button","272","940860","0.0-2.0-62.12-1.12","55d5e2c9db6a810006fa078b","E1","batch5","","504","tol_toboard","","","","tol_peg_2","504","504","0","[[0,0,0],[1,2],[3]]","13","[[3,0,0],[2,0],[1]]","17","0","","","","","","5","","","","","","","","",""
"","","","","","single-stim-button","273","941404","0.0-2.0-62.13-0.13","55d5e2c9db6a810006fa078b","E1","batch5","","543","tol_tohand","","","","tol_peg_3","543","543","0","[[0,0,0],[1,2],[0]]","14","[[3,0,0],[2,0],[1]]","17","0","","","","","","5","","","","","","","","",""
"","","","","","single-stim-button","274","942052","0.0-2.0-62.13-1.13","55d5e2c9db6a810006fa078b","E1","batch5","","648","tol_toboard","","","","tol_peg_1","648","648","0","[[3,0,0],[1,2],[0]]","14","[[3,0,0],[2,0],[1]]","17","0","","","","","","5","","","","","","","","",""
"","","","","","single-stim-button","275","943132","0.0-2.0-62.14-0.14","55d5e2c9db6a810006fa078b","E1","batch5","","1079","tol_tohand","","","","tol_peg_2","1079","1079","0","[[3,0,0],[1,0],[0]]","15","[[3,0,0],[2,0],[1]]","17","0","","","","","","5","","","","","","","","",""
"","","","","","single-stim-button","276","943644","0.0-2.0-62.14-1.14","55d5e2c9db6a810006fa078b","E1","batch5","","511","tol_toboard","","","","tol_peg_1","511","511","0","[[3,2,0],[1,0],[0]]","15","[[3,0,0],[2,0],[1]]","17","0","","","","","","5","","","","","","","","",""
"","","","","","single-stim-button","277","944100","0.0-2.0-62.15-0.15","55d5e2c9db6a810006fa078b","E1","batch5","","456","tol_tohand","","","","tol_peg_2","456","456","0","[[3,2,0],[0,0],[0]]","16","[[3,0,0],[2,0],[1]]","17","0","","","","","","5","","","","","","","","",""
"","","","","","single-stim-button","278","944708","0.0-2.0-62.15-1.15","55d5e2c9db6a810006fa078b","E1","batch5","","608","tol_toboard","","","","tol_peg_3","608","608","0","[[3,2,0],[0,0],[1]]","16","[[3,0,0],[2,0],[1]]","17","0","","","","","","5","","","","","","","","",""
"","","","","","single-stim-button","279","945332","0.0-2.0-62.16-0.16","55d5e2c9db6a810006fa078b","E1","batch5","","623","tol_tohand","","","","tol_peg_1","623","623","0","[[3,0,0],[0,0],[1]]","17","[[3,0,0],[2,0],[1]]","17","0","","","","","","5","","","","","","","","",""
"","","","","","single-stim-button","280","946044","0.0-2.0-62.16-1.16","55d5e2c9db6a810006fa078b","E1","batch5","","712","tol_toboard","","","","tol_peg_2","712","712","0","[[3,0,0],[2,0],[1]]","17","[[3,0,0],[2,0],[1]]","17","0","","","","","","5","","","","","","","","",""
"","","","","","poldrack-single-stim","281","947051","0.0-2.0-63.0","55d5e2c9db6a810006fa078b","E1","batch5","","-1","tol_feedback","","","true","","1000","1000","500","","","","","","-1","none","true","7231","28462","","","","","","","","","",""
"","","","","","html-button-response","282","947924","0.0-2.0-64.0","55d5e2c9db6a810006fa078b","E1","batch5","","871.6000000238419","tol_trial_num","<div class = centerbox><p class = center-block-text>problem <strong>19</strong> out of 25 problems</p></div>","0","","","","","","","","","","","","","","","","","","","","","","","","",""
"","","","","","single-stim-button","283","957820","0.0-2.0-65.0-0.0","55d5e2c9db6a810006fa078b","E1","batch5","","9896","tol_tohand","","","","tol_peg_1","9896","9896","0","[[1,0,0],[3,0],[0]]","1","[[0,0,0],[1,2],[3]]","18","0","","","","","","7","","","","","","","","",""
"","","","","","single-stim-button","284","960364","0.0-2.0-65.0-1.0","55d5e2c9db6a810006fa078b","E1","batch5","","2543","tol_toboard","","","","tol_peg_3","2543","2543","0","[[1,0,0],[3,0],[2]]","1","[[0,0,0],[1,2],[3]]","18","0","","","","","","7","","","","","","","","",""
"","","","","","single-stim-button","285","964244","0.0-2.0-65.1-0.1","55d5e2c9db6a810006fa078b","E1","batch5","","3879","tol_tohand","","","","tol_peg_2","3879","3879","0","[[1,0,0],[0,0],[2]]","2","[[0,0,0],[1,2],[3]]","18","0","","","","","","7","","","","","","","","",""
"","","","","","single-stim-button","286","966197","0.0-2.0-65.1-1.1","55d5e2c9db6a810006fa078b","E1","batch5","","1952","tol_toboard","","","","tol_peg_2","1952","1952","0","[[1,0,0],[3,0],[2]]","2","[[0,0,0],[1,2],[3]]","18","0","","","","","","7","","","","","","","","",""
"","","","","","single-stim-button","287","966604","0.0-2.0-65.2-0.2","55d5e2c9db6a810006fa078b","E1","batch5","","407","tol_tohand","","","","tol_peg_3","407","407","0","[[1,0,0],[3,0],[0]]","3","[[0,0,0],[1,2],[3]]","18","0","","","","","","7","","","","","","","","",""
"","","","","","single-stim-button","288","967836","0.0-2.0-65.2-1.2","55d5e2c9db6a810006fa078b","E1","batch5","","1232","tol_toboard","","","","tol_peg_2","1232","1232","0","[[1,0,0],[3,2],[0]]","3","[[0,0,0],[1,2],[3]]","18","0","","","","","","7","","","","","","","","",""
"","","","","","single-stim-button","289","969004","0.0-2.0-65.3-0.3","55d5e2c9db6a810006fa078b","E1","batch5","","1168","tol_tohand","","","","tol_peg_2","1168","1168","0","[[1,0,0],[3,0],[0]]","4","[[0,0,0],[1,2],[3]]","18","0","","","","","","7","","","","","","","","",""
"","","","","","single-stim-button","290","969916","0.0-2.0-65.3-1.3","55d5e2c9db6a810006fa078b","E1","batch5","","911","tol_toboard","","","","tol_peg_1","911","911","0","[[1,2,0],[3,0],[0]]","4","[[0,0,0],[1,2],[3]]","18","0","","","","","","7","","","","","","","","",""
"","","","","","single-stim-button","291","970436","0.0-2.0-65.4-0.4","55d5e2c9db6a810006fa078b","E1","batch5","","520","tol_tohand","","","","tol_peg_2","520","520","0","[[1,2,0],[0,0],[0]]","5","[[0,0,0],[1,2],[3]]","18","0","","","","","","7","","","","","","","","",""
"","","","","","single-stim-button","292","971044","0.0-2.0-65.4-1.4","55d5e2c9db6a810006fa078b","E1","batch5","","607","tol_toboard","","","","tol_peg_3","607","607","0","[[1,2,0],[0,0],[3]]","5","[[0,0,0],[1,2],[3]]","18","0","","","","","","7","","","","","","","","",""
"","","","","","single-stim-button","293","971948","0.0-2.0-65.5-0.5","55d5e2c9db6a810006fa078b","E1","batch5","","904","tol_tohand","","","","tol_peg_1","904","904","0","[[1,0,0],[0,0],[3]]","6","[[0,0,0],[1,2],[3]]","18","0","","","","","","7","","","","","","","","",""
"","","","","","single-stim-button","294","972932","0.0-2.0-65.5-1.5","55d5e2c9db6a810006fa078b","E1","batch5","","984","tol_toboard","","","","tol_peg_2","984","984","0","[[1,0,0],[2,0],[3]]","6","[[0,0,0],[1,2],[3]]","18","0","","","","","","7","","","","","","","","",""
"","","","","","single-stim-button","295","975876","0.0-2.0-65.6-0.6","55d5e2c9db6a810006fa078b","E1","batch5","","2943","tol_tohand","","","","tol_peg_3","2943","2943","0","[[1,0,0],[2,0],[0]]","7","[[0,0,0],[1,2],[3]]","18","0","","","","","","7","","","","","","","","",""
"","","","","","single-stim-button","296","976244","0.0-2.0-65.6-1.6","55d5e2c9db6a810006fa078b","E1","batch5","","367","tol_toboard","","","","tol_peg_2","367","367","0","[[1,0,0],[2,3],[0]]","7","[[0,0,0],[1,2],[3]]","18","0","","","","","","7","","","","","","","","",""
"","","","","","single-stim-button","297","976668","0.0-2.0-65.7-0.7","55d5e2c9db6a810006fa078b","E1","batch5","","423","tol_tohand","","","","tol_peg_1","423","423","0","[[0,0,0],[2,3],[0]]","8","[[0,0,0],[1,2],[3]]","18","0","","","","","","7","","","","","","","","",""
"","","","","","single-stim-button","298","977364","0.0-2.0-65.7-1.7","55d5e2c9db6a810006fa078b","E1","batch5","","695","tol_toboard","","","","tol_peg_3","695","695","0","[[0,0,0],[2,3],[1]]","8","[[0,0,0],[1,2],[3]]","18","0","","","","","","7","","","","","","","","",""
"","","","","","single-stim-button","299","978508","0.0-2.0-65.8-0.8","55d5e2c9db6a810006fa078b","E1","batch5","","1144","tol_tohand","","","","tol_peg_2","1144","1144","0","[[0,0,0],[2,0],[1]]","9","[[0,0,0],[1,2],[3]]","18","0","","","","","","7","","","","","","","","",""
"","","","","","single-stim-button","300","979300","0.0-2.0-65.8-1.8","55d5e2c9db6a810006fa078b","E1","batch5","","791","tol_toboard","","","","tol_peg_1","791","791","0","[[3,0,0],[2,0],[1]]","9","[[0,0,0],[1,2],[3]]","18","0","","","","","","7","","","","","","","","",""
"","","","","","single-stim-button","301","982764","0.0-2.0-65.9-0.9","55d5e2c9db6a810006fa078b","E1","batch5","","3463","tol_tohand","","","","tol_peg_2","3463","3463","0","[[3,0,0],[0,0],[1]]","10","[[0,0,0],[1,2],[3]]","18","0","","","","","","7","","","","","","","","",""
"","","","","","single-stim-button","302","983148","0.0-2.0-65.9-1.9","55d5e2c9db6a810006fa078b","E1","batch5","","384","tol_toboard","","","","tol_peg_1","384","384","0","[[3,2,0],[0,0],[1]]","10","[[0,0,0],[1,2],[3]]","18","0","","","","","","7","","","","","","","","",""
"","","","","","single-stim-button","303","983892","0.0-2.0-65.10-0.10","55d5e2c9db6a810006fa078b","E1","batch5","","743","tol_tohand","","","","tol_peg_3","743","743","0","[[3,2,0],[0,0],[0]]","11","[[0,0,0],[1,2],[3]]","18","0","","","","","","7","","","","","","","","",""
"","","","","","single-stim-button","304","984836","0.0-2.0-65.10-1.10","55d5e2c9db6a810006fa078b","E1","batch5","","944","tol_toboard","","","","tol_peg_2","944","944","0","[[3,2,0],[1,0],[0]]","11","[[0,0,0],[1,2],[3]]","18","0","","","","","","7","","","","","","","","",""
"","","","","","single-stim-button","305","985340","0.0-2.0-65.11-0.11","55d5e2c9db6a810006fa078b","E1","batch5","","504","tol_tohand","","","","tol_peg_1","504","504","0","[[3,0,0],[1,0],[0]]","12","[[0,0,0],[1,2],[3]]","18","0","","","","","","7","","","","","","","","",""
"","","","","","single-stim-button","306","986156","0.0-2.0-65.11-1.11","55d5e2c9db6a810006fa078b","E1","batch5","","815","tol_toboard","","","","tol_peg_2","815","815","0","[[3,0,0],[1,2],[0]]","12","[[0,0,0],[1,2],[3]]","18","0","","","","","","7","","","","","","","","",""
"","","","","","single-stim-button","307","986668","0.0-2.0-65.12-0.12","55d5e2c9db6a810006fa078b","E1","batch5","","511","tol_tohand","","","","tol_peg_1","511","511","0","[[0,0,0],[1,2],[0]]","13","[[0,0,0],[1,2],[3]]","18","0","","","","","","7","","","","","","","","",""
"","","","","","single-stim-button","308","987516","0.0-2.0-65.12-1.12","55d5e2c9db6a810006fa078b","E1","batch5","","847","tol_toboard","","","","tol_peg_3","847","847","0","[[0,0,0],[1,2],[3]]","13","[[0,0,0],[1,2],[3]]","18","0","","","","","","7","","","","","","","","",""
"","","","","","poldrack-single-stim","309","988525","0.0-2.0-66.0","55d5e2c9db6a810006fa078b","E1","batch5","","-1","tol_feedback","","","true","","1000","1000","500","","","","","","-1","none","true","9896","26505","","","","","","","","","",""
"","","","","","html-button-response","310","989459","0.0-2.0-67.0","55d5e2c9db6a810006fa078b","E1","batch5","","933.6999999284744","tol_trial_num","<div class = centerbox><p class = center-block-text>problem <strong>20</strong> out of 25 problems</p></div>","0","","","","","","","","","","","","","","","","","","","","","","","","",""
"","","","","","single-stim-button","311","993139","0.0-2.0-68.0-0.0","55d5e2c9db6a810006fa078b","E1","batch5","","3679","tol_tohand","","","","tol_peg_2","3679","3679","0","[[1,2,0],[0,0],[0]]","1","[[2,1,0],[0,0],[3]]","19","0","","","","","","5","","","","","","","","",""
"","","","","","single-stim-button","312","996027","0.0-2.0-68.0-1.0","55d5e2c9db6a810006fa078b","E1","batch5","","2888","tol_toboard","","","","tol_peg_3","2888","2888","0","[[1,2,0],[0,0],[3]]","1","[[2,1,0],[0,0],[3]]","19","0","","","","","","5","","","","","","","","",""
"","","","","","single-stim-button","313","1000467","0.0-2.0-68.1-0.1","55d5e2c9db6a810006fa078b","E1","batch5","","4439","tol_tohand","","","","tol_peg_3","4439","4439","0","[[1,2,0],[0,0],[0]]","2","[[2,1,0],[0,0],[3]]","19","0","","","","","","5","","","","","","","","",""
"","","","","","single-stim-button","314","1001379","0.0-2.0-68.1-1.1","55d5e2c9db6a810006fa078b","E1","batch5","","911","tol_toboard","","","","tol_peg_2","911","911","0","[[1,2,0],[3,0],[0]]","2","[[2,1,0],[0,0],[3]]","19","0","","","","","","5","","","","","","","","",""
"","","","","","single-stim-button","315","1001835","0.0-2.0-68.2-0.2","55d5e2c9db6a810006fa078b","E1","batch5","","456","tol_tohand","","","","tol_peg_1","456","456","0","[[1,0,0],[3,0],[0]]","3","[[2,1,0],[0,0],[3]]","19","0","","","","","","5","","","","","","","","",""
"","","","","","single-stim-button","316","1002555","0.0-2.0-68.2-1.2","55d5e2c9db6a810006fa078b","E1","batch5","","720","tol_toboard","","","","tol_peg_3","720","720","0","[[1,0,0],[3,0],[2]]","3","[[2,1,0],[0,0],[3]]","19","0","","","","","","5","","","","","","","","",""
"","","","","","single-stim-button","317","1003195","0.0-2.0-68.3-0.3","55d5e2c9db6a810006fa078b","E1","batch5","","640","tol_tohand","","","","tol_peg_1","640","640","0","[[0,0,0],[3,0],[2]]","4","[[2,1,0],[0,0],[3]]","19","0","","","","","","5","","","","","","","","",""
"","","","","","single-stim-button","318","1003603","0.0-2.0-68.3-1.3","55d5e2c9db6a810006fa078b","E1","batch5","","408","tol_toboard","","","","tol_peg_2","408","408","0","[[0,0,0],[3,1],[2]]","4","[[2,1,0],[0,0],[3]]","19","0","","","","","","5","","","","","","","","",""
"","","","","","single-stim-button","319","1004363","0.0-2.0-68.4-0.4","55d5e2c9db6a810006fa078b","E1","batch5","","760","tol_tohand","","","","tol_peg_3","760","760","0","[[0,0,0],[3,1],[0]]","5","[[2,1,0],[0,0],[3]]","19","0","","","","","","5","","","","","","","","",""
"","","","","","single-stim-button","320","1005035","0.0-2.0-68.4-1.4","55d5e2c9db6a810006fa078b","E1","batch5","","671","tol_toboard","","","","tol_peg_1","671","671","0","[[2,0,0],[3,1],[0]]","5","[[2,1,0],[0,0],[3]]","19","0","","","","","","5","","","","","","","","",""
"","","","","","single-stim-button","321","1005475","0.0-2.0-68.5-0.5","55d5e2c9db6a810006fa078b","E1","batch5","","439","tol_tohand","","","","tol_peg_2","439","439","0","[[2,0,0],[3,0],[0]]","6","[[2,1,0],[0,0],[3]]","19","0","","","","","","5","","","","","","","","",""
"","","","","","single-stim-button","322","1006091","0.0-2.0-68.5-1.5","55d5e2c9db6a810006fa078b","E1","batch5","","616","tol_toboard","","","","tol_peg_1","616","616","0","[[2,1,0],[3,0],[0]]","6","[[2,1,0],[0,0],[3]]","19","0","","","","","","5","","","","","","","","",""
"","","","","","single-stim-button","323","1006491","0.0-2.0-68.6-0.6","55d5e2c9db6a810006fa078b","E1","batch5","","399","tol_tohand","","","","tol_peg_2","399","399","0","[[2,1,0],[0,0],[0]]","7","[[2,1,0],[0,0],[3]]","19","0","","","","","","5","","","","","","","","",""
"","","","","","single-stim-button","324","1007339","0.0-2.0-68.6-1.6","55d5e2c9db6a810006fa078b","E1","batch5","","847","tol_toboard","","","","tol_peg_3","847","847","0","[[2,1,0],[0,0],[3]]","7","[[2,1,0],[0,0],[3]]","19","0","","","","","","5","","","","","","","","",""
"","","","","","poldrack-single-stim","325","1008341","0.0-2.0-69.0","55d5e2c9db6a810006fa078b","E1","batch5","","-1","tol_feedback","","","true","","1000","1000","500","","","","","","-1","none","true","3679","10812","","","","","","","","","",""
"","","","","","html-button-response","326","1015867","0.0-2.0-70.0","55d5e2c9db6a810006fa078b","E1","batch5","","7525.5","tol_trial_num","<div class = centerbox><p class = center-block-text>problem <strong>21</strong> out of 25 problems</p></div>","0","","","","","","","","","","","","","","","","","","","","","","","","",""
"","","","","","single-stim-button","327","1021779","0.0-2.0-71.0-0.0","55d5e2c9db6a810006fa078b","E1","batch5","","5912","tol_tohand","","","","tol_peg_1","5912","5912","0","[[1,0,0],[3,0],[0]]","1","[[3,2,0],[0,0],[1]]","20","0","","","","","","6","","","","","","","","",""
"","","","","","single-stim-button","328","1022763","0.0-2.0-71.0-1.0","55d5e2c9db6a810006fa078b","E1","batch5","","983","tol_toboard","","","","tol_peg_3","983","983","0","[[1,0,0],[3,0],[2]]","1","[[3,2,0],[0,0],[1]]","20","0","","","","","","6","","","","","","","","",""
"","","","","","single-stim-button","329","1023571","0.0-2.0-71.1-0.1","55d5e2c9db6a810006fa078b","E1","batch5","","808","tol_tohand","","","","tol_peg_1","808","808","0","[[0,0,0],[3,0],[2]]","2","[[3,2,0],[0,0],[1]]","20","0","","","","","","6","","","","","","","","",""
"","","","","","single-stim-button","330","1024139","0.0-2.0-71.1-1.1","55d5e2c9db6a810006fa078b","E1","batch5","","568","tol_toboard","","","","tol_peg_2","568","568","0","[[0,0,0],[3,1],[2]]","2","[[3,2,0],[0,0],[1]]","20","0","","","","","","6","","","","","","","","",""
"","","","","","single-stim-button","331","1027763","0.0-2.0-71.2-0.2","55d5e2c9db6a810006fa078b","E1","batch5","","3624","tol_tohand","","","","tol_peg_2","3624","3624","0","[[0,0,0],[3,0],[2]]","3","[[3,2,0],[0,0],[1]]","20","0","","","","","","6","","","","","","","","",""
"","","","","","single-stim-button","332","1028619","0.0-2.0-71.2-1.2","55d5e2c9db6a810006fa078b","E1","batch5","","855","tol_toboard","","","","tol_peg_1","855","855","0","[[1,0,0],[3,0],[2]]","3","[[3,2,0],[0,0],[1]]","20","0","","","","","","6","","","","","","","","",""
"","","","","","single-stim-button","333","1029195","0.0-2.0-71.3-0.3","55d5e2c9db6a810006fa078b","E1","batch5","","576","tol_tohand","","","","tol_peg_3","576","576","0","[[1,0,0],[3,0],[0]]","4","[[3,2,0],[0,0],[1]]","20","0","","","","","","6","","","","","","","","",""
"","","","","","single-stim-button","334","1029747","0.0-2.0-71.3-1.3","55d5e2c9db6a810006fa078b","E1","batch5","","552","tol_toboard","","","","tol_peg_1","552","552","0","[[1,2,0],[3,0],[0]]","4","[[3,2,0],[0,0],[1]]","20","0","","","","","","6","","","","","","","","",""
"","","","","","single-stim-button","335","1030156","0.0-2.0-71.4-0.4","55d5e2c9db6a810006fa078b","E1","batch5","","409","tol_tohand","","","","tol_peg_2","409","409","0","[[1,2,0],[0,0],[0]]","5","[[3,2,0],[0,0],[1]]","20","0","","","","","","6","","","","","","","","",""
"","","","","","single-stim-button","336","1030835","0.0-2.0-71.4-1.4","55d5e2c9db6a810006fa078b","E1","batch5","","679","tol_toboard","","","","tol_peg_3","679","679","0","[[1,2,0],[0,0],[3]]","5","[[3,2,0],[0,0],[1]]","20","0","","","","","","6","","","","","","","","",""
"","","","","","single-stim-button","337","1031547","0.0-2.0-71.5-0.5","55d5e2c9db6a810006fa078b","E1","batch5","","712","tol_tohand","","","","tol_peg_1","712","712","0","[[1,0,0],[0,0],[3]]","6","[[3,2,0],[0,0],[1]]","20","0","","","","","","6","","","","","","","","",""
"","","","","","single-stim-button","338","1032523","0.0-2.0-71.5-1.5","55d5e2c9db6a810006fa078b","E1","batch5","","976","tol_toboard","","","","tol_peg_2","976","976","0","[[1,0,0],[2,0],[3]]","6","[[3,2,0],[0,0],[1]]","20","0","","","","","","6","","","","","","","","",""
"","","","","","single-stim-button","339","1033083","0.0-2.0-71.6-0.6","55d5e2c9db6a810006fa078b","E1","batch5","","560","tol_tohand","","","","tol_peg_1","560","560","0","[[0,0,0],[2,0],[3]]","7","[[3,2,0],[0,0],[1]]","20","0","","","","","","6","","","","","","","","",""
"","","","","","single-stim-button","340","1033683","0.0-2.0-71.6-1.6","55d5e2c9db6a810006fa078b","E1","batch5","","600","tol_toboard","","","","tol_peg_2","600","600","0","[[0,0,0],[2,1],[3]]","7","[[3,2,0],[0,0],[1]]","20","0","","","","","","6","","","","","","","","",""
"","","","","","single-stim-button","341","1034299","0.0-2.0-71.7-0.7","55d5e2c9db6a810006fa078b","E1","batch5","","616","tol_tohand","","","","tol_peg_3","616","616","0","[[0,0,0],[2,1],[0]]","8","[[3,2,0],[0,0],[1]]","20","0","","","","","","6","","","","","","","","",""
"","","","","","single-stim-button","342","1035027","0.0-2.0-71.7-1.7","55d5e2c9db6a810006fa078b","E1","batch5","","728","tol_toboard","","","","tol_peg_1","728","728","0","[[3,0,0],[2,1],[0]]","8","[[3,2,0],[0,0],[1]]","20","0","","","","","","6","","","","","","","","",""
"","","","","","single-stim-button","343","1035404","0.0-2.0-71.8-0.8","55d5e2c9db6a810006fa078b","E1","batch5","","376","tol_tohand","","","","tol_peg_2","376","376","0","[[3,0,0],[2,0],[0]]","9","[[3,2,0],[0,0],[1]]","20","0","","","","","","6","","","","","","","","",""
"","","","","","single-stim-button","344","1036212","0.0-2.0-71.8-1.8","55d5e2c9db6a810006fa078b","E1","batch5","","808","tol_toboard","","","","tol_peg_3","808","808","0","[[3,0,0],[2,0],[1]]","9","[[3,2,0],[0,0],[1]]","20","0","","","","","","6","","","","","","","","",""
"","","","","","single-stim-button","345","1036627","0.0-2.0-71.9-0.9","55d5e2c9db6a810006fa078b","E1","batch5","","414","tol_tohand","","","","tol_peg_2","414","414","0","[[3,0,0],[0,0],[1]]","10","[[3,2,0],[0,0],[1]]","20","0","","","","","","6","","","","","","","","",""
"","","","","","single-stim-button","346","1037099","0.0-2.0-71.9-1.9","55d5e2c9db6a810006fa078b","E1","batch5","","472","tol_toboard","","","","tol_peg_1","472","472","0","[[3,2,0],[0,0],[1]]","10","[[3,2,0],[0,0],[1]]","20","0","","","","","","6","","","","","","","","",""
"","","","","","poldrack-single-stim","347","1038109","0.0-2.0-72.0","55d5e2c9db6a810006fa078b","E1","batch5","","-1","tol_feedback","","","true","","1000","1000","500","","","","","","-1","none","true","5912","14007","","","","","","","","","",""
"","","","","","html-button-response","348","1039107","0.0-2.0-73.0","55d5e2c9db6a810006fa078b","E1","batch5","","997.2999999523163","tol_trial_num","<div class = centerbox><p class = center-block-text>problem <strong>22</strong> out of 25 problems</p></div>","0","","","","","","","","","","","","","","","","","","","","","","","","",""
"","","","","","single-stim-button","349","1043019","0.0-2.0-74.0-0.0","55d5e2c9db6a810006fa078b","E1","batch5","","3911","tol_tohand","","","","tol_peg_1","3911","3911","0","[[0,0,0],[2,3],[0]]","1","[[0,0,0],[1,2],[3]]","21","0","","","","","","6","","","","","","","","",""
"","","","","","single-stim-button","350","1044307","0.0-2.0-74.0-1.0","55d5e2c9db6a810006fa078b","E1","batch5","","1287","tol_toboard","","","","tol_peg_3","1287","1287","0","[[0,0,0],[2,3],[1]]","1","[[0,0,0],[1,2],[3]]","21","0","","","","","","6","","","","","","","","",""
"","","","","","single-stim-button","351","1044843","0.0-2.0-74.1-0.1","55d5e2c9db6a810006fa078b","E1","batch5","","535","tol_tohand","","","","tol_peg_2","535","535","0","[[0,0,0],[2,0],[1]]","2","[[0,0,0],[1,2],[3]]","21","0","","","","","","6","","","","","","","","",""
"","","","","","single-stim-button","352","1045499","0.0-2.0-74.1-1.1","55d5e2c9db6a810006fa078b","E1","batch5","","656","tol_toboard","","","","tol_peg_1","656","656","0","[[3,0,0],[2,0],[1]]","2","[[0,0,0],[1,2],[3]]","21","0","","","","","","6","","","","","","","","",""
"","","","","","single-stim-button","353","1045891","0.0-2.0-74.2-0.2","55d5e2c9db6a810006fa078b","E1","batch5","","391","tol_tohand","","","","tol_peg_2","391","391","0","[[3,0,0],[0,0],[1]]","3","[[0,0,0],[1,2],[3]]","21","0","","","","","","6","","","","","","","","",""
"","","","","","single-stim-button","354","1046275","0.0-2.0-74.2-1.2","55d5e2c9db6a810006fa078b","E1","batch5","","383","tol_toboard","","","","tol_peg_1","383","383","0","[[3,2,0],[0,0],[1]]","3","[[0,0,0],[1,2],[3]]","21","0","","","","","","6","","","","","","","","",""
"","","","","","single-stim-button","355","1046827","0.0-2.0-74.3-0.3","55d5e2c9db6a810006fa078b","E1","batch5","","551","tol_tohand","","","","tol_peg_3","551","551","0","[[3,2,0],[0,0],[0]]","4","[[0,0,0],[1,2],[3]]","21","0","","","","","","6","","","","","","","","",""
"","","","","","single-stim-button","356","1047403","0.0-2.0-74.3-1.3","55d5e2c9db6a810006fa078b","E1","batch5","","576","tol_toboard","","","","tol_peg_2","576","576","0","[[3,2,0],[1,0],[0]]","4","[[0,0,0],[1,2],[3]]","21","0","","","","","","6","","","","","","","","",""
