"success","timeout","failed_images","failed_audio","failed_video","trial_type","trial_index","time_elapsed","internal_node_id","subject_id","study_id","session_id","task","rt","stimulus","response","item","answer","correct","spm_correct","spm_rt","view_history","mouse_click","stim_duration","block_duration","timing_post_trial","current_position","tol_num_moves_made","tol_target","tol_problem_id","tol_rt","key_press","possible_responses","tol_correct","preplanning","tol_rt_per_trial","tol_min_moves","fiar_detect_rt","fiar_detect_correct","total_correct_fiar_detect","post_trial_gap","choices"
"true","false","[]","[]","[]","preload","0","9675","0.0-0.0","55eb4774748092000baa97ee","B2","batch2","","","","","","","","","","","","","","","","","","","","","","","","","","","","","",""
"true","","","","","fullscreen","1","17428","0.0-1.0-0.0","55eb4774748092000baa97ee","B2","batch2","","","","","","","","","","","","","","","","","","","","","","","","","","","","","",""
"true","","","","","fullscreen","2","20846","0.0-2.0-0.0","55eb4774748092000baa97ee","B2","batch2","spm_fullscreen","","","","","","","","","","","","","","","","","","","","","","","","","","","","",""
"","","","","","html-button-response","3","28949","0.0-2.0-1.0","55eb4774748092000baa97ee","B2","batch2","","8089.300000011921","<p class = block-text><b>Instructions</b> <br>This is a widely used intelligence test in research. <br>In this test, a figure with a missing piece will be presented.<br>Below the figure are alternative pieces to complete the figure, only one of which is correct.<br> Different figures might involve different principles for obtaining the missing piece<br>Your job is to select the most logical piece to complete the figure.</p>","0","","","","","","","","","","","","","","","","","","","","","","","","","",""
"","","","","","html-keyboard-response","4","29753","0.0-2.0-2.0-0.0","55eb4774748092000baa97ee","B2","batch2","spm_show_trial_num","null","<p class=block-text>Trial 1 out of 60</p>","null","","","","","","","","","","","","","","","","","","","","","","","","","",""
"","","","","","image-button-response","5","49374","0.0-2.0-2.0-1.0","55eb4774748092000baa97ee","B2","batch2","spm_respsonse","19615.600000023842","img/question_1_1.jpeg","3","mat_01","4","1","1","19615.600000023842","","","","","","","","","","","","","","","","","","","","",""
"","","","","","html-keyboard-response","6","50443","0.0-2.0-2.0-0.1","55eb4774748092000baa97ee","B2","batch2","spm_show_trial_num","null","<p class=block-text>Trial 2 out of 60</p>","null","","","","","","","","","","","","","","","","","","","","","","","","","",""
"","","","","","image-button-response","7","56390","0.0-2.0-2.0-1.1","55eb4774748092000baa97ee","B2","batch2","spm_respsonse","5944.699999988079","img/question_1_2.jpeg","4","mat_02","5","1","1","5944.699999988079","","","","","","","","","","","","","","","","","","","","",""
"","","","","","html-keyboard-response","8","57460","0.0-2.0-2.0-0.2","55eb4774748092000baa97ee","B2","batch2","spm_show_trial_num","null","<p class=block-text>Trial 3 out of 60</p>","null","","","","","","","","","","","","","","","","","","","","","","","","","",""
"","","","","","image-button-response","9","61691","0.0-2.0-2.0-1.2","55eb4774748092000baa97ee","B2","batch2","spm_respsonse","4229","img/question_1_3.jpeg","0","mat_03","1","1","1","4229","","","","","","","","","","","","","","","","","","","","",""
"","","","","","html-keyboard-response","10","62752","0.0-2.0-2.0-0.3","55eb4774748092000baa97ee","B2","batch2","spm_show_trial_num","null","<p class=block-text>Trial 4 out of 60</p>","null","","","","","","","","","","","","","","","","","","","","","","","","","",""
"","","","","","image-button-response","11","68209","0.0-2.0-2.0-1.3","55eb4774748092000baa97ee","B2","batch2","spm_respsonse","5454.5","img/question_1_4.jpeg","1","mat_04","2","1","1","5454.5","","","","","","","","","","","","","","","","","","","","",""
"","","","","","html-keyboard-response","12","69277","0.0-2.0-2.0-0.4","55eb4774748092000baa97ee","B2","batch2","spm_show_trial_num","null","<p class=block-text>Trial 5 out of 60</p>","null","","","","","","","","","","","","","","","","","","","","","","","","","",""
"","","","","","image-button-response","13","78223","0.0-2.0-2.0-1.4","55eb4774748092000baa97ee","B2","batch2","spm_respsonse","8942.300000011921","img/question_1_5.jpeg","5","mat_05","6","1","1","8942.300000011921","","","","","","","","","","","","","","","","","","","","",""
"","","","","","html-keyboard-response","14","79291","0.0-2.0-2.0-0.5","55eb4774748092000baa97ee","B2","batch2","spm_show_trial_num","null","<p class=block-text>Trial 6 out of 60</p>","null","","","","","","","","","","","","","","","","","","","","","","","","","",""
"","","","","","image-button-response","15","83539","0.0-2.0-2.0-1.5","55eb4774748092000baa97ee","B2","batch2","spm_respsonse","4244.5","img/question_1_6.jpeg","2","mat_06","3","1","1","4244.5","","","","","","","","","","","","","","","","","","","","",""
"","","","","","html-keyboard-response","16","84602","0.0-2.0-2.0-0.6","55eb4774748092000baa97ee","B2","batch2","spm_show_trial_num","null","<p class=block-text>Trial 7 out of 60</p>","null","","","","","","","","","","","","","","","","","","","","","","","","","",""
"","","","","","image-button-response","17","89303","0.0-2.0-2.0-1.6","55eb4774748092000baa97ee","B2","batch2","spm_respsonse","4699","img/question_1_7.jpeg","5","mat_07","6","1","1","4699","","","","","","","","","","","","","","","","","","","","",""
"","","","","","html-keyboard-response","18","90374","0.0-2.0-2.0-0.7","55eb4774748092000baa97ee","B2","batch2","spm_show_trial_num","null","<p class=block-text>Trial 8 out of 60</p>","null","","","","","","","","","","","","","","","","","","","","","","","","","",""
"","","","","","image-button-response","19","99804","0.0-2.0-2.0-1.7","55eb4774748092000baa97ee","B2","batch2","spm_respsonse","9427.5","img/question_1_8.jpeg","1","mat_08","2","1","1","9427.5","","","","","","","","","","","","","","","","","","","","",""
"","","","","","html-keyboard-response","20","100873","0.0-2.0-2.0-0.8","55eb4774748092000baa97ee","B2","batch2","spm_show_trial_num","null","<p class=block-text>Trial 9 out of 60</p>","null","","","","","","","","","","","","","","","","","","","","","","","","","",""
"","","","","","image-button-response","21","108762","0.0-2.0-2.0-1.8","55eb4774748092000baa97ee","B2","batch2","spm_respsonse","7885.399999976158","img/question_1_9.jpeg","0","mat_09","1","1","1","7885.399999976158","","","","","","","","","","","","","","","","","","","","",""
"","","","","","html-keyboard-response","22","109832","0.0-2.0-2.0-0.9","55eb4774748092000baa97ee","B2","batch2","spm_show_trial_num","null","<p class=block-text>Trial 10 out of 60</p>","null","","","","","","","","","","","","","","","","","","","","","","","","","",""
"","","","","","image-button-response","23","119644","0.0-2.0-2.0-1.9","55eb4774748092000baa97ee","B2","batch2","spm_respsonse","9809.100000023842","img/question_1_10.jpeg","2","mat_10","3","1","1","9809.100000023842","","","","","","","","","","","","","","","","","","","","",""
"","","","","","html-keyboard-response","24","120708","0.0-2.0-2.0-0.10","55eb4774748092000baa97ee","B2","batch2","spm_show_trial_num","null","<p class=block-text>Trial 11 out of 60</p>","null","","","","","","","","","","","","","","","","","","","","","","","","","",""
"","","","","","image-button-response","25","131202","0.0-2.0-2.0-1.10","55eb4774748092000baa97ee","B2","batch2","spm_respsonse","10490.700000047684","img/question_1_11.jpeg","3","mat_11","4","1","1","10490.700000047684","","","","","","","","","","","","","","","","","","","","",""
"","","","","","html-keyboard-response","26","132257","0.0-2.0-2.0-0.11","55eb4774748092000baa97ee","B2","batch2","spm_show_trial_num","null","<p class=block-text>Trial 12 out of 60</p>","null","","","","","","","","","","","","","","","","","","","","","","","","","",""
"","","","","","image-button-response","27","140778","0.0-2.0-2.0-1.11","55eb4774748092000baa97ee","B2","batch2","spm_respsonse","8517.199999988079","img/question_1_12.jpeg","4","mat_12","5","1","1","8517.199999988079","","","","","","","","","","","","","","","","","","","","",""
"","","","","","html-keyboard-response","28","141848","0.0-2.0-2.0-0.12","55eb4774748092000baa97ee","B2","batch2","spm_show_trial_num","null","<p class=block-text>Trial 13 out of 60</p>","null","","","","","","","","","","","","","","","","","","","","","","","","","",""
"","","","","","image-button-response","29","149819","0.0-2.0-2.0-1.12","55eb4774748092000baa97ee","B2","batch2","spm_respsonse","7967.199999988079","img/question_2_1.jpeg","1","mat_13","2","1","1","7967.199999988079","","","","","","","","","","","","","","","","","","","","",""
"","","","","","html-keyboard-response","30","150891","0.0-2.0-2.0-0.13","55eb4774748092000baa97ee","B2","batch2","spm_show_trial_num","null","<p class=block-text>Trial 14 out of 60</p>","null","","","","","","","","","","","","","","","","","","","","","","","","","",""
"","","","","","image-button-response","31","155693","0.0-2.0-2.0-1.13","55eb4774748092000baa97ee","B2","batch2","spm_respsonse","4798.699999988079","img/question_2_2.jpeg","5","mat_14","6","1","1","4798.699999988079","","","","","","","","","","","","","","","","","","","","",""
"","","","","","html-keyboard-response","32","156762","0.0-2.0-2.0-0.14","55eb4774748092000baa97ee","B2","batch2","spm_show_trial_num","null","<p class=block-text>Trial 15 out of 60</p>","null","","","","","","","","","","","","","","","","","","","","","","","","","",""
"","","","","","image-button-response","33","159995","0.0-2.0-2.0-1.14","55eb4774748092000baa97ee","B2","batch2","spm_respsonse","3230","img/question_2_3.jpeg","0","mat_15","1","1","1","3230","","","","","","","","","","","","","","","","","","","","",""
"","","","","","html-keyboard-response","34","161064","0.0-2.0-2.0-0.15","55eb4774748092000baa97ee","B2","batch2","spm_show_trial_num","null","<p class=block-text>Trial 16 out of 60</p>","null","","","","","","","","","","","","","","","","","","","","","","","","","",""
"","","","","","image-button-response","35","165927","0.0-2.0-2.0-1.15","55eb4774748092000baa97ee","B2","batch2","spm_respsonse","4860.399999976158","img/question_2_4.jpeg","1","mat_16","2","1","1","4860.399999976158","","","","","","","","","","","","","","","","","","","","",""
"","","","","","html-keyboard-response","36","166988","0.0-2.0-2.0-0.16","55eb4774748092000baa97ee","B2","batch2","spm_show_trial_num","null","<p class=block-text>Trial 17 out of 60</p>","null","","","","","","","","","","","","","","","","","","","","","","","","","",""
"","","","","","image-button-response","37","172901","0.0-2.0-2.0-1.16","55eb4774748092000baa97ee","B2","batch2","spm_respsonse","5910.5","img/question_2_5.jpeg","0","mat_17","1","1","1","5910.5","","","","","","","","","","","","","","","","","","","","",""
"","","","","","html-keyboard-response","38","173980","0.0-2.0-2.0-0.17","55eb4774748092000baa97ee","B2","batch2","spm_show_trial_num","null","<p class=block-text>Trial 18 out of 60</p>","null","","","","","","","","","","","","","","","","","","","","","","","","","",""
"","","","","","image-button-response","39","178900","0.0-2.0-2.0-1.17","55eb4774748092000baa97ee","B2","batch2","spm_respsonse","4917.100000023842","img/question_2_6.jpeg","2","mat_18","3","1","1","4917.100000023842","","","","","","","","","","","","","","","","","","","","",""
"","","","","","html-keyboard-response","40","179971","0.0-2.0-2.0-0.18","55eb4774748092000baa97ee","B2","batch2","spm_show_trial_num","null","<p class=block-text>Trial 19 out of 60</p>","null","","","","","","","","","","","","","","","","","","","","","","","","","",""
"","","","","","image-button-response","41","185724","0.0-2.0-2.0-1.18","55eb4774748092000baa97ee","B2","batch2","spm_respsonse","5750.5","img/question_2_7.jpeg","5","mat_19","5","0","0","5750.5","","","","","","","","","","","","","","","","","","","","",""
"","","","","","html-keyboard-response","42","186786","0.0-2.0-2.0-0.19","55eb4774748092000baa97ee","B2","batch2","spm_show_trial_num","null","<p class=block-text>Trial 20 out of 60</p>","null","","","","","","","","","","","","","","","","","","","","","","","","","",""
"","","","","","image-button-response","43","193397","0.0-2.0-2.0-1.19","55eb4774748092000baa97ee","B2","batch2","spm_respsonse","6608","img/question_2_8.jpeg","5","mat_20","6","1","1","6608","","","","","","","","","","","","","","","","","","","","",""
"","","","","","html-keyboard-response","44","194470","0.0-2.0-2.0-0.20","55eb4774748092000baa97ee","B2","batch2","spm_show_trial_num","null","<p class=block-text>Trial 21 out of 60</p>","null","","","","","","","","","","","","","","","","","","","","","","","","","",""
"","","","","","image-button-response","45","209123","0.0-2.0-2.0-1.20","55eb4774748092000baa97ee","B2","batch2","spm_respsonse","14650.400000035763","img/question_2_9.jpeg","3","mat_21","4","1","1","14650.400000035763","","","","","","","","","","","","","","","","","","","","",""
"","","","","","html-keyboard-response","46","210194","0.0-2.0-2.0-0.21","55eb4774748092000baa97ee","B2","batch2","spm_show_trial_num","null","<p class=block-text>Trial 22 out of 60</p>","null","","","","","","","","","","","","","","","","","","","","","","","","","",""
"","","","","","image-button-response","47","218340","0.0-2.0-2.0-1.21","55eb4774748092000baa97ee","B2","batch2","spm_respsonse","8141.700000047684","img/question_2_10.jpeg","2","mat_22","3","1","1","8141.700000047684","","","","","","","","","","","","","","","","","","","","",""
"","","","","","html-keyboard-response","48","219403","0.0-2.0-2.0-0.22","55eb4774748092000baa97ee","B2","batch2","spm_show_trial_num","null","<p class=block-text>Trial 23 out of 60</p>","null","","","","","","","","","","","","","","","","","","","","","","","","","",""
"","","","","","image-button-response","49","224891","0.0-2.0-2.0-1.22","55eb4774748092000baa97ee","B2","batch2","spm_respsonse","5485.300000011921","img/question_2_11.jpeg","3","mat_23","4","1","1","5485.300000011921","","","","","","","","","","","","","","","","","","","","",""
"","","","","","html-keyboard-response","50","225959","0.0-2.0-2.0-0.23","55eb4774748092000baa97ee","B2","batch2","spm_show_trial_num","null","<p class=block-text>Trial 24 out of 60</p>","null","","","","","","","","","","","","","","","","","","","","","","","","","",""
"","","","","","image-button-response","51","245129","0.0-2.0-2.0-1.23","55eb4774748092000baa97ee","B2","batch2","spm_respsonse","19167.69999998808","img/question_2_12.jpeg","4","mat_24","5","1","1","19167.69999998808","","","","","","","","","","","","","","","","","","","","",""
"","","","","","html-button-response","52","248928","0.0-2.0-3.0","55eb4774748092000baa97ee","B2","batch2","attention_check","3534.300000011921","<p class = block-text>Attention check: Please choose 1<br></p>","0","","","true","","","","","","","","","","","","","","","","","","","","","","",""
"","","","","","html-keyboard-response","53","249742","0.0-2.0-4.0-0.0","55eb4774748092000baa97ee","B2","batch2","spm_show_trial_num","null","<p class=block-text>Trial 25 out of 60</p>","null","","","","","","","","","","","","","","","","","","","","","","","","","",""
"","","","","","image-button-response","54","257281","0.0-2.0-4.0-1.0","55eb4774748092000baa97ee","B2","batch2","spm_respsonse","7535.799999952316","img/question_3_1.jpeg","7","mat_25","8","1","1","7535.799999952316","","","","","","","","","","","","","","","","","","","","",""
"","","","","","html-keyboard-response","55","258335","0.0-2.0-4.0-0.1","55eb4774748092000baa97ee","B2","batch2","spm_show_trial_num","null","<p class=block-text>Trial 26 out of 60</p>","null","","","","","","","","","","","","","","","","","","","","","","","","","",""
"","","","","","image-button-response","56","264555","0.0-2.0-4.0-1.1","55eb4774748092000baa97ee","B2","batch2","spm_respsonse","6215.900000035763","img/question_3_2.jpeg","1","mat_26","2","1","1","6215.900000035763","","","","","","","","","","","","","","","","","","","","",""
"","","","","","html-keyboard-response","57","265625","0.0-2.0-4.0-0.2","55eb4774748092000baa97ee","B2","batch2","spm_show_trial_num","null","<p class=block-text>Trial 27 out of 60</p>","null","","","","","","","","","","","","","","","","","","","","","","","","","",""
"","","","","","image-button-response","58","273806","0.0-2.0-4.0-1.2","55eb4774748092000baa97ee","B2","batch2","spm_respsonse","8178.100000023842","img/question_3_3.jpeg","2","mat_27","3","1","1","8178.100000023842","","","","","","","","","","","","","","","","","","","","",""
"","","","","","html-keyboard-response","59","274881","0.0-2.0-4.0-0.3","55eb4774748092000baa97ee","B2","batch2","spm_show_trial_num","null","<p class=block-text>Trial 28 out of 60</p>","null","","","","","","","","","","","","","","","","","","","","","","","","","",""
"","","","","","image-button-response","60","288337","0.0-2.0-4.0-1.3","55eb4774748092000baa97ee","B2","batch2","spm_respsonse","13452.600000023842","img/question_3_4.jpeg","7","mat_28","8","1","1","13452.600000023842","","","","","","","","","","","","","","","","","","","","",""
"","","","","","html-keyboard-response","61","289406","0.0-2.0-4.0-0.4","55eb4774748092000baa97ee","B2","batch2","spm_show_trial_num","null","<p class=block-text>Trial 29 out of 60</p>","null","","","","","","","","","","","","","","","","","","","","","","","","","",""
"","","","","","image-button-response","62","298421","0.0-2.0-4.0-1.4","55eb4774748092000baa97ee","B2","batch2","spm_respsonse","9011.300000011921","img/question_3_5.jpeg","6","mat_29","7","1","1","9011.300000011921","","","","","","","","","","","","","","","","","","","","",""
"","","","","","html-keyboard-response","63","299489","0.0-2.0-4.0-0.5","55eb4774748092000baa97ee","B2","batch2","spm_show_trial_num","null","<p class=block-text>Trial 30 out of 60</p>","null","","","","","","","","","","","","","","","","","","","","","","","","","",""
"","","","","","image-button-response","64","307069","0.0-2.0-4.0-1.5","55eb4774748092000baa97ee","B2","batch2","spm_respsonse","7576.899999976158","img/question_3_6.jpeg","3","mat_30","4","1","1","7576.899999976158","","","","","","","","","","","","","","","","","","","","",""
"","","","","","html-keyboard-response","65","308141","0.0-2.0-4.0-0.6","55eb4774748092000baa97ee","B2","batch2","spm_show_trial_num","null","<p class=block-text>Trial 31 out of 60</p>","null","","","","","","","","","","","","","","","","","","","","","","","","","",""
"","","","","","image-button-response","66","320203","0.0-2.0-4.0-1.6","55eb4774748092000baa97ee","B2","batch2","spm_respsonse","12059.199999988079","img/question_3_7.jpeg","4","mat_31","5","1","1","12059.199999988079","","","","","","","","","","","","","","","","","","","","",""
"","","","","","html-keyboard-response","67","321272","0.0-2.0-4.0-0.7","55eb4774748092000baa97ee","B2","batch2","spm_show_trial_num","null","<p class=block-text>Trial 32 out of 60</p>","null","","","","","","","","","","","","","","","","","","","","","","","","","",""
"","","","","","image-button-response","68","332077","0.0-2.0-4.0-1.7","55eb4774748092000baa97ee","B2","batch2","spm_respsonse","10802","img/question_3_8.jpeg","0","mat_32","1","1","1","10802","","","","","","","","","","","","","","","","","","","","",""
"","","","","","html-keyboard-response","69","333135","0.0-2.0-4.0-0.8","55eb4774748092000baa97ee","B2","batch2","spm_show_trial_num","null","<p class=block-text>Trial 33 out of 60</p>","null","","","","","","","","","","","","","","","","","","","","","","","","","",""
"","","","","","image-button-response","70","346127","0.0-2.0-4.0-1.8","55eb4774748092000baa97ee","B2","batch2","spm_respsonse","12989.600000023842","img/question_3_9.jpeg","6","mat_33","7","1","1","12989.600000023842","","","","","","","","","","","","","","","","","","","","",""
"","","","","","html-keyboard-response","71","347180","0.0-2.0-4.0-0.9","55eb4774748092000baa97ee","B2","batch2","spm_show_trial_num","null","<p class=block-text>Trial 34 out of 60</p>","null","","","","","","","","","","","","","","","","","","","","","","","","","",""
"","","","","","image-button-response","72","355082","0.0-2.0-4.0-1.9","55eb4774748092000baa97ee","B2","batch2","spm_respsonse","7899.800000011921","img/question_3_10.jpeg","5","mat_34","6","1","1","7899.800000011921","","","","","","","","","","","","","","","","","","","","",""
"","","","","","html-keyboard-response","73","356144","0.0-2.0-4.0-0.10","55eb4774748092000baa97ee","B2","batch2","spm_show_trial_num","null","<p class=block-text>Trial 35 out of 60</p>","null","","","","","","","","","","","","","","","","","","","","","","","","","",""
"","","","","","image-button-response","74","382573","0.0-2.0-4.0-1.10","55eb4774748092000baa97ee","B2","batch2","spm_respsonse","26426.19999998808","img/question_3_11.jpeg","0","mat_35","1","1","1","26426.19999998808","","","","","","","","","","","","","","","","","","","","",""
"","","","","","html-keyboard-response","75","383637","0.0-2.0-4.0-0.11","55eb4774748092000baa97ee","B2","batch2","spm_show_trial_num","null","<p class=block-text>Trial 36 out of 60</p>","null","","","","","","","","","","","","","","","","","","","","","","","","","",""
"","","","","","image-button-response","76","433533","0.0-2.0-4.0-1.11","55eb4774748092000baa97ee","B2","batch2","spm_respsonse","49893.39999997616","img/question_3_12.jpeg","4","mat_36","2","0","0","49893.39999997616","","","","","","","","","","","","","","","","","","","","",""
"","","","","","html-keyboard-response","77","434605","0.0-2.0-4.0-0.12","55eb4774748092000baa97ee","B2","batch2","spm_show_trial_num","null","<p class=block-text>Trial 37 out of 60</p>","null","","","","","","","","","","","","","","","","","","","","","","","","","",""
"","","","","","image-button-response","78","440980","0.0-2.0-4.0-1.12","55eb4774748092000baa97ee","B2","batch2","spm_respsonse","6371.800000011921","img/question_4_1.jpeg","2","mat_37","3","1","1","6371.800000011921","","","","","","","","","","","","","","","","","","","","",""
"","","","","","html-keyboard-response","79","442056","0.0-2.0-4.0-0.13","55eb4774748092000baa97ee","B2","batch2","spm_show_trial_num","null","<p class=block-text>Trial 38 out of 60</p>","null","","","","","","","","","","","","","","","","","","","","","","","","","",""
"","","","","","image-button-response","80","446953","0.0-2.0-4.0-1.13","55eb4774748092000baa97ee","B2","batch2","spm_respsonse","4895","img/question_4_2.jpeg","3","mat_38","4","1","1","4895","","","","","","","","","","","","","","","","","","","","",""
"","","","","","html-keyboard-response","81","448015","0.0-2.0-4.0-0.14","55eb4774748092000baa97ee","B2","batch2","spm_show_trial_num","null","<p class=block-text>Trial 39 out of 60</p>","null","","","","","","","","","","","","","","","","","","","","","","","","","",""
"","","","","","image-button-response","82","459562","0.0-2.0-4.0-1.14","55eb4774748092000baa97ee","B2","batch2","spm_respsonse","11544.600000023842","img/question_4_3.jpeg","2","mat_39","3","1","1","11544.600000023842","","","","","","","","","","","","","","","","","","","","",""
"","","","","","html-keyboard-response","83","460630","0.0-2.0-4.0-0.15","55eb4774748092000baa97ee","B2","batch2","spm_show_trial_num","null","<p class=block-text>Trial 40 out of 60</p>","null","","","","","","","","","","","","","","","","","","","","","","","","","",""
"","","","","","image-button-response","84","470828","0.0-2.0-4.0-1.15","55eb4774748092000baa97ee","B2","batch2","spm_respsonse","10195.599999964237","img/question_4_4.jpeg","6","mat_40","7","1","1","10195.599999964237","","","","","","","","","","","","","","","","","","","","",""
"","","","","","html-keyboard-response","85","471898","0.0-2.0-4.0-0.16","55eb4774748092000baa97ee","B2","batch2","spm_show_trial_num","null","<p class=block-text>Trial 41 out of 60</p>","null","","","","","","","","","","","","","","","","","","","","","","","","","",""
"","","","","","image-button-response","86","484728","0.0-2.0-4.0-1.16","55eb4774748092000baa97ee","B2","batch2","spm_respsonse","12827.300000011921","img/question_4_5.jpeg","7","mat_41","8","1","1","12827.300000011921","","","","","","","","","","","","","","","","","","","","",""
"","","","","","html-keyboard-response","87","485805","0.0-2.0-4.0-0.17","55eb4774748092000baa97ee","B2","batch2","spm_show_trial_num","null","<p class=block-text>Trial 42 out of 60</p>","null","","","","","","","","","","","","","","","","","","","","","","","","","",""
"","","","","","image-button-response","88","496770","0.0-2.0-4.0-1.17","55eb4774748092000baa97ee","B2","batch2","spm_respsonse","10961.600000023842","img/question_4_6.jpeg","5","mat_42","6","1","1","10961.600000023842","","","","","","","","","","","","","","","","","","","","",""
"","","","","","html-keyboard-response","89","497828","0.0-2.0-4.0-0.18","55eb4774748092000baa97ee","B2","batch2","spm_show_trial_num","null","<p class=block-text>Trial 43 out of 60</p>","null","","","","","","","","","","","","","","","","","","","","","","","","","",""
"","","","","","image-button-response","90","529926","0.0-2.0-4.0-1.18","55eb4774748092000baa97ee","B2","batch2","spm_respsonse","32094.19999998808","img/question_4_7.jpeg","4","mat_43","5","1","1","32094.19999998808","","","","","","","","","","","","","","","","","","","","",""
"","","","","","html-keyboard-response","91","530979","0.0-2.0-4.0-0.19","55eb4774748092000baa97ee","B2","batch2","spm_show_trial_num","null","<p class=block-text>Trial 44 out of 60</p>","null","","","","","","","","","","","","","","","","","","","","","","","","","",""
"","","","","","image-button-response","92","542268","0.0-2.0-4.0-1.19","55eb4774748092000baa97ee","B2","batch2","spm_respsonse","11285.5","img/question_4_8.jpeg","3","mat_44","4","1","1","11285.5","","","","","","","","","","","","","","","","","","","","",""
"","","","","","html-keyboard-response","93","543327","0.0-2.0-4.0-0.20","55eb4774748092000baa97ee","B2","batch2","spm_show_trial_num","null","<p class=block-text>Trial 45 out of 60</p>","null","","","","","","","","","","","","","","","","","","","","","","","","","",""
"","","","","","image-button-response","94","566532","0.0-2.0-4.0-1.20","55eb4774748092000baa97ee","B2","batch2","spm_respsonse","23201.700000047684","img/question_4_9.jpeg","0","mat_45","1","1","1","23201.700000047684","","","","","","","","","","","","","","","","","","","","",""
"","","","","","html-keyboard-response","95","567587","0.0-2.0-4.0-0.21","55eb4774748092000baa97ee","B2","batch2","spm_show_trial_num","null","<p class=block-text>Trial 46 out of 60</p>","null","","","","","","","","","","","","","","","","","","","","","","","","","",""
"","","","","","image-button-response","96","579922","0.0-2.0-4.0-1.21","55eb4774748092000baa97ee","B2","batch2","spm_respsonse","12331.699999988079","img/question_4_10.jpeg","1","mat_46","2","1","1","12331.699999988079","","","","","","","","","","","","","","","","","","","","",""
"","","","","","html-keyboard-response","97","580991","0.0-2.0-4.0-0.22","55eb4774748092000baa97ee","B2","batch2","spm_show_trial_num","null","<p class=block-text>Trial 47 out of 60</p>","null","","","","","","","","","","","","","","","","","","","","","","","","","",""
"","","","","","image-button-response","98","609031","0.0-2.0-4.0-1.22","55eb4774748092000baa97ee","B2","batch2","spm_respsonse","28036.900000035763","img/question_4_11.jpeg","5","mat_47","5","0","0","28036.900000035763","","","","","","","","","","","","","","","","","","","","",""
"","","","","","html-keyboard-response","99","610107","0.0-2.0-4.0-0.23","55eb4774748092000baa97ee","B2","batch2","spm_show_trial_num","null","<p class=block-text>Trial 48 out of 60</p>","null","","","","","","","","","","","","","","","","","","","","","","","","","",""
"","","","","","image-button-response","100","635169","0.0-2.0-4.0-1.23","55eb4774748092000baa97ee","B2","batch2","spm_respsonse","25059","img/question_4_12.jpeg","5","mat_48","6","1","1","25059","","","","","","","","","","","","","","","","","","","","",""
"","","","","","html-keyboard-response","101","636238","0.0-2.0-4.0-0.24","55eb4774748092000baa97ee","B2","batch2","spm_show_trial_num","null","<p class=block-text>Trial 49 out of 60</p>","null","","","","","","","","","","","","","","","","","","","","","","","","","",""
"","","","","","image-button-response","102","646254","0.0-2.0-4.0-1.24","55eb4774748092000baa97ee","B2","batch2","spm_respsonse","10013.5","img/question_5_1.jpeg","6","mat_49","7","1","1","10013.5","","","","","","","","","","","","","","","","","","","","",""
"","","","","","html-keyboard-response","103","647329","0.0-2.0-4.0-0.25","55eb4774748092000baa97ee","B2","batch2","spm_show_trial_num","null","<p class=block-text>Trial 50 out of 60</p>","null","","","","","","","","","","","","","","","","","","","","","","","","","",""
"","","","","","image-button-response","104","659244","0.0-2.0-4.0-1.25","55eb4774748092000baa97ee","B2","batch2","spm_respsonse","11911.699999988079","img/question_5_2.jpeg","5","mat_50","6","1","1","11911.699999988079","","","","","","","","","","","","","","","","","","","","",""
"","","","","","html-keyboard-response","105","660306","0.0-2.0-4.0-0.26","55eb4774748092000baa97ee","B2","batch2","spm_show_trial_num","null","<p class=block-text>Trial 51 out of 60</p>","null","","","","","","","","","","","","","","","","","","","","","","","","","",""
"","","","","","image-button-response","106","669772","0.0-2.0-4.0-1.26","55eb4774748092000baa97ee","B2","batch2","spm_respsonse","9462.5","img/question_5_3.jpeg","7","mat_51","8","1","1","9462.5","","","","","","","","","","","","","","","","","","","","",""
"","","","","","html-keyboard-response","107","670837","0.0-2.0-4.0-0.27","55eb4774748092000baa97ee","B2","batch2","spm_show_trial_num","null","<p class=block-text>Trial 52 out of 60</p>","null","","","","","","","","","","","","","","","","","","","","","","","","","",""
"","","","","","image-button-response","108","684999","0.0-2.0-4.0-1.27","55eb4774748092000baa97ee","B2","batch2","spm_respsonse","14159","img/question_5_4.jpeg","1","mat_52","2","1","1","14159","","","","","","","","","","","","","","","","","","","","",""
"","","","","","html-keyboard-response","109","686062","0.0-2.0-4.0-0.28","55eb4774748092000baa97ee","B2","batch2","spm_show_trial_num","null","<p class=block-text>Trial 53 out of 60</p>","null","","","","","","","","","","","","","","","","","","","","","","","","","",""
"","","","","","image-button-response","110","696902","0.0-2.0-4.0-1.28","55eb4774748092000baa97ee","B2","batch2","spm_respsonse","10837.900000035763","img/question_5_5.jpeg","0","mat_53","1","1","1","10837.900000035763","","","","","","","","","","","","","","","","","","","","",""
"","","","","","html-keyboard-response","111","697962","0.0-2.0-4.0-0.29","55eb4774748092000baa97ee","B2","batch2","spm_show_trial_num","null","<p class=block-text>Trial 54 out of 60</p>","null","","","","","","","","","","","","","","","","","","","","","","","","","",""
"","","","","","image-button-response","112","720408","0.0-2.0-4.0-1.29","55eb4774748092000baa97ee","B2","batch2","spm_respsonse","22442.5","img/question_5_6.jpeg","4","mat_54","5","1","1","22442.5","","","","","","","","","","","","","","","","","","","","",""
"","","","","","html-keyboard-response","113","721469","0.0-2.0-4.0-0.30","55eb4774748092000baa97ee","B2","batch2","spm_show_trial_num","null","<p class=block-text>Trial 55 out of 60</p>","null","","","","","","","","","","","","","","","","","","","","","","","","","",""
"","","","","","image-button-response","114","747101","0.0-2.0-4.0-1.30","55eb4774748092000baa97ee","B2","batch2","spm_respsonse","25629.80000001192","img/question_5_7.jpeg","2","mat_55","1","0","0","25629.80000001192","","","","","","","","","","","","","","","","","","","","",""
"","","","","","html-keyboard-response","115","748171","0.0-2.0-4.0-0.31","55eb4774748092000baa97ee","B2","batch2","spm_show_trial_num","null","<p class=block-text>Trial 56 out of 60</p>","null","","","","","","","","","","","","","","","","","","","","","","","","","",""
"","","","","","image-button-response","116","761288","0.0-2.0-4.0-1.31","55eb4774748092000baa97ee","B2","batch2","spm_respsonse","13114.099999964237","img/question_5_8.jpeg","5","mat_56","6","1","1","13114.099999964237","","","","","","","","","","","","","","","","","","","","",""
"","","","","","html-keyboard-response","117","762358","0.0-2.0-4.0-0.32","55eb4774748092000baa97ee","B2","batch2","spm_show_trial_num","null","<p class=block-text>Trial 57 out of 60</p>","null","","","","","","","","","","","","","","","","","","","","","","","","","",""
"","","","","","image-button-response","118","776206","0.0-2.0-4.0-1.32","55eb4774748092000baa97ee","B2","batch2","spm_respsonse","13844.399999976158","img/question_5_9.jpeg","2","mat_57","3","1","1","13844.399999976158","","","","","","","","","","","","","","","","","","","","",""
"","","","","","html-keyboard-response","119","777271","0.0-2.0-4.0-0.33","55eb4774748092000baa97ee","B2","batch2","spm_show_trial_num","null","<p class=block-text>Trial 58 out of 60</p>","null","","","","","","","","","","","","","","","","","","","","","","","","","",""
"","","","","","image-button-response","120","810555","0.0-2.0-4.0-1.33","55eb4774748092000baa97ee","B2","batch2","spm_respsonse","33280.5","img/question_5_10.jpeg","7","mat_58","2","0","0","33280.5","","","","","","","","","","","","","","","","","","","","",""
"","","","","","html-keyboard-response","121","811617","0.0-2.0-4.0-0.34","55eb4774748092000baa97ee","B2","batch2","spm_show_trial_num","null","<p class=block-text>Trial 59 out of 60</p>","null","","","","","","","","","","","","","","","","","","","","","","","","","",""
"","","","","","image-button-response","122","833592","0.0-2.0-4.0-1.34","55eb4774748092000baa97ee","B2","batch2","spm_respsonse","21972","img/question_5_11.jpeg","6","mat_59","4","0","0","21972","","","","","","","","","","","","","","","","","","","","",""
"","","","","","html-keyboard-response","123","834662","0.0-2.0-4.0-0.35","55eb4774748092000baa97ee","B2","batch2","spm_show_trial_num","null","<p class=block-text>Trial 60 out of 60</p>","null","","","","","","","","","","","","","","","","","","","","","","","","","",""
"","","","","","image-button-response","124","865010","0.0-2.0-4.0-1.35","55eb4774748092000baa97ee","B2","batch2","spm_respsonse","30345.69999998808","img/question_5_12.jpeg","4","mat_60","5","1","1","30345.69999998808","","","","","","","","","","","","","","","","","","","","",""
"","","","","","html-button-response","125","868902","0.0-2.0-5.0","55eb4774748092000baa97ee","B2","batch2","spm_goodbye","3628.7999999523163","<p class= block-text>This concludes the Standard Progressive Matrix game. Thank you for your responses!<br> When you are ready, click the button continue</p>","0","","","","","","","","","","","","","","","","","","","","","","","","","",""
"true","","","","","fullscreen","126","871892","0.0-3.0-0.0","55eb4774748092000baa97ee","B2","batch2","","","","","","","","","","","","","","","","","","","","","","","","","","","","","",""
"","","","","","instructions","127","902122","0.0-3.0-1.0-0.0-0.0","55eb4774748092000baa97ee","B2","batch2","tol-instructions","30229","","","","","","","","[{""page_index"":0,""viewing_time"":7879.699999988079},{""page_index"":1,""viewing_time"":2300.100000023842},{""page_index"":2,""viewing_time"":2195.7999999523163},{""page_index"":3,""viewing_time"":4463.600000023842},{""page_index"":4,""viewing_time"":3375.699999988079},{""page_index"":5,""viewing_time"":7124.5},{""page_index"":6,""viewing_time"":2889.100000023842}]","","","","","","","","","","","","","","","","","","","",""
"","","","","","html-button-response","128","903699","0.0-3.0-1.0-1.0-0.0","55eb4774748092000baa97ee","B2","batch2","tol_enter_quiz","1576.5","<p class=block-text> Let's answer a few questions <br>","0","","","","","","","","","","","","","","","","","","","","","","","","","",""
"","","","","","html-button-response","129","908189","0.0-3.0-1.0-1.0-1.0","55eb4774748092000baa97ee","B2","batch2","tol_quiz","4488.199999988079","<p class = block-text>True or False: You can only move the ball on top of a peg. <br></p>","0","","","true","","","","","","","","","","","","","","","","","","","","","","",""
"","","","","","html-button-response","130","909774","0.0-3.0-1.0-1.0-2.0","55eb4774748092000baa97ee","B2","batch2","tol_quiz_feedback","1582.2000000476837","<p class = block-text>Correct! You can only move the ball on top of a peg.</p>","0","","","","","","","","","","","","","","","","","","","","","","","","","",""
"","","","","","html-button-response","131","913799","0.0-3.0-1.0-1.0-3.0","55eb4774748092000baa97ee","B2","batch2","tol_quiz","4023.400000035763","<p class = block-text>True or False: You should try to match your board with the target board with fewest moves possible. <br></p>","0","","","true","","","","","","","","","","","","","","","","","","","","","","",""
"","","","","","html-button-response","132","914990","0.0-3.0-1.0-1.0-4.0","55eb4774748092000baa97ee","B2","batch2","tol_quiz_feedback","1189.800000011921","<p class = block-text>Correct! </p>","0","","","","","","","","","","","","","","","","","","","","","","","","","",""
"","","","","","html-button-response","133","916739","0.0-3.0-2.0","55eb4774748092000baa97ee","B2","batch2","","1746.699999988079","<p class=block-text> Now that you've understood the game, let's practice a few easier examples before we start!<br> <br>","0","","","","","","","","","","","","","","","","","","","","","","","","","",""
"","","","","","single-stim-button","134","926040","0.0-3.0-3.0-0.0","55eb4774748092000baa97ee","B2","batch2","tol_practice","9298","","","","","","","","","tol_peg_2","9298","9298","0","[[1,2,0],[0,0],[0]]","1","[[1,2,0],[0,0],[3]]","practice","9298","","","","","","","","","","",""
"","","","","","single-stim-button","135","927175","0.0-3.0-3.0-1.0","55eb4774748092000baa97ee","B2","batch2","tol_practice","1134","","","","","","","","","tol_peg_3","1134","1134","0","[[1,2,0],[0,0],[3]]","1","[[1,2,0],[0,0],[3]]","practice","1134","","","","","","","","","","",""
"","","","","","poldrack-single-stim","136","928192","0.0-3.0-4.0","55eb4774748092000baa97ee","B2","batch2","tol_feedback","-1","","","","","true","","","","","1000","1000","500","","","","","","-1","none","true","","0","","","","","",""
"","","","","","single-stim-button","137","934496","0.0-3.0-5.0-0.0","55eb4774748092000baa97ee","B2","batch2","tol_practice","6303","","","","","","","","","tol_peg_1","6303","6303","0","[[1,0,0],[3,0],[0]]","2","[[0,0,0],[3,1],[2]]","practice","6303","","","","","","","","","","",""
"","","","","","single-stim-button","138","937011","0.0-3.0-5.0-1.0","55eb4774748092000baa97ee","B2","batch2","tol_practice","2513","","","","","","","","","tol_peg_3","2513","2513","0","[[1,0,0],[3,0],[2]]","2","[[0,0,0],[3,1],[2]]","practice","2513","","","","","","","","","","",""
"","","","","","single-stim-button","139","939206","0.0-3.0-5.1-0.1","55eb4774748092000baa97ee","B2","batch2","tol_practice","2194","","","","","","","","","tol_peg_1","2194","2194","0","[[0,0,0],[3,0],[2]]","3","[[0,0,0],[3,1],[2]]","practice","2194","","","","","","","","","","",""
"","","","","","single-stim-button","140","940357","0.0-3.0-5.1-1.1","55eb4774748092000baa97ee","B2","batch2","tol_practice","1149","","","","","","","","","tol_peg_2","1149","1149","0","[[0,0,0],[3,1],[2]]","3","[[0,0,0],[3,1],[2]]","practice","1149","","","","","","","","","","",""
"","","","","","poldrack-single-stim","141","941359","0.0-3.0-6.0","55eb4774748092000baa97ee","B2","batch2","tol_feedback","-1","","","","","true","","","","","1000","1000","500","","","","","","-1","none","true","","0","","","","","",""
"","","","","","single-stim-button","142","945938","0.0-3.0-7.0-0.0","55eb4774748092000baa97ee","B2","batch2","tol_practice","4578","","","","","","","","","tol_peg_2","4578","4578","0","[[1,2,0],[0,0],[0]]","4","[[1,0,0],[2,0],[3]]","practice","4578","","","","","","","","","","",""
"","","","","","single-stim-button","143","946909","0.0-3.0-7.0-1.0","55eb4774748092000baa97ee","B2","batch2","tol_practice","969","","","","","","","","","tol_peg_3","969","969","0","[[1,2,0],[0,0],[3]]","4","[[1,0,0],[2,0],[3]]","practice","969","","","","","","","","","","",""
"","","","","","single-stim-button","144","948276","0.0-3.0-7.1-0.1","55eb4774748092000baa97ee","B2","batch2","tol_practice","1367","","","","","","","","","tol_peg_1","1367","1367","0","[[1,0,0],[0,0],[3]]","5","[[1,0,0],[2,0],[3]]","practice","1367","","","","","","","","","","",""
"","","","","","single-stim-button","145","949244","0.0-3.0-7.1-1.1","55eb4774748092000baa97ee","B2","batch2","tol_practice","967","","","","","","","","","tol_peg_2","967","967","0","[[1,0,0],[2,0],[3]]","5","[[1,0,0],[2,0],[3]]","practice","967","","","","","","","","","","",""
"","","","","","poldrack-single-stim","146","950246","0.0-3.0-8.0","55eb4774748092000baa97ee","B2","batch2","tol_feedback","-1","","","","","true","","","","","1000","1000","500","","","","","","-1","none","true","","0","","","","","",""
"","","","","","html-button-response","147","952779","0.0-3.0-9.0","55eb4774748092000baa97ee","B2","batch2","tol_instruction","2531.199999988079","<div class = centerbox><p class = center-block-text>Great job! You are done with practice trials<br>You are about to start official trials.<br> <br> Problem <strong>1</strong> out of 25 problems</p></div>","0","","","","","","","","","","","","","","","","","","","","","","","","","",""
"","","","","","single-stim-button","148","957359","0.0-3.0-10.0-0.0","55eb4774748092000baa97ee","B2","batch2","tol_tohand","3572","","","","","","","","","tol_peg_1","3572","3572","0","[[1,0,0],[3,0],[0]]","1","[[1,3,0],[2,0],[0]]","0","0","","","","","","3","","","","",""
"","","","","","single-stim-button","149","958862","0.0-3.0-10.0-1.0","55eb4774748092000baa97ee","B2","batch2","tol_toboard","1502","","","","","","","","","tol_peg_2","1502","1502","0","[[1,0,0],[3,2],[0]]","1","[[1,3,0],[2,0],[0]]","0","0","","","","","","3","","","","",""
"","","","","","single-stim-button","150","960581","0.0-3.0-10.1-0.1","55eb4774748092000baa97ee","B2","batch2","tol_tohand","1717","","","","","","","","","tol_peg_2","1717","1717","0","[[1,0,0],[3,0],[0]]","2","[[1,3,0],[2,0],[0]]","0","0","","","","","","3","","","","",""
"","","","","","single-stim-button","151","962678","0.0-3.0-10.1-1.1","55eb4774748092000baa97ee","B2","batch2","tol_toboard","2097","","","","","","","","","tol_peg_3","2097","2097","0","[[1,0,0],[3,0],[2]]","2","[[1,3,0],[2,0],[0]]","0","0","","","","","","3","","","","",""
"","","","","","single-stim-button","152","963919","0.0-3.0-10.2-0.2","55eb4774748092000baa97ee","B2","batch2","tol_tohand","1239","","","","","","","","","tol_peg_2","1239","1239","0","[[1,0,0],[0,0],[2]]","3","[[1,3,0],[2,0],[0]]","0","0","","","","","","3","","","","",""
"","","","","","single-stim-button","153","965758","0.0-3.0-10.2-1.2","55eb4774748092000baa97ee","B2","batch2","tol_toboard","1839","","","","","","","","","tol_peg_1","1839","1839","0","[[1,3,0],[0,0],[2]]","3","[[1,3,0],[2,0],[0]]","0","0","","","","","","3","","","","",""
"","","","","","single-stim-button","154","968958","0.0-3.0-10.3-0.3","55eb4774748092000baa97ee","B2","batch2","tol_tohand","3198","","","","","","","","","tol_peg_3","3198","3198","0","[[1,3,0],[0,0],[0]]","4","[[1,3,0],[2,0],[0]]","0","0","","","","","","3","","","","",""
"","","","","","single-stim-button","155","970157","0.0-3.0-10.3-1.3","55eb4774748092000baa97ee","B2","batch2","tol_toboard","1198","","","","","","","","","tol_peg_2","1198","1198","0","[[1,3,0],[2,0],[0]]","4","[[1,3,0],[2,0],[0]]","0","0","","","","","","3","","","","",""
"","","","","","poldrack-single-stim","156","971171","0.0-3.0-11.0","55eb4774748092000baa97ee","B2","batch2","tol_feedback","-1","","","","","true","","","","","1000","1000","500","","","","","","-1","none","true","3572","9726","","","","","",""
"","","","","","html-button-response","157","972604","0.0-3.0-12.0","55eb4774748092000baa97ee","B2","batch2","tol_trial_num","1431.5","<div class = centerbox><p class = center-block-text>problem <strong>2</strong> out of 25 problems</p></div>","0","","","","","","","","","","","","","","","","","","","","","","","","","",""
"","","","","","single-stim-button","158","978066","0.0-3.0-13.0-0.0","55eb4774748092000baa97ee","B2","batch2","tol_tohand","5461","","","","","","","","","tol_peg_1","5461","5461","0","[[1,0,0],[3,0],[0]]","1","[[2,1,3],[0,0],[0]]","1","0","","","","","","5","","","","",""
"","","","","","single-stim-button","159","983312","0.0-3.0-13.0-1.0","55eb4774748092000baa97ee","B2","batch2","tol_toboard","5245","","","","","","","","","tol_peg_3","5245","5245","0","[[1,0,0],[3,0],[2]]","1","[[2,1,3],[0,0],[0]]","1","0","","","","","","5","","","","",""
"","","","","","single-stim-button","160","986461","0.0-3.0-13.1-0.1","55eb4774748092000baa97ee","B2","batch2","tol_tohand","3147","","","","","","","","","tol_peg_1","3147","3147","0","[[0,0,0],[3,0],[2]]","2","[[2,1,3],[0,0],[0]]","1","0","","","","","","5","","","","",""
"","","","","","single-stim-button","161","987527","0.0-3.0-13.1-1.1","55eb4774748092000baa97ee","B2","batch2","tol_toboard","1065","","","","","","","","","tol_peg_2","1065","1065","0","[[0,0,0],[3,1],[2]]","2","[[2,1,3],[0,0],[0]]","1","0","","","","","","5","","","","",""
"","","","","","single-stim-button","162","988684","0.0-3.0-13.2-0.2","55eb4774748092000baa97ee","B2","batch2","tol_tohand","1156","","","","","","","","","tol_peg_3","1156","1156","0","[[0,0,0],[3,1],[0]]","3","[[2,1,3],[0,0],[0]]","1","0","","","","","","5","","","","",""
"","","","","","single-stim-button","163","990291","0.0-3.0-13.2-1.2","55eb4774748092000baa97ee","B2","batch2","tol_toboard","1606","","","","","","","","","tol_peg_1","1606","1606","0","[[2,0,0],[3,1],[0]]","3","[[2,1,3],[0,0],[0]]","1","0","","","","","","5","","","","",""
"","","","","","single-stim-button","164","991302","0.0-3.0-13.3-0.3","55eb4774748092000baa97ee","B2","batch2","tol_tohand","1010","","","","","","","","","tol_peg_2","1010","1010","0","[[2,0,0],[3,0],[0]]","4","[[2,1,3],[0,0],[0]]","1","0","","","","","","5","","","","",""
"","","","","","single-stim-button","165","992224","0.0-3.0-13.3-1.3","55eb4774748092000baa97ee","B2","batch2","tol_toboard","922","","","","","","","","","tol_peg_1","922","922","0","[[2,1,0],[3,0],[0]]","4","[[2,1,3],[0,0],[0]]","1","0","","","","","","5","","","","",""
"","","","","","single-stim-button","166","993327","0.0-3.0-13.4-0.4","55eb4774748092000baa97ee","B2","batch2","tol_tohand","1102","","","","","","","","","tol_peg_2","1102","1102","0","[[2,1,0],[0,0],[0]]","5","[[2,1,3],[0,0],[0]]","1","0","","","","","","5","","","","",""
"","","","","","single-stim-button","167","994523","0.0-3.0-13.4-1.4","55eb4774748092000baa97ee","B2","batch2","tol_toboard","1196","","","","","","","","","tol_peg_1","1196","1196","0","[[2,1,3],[0,0],[0]]","5","[[2,1,3],[0,0],[0]]","1","0","","","","","","5","","","","",""
"","","","","","poldrack-single-stim","168","995526","0.0-3.0-14.0","55eb4774748092000baa97ee","B2","batch2","tol_feedback","-1","","","","","true","","","","","1000","1000","500","","","","","","-1","none","true","5461","11876","","","","","",""
"","","","","","html-button-response","169","997701","0.0-3.0-15.0","55eb4774748092000baa97ee","B2","batch2","tol_trial_num","2173.7000000476837","<div class = centerbox><p class = center-block-text>problem <strong>3</strong> out of 25 problems</p></div>","0","","","","","","","","","","","","","","","","","","","","","","","","","",""
"","","","","","single-stim-button","170","1003695","0.0-3.0-16.0-0.0","55eb4774748092000baa97ee","B2","batch2","tol_tohand","5993","","","","","","","","","tol_peg_3","5993","5993","0","[[2,3,0],[0,0],[0]]","1","[[1,2,0],[3,0],[0]]","2","0","","","","","","4","","","","",""
"","","","","","single-stim-button","171","1011700","0.0-3.0-16.0-1.0","55eb4774748092000baa97ee","B2","batch2","tol_toboard","8003","","","","","","","","","tol_peg_2","8003","8003","0","[[2,3,0],[1,0],[0]]","1","[[1,2,0],[3,0],[0]]","2","0","","","","","","4","","","","",""
"","","","","","single-stim-button","172","1013007","0.0-3.0-16.1-0.1","55eb4774748092000baa97ee","B2","batch2","tol_tohand","1306","","","","","","","","","tol_peg_1","1306","1306","0","[[2,0,0],[1,0],[0]]","2","[[1,2,0],[3,0],[0]]","2","0","","","","","","4","","","","",""
"","","","","","single-stim-button","173","1014262","0.0-3.0-16.1-1.1","55eb4774748092000baa97ee","B2","batch2","tol_toboard","1253","","","","","","","","","tol_peg_3","1253","1253","0","[[2,0,0],[1,0],[3]]","2","[[1,2,0],[3,0],[0]]","2","0","","","","","","4","","","","",""
"","","","","","single-stim-button","174","1025469","0.0-3.0-16.2-0.2","55eb4774748092000baa97ee","B2","batch2","tol_tohand","11207","","","","","","","","","tol_peg_3","11207","11207","0","[[2,0,0],[1,0],[0]]","3","[[1,2,0],[3,0],[0]]","2","0","","","","","","4","","","","",""
"","","","","","single-stim-button","175","1031583","0.0-3.0-16.2-1.2","55eb4774748092000baa97ee","B2","batch2","tol_toboard","6112","","","","","","","","","tol_peg_3","6112","6112","0","[[2,0,0],[1,0],[3]]","3","[[1,2,0],[3,0],[0]]","2","0","","","","","","4","","","","",""
"","","","","","single-stim-button","176","1041939","0.0-3.0-16.3-0.3","55eb4774748092000baa97ee","B2","batch2","tol_tohand","10355","","","","","","","","","tol_peg_2","10355","10355","0","[[2,0,0],[0,0],[3]]","4","[[1,2,0],[3,0],[0]]","2","0","","","","","","4","","","","",""
"","","","","","single-stim-button","177","1043306","0.0-3.0-16.3-1.3","55eb4774748092000baa97ee","B2","batch2","tol_toboard","1366","","","","","","","","","tol_peg_1","1366","1366","0","[[2,1,0],[0,0],[3]]","4","[[1,2,0],[3,0],[0]]","2","0","","","","","","4","","","","",""
"","","","","","single-stim-button","178","1045916","0.0-3.0-16.4-0.4","55eb4774748092000baa97ee","B2","batch2","tol_tohand","2608","","","","","","","","","tol_peg_1","2608","2608","0","[[2,0,0],[0,0],[3]]","5","[[1,2,0],[3,0],[0]]","2","0","","","","","","4","","","","",""
"","","","","","single-stim-button","179","1047382","0.0-3.0-16.4-1.4","55eb4774748092000baa97ee","B2","batch2","tol_toboard","1466","","","","","","","","","tol_peg_1","1466","1466","0","[[2,1,0],[0,0],[3]]","5","[[1,2,0],[3,0],[0]]","2","0","","","","","","4","","","","",""
"","","","","","single-stim-button","180","1049136","0.0-3.0-16.5-0.5","55eb4774748092000baa97ee","B2","batch2","tol_tohand","1752","","","","","","","","","tol_peg_3","1752","1752","0","[[2,1,0],[0,0],[0]]","6","[[1,2,0],[3,0],[0]]","2","0","","","","","","4","","","","",""
"","","","","","single-stim-button","181","1050788","0.0-3.0-16.5-1.5","55eb4774748092000baa97ee","B2","batch2","tol_toboard","1652","","","","","","","","","tol_peg_1","1652","1652","0","[[2,1,3],[0,0],[0]]","6","[[1,2,0],[3,0],[0]]","2","0","","","","","","4","","","","",""
"","","","","","single-stim-button","182","1058195","0.0-3.0-16.6-0.6","55eb4774748092000baa97ee","B2","batch2","tol_tohand","7405","","","","","","","","","tol_peg_1","7405","7405","0","[[2,1,0],[0,0],[0]]","7","[[1,2,0],[3,0],[0]]","2","0","","","","","","4","","","","",""
"","","","","","single-stim-button","183","1059905","0.0-3.0-16.6-1.6","55eb4774748092000baa97ee","B2","batch2","tol_toboard","1708","","","","","","","","","tol_peg_2","1708","1708","0","[[2,1,0],[3,0],[0]]","7","[[1,2,0],[3,0],[0]]","2","0","","","","","","4","","","","",""
"","","","","","single-stim-button","184","1061399","0.0-3.0-16.7-0.7","55eb4774748092000baa97ee","B2","batch2","tol_tohand","1493","","","","","","","","","tol_peg_1","1493","1493","0","[[2,0,0],[3,0],[0]]","8","[[1,2,0],[3,0],[0]]","2","0","","","","","","4","","","","",""
"","","","","","single-stim-button","185","1064312","0.0-3.0-16.7-1.7","55eb4774748092000baa97ee","B2","batch2","tol_toboard","2911","","","","","","","","","tol_peg_3","2911","2911","0","[[2,0,0],[3,0],[1]]","8","[[1,2,0],[3,0],[0]]","2","0","","","","","","4","","","","",""
"","","","","","single-stim-button","186","1065393","0.0-3.0-16.8-0.8","55eb4774748092000baa97ee","B2","batch2","tol_tohand","1081","","","","","","","","","tol_peg_1","1081","1081","0","[[0,0,0],[3,0],[1]]","9","[[1,2,0],[3,0],[0]]","2","0","","","","","","4","","","","",""
"","","","","","single-stim-button","187","1066488","0.0-3.0-16.8-1.8","55eb4774748092000baa97ee","B2","batch2","tol_toboard","1093","","","","","","","","","tol_peg_2","1093","1093","0","[[0,0,0],[3,2],[1]]","9","[[1,2,0],[3,0],[0]]","2","0","","","","","","4","","","","",""
"","","","","","single-stim-button","188","1067459","0.0-3.0-16.9-0.9","55eb4774748092000baa97ee","B2","batch2","tol_tohand","970","","","","","","","","","tol_peg_3","970","970","0","[[0,0,0],[3,2],[0]]","10","[[1,2,0],[3,0],[0]]","2","0","","","","","","4","","","","",""
"","","","","","single-stim-button","189","1068582","0.0-3.0-16.9-1.9","55eb4774748092000baa97ee","B2","batch2","tol_toboard","1123","","","","","","","","","tol_peg_1","1123","1123","0","[[1,0,0],[3,2],[0]]","10","[[1,2,0],[3,0],[0]]","2","0","","","","","","4","","","","",""
"","","","","","single-stim-button","190","1069463","0.0-3.0-16.10-0.10","55eb4774748092000baa97ee","B2","batch2","tol_tohand","880","","","","","","","","","tol_peg_2","880","880","0","[[1,0,0],[3,0],[0]]","11","[[1,2,0],[3,0],[0]]","2","0","","","","","","4","","","","",""
"","","","","","single-stim-button","191","1070250","0.0-3.0-16.10-1.10","55eb4774748092000baa97ee","B2","batch2","tol_toboard","785","","","","","","","","","tol_peg_1","785","785","0","[[1,2,0],[3,0],[0]]","11","[[1,2,0],[3,0],[0]]","2","0","","","","","","4","","","","",""
"","","","","","poldrack-single-stim","192","1071255","0.0-3.0-17.0","55eb4774748092000baa97ee","B2","batch2","tol_feedback","-1","","","","","true","","","","","1000","1000","500","","","","","","-1","none","true","5993","45050","","","","","",""
"","","","","","html-button-response","193","1073322","0.0-3.0-18.0","55eb4774748092000baa97ee","B2","batch2","tol_trial_num","2066","<div class = centerbox><p class = center-block-text>problem <strong>4</strong> out of 25 problems</p></div>","0","","","","","","","","","","","","","","","","","","","","","","","","","",""
"","","","","","single-stim-button","194","1078702","0.0-3.0-19.0-0.0","55eb4774748092000baa97ee","B2","batch2","tol_tohand","5379","","","","","","","","","tol_peg_2","5379","5379","0","[[3,0,0],[2,0],[0]]","1","[[3,0,0],[1,0],[2]]","3","0","","","","","","3","","","","",""
"","","","","","single-stim-button","195","1079666","0.0-3.0-19.0-1.0","55eb4774748092000baa97ee","B2","batch2","tol_toboard","963","","","","","","","","","tol_peg_1","963","963","0","[[3,1,0],[2,0],[0]]","1","[[3,0,0],[1,0],[2]]","3","0","","","","","","3","","","","",""
"","","","","","single-stim-button","196","1080518","0.0-3.0-19.1-0.1","55eb4774748092000baa97ee","B2","batch2","tol_tohand","850","","","","","","","","","tol_peg_2","850","850","0","[[3,1,0],[0,0],[0]]","2","[[3,0,0],[1,0],[2]]","3","0","","","","","","3","","","","",""
"","","","","","single-stim-button","197","1082394","0.0-3.0-19.1-1.1","55eb4774748092000baa97ee","B2","batch2","tol_toboard","1876","","","","","","","","","tol_peg_3","1876","1876","0","[[3,1,0],[0,0],[2]]","2","[[3,0,0],[1,0],[2]]","3","0","","","","","","3","","","","",""
"","","","","","single-stim-button","198","1083753","0.0-3.0-19.2-0.2","55eb4774748092000baa97ee","B2","batch2","tol_tohand","1357","","","","","","","","","tol_peg_1","1357","1357","0","[[3,0,0],[0,0],[2]]","3","[[3,0,0],[1,0],[2]]","3","0","","","","","","3","","","","",""
"","","","","","single-stim-button","199","1085139","0.0-3.0-19.2-1.2","55eb4774748092000baa97ee","B2","batch2","tol_toboard","1386","","","","","","","","","tol_peg_2","1386","1386","0","[[3,0,0],[1,0],[2]]","3","[[3,0,0],[1,0],[2]]","3","0","","","","","","3","","","","",""
"","","","","","poldrack-single-stim","200","1086152","0.0-3.0-20.0","55eb4774748092000baa97ee","B2","batch2","tol_feedback","-1","","","","","true","","","","","1000","1000","500","","","","","","-1","none","true","5379","7586","","","","","",""
"","","","","","html-button-response","201","1087462","0.0-3.0-21.0","55eb4774748092000baa97ee","B2","batch2","tol_trial_num","1309.1000000238419","<div class = centerbox><p class = center-block-text>problem <strong>5</strong> out of 25 problems</p></div>","0","","","","","","","","","","","","","","","","","","","","","","","","","",""
"","","","","","single-stim-button","202","1125389","0.0-3.0-22.0-0.0","55eb4774748092000baa97ee","B2","batch2","tol_tohand","37927","","","","","","","","","tol_peg_3","37927","37927","0","[[1,0,0],[2,0],[0]]","1","[[0,0,0],[1,2],[3]]","4","0","","","","","","7","","","","",""
"","","","","","single-stim-button","203","1126882","0.0-3.0-22.0-1.0","55eb4774748092000baa97ee","B2","batch2","tol_toboard","1491","","","","","","","","","tol_peg_1","1491","1491","0","[[1,3,0],[2,0],[0]]","1","[[0,0,0],[1,2],[3]]","4","0","","","","","","7","","","","",""
"","","","","","single-stim-button","204","1128561","0.0-3.0-22.1-0.1","55eb4774748092000baa97ee","B2","batch2","tol_tohand","1679","","","","","","","","","tol_peg_2","1679","1679","0","[[1,3,0],[0,0],[0]]","2","[[0,0,0],[1,2],[3]]","4","0","","","","","","7","","","","",""
"","","","","","single-stim-button","205","1129614","0.0-3.0-22.1-1.1","55eb4774748092000baa97ee","B2","batch2","tol_toboard","1052","","","","","","","","","tol_peg_3","1052","1052","0","[[1,3,0],[0,0],[2]]","2","[[0,0,0],[1,2],[3]]","4","0","","","","","","7","","","","",""
"","","","","","single-stim-button","206","1131419","0.0-3.0-22.2-0.2","55eb4774748092000baa97ee","B2","batch2","tol_tohand","1804","","","","","","","","","tol_peg_1","1804","1804","0","[[1,0,0],[0,0],[2]]","3","[[0,0,0],[1,2],[3]]","4","0","","","","","","7","","","","",""
"","","","","","single-stim-button","207","1137074","0.0-3.0-22.2-1.2","55eb4774748092000baa97ee","B2","batch2","tol_toboard","5654","","","","","","","","","tol_peg_2","5654","5654","0","[[1,0,0],[3,0],[2]]","3","[[0,0,0],[1,2],[3]]","4","0","","","","","","7","","","","",""
"","","","","","single-stim-button","208","1142787","0.0-3.0-22.3-0.3","55eb4774748092000baa97ee","B2","batch2","tol_tohand","5712","","","","","","","","","tol_peg_3","5712","5712","0","[[1,0,0],[3,0],[0]]","4","[[0,0,0],[1,2],[3]]","4","0","","","","","","7","","","","",""
"","","","","","single-stim-button","209","1144090","0.0-3.0-22.3-1.3","55eb4774748092000baa97ee","B2","batch2","tol_toboard","1302","","","","","","","","","tol_peg_1","1302","1302","0","[[1,2,0],[3,0],[0]]","4","[[0,0,0],[1,2],[3]]","4","0","","","","","","7","","","","",""
"","","","","","single-stim-button","210","1144931","0.0-3.0-22.4-0.4","55eb4774748092000baa97ee","B2","batch2","tol_tohand","840","","","","","","","","","tol_peg_2","840","840","0","[[1,2,0],[0,0],[0]]","5","[[0,0,0],[1,2],[3]]","4","0","","","","","","7","","","","",""
"","","","","","single-stim-button","211","1145891","0.0-3.0-22.4-1.4","55eb4774748092000baa97ee","B2","batch2","tol_toboard","958","","","","","","","","","tol_peg_3","958","958","0","[[1,2,0],[0,0],[3]]","5","[[0,0,0],[1,2],[3]]","4","0","","","","","","7","","","","",""
"","","","","","single-stim-button","212","1149008","0.0-3.0-22.5-0.5","55eb4774748092000baa97ee","B2","batch2","tol_tohand","3116","","","","","","","","","tol_peg_1","3116","3116","0","[[1,0,0],[0,0],[3]]","6","[[0,0,0],[1,2],[3]]","4","0","","","","","","7","","","","",""
"","","","","","single-stim-button","213","1152401","0.0-3.0-22.5-1.5","55eb4774748092000baa97ee","B2","batch2","tol_toboard","3392","","","","","","","","","tol_peg_2","3392","3392","0","[[1,0,0],[2,0],[3]]","6","[[0,0,0],[1,2],[3]]","4","0","","","","","","7","","","","",""
"","","","","","single-stim-button","214","1153586","0.0-3.0-22.6-0.6","55eb4774748092000baa97ee","B2","batch2","tol_tohand","1184","","","","","","","","","tol_peg_1","1184","1184","0","[[0,0,0],[2,0],[3]]","7","[[0,0,0],[1,2],[3]]","4","0","","","","","","7","","","","",""
"","","","","","single-stim-button","215","1158436","0.0-3.0-22.6-1.6","55eb4774748092000baa97ee","B2","batch2","tol_toboard","4850","","","","","","","","","tol_peg_1","4850","4850","0","[[1,0,0],[2,0],[3]]","7","[[0,0,0],[1,2],[3]]","4","0","","","","","","7","","","","",""
"","","","","","single-stim-button","216","1160241","0.0-3.0-22.7-0.7","55eb4774748092000baa97ee","B2","batch2","tol_tohand","1804","","","","","","","","","tol_peg_3","1804","1804","0","[[1,0,0],[2,0],[0]]","8","[[0,0,0],[1,2],[3]]","4","0","","","","","","7","","","","",""
"","","","","","single-stim-button","217","1161697","0.0-3.0-22.7-1.7","55eb4774748092000baa97ee","B2","batch2","tol_toboard","1454","","","","","","","","","tol_peg_1","1454","1454","0","[[1,3,0],[2,0],[0]]","8","[[0,0,0],[1,2],[3]]","4","0","","","","","","7","","","","",""
"","","","","","single-stim-button","218","1162896","0.0-3.0-22.8-0.8","55eb4774748092000baa97ee","B2","batch2","tol_tohand","1198","","","","","","","","","tol_peg_2","1198","1198","0","[[1,3,0],[0,0],[0]]","9","[[0,0,0],[1,2],[3]]","4","0","","","","","","7","","","","",""
"","","","","","single-stim-button","219","1163797","0.0-3.0-22.8-1.8","55eb4774748092000baa97ee","B2","batch2","tol_toboard","901","","","","","","","","","tol_peg_3","901","901","0","[[1,3,0],[0,0],[2]]","9","[[0,0,0],[1,2],[3]]","4","0","","","","","","7","","","","",""
"","","","","","single-stim-button","220","1165714","0.0-3.0-22.9-0.9","55eb4774748092000baa97ee","B2","batch2","tol_tohand","1915","","","","","","","","","tol_peg_1","1915","1915","0","[[1,0,0],[0,0],[2]]","10","[[0,0,0],[1,2],[3]]","4","0","","","","","","7","","","","",""
"","","","","","single-stim-button","221","1169564","0.0-3.0-22.9-1.9","55eb4774748092000baa97ee","B2","batch2","tol_toboard","3849","","","","","","","","","tol_peg_2","3849","3849","0","[[1,0,0],[3,0],[2]]","10","[[0,0,0],[1,2],[3]]","4","0","","","","","","7","","","","",""
"","","","","","single-stim-button","222","1173947","0.0-3.0-22.10-0.10","55eb4774748092000baa97ee","B2","batch2","tol_tohand","4382","","","","","","","","","tol_peg_3","4382","4382","0","[[1,0,0],[3,0],[0]]","11","[[0,0,0],[1,2],[3]]","4","0","","","","","","7","","","","",""
"","","","","","single-stim-button","223","1175365","0.0-3.0-22.10-1.10","55eb4774748092000baa97ee","B2","batch2","tol_toboard","1417","","","","","","","","","tol_peg_1","1417","1417","0","[[1,2,0],[3,0],[0]]","11","[[0,0,0],[1,2],[3]]","4","0","","","","","","7","","","","",""
"","","","","","single-stim-button","224","1176269","0.0-3.0-22.11-0.11","55eb4774748092000baa97ee","B2","batch2","tol_tohand","902","","","","","","","","","tol_peg_2","902","902","0","[[1,2,0],[0,0],[0]]","12","[[0,0,0],[1,2],[3]]","4","0","","","","","","7","","","","",""
"","","","","","single-stim-button","225","1177168","0.0-3.0-22.11-1.11","55eb4774748092000baa97ee","B2","batch2","tol_toboard","898","","","","","","","","","tol_peg_3","898","898","0","[[1,2,0],[0,0],[3]]","12","[[0,0,0],[1,2],[3]]","4","0","","","","","","7","","","","",""
"","","","","","single-stim-button","226","1182406","0.0-3.0-22.12-0.12","55eb4774748092000baa97ee","B2","batch2","tol_tohand","5237","","","","","","","","","tol_peg_1","5237","5237","0","[[1,0,0],[0,0],[3]]","13","[[0,0,0],[1,2],[3]]","4","0","","","","","","7","","","","",""
"","","","","","single-stim-button","227","1184215","0.0-3.0-22.12-1.12","55eb4774748092000baa97ee","B2","batch2","tol_toboard","1807","","","","","","","","","tol_peg_2","1807","1807","0","[[1,0,0],[2,0],[3]]","13","[[0,0,0],[1,2],[3]]","4","0","","","","","","7","","","","",""
"","","","","","single-stim-button","228","1185229","0.0-3.0-22.13-0.13","55eb4774748092000baa97ee","B2","batch2","tol_tohand","1013","","","","","","","","","tol_peg_1","1013","1013","0","[[0,0,0],[2,0],[3]]","14","[[0,0,0],[1,2],[3]]","4","0","","","","","","7","","","","",""
"","","","","","single-stim-button","229","1191386","0.0-3.0-22.13-1.13","55eb4774748092000baa97ee","B2","batch2","tol_toboard","6156","","","","","","","","","tol_peg_2","6156","6156","0","[[0,0,0],[2,1],[3]]","14","[[0,0,0],[1,2],[3]]","4","0","","","","","","7","","","","",""
"","","","","","single-stim-button","230","1192442","0.0-3.0-22.14-0.14","55eb4774748092000baa97ee","B2","batch2","tol_tohand","1054","","","","","","","","","tol_peg_3","1054","1054","0","[[0,0,0],[2,1],[0]]","15","[[0,0,0],[1,2],[3]]","4","0","","","","","","7","","","","",""
"","","","","","single-stim-button","231","1193351","0.0-3.0-22.14-1.14","55eb4774748092000baa97ee","B2","batch2","tol_toboard","909","","","","","","","","","tol_peg_1","909","909","0","[[3,0,0],[2,1],[0]]","15","[[0,0,0],[1,2],[3]]","4","0","","","","","","7","","","","",""
"","","","","","single-stim-button","232","1196463","0.0-3.0-22.15-0.15","55eb4774748092000baa97ee","B2","batch2","tol_tohand","3111","","","","","","","","","tol_peg_2","3111","3111","0","[[3,0,0],[2,0],[0]]","16","[[0,0,0],[1,2],[3]]","4","0","","","","","","7","","","","",""
"","","","","","single-stim-button","233","1198184","0.0-3.0-22.15-1.15","55eb4774748092000baa97ee","B2","batch2","tol_toboard","1719","","","","","","","","","tol_peg_3","1719","1719","0","[[3,0,0],[2,0],[1]]","16","[[0,0,0],[1,2],[3]]","4","0","","","","","","7","","","","",""
"","","","","","single-stim-button","234","1199546","0.0-3.0-22.16-0.16","55eb4774748092000baa97ee","B2","batch2","tol_tohand","1362","","","","","","","","","tol_peg_2","1362","1362","0","[[3,0,0],[0,0],[1]]","17","[[0,0,0],[1,2],[3]]","4","0","","","","","","7","","","","",""
"","","","","","single-stim-button","235","1200660","0.0-3.0-22.16-1.16","55eb4774748092000baa97ee","B2","batch2","tol_toboard","1112","","","","","","","","","tol_peg_1","1112","1112","0","[[3,2,0],[0,0],[1]]","17","[[0,0,0],[1,2],[3]]","4","0","","","","","","7","","","","",""
"","","","","","single-stim-button","236","1201837","0.0-3.0-22.17-0.17","55eb4774748092000baa97ee","B2","batch2","tol_tohand","1176","","","","","","","","","tol_peg_3","1176","1176","0","[[3,2,0],[0,0],[0]]","18","[[0,0,0],[1,2],[3]]","4","0","","","","","","7","","","","",""
"","","","","","single-stim-button","237","1202671","0.0-3.0-22.17-1.17","55eb4774748092000baa97ee","B2","batch2","tol_toboard","834","","","","","","","","","tol_peg_2","834","834","0","[[3,2,0],[1,0],[0]]","18","[[0,0,0],[1,2],[3]]","4","0","","","","","","7","","","","",""
"","","","","","single-stim-button","238","1203653","0.0-3.0-22.18-0.18","55eb4774748092000baa97ee","B2","batch2","tol_tohand","980","","","","","","","","","tol_peg_1","980","980","0","[[3,0,0],[1,0],[0]]","19","[[0,0,0],[1,2],[3]]","4","0","","","","","","7","","","","",""
"","","","","","single-stim-button","239","1204885","0.0-3.0-22.18-1.18","55eb4774748092000baa97ee","B2","batch2","tol_toboard","1232","","","","","","","","","tol_peg_2","1232","1232","0","[[3,0,0],[1,2],[0]]","19","[[0,0,0],[1,2],[3]]","4","0","","","","","","7","","","","",""
"","","","","","single-stim-button","240","1205603","0.0-3.0-22.19-0.19","55eb4774748092000baa97ee","B2","batch2","tol_tohand","717","","","","","","","","","tol_peg_1","717","717","0","[[0,0,0],[1,2],[0]]","20","[[0,0,0],[1,2],[3]]","4","0","","","","","","7","","","","",""
"","","","","","single-stim-button","241","1206463","0.0-3.0-22.19-1.19","55eb4774748092000baa97ee","B2","batch2","tol_toboard","859","","","","","","","","","tol_peg_3","859","859","0","[[0,0,0],[1,2],[3]]","20","[[0,0,0],[1,2],[3]]","4","0","","","","","","7","","","","",""
"","","","","","poldrack-single-stim","242","1207466","0.0-3.0-23.0","55eb4774748092000baa97ee","B2","batch2","tol_feedback","-1","","","","","true","","","","","1000","1000","500","","","","","","-1","none","true","37927","77113","","","","","",""
"","","","","","html-button-response","243","1208658","0.0-3.0-24.0","55eb4774748092000baa97ee","B2","batch2","tol_trial_num","1191.199999988079","<div class = centerbox><p class = center-block-text>problem <strong>6</strong> out of 25 problems</p></div>","0","","","","","","","","","","","","","","","","","","","","","","","","","",""
"","","","","","single-stim-button","244","1233162","0.0-3.0-25.0-0.0","55eb4774748092000baa97ee","B2","batch2","tol_tohand","24503","","","","","","","","","tol_peg_2","24503","24503","0","[[0,0,0],[1,0],[3]]","1","[[1,0,0],[2,3],[0]]","5","0","","","","","","6","","","","",""
"","","","","","single-stim-button","245","1238311","0.0-3.0-25.0-1.0","55eb4774748092000baa97ee","B2","batch2","tol_toboard","5148","","","","","","","","","tol_peg_1","5148","5148","0","[[2,0,0],[1,0],[3]]","1","[[1,0,0],[2,3],[0]]","5","0","","","","","","6","","","","",""
"","","","","","single-stim-button","246","1239287","0.0-3.0-25.1-0.1","55eb4774748092000baa97ee","B2","batch2","tol_tohand","974","","","","","","","","","tol_peg_3","974","974","0","[[2,0,0],[1,0],[0]]","2","[[1,0,0],[2,3],[0]]","5","0","","","","","","6","","","","",""
"","","","","","single-stim-button","247","1243196","0.0-3.0-25.1-1.1","55eb4774748092000baa97ee","B2","batch2","tol_toboard","3909","","","","","","","","","tol_peg_1","3909","3909","0","[[2,3,0],[1,0],[0]]","2","[[1,0,0],[2,3],[0]]","5","0","","","","","","6","","","","",""
"","","","","","single-stim-button","248","1244563","0.0-3.0-25.2-0.2","55eb4774748092000baa97ee","B2","batch2","tol_tohand","1365","","","","","","","","","tol_peg_2","1365","1365","0","[[2,3,0],[0,0],[0]]","3","[[1,0,0],[2,3],[0]]","5","0","","","","","","6","","","","",""
"","","","","","single-stim-button","249","1249335","0.0-3.0-25.2-1.2","55eb4774748092000baa97ee","B2","batch2","tol_toboard","4771","","","","","","","","","tol_peg_3","4771","4771","0","[[2,3,0],[0,0],[1]]","3","[[1,0,0],[2,3],[0]]","5","0","","","","","","6","","","","",""
"","","","","","single-stim-button","250","1251536","0.0-3.0-25.3-0.3","55eb4774748092000baa97ee","B2","batch2","tol_tohand","2199","","","","","","","","","tol_peg_1","2199","2199","0","[[2,0,0],[0,0],[1]]","4","[[1,0,0],[2,3],[0]]","5","0","","","","","","6","","","","",""
"","","","","","single-stim-button","251","1254042","0.0-3.0-25.3-1.3","55eb4774748092000baa97ee","B2","batch2","tol_toboard","2506","","","","","","","","","tol_peg_2","2506","2506","0","[[2,0,0],[3,0],[1]]","4","[[1,0,0],[2,3],[0]]","5","0","","","","","","6","","","","",""
"","","","","","single-stim-button","252","1254952","0.0-3.0-25.4-0.4","55eb4774748092000baa97ee","B2","batch2","tol_tohand","908","","","","","","","","","tol_peg_1","908","908","0","[[0,0,0],[3,0],[1]]","5","[[1,0,0],[2,3],[0]]","5","0","","","","","","6","","","","",""
"","","","","","single-stim-button","253","1256154","0.0-3.0-25.4-1.4","55eb4774748092000baa97ee","B2","batch2","tol_toboard","1202","","","","","","","","","tol_peg_2","1202","1202","0","[[0,0,0],[3,2],[1]]","5","[[1,0,0],[2,3],[0]]","5","0","","","","","","6","","","","",""
"","","","","","single-stim-button","254","1257118","0.0-3.0-25.5-0.5","55eb4774748092000baa97ee","B2","batch2","tol_tohand","962","","","","","","","","","tol_peg_3","962","962","0","[[0,0,0],[3,2],[0]]","6","[[1,0,0],[2,3],[0]]","5","0","","","","","","6","","","","",""
"","","","","","single-stim-button","255","1258444","0.0-3.0-25.5-1.5","55eb4774748092000baa97ee","B2","batch2","tol_toboard","1326","","","","","","","","","tol_peg_1","1326","1326","0","[[1,0,0],[3,2],[0]]","6","[[1,0,0],[2,3],[0]]","5","0","","","","","","6","","","","",""
"","","","","","single-stim-button","256","1261178","0.0-3.0-25.6-0.6","55eb4774748092000baa97ee","B2","batch2","tol_tohand","2732","","","","","","","","","tol_peg_2","2732","2732","0","[[1,0,0],[3,0],[0]]","7","[[1,0,0],[2,3],[0]]","5","0","","","","","","6","","","","",""
"","","","","","single-stim-button","257","1262073","0.0-3.0-25.6-1.6","55eb4774748092000baa97ee","B2","batch2","tol_toboard","895","","","","","","","","","tol_peg_1","895","895","0","[[1,2,0],[3,0],[0]]","7","[[1,0,0],[2,3],[0]]","5","0","","","","","","6","","","","",""
"","","","","","single-stim-button","258","1263795","0.0-3.0-25.7-0.7","55eb4774748092000baa97ee","B2","batch2","tol_tohand","1721","","","","","","","","","tol_peg_2","1721","1721","0","[[1,2,0],[0,0],[0]]","8","[[1,0,0],[2,3],[0]]","5","0","","","","","","6","","","","",""
"","","","","","single-stim-button","259","1264617","0.0-3.0-25.7-1.7","55eb4774748092000baa97ee","B2","batch2","tol_toboard","821","","","","","","","","","tol_peg_3","821","821","0","[[1,2,0],[0,0],[3]]","8","[[1,0,0],[2,3],[0]]","5","0","","","","","","6","","","","",""
"","","","","","single-stim-button","260","1265745","0.0-3.0-25.8-0.8","55eb4774748092000baa97ee","B2","batch2","tol_tohand","1126","","","","","","","","","tol_peg_1","1126","1126","0","[[1,0,0],[0,0],[3]]","9","[[1,0,0],[2,3],[0]]","5","0","","","","","","6","","","","",""
"","","","","","single-stim-button","261","1266606","0.0-3.0-25.8-1.8","55eb4774748092000baa97ee","B2","batch2","tol_toboard","860","","","","","","","","","tol_peg_2","860","860","0","[[1,0,0],[2,0],[3]]","9","[[1,0,0],[2,3],[0]]","5","0","","","","","","6","","","","",""
"","","","","","single-stim-button","262","1267575","0.0-3.0-25.9-0.9","55eb4774748092000baa97ee","B2","batch2","tol_tohand","967","","","","","","","","","tol_peg_3","967","967","0","[[1,0,0],[2,0],[0]]","10","[[1,0,0],[2,3],[0]]","5","0","","","","","","6","","","","",""
"","","","","","single-stim-button","263","1268574","0.0-3.0-25.9-1.9","55eb4774748092000baa97ee","B2","batch2","tol_toboard","999","","","","","","","","","tol_peg_2","999","999","0","[[1,0,0],[2,3],[0]]","10","[[1,0,0],[2,3],[0]]","5","0","","","","","","6","","","","",""
"","","","","","poldrack-single-stim","264","1269580","0.0-3.0-26.0","55eb4774748092000baa97ee","B2","batch2","tol_feedback","-1","","","","","true","","","","","1000","1000","500","","","","","","-1","none","true","24503","37457","","","","","",""
"","","","","","html-button-response","265","1271272","0.0-3.0-27.0","55eb4774748092000baa97ee","B2","batch2","tol_trial_num","1691.3999999761581","<div class = centerbox><p class = center-block-text>problem <strong>7</strong> out of 25 problems</p></div>","0","","","","","","","","","","","","","","","","","","","","","","","","","",""
"","","","","","single-stim-button","266","1275146","0.0-3.0-28.0-0.0","55eb4774748092000baa97ee","B2","batch2","tol_tohand","3872","","","","","","","","","tol_peg_3","3872","3872","0","[[2,1,0],[0,0],[0]]","1","[[1,2,0],[3,0],[0]]","6","0","","","","","","5","","","","",""
"","","","","","single-stim-button","267","1276164","0.0-3.0-28.0-1.0","55eb4774748092000baa97ee","B2","batch2","tol_toboard","1018","","","","","","","","","tol_peg_2","1018","1018","0","[[2,1,0],[3,0],[0]]","1","[[1,2,0],[3,0],[0]]","6","0","","","","","","5","","","","",""
"","","","","","single-stim-button","268","1277426","0.0-3.0-28.1-0.1","55eb4774748092000baa97ee","B2","batch2","tol_tohand","1261","","","","","","","","","tol_peg_1","1261","1261","0","[[2,0,0],[3,0],[0]]","2","[[1,2,0],[3,0],[0]]","6","0","","","","","","5","","","","",""
"","","","","","single-stim-button","269","1279176","0.0-3.0-28.1-1.1","55eb4774748092000baa97ee","B2","batch2","tol_toboard","1748","","","","","","","","","tol_peg_2","1748","1748","0","[[2,0,0],[3,1],[0]]","2","[[1,2,0],[3,0],[0]]","6","0","","","","","","5","","","","",""
"","","","","","single-stim-button","270","1280505","0.0-3.0-28.2-0.2","55eb4774748092000baa97ee","B2","batch2","tol_tohand","1328","","","","","","","","","tol_peg_1","1328","1328","0","[[0,0,0],[3,1],[0]]","3","[[1,2,0],[3,0],[0]]","6","0","","","","","","5","","","","",""
"","","","","","single-stim-button","271","1281756","0.0-3.0-28.2-1.2","55eb4774748092000baa97ee","B2","batch2","tol_toboard","1251","","","","","","","","","tol_peg_3","1251","1251","0","[[0,0,0],[3,1],[2]]","3","[[1,2,0],[3,0],[0]]","6","0","","","","","","5","","","","",""
"","","","","","single-stim-button","272","1282625","0.0-3.0-28.3-0.3","55eb4774748092000baa97ee","B2","batch2","tol_tohand","867","","","","","","","","","tol_peg_2","867","867","0","[[0,0,0],[3,0],[2]]","4","[[1,2,0],[3,0],[0]]","6","0","","","","","","5","","","","",""
"","","","","","single-stim-button","273","1283752","0.0-3.0-28.3-1.3","55eb4774748092000baa97ee","B2","batch2","tol_toboard","1127","","","","","","","","","tol_peg_1","1127","1127","0","[[1,0,0],[3,0],[2]]","4","[[1,2,0],[3,0],[0]]","6","0","","","","","","5","","","","",""
"","","","","","single-stim-button","274","1285001","0.0-3.0-28.4-0.4","55eb4774748092000baa97ee","B2","batch2","tol_tohand","1247","","","","","","","","","tol_peg_3","1247","1247","0","[[1,0,0],[3,0],[0]]","5","[[1,2,0],[3,0],[0]]","6","0","","","","","","5","","","","",""
"","","","","","single-stim-button","275","1286215","0.0-3.0-28.4-1.4","55eb4774748092000baa97ee","B2","batch2","tol_toboard","1213","","","","","","","","","tol_peg_1","1213","1213","0","[[1,2,0],[3,0],[0]]","5","[[1,2,0],[3,0],[0]]","6","0","","","","","","5","","","","",""
"","","","","","poldrack-single-stim","276","1287227","0.0-3.0-29.0","55eb4774748092000baa97ee","B2","batch2","tol_feedback","-1","","","","","true","","","","","1000","1000","500","","","","","","-1","none","true","3872","8575","","","","","",""
"","","","","","html-button-response","277","1288502","0.0-3.0-30.0","55eb4774748092000baa97ee","B2","batch2","tol_trial_num","1274.699999988079","<div class = centerbox><p class = center-block-text>problem <strong>8</strong> out of 25 problems</p></div>","0","","","","","","","","","","","","","","","","","","","","","","","","","",""
"","","","","","single-stim-button","278","1292537","0.0-3.0-31.0-0.0","55eb4774748092000baa97ee","B2","batch2","tol_tohand","4034","","","","","","","","","tol_peg_3","4034","4034","0","[[0,0,0],[2,3],[0]]","1","[[1,2,0],[3,0],[0]]","7","0","","","","","","4","","","","",""
"","","","","","single-stim-button","279","1296387","0.0-3.0-31.0-1.0","55eb4774748092000baa97ee","B2","batch2","tol_toboard","3849","","","","","","","","","tol_peg_1","3849","3849","0","[[1,0,0],[2,3],[0]]","1","[[1,2,0],[3,0],[0]]","7","0","","","","","","4","","","","",""
"","","","","","single-stim-button","280","1297883","0.0-3.0-31.1-0.1","55eb4774748092000baa97ee","B2","batch2","tol_tohand","1495","","","","","","","","","tol_peg_2","1495","1495","0","[[1,0,0],[2,0],[0]]","2","[[1,2,0],[3,0],[0]]","7","0","","","","","","4","","","","",""
"","","","","","single-stim-button","281","1298767","0.0-3.0-31.1-1.1","55eb4774748092000baa97ee","B2","batch2","tol_toboard","883","","","","","","","","","tol_peg_3","883","883","0","[[1,0,0],[2,0],[3]]","2","[[1,2,0],[3,0],[0]]","7","0","","","","","","4","","","","",""
"","","","","","single-stim-button","282","1299527","0.0-3.0-31.2-0.2","55eb4774748092000baa97ee","B2","batch2","tol_tohand","759","","","","","","","","","tol_peg_2","759","759","0","[[1,0,0],[0,0],[3]]","3","[[1,2,0],[3,0],[0]]","7","0","","","","","","4","","","","",""
"","","","","","single-stim-button","283","1300463","0.0-3.0-31.2-1.2","55eb4774748092000baa97ee","B2","batch2","tol_toboard","935","","","","","","","","","tol_peg_1","935","935","0","[[1,2,0],[0,0],[3]]","3","[[1,2,0],[3,0],[0]]","7","0","","","","","","4","","","","",""
"","","","","","single-stim-button","284","1301900","0.0-3.0-31.3-0.3","55eb4774748092000baa97ee","B2","batch2","tol_tohand","1435","","","","","","","","","tol_peg_3","1435","1435","0","[[1,2,0],[0,0],[0]]","4","[[1,2,0],[3,0],[0]]","7","0","","","","","","4","","","","",""
"","","","","","single-stim-button","285","1303242","0.0-3.0-31.3-1.3","55eb4774748092000baa97ee","B2","batch2","tol_toboard","1342","","","","","","","","","tol_peg_2","1342","1342","0","[[1,2,0],[3,0],[0]]","4","[[1,2,0],[3,0],[0]]","7","0","","","","","","4","","","","",""
"","","","","","poldrack-single-stim","286","1304255","0.0-3.0-32.0","55eb4774748092000baa97ee","B2","batch2","tol_feedback","-1","","","","","true","","","","","1000","1000","500","","","","","","-1","none","true","4034","7723","","","","","",""
"","","","","","html-button-response","287","1305483","0.0-3.0-33.0","55eb4774748092000baa97ee","B2","batch2","tol_trial_num","1226.800000011921","<div class = centerbox><p class = center-block-text>problem <strong>9</strong> out of 25 problems</p></div>","0","","","","","","","","","","","","","","","","","","","","","","","","","",""
"","","","","","single-stim-button","288","1313417","0.0-3.0-34.0-0.0","55eb4774748092000baa97ee","B2","batch2","tol_tohand","7933","","","","","","","","","tol_peg_3","7933","7933","0","[[3,2,0],[0,0],[0]]","1","[[2,1,0],[3,0],[0]]","8","0","","","","","","6","","","","",""
"","","","","","single-stim-button","289","1314438","0.0-3.0-34.0-1.0","55eb4774748092000baa97ee","B2","batch2","tol_toboard","1019","","","","","","","","","tol_peg_2","1019","1019","0","[[3,2,0],[1,0],[0]]","1","[[2,1,0],[3,0],[0]]","8","0","","","","","","6","","","","",""
"","","","","","single-stim-button","290","1315770","0.0-3.0-34.1-0.1","55eb4774748092000baa97ee","B2","batch2","tol_tohand","1330","","","","","","","","","tol_peg_1","1330","1330","0","[[3,0,0],[1,0],[0]]","2","[[2,1,0],[3,0],[0]]","8","0","","","","","","6","","","","",""
"","","","","","single-stim-button","291","1316914","0.0-3.0-34.1-1.1","55eb4774748092000baa97ee","B2","batch2","tol_toboard","1144","","","","","","","","","tol_peg_3","1144","1144","0","[[3,0,0],[1,0],[2]]","2","[[2,1,0],[3,0],[0]]","8","0","","","","","","6","","","","",""
"","","","","","single-stim-button","292","1323301","0.0-3.0-34.2-0.2","55eb4774748092000baa97ee","B2","batch2","tol_tohand","6385","","","","","","","","","tol_peg_3","6385","6385","0","[[3,0,0],[1,0],[0]]","3","[[2,1,0],[3,0],[0]]","8","0","","","","","","6","","","","",""
"","","","","","single-stim-button","293","1324429","0.0-3.0-34.2-1.2","55eb4774748092000baa97ee","B2","batch2","tol_toboard","1127","","","","","","","","","tol_peg_2","1127","1127","0","[[3,0,0],[1,2],[0]]","3","[[2,1,0],[3,0],[0]]","8","0","","","","","","6","","","","",""
"","","","","","single-stim-button","294","1325874","0.0-3.0-34.3-0.3","55eb4774748092000baa97ee","B2","batch2","tol_tohand","1444","","","","","","","","","tol_peg_1","1444","1444","0","[[0,0,0],[1,2],[0]]","4","[[2,1,0],[3,0],[0]]","8","0","","","","","","6","","","","",""
"","","","","","single-stim-button","295","1327465","0.0-3.0-34.3-1.3","55eb4774748092000baa97ee","B2","batch2","tol_toboard","1589","","","","","","","","","tol_peg_3","1589","1589","0","[[0,0,0],[1,2],[3]]","4","[[2,1,0],[3,0],[0]]","8","0","","","","","","6","","","","",""
"","","","","","single-stim-button","296","1329332","0.0-3.0-34.4-0.4","55eb4774748092000baa97ee","B2","batch2","tol_tohand","1866","","","","","","","","","tol_peg_2","1866","1866","0","[[0,0,0],[1,0],[3]]","5","[[2,1,0],[3,0],[0]]","8","0","","","","","","6","","","","",""
"","","","","","single-stim-button","297","1330180","0.0-3.0-34.4-1.4","55eb4774748092000baa97ee","B2","batch2","tol_toboard","847","","","","","","","","","tol_peg_1","847","847","0","[[2,0,0],[1,0],[3]]","5","[[2,1,0],[3,0],[0]]","8","0","","","","","","6","","","","",""
"","","","","","single-stim-button","298","1330978","0.0-3.0-34.5-0.5","55eb4774748092000baa97ee","B2","batch2","tol_tohand","798","","","","","","","","","tol_peg_2","798","798","0","[[2,0,0],[0,0],[3]]","6","[[2,1,0],[3,0],[0]]","8","0","","","","","","6","","","","",""
"","","","","","single-stim-button","299","1332016","0.0-3.0-34.5-1.5","55eb4774748092000baa97ee","B2","batch2","tol_toboard","1036","","","","","","","","","tol_peg_1","1036","1036","0","[[2,1,0],[0,0],[3]]","6","[[2,1,0],[3,0],[0]]","8","0","","","","","","6","","","","",""
"","","","","","single-stim-button","300","1332950","0.0-3.0-34.6-0.6","55eb4774748092000baa97ee","B2","batch2","tol_tohand","933","","","","","","","","","tol_peg_3","933","933","0","[[2,1,0],[0,0],[0]]","7","[[2,1,0],[3,0],[0]]","8","0","","","","","","6","","","","",""
"","","","","","single-stim-button","301","1333783","0.0-3.0-34.6-1.6","55eb4774748092000baa97ee","B2","batch2","tol_toboard","832","","","","","","","","","tol_peg_2","832","832","0","[[2,1,0],[3,0],[0]]","7","[[2,1,0],[3,0],[0]]","8","0","","","","","","6","","","","",""
"","","","","","poldrack-single-stim","302","1334792","0.0-3.0-35.0","55eb4774748092000baa97ee","B2","batch2","tol_feedback","-1","","","","","true","","","","","1000","1000","500","","","","","","-1","none","true","7933","20689","","","","","",""
"","","","","","html-button-response","303","1335947","0.0-3.0-36.0","55eb4774748092000baa97ee","B2","batch2","tol_trial_num","1153.5","<div class = centerbox><p class = center-block-text>problem <strong>10</strong> out of 25 problems</p></div>","0","","","","","","","","","","","","","","","","","","","","","","","","","",""
"","","","","","single-stim-button","304","1340078","0.0-3.0-37.0-0.0","55eb4774748092000baa97ee","B2","batch2","tol_tohand","4131","","","","","","","","","tol_peg_2","4131","4131","0","[[3,0,0],[0,0],[2]]","1","[[3,0,0],[2,1],[0]]","9","0","","","","","","3","","","","",""
"","","","","","single-stim-button","305","1341889","0.0-3.0-37.0-1.0","55eb4774748092000baa97ee","B2","batch2","tol_toboard","1810","","","","","","","","","tol_peg_1","1810","1810","0","[[3,1,0],[0,0],[2]]","1","[[3,0,0],[2,1],[0]]","9","0","","","","","","3","","","","",""
"","","","","","single-stim-button","306","1342765","0.0-3.0-37.1-0.1","55eb4774748092000baa97ee","B2","batch2","tol_tohand","875","","","","","","","","","tol_peg_3","875","875","0","[[3,1,0],[0,0],[0]]","2","[[3,0,0],[2,1],[0]]","9","0","","","","","","3","","","","",""
"","","","","","single-stim-button","307","1343644","0.0-3.0-37.1-1.1","55eb4774748092000baa97ee","B2","batch2","tol_toboard","878","","","","","","","","","tol_peg_2","878","878","0","[[3,1,0],[2,0],[0]]","2","[[3,0,0],[2,1],[0]]","9","0","","","","","","3","","","","",""
"","","","","","single-stim-button","308","1344550","0.0-3.0-37.2-0.2","55eb4774748092000baa97ee","B2","batch2","tol_tohand","904","","","","","","","","","tol_peg_1","904","904","0","[[3,0,0],[2,0],[0]]","3","[[3,0,0],[2,1],[0]]","9","0","","","","","","3","","","","",""
"","","","","","single-stim-button","309","1345443","0.0-3.0-37.2-1.2","55eb4774748092000baa97ee","B2","batch2","tol_toboard","892","","","","","","","","","tol_peg_2","892","892","0","[[3,0,0],[2,1],[0]]","3","[[3,0,0],[2,1],[0]]","9","0","","","","","","3","","","","",""
"","","","","","poldrack-single-stim","310","1346453","0.0-3.0-38.0","55eb4774748092000baa97ee","B2","batch2","tol_feedback","-1","","","","","true","","","","","1000","1000","500","","","","","","-1","none","true","4131","5910","","","","","",""
"","","","","","html-button-response","311","1347592","0.0-3.0-39.0","55eb4774748092000baa97ee","B2","batch2","tol_trial_num","1138","<div class = centerbox><p class = center-block-text>problem <strong>11</strong> out of 25 problems</p></div>","0","","","","","","","","","","","","","","","","","","","","","","","","","",""
"","","","","","single-stim-button","312","1351310","0.0-3.0-40.0-0.0","55eb4774748092000baa97ee","B2","batch2","tol_tohand","3717","","","","","","","","","tol_peg_1","3717","3717","0","[[1,0,0],[3,0],[0]]","1","[[2,0,0],[1,3],[0]]","10","0","","","","","","6","","","","",""
"","","","","","single-stim-button","313","1352135","0.0-3.0-40.0-1.0","55eb4774748092000baa97ee","B2","batch2","tol_toboard","823","","","","","","","","","tol_peg_3","823","823","0","[[1,0,0],[3,0],[2]]","1","[[2,0,0],[1,3],[0]]","10","0","","","","","","6","","","","",""
"","","","","","single-stim-button","314","1352993","0.0-3.0-40.1-0.1","55eb4774748092000baa97ee","B2","batch2","tol_tohand","856","","","","","","","","","tol_peg_1","856","856","0","[[0,0,0],[3,0],[2]]","2","[[2,0,0],[1,3],[0]]","10","0","","","","","","6","","","","",""
"","","","","","single-stim-button","315","1354045","0.0-3.0-40.1-1.1","55eb4774748092000baa97ee","B2","batch2","tol_toboard","1051","","","","","","","","","tol_peg_2","1051","1051","0","[[0,0,0],[3,1],[2]]","2","[[2,0,0],[1,3],[0]]","10","0","","","","","","6","","","","",""
"","","","","","single-stim-button","316","1354807","0.0-3.0-40.2-0.2","55eb4774748092000baa97ee","B2","batch2","tol_tohand","761","","","","","","","","","tol_peg_3","761","761","0","[[0,0,0],[3,1],[0]]","3","[[2,0,0],[1,3],[0]]","10","0","","","","","","6","","","","",""
"","","","","","single-stim-button","317","1355745","0.0-3.0-40.2-1.2","55eb4774748092000baa97ee","B2","batch2","tol_toboard","937","","","","","","","","","tol_peg_1","937","937","0","[[2,0,0],[3,1],[0]]","3","[[2,0,0],[1,3],[0]]","10","0","","","","","","6","","","","",""
"","","","","","single-stim-button","318","1356667","0.0-3.0-40.3-0.3","55eb4774748092000baa97ee","B2","batch2","tol_tohand","922","","","","","","","","","tol_peg_2","922","922","0","[[2,0,0],[3,0],[0]]","4","[[2,0,0],[1,3],[0]]","10","0","","","","","","6","","","","",""
"","","","","","single-stim-button","319","1357515","0.0-3.0-40.3-1.3","55eb4774748092000baa97ee","B2","batch2","tol_toboard","847","","","","","","","","","tol_peg_3","847","847","0","[[2,0,0],[3,0],[1]]","4","[[2,0,0],[1,3],[0]]","10","0","","","","","","6","","","","",""
"","","","","","single-stim-button","320","1358430","0.0-3.0-40.4-0.4","55eb4774748092000baa97ee","B2","batch2","tol_tohand","913","","","","","","","","","tol_peg_2","913","913","0","[[2,0,0],[0,0],[1]]","5","[[2,0,0],[1,3],[0]]","10","0","","","","","","6","","","","",""
"","","","","","single-stim-button","321","1359846","0.0-3.0-40.4-1.4","55eb4774748092000baa97ee","B2","batch2","tol_toboard","1414","","","","","","","","","tol_peg_1","1414","1414","0","[[2,3,0],[0,0],[1]]","5","[[2,0,0],[1,3],[0]]","10","0","","","","","","6","","","","",""
"","","","","","single-stim-button","322","1360613","0.0-3.0-40.5-0.5","55eb4774748092000baa97ee","B2","batch2","tol_tohand","766","","","","","","","","","tol_peg_3","766","766","0","[[2,3,0],[0,0],[0]]","6","[[2,0,0],[1,3],[0]]","10","0","","","","","","6","","","","",""
"","","","","","single-stim-button","323","1361543","0.0-3.0-40.5-1.5","55eb4774748092000baa97ee","B2","batch2","tol_toboard","929","","","","","","","","","tol_peg_2","929","929","0","[[2,3,0],[1,0],[0]]","6","[[2,0,0],[1,3],[0]]","10","0","","","","","","6","","","","",""
"","","","","","single-stim-button","324","1362703","0.0-3.0-40.6-0.6","55eb4774748092000baa97ee","B2","batch2","tol_tohand","1160","","","","","","","","","tol_peg_1","1160","1160","0","[[2,0,0],[1,0],[0]]","7","[[2,0,0],[1,3],[0]]","10","0","","","","","","6","","","","",""
"","","","","","single-stim-button","325","1363393","0.0-3.0-40.6-1.6","55eb4774748092000baa97ee","B2","batch2","tol_toboard","689","","","","","","","","","tol_peg_2","689","689","0","[[2,0,0],[1,3],[0]]","7","[[2,0,0],[1,3],[0]]","10","0","","","","","","6","","","","",""
"","","","","","poldrack-single-stim","326","1364407","0.0-3.0-41.0","55eb4774748092000baa97ee","B2","batch2","tol_feedback","-1","","","","","true","","","","","1000","1000","500","","","","","","-1","none","true","3717","9095","","","","","",""
"","","","","","html-button-response","327","1365790","0.0-3.0-42.0","55eb4774748092000baa97ee","B2","batch2","tol_trial_num","1382","<div class = centerbox><p class = center-block-text>problem <strong>12</strong> out of 25 problems</p></div>","0","","","","","","","","","","","","","","","","","","","","","","","","","",""
"","","","","","single-stim-button","328","1369304","0.0-3.0-43.0-0.0","55eb4774748092000baa97ee","B2","batch2","tol_tohand","3513","","","","","","","","","tol_peg_1","3513","3513","0","[[1,0,0],[3,0],[0]]","1","[[2,3,0],[0,0],[1]]","11","0","","","","","","4","","","","",""
"","","","","","single-stim-button","329","1370087","0.0-3.0-43.0-1.0","55eb4774748092000baa97ee","B2","batch2","tol_toboard","782","","","","","","","","","tol_peg_2","782","782","0","[[1,0,0],[3,2],[0]]","1","[[2,3,0],[0,0],[1]]","11","0","","","","","","4","","","","",""
"","","","","","single-stim-button","330","1370886","0.0-3.0-43.1-0.1","55eb4774748092000baa97ee","B2","batch2","tol_tohand","798","","","","","","","","","tol_peg_1","798","798","0","[[0,0,0],[3,2],[0]]","2","[[2,3,0],[0,0],[1]]","11","0","","","","","","4","","","","",""
"","","","","","single-stim-button","331","1372375","0.0-3.0-43.1-1.1","55eb4774748092000baa97ee","B2","batch2","tol_toboard","1488","","","","","","","","","tol_peg_3","1488","1488","0","[[0,0,0],[3,2],[1]]","2","[[2,3,0],[0,0],[1]]","11","0","","","","","","4","","","","",""
"","","","","","single-stim-button","332","1373676","0.0-3.0-43.2-0.2","55eb4774748092000baa97ee","B2","batch2","tol_tohand","1299","","","","","","","","","tol_peg_2","1299","1299","0","[[0,0,0],[3,0],[1]]","3","[[2,3,0],[0,0],[1]]","11","0","","","","","","4","","","","",""
"","","","","","single-stim-button","333","1374435","0.0-3.0-43.2-1.2","55eb4774748092000baa97ee","B2","batch2","tol_toboard","758","","","","","","","","","tol_peg_1","758","758","0","[[2,0,0],[3,0],[1]]","3","[[2,3,0],[0,0],[1]]","11","0","","","","","","4","","","","",""
"","","","","","single-stim-button","334","1375169","0.0-3.0-43.3-0.3","55eb4774748092000baa97ee","B2","batch2","tol_tohand","733","","","","","","","","","tol_peg_2","733","733","0","[[2,0,0],[0,0],[1]]","4","[[2,3,0],[0,0],[1]]","11","0","","","","","","4","","","","",""
"","","","","","single-stim-button","335","1376108","0.0-3.0-43.3-1.3","55eb4774748092000baa97ee","B2","batch2","tol_toboard","938","","","","","","","","","tol_peg_1","938","938","0","[[2,3,0],[0,0],[1]]","4","[[2,3,0],[0,0],[1]]","11","0","","","","","","4","","","","",""
"","","","","","poldrack-single-stim","336","1377122","0.0-3.0-44.0","55eb4774748092000baa97ee","B2","batch2","tol_feedback","-1","","","","","true","","","","","1000","1000","500","","","","","","-1","none","true","3513","6343","","","","","",""
"","","","","","html-button-response","337","1378968","0.0-3.0-45.0","55eb4774748092000baa97ee","B2","batch2","tol_trial_num","1845.3999999761581","<div class = centerbox><p class = center-block-text>problem <strong>13</strong> out of 25 problems</p></div>","0","","","","","","","","","","","","","","","","","","","","","","","","","",""
"","","","","","single-stim-button","338","1381750","0.0-3.0-46.0-0.0","55eb4774748092000baa97ee","B2","batch2","tol_tohand","2781","","","","","","","","","tol_peg_1","2781","2781","0","[[1,0,0],[3,0],[0]]","1","[[0,0,0],[2,3],[1]]","12","0","","","","","","4","","","","",""
"","","","","","single-stim-button","339","1382746","0.0-3.0-46.0-1.0","55eb4774748092000baa97ee","B2","batch2","tol_toboard","996","","","","","","","","","tol_peg_2","996","996","0","[[1,0,0],[3,2],[0]]","1","[[0,0,0],[2,3],[1]]","12","0","","","","","","4","","","","",""
"","","","","","single-stim-button","340","1383619","0.0-3.0-46.1-0.1","55eb4774748092000baa97ee","B2","batch2","tol_tohand","871","","","","","","","","","tol_peg_1","871","871","0","[[0,0,0],[3,2],[0]]","2","[[0,0,0],[2,3],[1]]","12","0","","","","","","4","","","","",""
"","","","","","single-stim-button","341","1385267","0.0-3.0-46.1-1.1","55eb4774748092000baa97ee","B2","batch2","tol_toboard","1646","","","","","","","","","tol_peg_3","1646","1646","0","[[0,0,0],[3,2],[1]]","2","[[0,0,0],[2,3],[1]]","12","0","","","","","","4","","","","",""
"","","","","","single-stim-button","342","1386703","0.0-3.0-46.2-0.2","55eb4774748092000baa97ee","B2","batch2","tol_tohand","1436","","","","","","","","","tol_peg_2","1436","1436","0","[[0,0,0],[3,0],[1]]","3","[[0,0,0],[2,3],[1]]","12","0","","","","","","4","","","","",""
"","","","","","single-stim-button","343","1390006","0.0-3.0-46.2-1.2","55eb4774748092000baa97ee","B2","batch2","tol_toboard","3301","","","","","","","","","tol_peg_1","3301","3301","0","[[2,0,0],[3,0],[1]]","3","[[0,0,0],[2,3],[1]]","12","0","","","","","","4","","","","",""
"","","","","","single-stim-button","344","1395623","0.0-3.0-46.3-0.3","55eb4774748092000baa97ee","B2","batch2","tol_tohand","5615","","","","","","","","","tol_peg_2","5615","5615","0","[[2,0,0],[0,0],[1]]","4","[[0,0,0],[2,3],[1]]","12","0","","","","","","4","","","","",""
"","","","","","single-stim-button","345","1396687","0.0-3.0-46.3-1.3","55eb4774748092000baa97ee","B2","batch2","tol_toboard","1063","","","","","","","","","tol_peg_1","1063","1063","0","[[2,3,0],[0,0],[1]]","4","[[0,0,0],[2,3],[1]]","12","0","","","","","","4","","","","",""
"","","","","","single-stim-button","346","1399321","0.0-3.0-46.4-0.4","55eb4774748092000baa97ee","B2","batch2","tol_tohand","2632","","","","","","","","","tol_peg_3","2632","2632","0","[[2,3,0],[0,0],[0]]","5","[[0,0,0],[2,3],[1]]","12","0","","","","","","4","","","","",""
"","","","","","single-stim-button","347","1400234","0.0-3.0-46.4-1.4","55eb4774748092000baa97ee","B2","batch2","tol_toboard","913","","","","","","","","","tol_peg_2","913","913","0","[[2,3,0],[1,0],[0]]","5","[[0,0,0],[2,3],[1]]","12","0","","","","","","4","","","","",""
"","","","","","single-stim-button","348","1401482","0.0-3.0-46.5-0.5","55eb4774748092000baa97ee","B2","batch2","tol_tohand","1248","","","","","","","","","tol_peg_1","1248","1248","0","[[2,0,0],[1,0],[0]]","6","[[0,0,0],[2,3],[1]]","12","0","","","","","","4","","","","",""
"","","","","","single-stim-button","349","1404070","0.0-3.0-46.5-1.5","55eb4774748092000baa97ee","B2","batch2","tol_toboard","2587","","","","","","","","","tol_peg_3","2587","2587","0","[[2,0,0],[1,0],[3]]","6","[[0,0,0],[2,3],[1]]","12","0","","","","","","4","","","","",""
"","","","","","single-stim-button","350","1412194","0.0-3.0-46.6-0.6","55eb4774748092000baa97ee","B2","batch2","tol_tohand","8124","","","","","","","","","tol_peg_2","8124","8124","0","[[2,0,0],[0,0],[3]]","7","[[0,0,0],[2,3],[1]]","12","0","","","","","","4","","","","",""
"","","","","","single-stim-button","351","1413425","0.0-3.0-46.6-1.6","55eb4774748092000baa97ee","B2","batch2","tol_toboard","1229","","","","","","","","","tol_peg_1","1229","1229","0","[[2,1,0],[0,0],[3]]","7","[[0,0,0],[2,3],[1]]","12","0","","","","","","4","","","","",""
"","","","","","single-stim-button","352","1414989","0.0-3.0-46.7-0.7","55eb4774748092000baa97ee","B2","batch2","tol_tohand","1563","","","","","","","","","tol_peg_3","1563","1563","0","[[2,1,0],[0,0],[0]]","8","[[0,0,0],[2,3],[1]]","12","0","","","","","","4","","","","",""
"","","","","","single-stim-button","353","1415745","0.0-3.0-46.7-1.7","55eb4774748092000baa97ee","B2","batch2","tol_toboard","755","","","","","","","","","tol_peg_3","755","755","0","[[2,1,0],[0,0],[3]]","8","[[0,0,0],[2,3],[1]]","12","0","","","","","","4","","","","",""
"","","","","","single-stim-button","354","1416895","0.0-3.0-46.8-0.8","55eb4774748092000baa97ee","B2","batch2","tol_tohand","1149","","","","","","","","","tol_peg_3","1149","1149","0","[[2,1,0],[0,0],[0]]","9","[[0,0,0],[2,3],[1]]","12","0","","","","","","4","","","","",""
