"success","timeout","failed_images","failed_audio","failed_video","trial_type","trial_index","time_elapsed","internal_node_id","subject_id","study_id","session_id","task","rt","stimulus","response","item","answer","correct","spm_correct","spm_rt","view_history","fiar_detect_rt","fiar_detect_correct","total_correct_fiar_detect","post_trial_gap","choices","mouse_click","stim_duration","block_duration","timing_post_trial","current_position","tol_num_moves_made","tol_target","tol_problem_id","tol_rt","key_press","possible_responses","tol_correct","preplanning","tol_rt_per_trial","tol_min_moves"
"true","false","[]","[]","[]","preload","0","1718","0.0-0.0","55f244e632af740012170458","D2","batch4","","","","","","","","","","","","","","","","","","","","","","","","","","","","","",""
"true","","","","","fullscreen","1","4845","0.0-1.0-0.0","55f244e632af740012170458","D2","batch4","","","","","","","","","","","","","","","","","","","","","","","","","","","","","",""
"true","","","","","fullscreen","2","6795","0.0-2.0-0.0","55f244e632af740012170458","D2","batch4","spm_fullscreen","","","","","","","","","","","","","","","","","","","","","","","","","","","","",""
"","","","","","html-button-response","3","16192","0.0-2.0-1.0","55f244e632af740012170458","D2","batch4","","9393.299999952316","<p class = block-text><b>Instructions</b> <br>This is a widely used intelligence test in research. <br>In this test, a figure with a missing piece will be presented.<br>Below the figure are alternative pieces to complete the figure, only one of which is correct.<br> Different figures might involve different principles for obtaining the missing piece<br>Your job is to select the most logical piece to complete the figure.</p>","0","","","","","","","","","","","","","","","","","","","","","","","","","",""
"","","","","","html-keyboard-response","4","17001","0.0-2.0-2.0-0.0","55f244e632af740012170458","D2","batch4","spm_show_trial_num","null","<p class=block-text>Trial 1 out of 60</p>","null","","","","","","","","","","","","","","","","","","","","","","","","","",""
"","","","","","image-button-response","5","20419","0.0-2.0-2.0-1.0","55f244e632af740012170458","D2","batch4","spm_respsonse","3407.7999999523163","img/question_1_1.jpeg","3","mat_01","4","1","1","3407.7999999523163","","","","","","","","","","","","","","","","","","","","",""
"","","","","","html-keyboard-response","6","21483","0.0-2.0-2.0-0.1","55f244e632af740012170458","D2","batch4","spm_show_trial_num","null","<p class=block-text>Trial 2 out of 60</p>","null","","","","","","","","","","","","","","","","","","","","","","","","","",""
"","","","","","image-button-response","7","24505","0.0-2.0-2.0-1.1","55f244e632af740012170458","D2","batch4","spm_respsonse","3016.5","img/question_1_2.jpeg","4","mat_02","5","1","1","3016.5","","","","","","","","","","","","","","","","","","","","",""
"","","","","","html-keyboard-response","8","25579","0.0-2.0-2.0-0.2","55f244e632af740012170458","D2","batch4","spm_show_trial_num","null","<p class=block-text>Trial 3 out of 60</p>","null","","","","","","","","","","","","","","","","","","","","","","","","","",""
"","","","","","image-button-response","9","27964","0.0-2.0-2.0-1.2","55f244e632af740012170458","D2","batch4","spm_respsonse","2382.2000000476837","img/question_1_3.jpeg","0","mat_03","1","1","1","2382.2000000476837","","","","","","","","","","","","","","","","","","","","",""
"","","","","","html-keyboard-response","10","29031","0.0-2.0-2.0-0.3","55f244e632af740012170458","D2","batch4","spm_show_trial_num","null","<p class=block-text>Trial 4 out of 60</p>","null","","","","","","","","","","","","","","","","","","","","","","","","","",""
"","","","","","image-button-response","11","31850","0.0-2.0-2.0-1.3","55f244e632af740012170458","D2","batch4","spm_respsonse","2813.2999999523163","img/question_1_4.jpeg","2","mat_04","2","0","0","2813.2999999523163","","","","","","","","","","","","","","","","","","","","",""
"","","","","","html-keyboard-response","12","32921","0.0-2.0-2.0-0.4","55f244e632af740012170458","D2","batch4","spm_show_trial_num","null","<p class=block-text>Trial 5 out of 60</p>","null","","","","","","","","","","","","","","","","","","","","","","","","","",""
"","","","","","image-button-response","13","37633","0.0-2.0-2.0-1.4","55f244e632af740012170458","D2","batch4","spm_respsonse","4706.600000023842","img/question_1_5.jpeg","5","mat_05","6","1","1","4706.600000023842","","","","","","","","","","","","","","","","","","","","",""
"","","","","","html-keyboard-response","14","38695","0.0-2.0-2.0-0.5","55f244e632af740012170458","D2","batch4","spm_show_trial_num","null","<p class=block-text>Trial 6 out of 60</p>","null","","","","","","","","","","","","","","","","","","","","","","","","","",""
"","","","","","image-button-response","15","43710","0.0-2.0-2.0-1.5","55f244e632af740012170458","D2","batch4","spm_respsonse","5010.200000047684","img/question_1_6.jpeg","2","mat_06","3","1","1","5010.200000047684","","","","","","","","","","","","","","","","","","","","",""
"","","","","","html-keyboard-response","16","44774","0.0-2.0-2.0-0.6","55f244e632af740012170458","D2","batch4","spm_show_trial_num","null","<p class=block-text>Trial 7 out of 60</p>","null","","","","","","","","","","","","","","","","","","","","","","","","","",""
"","","","","","image-button-response","17","49005","0.0-2.0-2.0-1.6","55f244e632af740012170458","D2","batch4","spm_respsonse","4225.399999976158","img/question_1_7.jpeg","5","mat_07","6","1","1","4225.399999976158","","","","","","","","","","","","","","","","","","","","",""
"","","","","","html-keyboard-response","18","50083","0.0-2.0-2.0-0.7","55f244e632af740012170458","D2","batch4","spm_show_trial_num","null","<p class=block-text>Trial 8 out of 60</p>","null","","","","","","","","","","","","","","","","","","","","","","","","","",""
"","","","","","image-button-response","19","53717","0.0-2.0-2.0-1.7","55f244e632af740012170458","D2","batch4","spm_respsonse","3629.2000000476837","img/question_1_8.jpeg","1","mat_08","2","1","1","3629.2000000476837","","","","","","","","","","","","","","","","","","","","",""
"","","","","","html-keyboard-response","20","54784","0.0-2.0-2.0-0.8","55f244e632af740012170458","D2","batch4","spm_show_trial_num","null","<p class=block-text>Trial 9 out of 60</p>","null","","","","","","","","","","","","","","","","","","","","","","","","","",""
"","","","","","image-button-response","21","57496","0.0-2.0-2.0-1.8","55f244e632af740012170458","D2","batch4","spm_respsonse","2706.7999999523163","img/question_1_9.jpeg","0","mat_09","1","1","1","2706.7999999523163","","","","","","","","","","","","","","","","","","","","",""
"","","","","","html-keyboard-response","22","58561","0.0-2.0-2.0-0.9","55f244e632af740012170458","D2","batch4","spm_show_trial_num","null","<p class=block-text>Trial 10 out of 60</p>","null","","","","","","","","","","","","","","","","","","","","","","","","","",""
"","","","","","image-button-response","23","63922","0.0-2.0-2.0-1.9","55f244e632af740012170458","D2","batch4","spm_respsonse","5355.700000047684","img/question_1_10.jpeg","2","mat_10","3","1","1","5355.700000047684","","","","","","","","","","","","","","","","","","","","",""
"","","","","","html-keyboard-response","24","64994","0.0-2.0-2.0-0.10","55f244e632af740012170458","D2","batch4","spm_show_trial_num","null","<p class=block-text>Trial 11 out of 60</p>","null","","","","","","","","","","","","","","","","","","","","","","","","","",""
"","","","","","image-button-response","25","72123","0.0-2.0-2.0-1.10","55f244e632af740012170458","D2","batch4","spm_respsonse","7122.699999928474","img/question_1_11.jpeg","3","mat_11","4","1","1","7122.699999928474","","","","","","","","","","","","","","","","","","","","",""
"","","","","","html-keyboard-response","26","73182","0.0-2.0-2.0-0.11","55f244e632af740012170458","D2","batch4","spm_show_trial_num","null","<p class=block-text>Trial 12 out of 60</p>","null","","","","","","","","","","","","","","","","","","","","","","","","","",""
"","","","","","image-button-response","27","78462","0.0-2.0-2.0-1.11","55f244e632af740012170458","D2","batch4","spm_respsonse","5273.299999952316","img/question_1_12.jpeg","0","mat_12","5","0","0","5273.299999952316","","","","","","","","","","","","","","","","","","","","",""
"","","","","","html-keyboard-response","28","79530","0.0-2.0-2.0-0.12","55f244e632af740012170458","D2","batch4","spm_show_trial_num","null","<p class=block-text>Trial 13 out of 60</p>","null","","","","","","","","","","","","","","","","","","","","","","","","","",""
"","","","","","image-button-response","29","81550","0.0-2.0-2.0-1.12","55f244e632af740012170458","D2","batch4","spm_respsonse","2013.5","img/question_2_1.jpeg","1","mat_13","2","1","1","2013.5","","","","","","","","","","","","","","","","","","","","",""
"","","","","","html-keyboard-response","30","82617","0.0-2.0-2.0-0.13","55f244e632af740012170458","D2","batch4","spm_show_trial_num","null","<p class=block-text>Trial 14 out of 60</p>","null","","","","","","","","","","","","","","","","","","","","","","","","","",""
"","","","","","image-button-response","31","88984","0.0-2.0-2.0-1.13","55f244e632af740012170458","D2","batch4","spm_respsonse","6359.5","img/question_2_2.jpeg","5","mat_14","6","1","1","6359.5","","","","","","","","","","","","","","","","","","","","",""
"","","","","","html-keyboard-response","32","90038","0.0-2.0-2.0-0.14","55f244e632af740012170458","D2","batch4","spm_show_trial_num","null","<p class=block-text>Trial 15 out of 60</p>","null","","","","","","","","","","","","","","","","","","","","","","","","","",""
"","","","","","image-button-response","33","92283","0.0-2.0-2.0-1.14","55f244e632af740012170458","D2","batch4","spm_respsonse","2238.899999976158","img/question_2_3.jpeg","0","mat_15","1","1","1","2238.899999976158","","","","","","","","","","","","","","","","","","","","",""
"","","","","","html-keyboard-response","34","93343","0.0-2.0-2.0-0.15","55f244e632af740012170458","D2","batch4","spm_show_trial_num","null","<p class=block-text>Trial 16 out of 60</p>","null","","","","","","","","","","","","","","","","","","","","","","","","","",""
"","","","","","image-button-response","35","95586","0.0-2.0-2.0-1.15","55f244e632af740012170458","D2","batch4","spm_respsonse","2237.100000023842","img/question_2_4.jpeg","1","mat_16","2","1","1","2237.100000023842","","","","","","","","","","","","","","","","","","","","",""
"","","","","","html-keyboard-response","36","96657","0.0-2.0-2.0-0.16","55f244e632af740012170458","D2","batch4","spm_show_trial_num","null","<p class=block-text>Trial 17 out of 60</p>","null","","","","","","","","","","","","","","","","","","","","","","","","","",""
"","","","","","image-button-response","37","99335","0.0-2.0-2.0-1.16","55f244e632af740012170458","D2","batch4","spm_respsonse","2672.600000023842","img/question_2_5.jpeg","0","mat_17","1","1","1","2672.600000023842","","","","","","","","","","","","","","","","","","","","",""
"","","","","","html-keyboard-response","38","100400","0.0-2.0-2.0-0.17","55f244e632af740012170458","D2","batch4","spm_show_trial_num","null","<p class=block-text>Trial 18 out of 60</p>","null","","","","","","","","","","","","","","","","","","","","","","","","","",""
"","","","","","image-button-response","39","104264","0.0-2.0-2.0-1.17","55f244e632af740012170458","D2","batch4","spm_respsonse","3859.7000000476837","img/question_2_6.jpeg","2","mat_18","3","1","1","3859.7000000476837","","","","","","","","","","","","","","","","","","","","",""
"","","","","","html-keyboard-response","40","105334","0.0-2.0-2.0-0.18","55f244e632af740012170458","D2","batch4","spm_show_trial_num","null","<p class=block-text>Trial 19 out of 60</p>","null","","","","","","","","","","","","","","","","","","","","","","","","","",""
"","","","","","image-button-response","41","112675","0.0-2.0-2.0-1.18","55f244e632af740012170458","D2","batch4","spm_respsonse","7334.399999976158","img/question_2_7.jpeg","4","mat_19","5","1","1","7334.399999976158","","","","","","","","","","","","","","","","","","","","",""
"","","","","","html-keyboard-response","42","113752","0.0-2.0-2.0-0.19","55f244e632af740012170458","D2","batch4","spm_show_trial_num","null","<p class=block-text>Trial 20 out of 60</p>","null","","","","","","","","","","","","","","","","","","","","","","","","","",""
"","","","","","image-button-response","43","118971","0.0-2.0-2.0-1.19","55f244e632af740012170458","D2","batch4","spm_respsonse","5213.199999928474","img/question_2_8.jpeg","5","mat_20","6","1","1","5213.199999928474","","","","","","","","","","","","","","","","","","","","",""
"","","","","","html-keyboard-response","44","120035","0.0-2.0-2.0-0.20","55f244e632af740012170458","D2","batch4","spm_show_trial_num","null","<p class=block-text>Trial 21 out of 60</p>","null","","","","","","","","","","","","","","","","","","","","","","","","","",""
"","","","","","image-button-response","45","124120","0.0-2.0-2.0-1.20","55f244e632af740012170458","D2","batch4","spm_respsonse","4078.899999976158","img/question_2_9.jpeg","3","mat_21","4","1","1","4078.899999976158","","","","","","","","","","","","","","","","","","","","",""
"","","","","","html-keyboard-response","46","125194","0.0-2.0-2.0-0.21","55f244e632af740012170458","D2","batch4","spm_show_trial_num","null","<p class=block-text>Trial 22 out of 60</p>","null","","","","","","","","","","","","","","","","","","","","","","","","","",""
"","","","","","image-button-response","47","128230","0.0-2.0-2.0-1.21","55f244e632af740012170458","D2","batch4","spm_respsonse","3029.7999999523163","img/question_2_10.jpeg","2","mat_22","3","1","1","3029.7999999523163","","","","","","","","","","","","","","","","","","","","",""
"","","","","","html-keyboard-response","48","129303","0.0-2.0-2.0-0.22","55f244e632af740012170458","D2","batch4","spm_show_trial_num","null","<p class=block-text>Trial 23 out of 60</p>","null","","","","","","","","","","","","","","","","","","","","","","","","","",""
"","","","","","image-button-response","49","132839","0.0-2.0-2.0-1.22","55f244e632af740012170458","D2","batch4","spm_respsonse","3529.6999999284744","img/question_2_11.jpeg","3","mat_23","4","1","1","3529.6999999284744","","","","","","","","","","","","","","","","","","","","",""
"","","","","","html-keyboard-response","50","133923","0.0-2.0-2.0-0.23","55f244e632af740012170458","D2","batch4","spm_show_trial_num","null","<p class=block-text>Trial 24 out of 60</p>","null","","","","","","","","","","","","","","","","","","","","","","","","","",""
"","","","","","image-button-response","51","143145","0.0-2.0-2.0-1.23","55f244e632af740012170458","D2","batch4","spm_respsonse","9214.699999928474","img/question_2_12.jpeg","4","mat_24","5","1","1","9214.699999928474","","","","","","","","","","","","","","","","","","","","",""
"","","","","","html-button-response","52","144899","0.0-2.0-3.0","55f244e632af740012170458","D2","batch4","attention_check","1496.7999999523163","<p class = block-text>Attention check: Please choose 1<br></p>","0","","","true","","","","","","","","","","","","","","","","","","","","","","",""
"","","","","","html-keyboard-response","53","145712","0.0-2.0-4.0-0.0","55f244e632af740012170458","D2","batch4","spm_show_trial_num","null","<p class=block-text>Trial 25 out of 60</p>","null","","","","","","","","","","","","","","","","","","","","","","","","","",""
"","","","","","image-button-response","54","148217","0.0-2.0-4.0-1.0","55f244e632af740012170458","D2","batch4","spm_respsonse","2498.899999976158","img/question_3_1.jpeg","0","mat_25","8","0","0","2498.899999976158","","","","","","","","","","","","","","","","","","","","",""
"","","","","","html-keyboard-response","55","149282","0.0-2.0-4.0-0.1","55f244e632af740012170458","D2","batch4","spm_show_trial_num","null","<p class=block-text>Trial 26 out of 60</p>","null","","","","","","","","","","","","","","","","","","","","","","","","","",""
"","","","","","image-button-response","56","151897","0.0-2.0-4.0-1.1","55f244e632af740012170458","D2","batch4","spm_respsonse","2609.2000000476837","img/question_3_2.jpeg","1","mat_26","2","1","1","2609.2000000476837","","","","","","","","","","","","","","","","","","","","",""
"","","","","","html-keyboard-response","57","152971","0.0-2.0-4.0-0.2","55f244e632af740012170458","D2","batch4","spm_show_trial_num","null","<p class=block-text>Trial 27 out of 60</p>","null","","","","","","","","","","","","","","","","","","","","","","","","","",""
"","","","","","image-button-response","58","155775","0.0-2.0-4.0-1.2","55f244e632af740012170458","D2","batch4","spm_respsonse","2797.600000023842","img/question_3_3.jpeg","2","mat_27","3","1","1","2797.600000023842","","","","","","","","","","","","","","","","","","","","",""
"","","","","","html-keyboard-response","59","156834","0.0-2.0-4.0-0.3","55f244e632af740012170458","D2","batch4","spm_show_trial_num","null","<p class=block-text>Trial 28 out of 60</p>","null","","","","","","","","","","","","","","","","","","","","","","","","","",""
"","","","","","image-button-response","60","164460","0.0-2.0-4.0-1.3","55f244e632af740012170458","D2","batch4","spm_respsonse","7619.200000047684","img/question_3_4.jpeg","7","mat_28","8","1","1","7619.200000047684","","","","","","","","","","","","","","","","","","","","",""
"","","","","","html-keyboard-response","61","165514","0.0-2.0-4.0-0.4","55f244e632af740012170458","D2","batch4","spm_show_trial_num","null","<p class=block-text>Trial 29 out of 60</p>","null","","","","","","","","","","","","","","","","","","","","","","","","","",""
"","","","","","image-button-response","62","168590","0.0-2.0-4.0-1.4","55f244e632af740012170458","D2","batch4","spm_respsonse","3069.399999976158","img/question_3_5.jpeg","6","mat_29","7","1","1","3069.399999976158","","","","","","","","","","","","","","","","","","","","",""
"","","","","","html-keyboard-response","63","169662","0.0-2.0-4.0-0.5","55f244e632af740012170458","D2","batch4","spm_show_trial_num","null","<p class=block-text>Trial 30 out of 60</p>","null","","","","","","","","","","","","","","","","","","","","","","","","","",""
"","","","","","image-button-response","64","177533","0.0-2.0-4.0-1.5","55f244e632af740012170458","D2","batch4","spm_respsonse","7864.399999976158","img/question_3_6.jpeg","3","mat_30","4","1","1","7864.399999976158","","","","","","","","","","","","","","","","","","","","",""
"","","","","","html-keyboard-response","65","178600","0.0-2.0-4.0-0.6","55f244e632af740012170458","D2","batch4","spm_show_trial_num","null","<p class=block-text>Trial 31 out of 60</p>","null","","","","","","","","","","","","","","","","","","","","","","","","","",""
"","","","","","image-button-response","66","184948","0.0-2.0-4.0-1.6","55f244e632af740012170458","D2","batch4","spm_respsonse","6341.699999928474","img/question_3_7.jpeg","4","mat_31","5","1","1","6341.699999928474","","","","","","","","","","","","","","","","","","","","",""
"","","","","","html-keyboard-response","67","186018","0.0-2.0-4.0-0.7","55f244e632af740012170458","D2","batch4","spm_show_trial_num","null","<p class=block-text>Trial 32 out of 60</p>","null","","","","","","","","","","","","","","","","","","","","","","","","","",""
"","","","","","image-button-response","68","191071","0.0-2.0-4.0-1.7","55f244e632af740012170458","D2","batch4","spm_respsonse","5046.5","img/question_3_8.jpeg","0","mat_32","1","1","1","5046.5","","","","","","","","","","","","","","","","","","","","",""
"","","","","","html-keyboard-response","69","192141","0.0-2.0-4.0-0.8","55f244e632af740012170458","D2","batch4","spm_show_trial_num","null","<p class=block-text>Trial 33 out of 60</p>","null","","","","","","","","","","","","","","","","","","","","","","","","","",""
"","","","","","image-button-response","70","196803","0.0-2.0-4.0-1.8","55f244e632af740012170458","D2","batch4","spm_respsonse","4655","img/question_3_9.jpeg","6","mat_33","7","1","1","4655","","","","","","","","","","","","","","","","","","","","",""
"","","","","","html-keyboard-response","71","197867","0.0-2.0-4.0-0.9","55f244e632af740012170458","D2","batch4","spm_show_trial_num","null","<p class=block-text>Trial 34 out of 60</p>","null","","","","","","","","","","","","","","","","","","","","","","","","","",""
"","","","","","image-button-response","72","204007","0.0-2.0-4.0-1.9","55f244e632af740012170458","D2","batch4","spm_respsonse","6133.699999928474","img/question_3_10.jpeg","7","mat_34","6","0","0","6133.699999928474","","","","","","","","","","","","","","","","","","","","",""
"","","","","","html-keyboard-response","73","205085","0.0-2.0-4.0-0.10","55f244e632af740012170458","D2","batch4","spm_show_trial_num","null","<p class=block-text>Trial 35 out of 60</p>","null","","","","","","","","","","","","","","","","","","","","","","","","","",""
"","","","","","image-button-response","74","211414","0.0-2.0-4.0-1.10","55f244e632af740012170458","D2","batch4","spm_respsonse","6322.200000047684","img/question_3_11.jpeg","3","mat_35","1","0","0","6322.200000047684","","","","","","","","","","","","","","","","","","","","",""
"","","","","","html-keyboard-response","75","212493","0.0-2.0-4.0-0.11","55f244e632af740012170458","D2","batch4","spm_show_trial_num","null","<p class=block-text>Trial 36 out of 60</p>","null","","","","","","","","","","","","","","","","","","","","","","","","","",""
"","","","","","image-button-response","76","226804","0.0-2.0-4.0-1.11","55f244e632af740012170458","D2","batch4","spm_respsonse","14304","img/question_3_12.jpeg","2","mat_36","2","0","0","14304","","","","","","","","","","","","","","","","","","","","",""
"","","","","","html-keyboard-response","77","227879","0.0-2.0-4.0-0.12","55f244e632af740012170458","D2","batch4","spm_show_trial_num","null","<p class=block-text>Trial 37 out of 60</p>","null","","","","","","","","","","","","","","","","","","","","","","","","","",""
"","","","","","image-button-response","78","230265","0.0-2.0-4.0-1.12","55f244e632af740012170458","D2","batch4","spm_respsonse","2379.399999976158","img/question_4_1.jpeg","2","mat_37","3","1","1","2379.399999976158","","","","","","","","","","","","","","","","","","","","",""
"","","","","","html-keyboard-response","79","231329","0.0-2.0-4.0-0.13","55f244e632af740012170458","D2","batch4","spm_show_trial_num","null","<p class=block-text>Trial 38 out of 60</p>","null","","","","","","","","","","","","","","","","","","","","","","","","","",""
"","","","","","image-button-response","80","234439","0.0-2.0-4.0-1.13","55f244e632af740012170458","D2","batch4","spm_respsonse","3103.600000023842","img/question_4_2.jpeg","3","mat_38","4","1","1","3103.600000023842","","","","","","","","","","","","","","","","","","","","",""
"","","","","","html-keyboard-response","81","235502","0.0-2.0-4.0-0.14","55f244e632af740012170458","D2","batch4","spm_show_trial_num","null","<p class=block-text>Trial 39 out of 60</p>","null","","","","","","","","","","","","","","","","","","","","","","","","","",""
"","","","","","image-button-response","82","240392","0.0-2.0-4.0-1.14","55f244e632af740012170458","D2","batch4","spm_respsonse","4883.699999928474","img/question_4_3.jpeg","2","mat_39","3","1","1","4883.699999928474","","","","","","","","","","","","","","","","","","","","",""
"","","","","","html-keyboard-response","83","241458","0.0-2.0-4.0-0.15","55f244e632af740012170458","D2","batch4","spm_show_trial_num","null","<p class=block-text>Trial 40 out of 60</p>","null","","","","","","","","","","","","","","","","","","","","","","","","","",""
"","","","","","image-button-response","84","248103","0.0-2.0-4.0-1.15","55f244e632af740012170458","D2","batch4","spm_respsonse","6638.5","img/question_4_4.jpeg","6","mat_40","7","1","1","6638.5","","","","","","","","","","","","","","","","","","","","",""
"","","","","","html-keyboard-response","85","249156","0.0-2.0-4.0-0.16","55f244e632af740012170458","D2","batch4","spm_show_trial_num","null","<p class=block-text>Trial 41 out of 60</p>","null","","","","","","","","","","","","","","","","","","","","","","","","","",""
"","","","","","image-button-response","86","254230","0.0-2.0-4.0-1.16","55f244e632af740012170458","D2","batch4","spm_respsonse","5066.600000023842","img/question_4_5.jpeg","7","mat_41","8","1","1","5066.600000023842","","","","","","","","","","","","","","","","","","","","",""
"","","","","","html-keyboard-response","87","255290","0.0-2.0-4.0-0.17","55f244e632af740012170458","D2","batch4","spm_show_trial_num","null","<p class=block-text>Trial 42 out of 60</p>","null","","","","","","","","","","","","","","","","","","","","","","","","","",""
"","","","","","image-button-response","88","263434","0.0-2.0-4.0-1.17","55f244e632af740012170458","D2","batch4","spm_respsonse","8137.5","img/question_4_6.jpeg","6","mat_42","6","0","0","8137.5","","","","","","","","","","","","","","","","","","","","",""
"","","","","","html-keyboard-response","89","264494","0.0-2.0-4.0-0.18","55f244e632af740012170458","D2","batch4","spm_show_trial_num","null","<p class=block-text>Trial 43 out of 60</p>","null","","","","","","","","","","","","","","","","","","","","","","","","","",""
"","","","","","image-button-response","90","273342","0.0-2.0-4.0-1.18","55f244e632af740012170458","D2","batch4","spm_respsonse","8841.600000023842","img/question_4_7.jpeg","6","mat_43","5","0","0","8841.600000023842","","","","","","","","","","","","","","","","","","","","",""
"","","","","","html-keyboard-response","91","274415","0.0-2.0-4.0-0.19","55f244e632af740012170458","D2","batch4","spm_show_trial_num","null","<p class=block-text>Trial 44 out of 60</p>","null","","","","","","","","","","","","","","","","","","","","","","","","","",""
"","","","","","image-button-response","92","279506","0.0-2.0-4.0-1.19","55f244e632af740012170458","D2","batch4","spm_respsonse","5084","img/question_4_8.jpeg","3","mat_44","4","1","1","5084","","","","","","","","","","","","","","","","","","","","",""
"","","","","","html-keyboard-response","93","280579","0.0-2.0-4.0-0.20","55f244e632af740012170458","D2","batch4","spm_show_trial_num","null","<p class=block-text>Trial 45 out of 60</p>","null","","","","","","","","","","","","","","","","","","","","","","","","","",""
"","","","","","image-button-response","94","285494","0.0-2.0-4.0-1.20","55f244e632af740012170458","D2","batch4","spm_respsonse","4908.800000071526","img/question_4_9.jpeg","5","mat_45","1","0","0","4908.800000071526","","","","","","","","","","","","","","","","","","","","",""
"","","","","","html-keyboard-response","95","286571","0.0-2.0-4.0-0.21","55f244e632af740012170458","D2","batch4","spm_show_trial_num","null","<p class=block-text>Trial 46 out of 60</p>","null","","","","","","","","","","","","","","","","","","","","","","","","","",""
"","","","","","image-button-response","96","291932","0.0-2.0-4.0-1.21","55f244e632af740012170458","D2","batch4","spm_respsonse","5358.600000023842","img/question_4_10.jpeg","0","mat_46","2","0","0","5358.600000023842","","","","","","","","","","","","","","","","","","","","",""
"","","","","","html-keyboard-response","97","293008","0.0-2.0-4.0-0.22","55f244e632af740012170458","D2","batch4","spm_show_trial_num","null","<p class=block-text>Trial 47 out of 60</p>","null","","","","","","","","","","","","","","","","","","","","","","","","","",""
"","","","","","image-button-response","98","303863","0.0-2.0-4.0-1.22","55f244e632af740012170458","D2","batch4","spm_respsonse","10848.5","img/question_4_11.jpeg","4","mat_47","5","1","1","10848.5","","","","","","","","","","","","","","","","","","","","",""
"","","","","","html-keyboard-response","99","304927","0.0-2.0-4.0-0.23","55f244e632af740012170458","D2","batch4","spm_show_trial_num","null","<p class=block-text>Trial 48 out of 60</p>","null","","","","","","","","","","","","","","","","","","","","","","","","","",""
"","","","","","image-button-response","100","311569","0.0-2.0-4.0-1.23","55f244e632af740012170458","D2","batch4","spm_respsonse","6635.100000023842","img/question_4_12.jpeg","7","mat_48","6","0","0","6635.100000023842","","","","","","","","","","","","","","","","","","","","",""
"","","","","","html-keyboard-response","101","312623","0.0-2.0-4.0-0.24","55f244e632af740012170458","D2","batch4","spm_show_trial_num","null","<p class=block-text>Trial 49 out of 60</p>","null","","","","","","","","","","","","","","","","","","","","","","","","","",""
"","","","","","image-button-response","102","316755","0.0-2.0-4.0-1.24","55f244e632af740012170458","D2","batch4","spm_respsonse","4125.600000023842","img/question_5_1.jpeg","6","mat_49","7","1","1","4125.600000023842","","","","","","","","","","","","","","","","","","","","",""
"","","","","","html-keyboard-response","103","317811","0.0-2.0-4.0-0.25","55f244e632af740012170458","D2","batch4","spm_show_trial_num","null","<p class=block-text>Trial 50 out of 60</p>","null","","","","","","","","","","","","","","","","","","","","","","","","","",""
"","","","","","image-button-response","104","326127","0.0-2.0-4.0-1.25","55f244e632af740012170458","D2","batch4","spm_respsonse","8309.5","img/question_5_2.jpeg","2","mat_50","6","0","0","8309.5","","","","","","","","","","","","","","","","","","","","",""
"","","","","","html-keyboard-response","105","327195","0.0-2.0-4.0-0.26","55f244e632af740012170458","D2","batch4","spm_show_trial_num","null","<p class=block-text>Trial 51 out of 60</p>","null","","","","","","","","","","","","","","","","","","","","","","","","","",""
"","","","","","image-button-response","106","330836","0.0-2.0-4.0-1.26","55f244e632af740012170458","D2","batch4","spm_respsonse","3634.6999999284744","img/question_5_3.jpeg","3","mat_51","8","0","0","3634.6999999284744","","","","","","","","","","","","","","","","","","","","",""
"","","","","","html-keyboard-response","107","331889","0.0-2.0-4.0-0.27","55f244e632af740012170458","D2","batch4","spm_show_trial_num","null","<p class=block-text>Trial 52 out of 60</p>","null","","","","","","","","","","","","","","","","","","","","","","","","","",""
"","","","","","image-button-response","108","340916","0.0-2.0-4.0-1.27","55f244e632af740012170458","D2","batch4","spm_respsonse","9020.199999928474","img/question_5_4.jpeg","2","mat_52","2","0","0","9020.199999928474","","","","","","","","","","","","","","","","","","","","",""
"","","","","","html-keyboard-response","109","341982","0.0-2.0-4.0-0.28","55f244e632af740012170458","D2","batch4","spm_show_trial_num","null","<p class=block-text>Trial 53 out of 60</p>","null","","","","","","","","","","","","","","","","","","","","","","","","","",""
"","","","","","image-button-response","110","347607","0.0-2.0-4.0-1.28","55f244e632af740012170458","D2","batch4","spm_respsonse","5617.900000095367","img/question_5_5.jpeg","7","mat_53","1","0","0","5617.900000095367","","","","","","","","","","","","","","","","","","","","",""
"","","","","","html-keyboard-response","111","348661","0.0-2.0-4.0-0.29","55f244e632af740012170458","D2","batch4","spm_show_trial_num","null","<p class=block-text>Trial 54 out of 60</p>","null","","","","","","","","","","","","","","","","","","","","","","","","","",""
"","","","","","image-button-response","112","354843","0.0-2.0-4.0-1.29","55f244e632af740012170458","D2","batch4","spm_respsonse","6176","img/question_5_6.jpeg","6","mat_54","5","0","0","6176","","","","","","","","","","","","","","","","","","","","",""
"","","","","","html-keyboard-response","113","355913","0.0-2.0-4.0-0.30","55f244e632af740012170458","D2","batch4","spm_show_trial_num","null","<p class=block-text>Trial 55 out of 60</p>","null","","","","","","","","","","","","","","","","","","","","","","","","","",""
"","","","","","image-button-response","114","370071","0.0-2.0-4.0-1.30","55f244e632af740012170458","D2","batch4","spm_respsonse","14151.599999904633","img/question_5_7.jpeg","3","mat_55","1","0","0","14151.599999904633","","","","","","","","","","","","","","","","","","","","",""
"","","","","","html-keyboard-response","115","371128","0.0-2.0-4.0-0.31","55f244e632af740012170458","D2","batch4","spm_show_trial_num","null","<p class=block-text>Trial 56 out of 60</p>","null","","","","","","","","","","","","","","","","","","","","","","","","","",""
"","","","","","image-button-response","116","376647","0.0-2.0-4.0-1.31","55f244e632af740012170458","D2","batch4","spm_respsonse","5511.5","img/question_5_8.jpeg","5","mat_56","6","1","1","5511.5","","","","","","","","","","","","","","","","","","","","",""
"","","","","","html-keyboard-response","117","377700","0.0-2.0-4.0-0.32","55f244e632af740012170458","D2","batch4","spm_show_trial_num","null","<p class=block-text>Trial 57 out of 60</p>","null","","","","","","","","","","","","","","","","","","","","","","","","","",""
"","","","","","image-button-response","118","385679","0.0-2.0-4.0-1.32","55f244e632af740012170458","D2","batch4","spm_respsonse","7971.299999952316","img/question_5_9.jpeg","2","mat_57","3","1","1","7971.299999952316","","","","","","","","","","","","","","","","","","","","",""
"","","","","","html-keyboard-response","119","386739","0.0-2.0-4.0-0.33","55f244e632af740012170458","D2","batch4","spm_show_trial_num","null","<p class=block-text>Trial 58 out of 60</p>","null","","","","","","","","","","","","","","","","","","","","","","","","","",""
"","","","","","image-button-response","120","400990","0.0-2.0-4.0-1.33","55f244e632af740012170458","D2","batch4","spm_respsonse","14243.599999904633","img/question_5_10.jpeg","5","mat_58","2","0","0","14243.599999904633","","","","","","","","","","","","","","","","","","","","",""
"","","","","","html-keyboard-response","121","402054","0.0-2.0-4.0-0.34","55f244e632af740012170458","D2","batch4","spm_show_trial_num","null","<p class=block-text>Trial 59 out of 60</p>","null","","","","","","","","","","","","","","","","","","","","","","","","","",""
"","","","","","image-button-response","122","416852","0.0-2.0-4.0-1.34","55f244e632af740012170458","D2","batch4","spm_respsonse","14791.5","img/question_5_11.jpeg","0","mat_59","4","0","0","14791.5","","","","","","","","","","","","","","","","","","","","",""
"","","","","","html-keyboard-response","123","417914","0.0-2.0-4.0-0.35","55f244e632af740012170458","D2","batch4","spm_show_trial_num","null","<p class=block-text>Trial 60 out of 60</p>","null","","","","","","","","","","","","","","","","","","","","","","","","","",""
"","","","","","image-button-response","124","432601","0.0-2.0-4.0-1.35","55f244e632af740012170458","D2","batch4","spm_respsonse","14679.799999952316","img/question_5_12.jpeg","2","mat_60","5","0","0","14679.799999952316","","","","","","","","","","","","","","","","","","","","",""
"","","","","","html-button-response","125","465859","0.0-2.0-5.0","55f244e632af740012170458","D2","batch4","spm_goodbye","33003.300000071526","<p class= block-text>This concludes the Standard Progressive Matrix game. Thank you for your responses!<br> When you are ready, click the button continue</p>","0","","","","","","","","","","","","","","","","","","","","","","","","","",""
"true","","","","","fullscreen","126","468417","0.0-3.0-0.0","55f244e632af740012170458","D2","batch4","","","","","","","","","","","","","","","","","","","","","","","","","","","","","",""
"","","","","","instructions","127","500839","0.0-3.0-1.0-0.0","55f244e632af740012170458","D2","batch4","","32420.100000023842","","","","","","","","[{""page_index"":0,""viewing_time"":28133.600000023842},{""page_index"":1,""viewing_time"":4286.099999904633}]","","","","","","","","","","","","","","","","","","","",""
"","","","","","html-button-response","128","501904","0.0-3.0-1.0-1.0-0.0","55f244e632af740012170458","D2","batch4","pattern_enter_quiz","1062.8999999761581","<p class=block-text> Let's answer a few questions <br>","0","","","","","","","","","","","","","","","","","","","","","","","","","",""
"","","","","","html-button-response","129","503896","0.0-3.0-1.0-1.0-1.0","55f244e632af740012170458","D2","batch4","pattern_quiz","1990.1000000238419","<p class = block-text>True or False: You will have as much time as you want to make each choice. <br></p>","1","","","true","","","","","","","","","","","","","","","","","","","","","","",""
"","","","","","html-button-response","130","504611","0.0-3.0-1.0-1.0-2.0","55f244e632af740012170458","D2","batch4","pattern_quiz_feedback","710.6999999284744","<p class = block-text>Correct! You should make your choice <strong> as fast as you can</strong>.</p>","0","","","","","","","","","","","","","","","","","","","","","","","","","",""
"","","","","","html-button-response","131","506914","0.0-3.0-1.0-1.0-3.0","55f244e632af740012170458","D2","batch4","pattern_quiz","2302","<p class = block-text>True or False: You will look for 4 pieces in black or white color connected in a row either horizontally, vertically or diagonally. <br></p>","0","","","true","","","","","","","","","","","","","","","","","","","","","","",""
"","","","","","html-button-response","132","507491","0.0-3.0-1.0-1.0-4.0","55f244e632af740012170458","D2","batch4","pattern_quiz_feedback","575.2999999523163","<p class = block-text>Correct! </p>","0","","","","","","","","","","","","","","","","","","","","","","","","","",""
"","","","","","html-button-response","133","508506","0.0-3.0-2.0","55f244e632af740012170458","D2","batch4","pattern_enter_practice","1012","<p class=block-text> Now that you've understood the game, let's do a few practice trials before we start!<br> <br>","0","","","","","","","","","","","","","","","","","","","","","","","","","",""
"","","","","","image-keyboard-response","134","511839","0.0-3.0-3.0-0.0","55f244e632af740012170458","D2","batch4","pattern_practice","3329.5","stim/prac_yes_16_ver_w1.png","f","","f","true","","","","","","","","","","","","","","","","","","","","","","",""
"","","","","","html-keyboard-response","135","512467","0.0-3.0-3.0-1.0","55f244e632af740012170458","D2","batch4","pattern_feedback","113","<p style=""font-size:30px;color:green;"">Correct!</p>","control","","","","","","","","","","","","","","","","","","","","","","","","","",""
"","","","","","image-keyboard-response","136","513464","0.0-3.0-3.0-0.1","55f244e632af740012170458","D2","batch4","pattern_practice","992.2999999523163","stim/prac_yes_18_hor_w1.png","f","","f","true","","","","","","","","","","","","","","","","","","","","","","",""
"","","","","","html-keyboard-response","137","514487","0.0-3.0-3.0-1.1","55f244e632af740012170458","D2","batch4","pattern_feedback","null","<p style=""font-size:30px;color:green;"">Correct!</p>","null","","","","","","","","","","","","","","","","","","","","","","","","","",""
"","","","","","image-keyboard-response","138","515443","0.0-3.0-3.0-0.2","55f244e632af740012170458","D2","batch4","pattern_practice","952.5","stim/prac_no_18_1.png","j","","j","true","","","","","","","","","","","","","","","","","","","","","","",""
"","","","","","html-keyboard-response","139","516469","0.0-3.0-3.0-1.2","55f244e632af740012170458","D2","batch4","pattern_feedback","null","<p style=""font-size:30px;color:green;"">Correct!</p>","null","","","","","","","","","","","","","","","","","","","","","","","","","",""
"","","","","","image-keyboard-response","140","517740","0.0-3.0-3.0-0.3","55f244e632af740012170458","D2","batch4","pattern_practice","1267.7000000476837","stim/prac_no_16_1.png","j","","j","true","","","","","","","","","","","","","","","","","","","","","","",""
"","","","","","html-keyboard-response","141","518760","0.0-3.0-3.0-1.3","55f244e632af740012170458","D2","batch4","pattern_feedback","null","<p style=""font-size:30px;color:green;"">Correct!</p>","null","","","","","","","","","","","","","","","","","","","","","","","","","",""
"","","","","","image-keyboard-response","142","520779","0.0-3.0-3.0-0.4","55f244e632af740012170458","D2","batch4","pattern_practice","2011.6000000238419","stim/prac_yes_20_dia_b1.png","f","","f","true","","","","","","","","","","","","","","","","","","","","","","",""
"","","","","","html-keyboard-response","143","521784","0.0-3.0-3.0-1.4","55f244e632af740012170458","D2","batch4","pattern_feedback","null","<p style=""font-size:30px;color:green;"">Correct!</p>","null","","","","","","","","","","","","","","","","","","","","","","","","","",""
"","","","","","html-button-response","144","532729","0.0-3.0-4.0","55f244e632af740012170458","D2","batch4","pattern_enter_official_trials","10941","<p class=block-text> Good job! You are done with practice trials!<br>
        You responded correctly on 100% of the trials.<br>
        Press the button below to start official trials. Now you won't see any feedback about your response</p>","0","","","","","","","","","","","","","","","","","","","","","","","","","",""
"","","","","","html-keyboard-response","145","533532","0.0-3.0-5.0-0.0","55f244e632af740012170458","D2","batch4","pattern_show_trial_num","null","<p class=block-text>Trial 1 out of 78</p>","null","","","","","","","","","","","","","","","","","","","","","","","","","",""
"","","","","","image-keyboard-response","146","535011","0.0-3.0-5.0-1.0","55f244e632af740012170458","D2","batch4","pattern_response","1473.6999999284744","stim/yes_26_dia_w2_w.png","j","pattern_50","f","false","","","","1473.6999999284744","false","0","","","","","","","","","","","","","","","","",""
"","","","","","html-keyboard-response","147","536341","0.0-3.0-5.0-0.1","55f244e632af740012170458","D2","batch4","pattern_show_trial_num","null","<p class=block-text>Trial 2 out of 78</p>","null","","","","","","","","","","","","","","","","","","","","","","","","","",""
"","","","","","image-keyboard-response","148","539095","0.0-3.0-5.0-1.1","55f244e632af740012170458","D2","batch4","pattern_response","2750","stim/no_58_1_w.png","j","pattern_35","j","true","","","","2750","true","1","","","","","","","","","","","","","","","","",""
"","","","","","html-keyboard-response","149","540405","0.0-3.0-5.0-0.2","55f244e632af740012170458","D2","batch4","pattern_show_trial_num","null","<p class=block-text>Trial 3 out of 78</p>","null","","","","","","","","","","","","","","","","","","","","","","","","","",""
"","","","","","image-keyboard-response","150","542127","0.0-3.0-5.0-1.2","55f244e632af740012170458","D2","batch4","pattern_response","1717","stim/no_30_1_b.png","j","pattern_13","j","true","","","","1717","true","2","","","","","","","","","","","","","","","","",""
"","","","","","html-keyboard-response","151","543447","0.0-3.0-5.0-0.3","55f244e632af740012170458","D2","batch4","pattern_show_trial_num","null","<p class=block-text>Trial 4 out of 78</p>","null","","","","","","","","","","","","","","","","","","","","","","","","","",""
"","","","","","image-keyboard-response","152","546012","0.0-3.0-5.0-1.3","55f244e632af740012170458","D2","batch4","pattern_response","2559.7000000476837","stim/no_36_1_b.png","j","pattern_17","j","true","","","","2559.7000000476837","true","3","","","","","","","","","","","","","","","","",""
"","","","","","html-keyboard-response","153","547338","0.0-3.0-5.0-0.4","55f244e632af740012170458","D2","batch4","pattern_show_trial_num","null","<p class=block-text>Trial 5 out of 78</p>","null","","","","","","","","","","","","","","","","","","","","","","","","","",""
"","","","","","image-keyboard-response","154","548035","0.0-3.0-5.0-1.4","55f244e632af740012170458","D2","batch4","pattern_response","694.3000000715256","stim/no_12_1.png","j","pattern_01","j","true","","","","694.3000000715256","true","4","","","","","","","","","","","","","","","","",""
"","","","","","html-keyboard-response","155","549349","0.0-3.0-5.0-0.5","55f244e632af740012170458","D2","batch4","pattern_show_trial_num","null","<p class=block-text>Trial 6 out of 78</p>","null","","","","","","","","","","","","","","","","","","","","","","","","","",""
"","","","","","image-keyboard-response","156","552679","0.0-3.0-5.0-1.5","55f244e632af740012170458","D2","batch4","pattern_response","3325.5999999046326","stim/yes_42_dia_w1_w.png","j","pattern_64","f","false","","","","3325.5999999046326","false","4","","","","","","","","","","","","","","","","",""
"","","","","","html-keyboard-response","157","553998","0.0-3.0-5.0-0.6","55f244e632af740012170458","D2","batch4","pattern_show_trial_num","null","<p class=block-text>Trial 7 out of 78</p>","null","","","","","","","","","","","","","","","","","","","","","","","","","",""
"","","","","","image-keyboard-response","158","558160","0.0-3.0-5.0-1.6","55f244e632af740012170458","D2","batch4","pattern_response","4158.699999928474","stim/no_67_1.png","j","pattern_39","j","true","","","","4158.699999928474","true","5","","","","","","","","","","","","","","","","",""
"","","","","","html-keyboard-response","159","559483","0.0-3.0-5.0-0.7","55f244e632af740012170458","D2","batch4","pattern_show_trial_num","null","<p class=block-text>Trial 8 out of 78</p>","null","","","","","","","","","","","","","","","","","","","","","","","","","",""
"","","","","","image-keyboard-response","160","560463","0.0-3.0-5.0-1.7","55f244e632af740012170458","D2","batch4","pattern_response","973.5999999046326","stim/yes_12_hor_w1_w.png","f","pattern_42","f","true","","","","973.5999999046326","true","6","","","","","","","","","","","","","","","","",""
"","","","","","html-keyboard-response","161","561775","0.0-3.0-5.0-0.8","55f244e632af740012170458","D2","batch4","pattern_show_trial_num","null","<p class=block-text>Trial 9 out of 78</p>","null","","","","","","","","","","","","","","","","","","","","","","","","","",""
"","","","","","image-keyboard-response","162","563119","0.0-3.0-5.0-1.8","55f244e632af740012170458","D2","batch4","pattern_response","1339.8999999761581","stim/yes_30_ver_b1_b.png","f","pattern_54","f","true","","","","1339.8999999761581","true","7","","","","","","","","","","","","","","","","",""
"","","","","","html-keyboard-response","163","564430","0.0-3.0-5.0-0.9","55f244e632af740012170458","D2","batch4","pattern_show_trial_num","null","<p class=block-text>Trial 10 out of 78</p>","null","","","","","","","","","","","","","","","","","","","","","","","","","",""
"","","","","","image-keyboard-response","164","565862","0.0-3.0-5.0-1.9","55f244e632af740012170458","D2","batch4","pattern_response","1428","stim/yes_17_ver_b1_b.png","f","pattern_46","f","true","","","","1428","true","8","","","","","","","","","","","","","","","","",""
"","","","","","html-keyboard-response","165","567180","0.0-3.0-5.0-0.10","55f244e632af740012170458","D2","batch4","pattern_show_trial_num","null","<p class=block-text>Trial 11 out of 78</p>","null","","","","","","","","","","","","","","","","","","","","","","","","","",""
"","","","","","image-keyboard-response","166","569036","0.0-3.0-5.0-1.10","55f244e632af740012170458","D2","batch4","pattern_response","1851.2999999523163","stim/yes_49_hor_w1_b.png","f","pattern_70","f","true","","","","1851.2999999523163","true","9","","","","","","","","","","","","","","","","",""
"","","","","","html-keyboard-response","167","570344","0.0-3.0-5.0-0.11","55f244e632af740012170458","D2","batch4","pattern_show_trial_num","null","<p class=block-text>Trial 12 out of 78</p>","null","","","","","","","","","","","","","","","","","","","","","","","","","",""
"","","","","","image-keyboard-response","168","571031","0.0-3.0-5.0-1.11","55f244e632af740012170458","D2","batch4","pattern_response","681.9000000953674","stim/yes_37_hor_w1_w.png","f","pattern_60","f","true","","","","681.9000000953674","true","10","","","","","","","","","","","","","","","","",""
"","","","","","html-keyboard-response","169","572354","0.0-3.0-5.0-0.12","55f244e632af740012170458","D2","batch4","pattern_show_trial_num","null","<p class=block-text>Trial 13 out of 78</p>","null","","","","","","","","","","","","","","","","","","","","","","","","","",""
"","","","","","image-keyboard-response","170","574227","0.0-3.0-5.0-1.12","55f244e632af740012170458","D2","batch4","pattern_response","1868.9000000953674","stim/yes_46_ver_b1_b.png","j","pattern_68","f","false","","","","1868.9000000953674","false","10","","","","","","","","","","","","","","","","",""
"","","","","","html-keyboard-response","171","575545","0.0-3.0-5.0-0.13","55f244e632af740012170458","D2","batch4","pattern_show_trial_num","null","<p class=block-text>Trial 14 out of 78</p>","null","","","","","","","","","","","","","","","","","","","","","","","","","",""
"","","","","","image-keyboard-response","172","576927","0.0-3.0-5.0-1.13","55f244e632af740012170458","D2","batch4","pattern_response","1376.6000000238419","stim/no_47_1_b.png","j","pattern_27","j","true","","","","1376.6000000238419","true","11","","","","","","","","","","","","","","","","",""
"","","","","","html-keyboard-response","173","578243","0.0-3.0-5.0-0.14","55f244e632af740012170458","D2","batch4","pattern_show_trial_num","null","<p class=block-text>Trial 15 out of 78</p>","null","","","","","","","","","","","","","","","","","","","","","","","","","",""
"","","","","","image-keyboard-response","174","579472","0.0-3.0-5.0-1.14","55f244e632af740012170458","D2","batch4","pattern_response","1225.5","stim/yes_51_dia_b1.png","j","pattern_72","f","false","","","","1225.5","false","11","","","","","","","","","","","","","","","","",""
"","","","","","html-keyboard-response","175","580805","0.0-3.0-5.0-0.15","55f244e632af740012170458","D2","batch4","pattern_show_trial_num","null","<p class=block-text>Trial 16 out of 78</p>","null","","","","","","","","","","","","","","","","","","","","","","","","","",""
"","","","","","image-keyboard-response","176","582311","0.0-3.0-5.0-1.15","55f244e632af740012170458","D2","batch4","pattern_response","1501.6000000238419","stim/no_39_1_w.png","j","pattern_21","j","true","","","","1501.6000000238419","true","12","","","","","","","","","","","","","","","","",""
"","","","","","html-keyboard-response","177","583624","0.0-3.0-5.0-0.16","55f244e632af740012170458","D2","batch4","pattern_show_trial_num","null","<p class=block-text>Trial 17 out of 78</p>","null","","","","","","","","","","","","","","","","","","","","","","","","","",""
"","","","","","image-keyboard-response","178","584751","0.0-3.0-5.0-1.16","55f244e632af740012170458","D2","batch4","pattern_response","1121.1000000238419","stim/yes_29_hor_b1_b.png","f","pattern_52","f","true","","","","1121.1000000238419","true","13","","","","","","","","","","","","","","","","",""
"","","","","","html-keyboard-response","179","586067","0.0-3.0-5.0-0.17","55f244e632af740012170458","D2","batch4","pattern_show_trial_num","null","<p class=block-text>Trial 18 out of 78</p>","null","","","","","","","","","","","","","","","","","","","","","","","","","",""
"","","","","","image-keyboard-response","180","587463","0.0-3.0-5.0-1.17","55f244e632af740012170458","D2","batch4","pattern_response","1391.7000000476837","stim/no_49_2_b.png","j","pattern_29","j","true","","","","1391.7000000476837","true","14","","","","","","","","","","","","","","","","",""
"","","","","","html-keyboard-response","181","588780","0.0-3.0-5.0-0.18","55f244e632af740012170458","D2","batch4","pattern_show_trial_num","null","<p class=block-text>Trial 19 out of 78</p>","null","","","","","","","","","","","","","","","","","","","","","","","","","",""
"","","","","","image-keyboard-response","182","589784","0.0-3.0-5.0-1.18","55f244e632af740012170458","D2","batch4","pattern_response","999.7000000476837","stim/no_25_1_b.png","j","pattern_09","j","true","","","","999.7000000476837","true","15","","","","","","","","","","","","","","","","",""
"","","","","","html-keyboard-response","183","591104","0.0-3.0-5.0-0.19","55f244e632af740012170458","D2","batch4","pattern_show_trial_num","null","<p class=block-text>Trial 20 out of 78</p>","null","","","","","","","","","","","","","","","","","","","","","","","","","",""
"","","","","","image-keyboard-response","184","593191","0.0-3.0-5.0-1.19","55f244e632af740012170458","D2","batch4","pattern_response","2081.4000000953674","stim/yes_63_dia_b1.png","j","pattern_78","f","false","","","","2081.4000000953674","false","15","","","","","","","","","","","","","","","","",""
"","","","","","html-keyboard-response","185","594503","0.0-3.0-5.0-0.20","55f244e632af740012170458","D2","batch4","pattern_show_trial_num","null","<p class=block-text>Trial 21 out of 78</p>","null","","","","","","","","","","","","","","","","","","","","","","","","","",""
"","","","","","image-keyboard-response","186","596315","0.0-3.0-5.0-1.20","55f244e632af740012170458","D2","batch4","pattern_response","1807.6000000238419","stim/no_51_1.png","j","pattern_31","j","true","","","","1807.6000000238419","true","16","","","","","","","","","","","","","","","","",""
"","","","","","html-keyboard-response","187","597638","0.0-3.0-5.0-0.21","55f244e632af740012170458","D2","batch4","pattern_show_trial_num","null","<p class=block-text>Trial 22 out of 78</p>","null","","","","","","","","","","","","","","","","","","","","","","","","","",""
"","","","","","image-keyboard-response","188","598627","0.0-3.0-5.0-1.21","55f244e632af740012170458","D2","batch4","pattern_response","983.5999999046326","stim/no_28_2.png","j","pattern_11","j","true","","","","983.5999999046326","true","17","","","","","","","","","","","","","","","","",""
"","","","","","html-keyboard-response","189","599947","0.0-3.0-5.0-0.22","55f244e632af740012170458","D2","batch4","pattern_show_trial_num","null","<p class=block-text>Trial 23 out of 78</p>","null","","","","","","","","","","","","","","","","","","","","","","","","","",""
"","","","","","image-keyboard-response","190","601427","0.0-3.0-5.0-1.22","55f244e632af740012170458","D2","batch4","pattern_response","1475.7000000476837","stim/no_45_1_w.png","j","pattern_25","j","true","","","","1475.7000000476837","true","18","","","","","","","","","","","","","","","","",""
"","","","","","html-keyboard-response","191","602733","0.0-3.0-5.0-0.23","55f244e632af740012170458","D2","batch4","pattern_show_trial_num","null","<p class=block-text>Trial 24 out of 78</p>","null","","","","","","","","","","","","","","","","","","","","","","","","","",""
"","","","","","image-keyboard-response","192","603523","0.0-3.0-5.0-1.23","55f244e632af740012170458","D2","batch4","pattern_response","785.5","stim/yes_36_ver_w1_w.png","f","pattern_58","f","true","","","","785.5","true","19","","","","","","","","","","","","","","","","",""
"","","","","","html-keyboard-response","193","604837","0.0-3.0-5.0-0.24","55f244e632af740012170458","D2","batch4","pattern_show_trial_num","null","<p class=block-text>Trial 25 out of 78</p>","null","","","","","","","","","","","","","","","","","","","","","","","","","",""
"","","","","","image-keyboard-response","194","605415","0.0-3.0-5.0-1.24","55f244e632af740012170458","D2","batch4","pattern_response","575.0999999046326","stim/no_15_1_w.png","j","pattern_03","j","true","","","","575.0999999046326","true","20","","","","","","","","","","","","","","","","",""
"","","","","","html-keyboard-response","195","606731","0.0-3.0-5.0-0.25","55f244e632af740012170458","D2","batch4","pattern_show_trial_num","null","<p class=block-text>Trial 26 out of 78</p>","null","","","","","","","","","","","","","","","","","","","","","","","","","",""
"","","","","","image-keyboard-response","196","608727","0.0-3.0-5.0-1.25","55f244e632af740012170458","D2","batch4","pattern_response","1992.7000000476837","stim/yes_58_dia_w1_w.png","j","pattern_76","f","false","","","","1992.7000000476837","false","20","","","","","","","","","","","","","","","","",""
"","","","","","html-keyboard-response","197","610051","0.0-3.0-5.0-0.26","55f244e632af740012170458","D2","batch4","pattern_show_trial_num","null","<p class=block-text>Trial 27 out of 78</p>","null","","","","","","","","","","","","","","","","","","","","","","","","","",""
"","","","","","image-keyboard-response","198","611748","0.0-3.0-5.0-1.26","55f244e632af740012170458","D2","batch4","pattern_response","1691.3999999761581","stim/no_37_2_w.png","j","pattern_19","j","true","","","","1691.3999999761581","true","21","","","","","","","","","","","","","","","","",""
"","","","","","html-keyboard-response","199","613069","0.0-3.0-5.0-0.27","55f244e632af740012170458","D2","batch4","pattern_show_trial_num","null","<p class=block-text>Trial 28 out of 78</p>","null","","","","","","","","","","","","","","","","","","","","","","","","","",""
"","","","","","image-keyboard-response","200","614111","0.0-3.0-5.0-1.27","55f244e632af740012170458","D2","batch4","pattern_response","1037.5","stim/yes_15_dia_b1u_b.png","f","pattern_44","f","true","","","","1037.5","true","22","","","","","","","","","","","","","","","","",""
"","","","","","html-keyboard-response","201","615421","0.0-3.0-5.0-0.28","55f244e632af740012170458","D2","batch4","pattern_show_trial_num","null","<p class=block-text>Trial 29 out of 78</p>","null","","","","","","","","","","","","","","","","","","","","","","","","","",""
"","","","","","image-keyboard-response","202","617963","0.0-3.0-5.0-1.28","55f244e632af740012170458","D2","batch4","pattern_response","2535.7000000476837","stim/no_33_1_b.png","j","pattern_15","j","true","","","","2535.7000000476837","true","23","","","","","","","","","","","","","","","","",""
"","","","","","html-keyboard-response","203","619285","0.0-3.0-5.0-0.29","55f244e632af740012170458","D2","batch4","pattern_show_trial_num","null","<p class=block-text>Trial 30 out of 78</p>","null","","","","","","","","","","","","","","","","","","","","","","","","","",""
"","","","","","image-keyboard-response","204","620303","0.0-3.0-5.0-1.29","55f244e632af740012170458","D2","batch4","pattern_response","1012.5","stim/yes_70_ver_b1.png","f","pattern_80","f","true","","","","1012.5","true","24","","","","","","","","","","","","","","","","",""
"","","","","","html-keyboard-response","205","621621","0.0-3.0-5.0-0.30","55f244e632af740012170458","D2","batch4","pattern_show_trial_num","null","<p class=block-text>Trial 31 out of 78</p>","null","","","","","","","","","","","","","","","","","","","","","","","","","",""
"","","","","","image-keyboard-response","206","622888","0.0-3.0-5.0-1.30","55f244e632af740012170458","D2","batch4","pattern_response","1263.1000000238419","stim/yes_53_ver_b1_b.png","j","pattern_74","f","false","","","","1263.1000000238419","false","24","","","","","","","","","","","","","","","","",""
"","","","","","html-keyboard-response","207","624200","0.0-3.0-5.0-0.31","55f244e632af740012170458","D2","batch4","pattern_show_trial_num","null","<p class=block-text>Trial 32 out of 78</p>","null","","","","","","","","","","","","","","","","","","","","","","","","","",""
"","","","","","image-keyboard-response","208","625079","0.0-3.0-5.0-1.31","55f244e632af740012170458","D2","batch4","pattern_response","875.1000000238419","stim/yes_33_dia_w1_w.png","f","pattern_56","f","true","","","","875.1000000238419","true","25","","","","","","","","","","","","","","","","",""
"","","","","","html-keyboard-response","209","626385","0.0-3.0-5.0-0.32","55f244e632af740012170458","D2","batch4","pattern_show_trial_num","null","<p class=block-text>Trial 33 out of 78</p>","null","","","","","","","","","","","","","","","","","","","","","","","","","",""
"","","","","","image-keyboard-response","210","627163","0.0-3.0-5.0-1.32","55f244e632af740012170458","D2","batch4","pattern_response","773.1000000238419","stim/yes_39_hor_w1_w.png","f","pattern_62","f","true","","","","773.1000000238419","true","26","","","","","","","","","","","","","","","","",""
"","","","","","html-keyboard-response","211","628476","0.0-3.0-5.0-0.33","55f244e632af740012170458","D2","batch4","pattern_show_trial_num","null","<p class=block-text>Trial 34 out of 78</p>","null","","","","","","","","","","","","","","","","","","","","","","","","","",""
"","","","","","image-keyboard-response","212","630115","0.0-3.0-5.0-1.33","55f244e632af740012170458","D2","batch4","pattern_response","1634.8999999761581","stim/no_43_2_b.png","j","pattern_23","j","true","","","","1634.8999999761581","true","27","","","","","","","","","","","","","","","","",""
"","","","","","html-keyboard-response","213","631441","0.0-3.0-5.0-0.34","55f244e632af740012170458","D2","batch4","pattern_show_trial_num","null","<p class=block-text>Trial 35 out of 78</p>","null","","","","","","","","","","","","","","","","","","","","","","","","","",""
"","","","","","image-keyboard-response","214","633640","0.0-3.0-5.0-1.34","55f244e632af740012170458","D2","batch4","pattern_response","2194.399999976158","stim/yes_44_ver_w1_w.png","f","pattern_66","f","true","","","","2194.399999976158","true","28","","","","","","","","","","","","","","","","",""
"","","","","","html-keyboard-response","215","634954","0.0-3.0-5.0-0.35","55f244e632af740012170458","D2","batch4","pattern_show_trial_num","null","<p class=block-text>Trial 36 out of 78</p>","null","","","","","","","","","","","","","","","","","","","","","","","","","",""
"","","","","","image-keyboard-response","216","637898","0.0-3.0-5.0-1.35","55f244e632af740012170458","D2","batch4","pattern_response","2941.8000000715256","stim/no_53_1_b.png","j","pattern_33","j","true","","","","2941.8000000715256","true","29","","","","","","","","","","","","","","","","",""
"","","","","","html-keyboard-response","217","639226","0.0-3.0-5.0-0.36","55f244e632af740012170458","D2","batch4","pattern_show_trial_num","null","<p class=block-text>Trial 37 out of 78</p>","null","","","","","","","","","","","","","","","","","","","","","","","","","",""
"","","","","","image-keyboard-response","218","640683","0.0-3.0-5.0-1.36","55f244e632af740012170458","D2","batch4","pattern_response","1452","stim/yes_23_ver_b1.png","f","pattern_48","f","true","","","","1452","true","30","","","","","","","","","","","","","","","","",""
"","","","","","html-keyboard-response","219","641994","0.0-3.0-5.0-0.37","55f244e632af740012170458","D2","batch4","pattern_show_trial_num","null","<p class=block-text>Trial 38 out of 78</p>","null","","","","","","","","","","","","","","","","","","","","","","","","","",""
"","","","","","image-keyboard-response","220","643155","0.0-3.0-5.0-1.37","55f244e632af740012170458","D2","batch4","pattern_response","1153.6000000238419","stim/no_22_1_b.png","j","pattern_07","j","true","","","","1153.6000000238419","true","31","","","","","","","","","","","","","","","","",""
"","","","","","html-keyboard-response","221","644470","0.0-3.0-5.0-0.38","55f244e632af740012170458","D2","batch4","pattern_show_trial_num","null","<p class=block-text>Trial 39 out of 78</p>","null","","","","","","","","","","","","","","","","","","","","","","","","","",""
"","","","","","image-keyboard-response","222","645847","0.0-3.0-5.0-1.38","55f244e632af740012170458","D2","batch4","pattern_response","1374.1999999284744","stim/no_18_1_b.png","j","pattern_05","j","true","","","","1374.1999999284744","true","32","","","","","","","","","","","","","","","","",""
"","","","","","image-keyboard-response","223","648899","0.0-3.0-6.0","55f244e632af740012170458","D2","batch4","attention_check","2542.7000000476837","stim/empty_board.png","j","","j","true","","","","","","","500","[""f"",""j""]","","","","","","","","","","","","","","",""
"","","","","","html-keyboard-response","224","649707","0.0-3.0-7.0-0.0","55f244e632af740012170458","D2","batch4","pattern_show_trial_num","null","<p class=block-text>Trial 40 out of 78</p>","null","","","","","","","","","","","","","","","","","","","","","","","","","",""
"","","","","","image-keyboard-response","225","651179","0.0-3.0-7.0-1.0","55f244e632af740012170458","D2","batch4","pattern_response","1466.4000000953674","stim/no_20_1_w.png","j","pattern_06","j","true","","","","1466.4000000953674","true","33","","","","","","","","","","","","","","","","",""
"","","","","","html-keyboard-response","226","652504","0.0-3.0-7.0-0.1","55f244e632af740012170458","D2","batch4","pattern_show_trial_num","null","<p class=block-text>Trial 41 out of 78</p>","null","","","","","","","","","","","","","","","","","","","","","","","","","",""
"","","","","","image-keyboard-response","227","653503","0.0-3.0-7.0-1.1","55f244e632af740012170458","D2","batch4","pattern_response","994.5","stim/yes_31_hor_b1.png","f","pattern_55","f","true","","","","994.5","true","34","","","","","","","","","","","","","","","","",""
"","","","","","html-keyboard-response","228","654814","0.0-3.0-7.0-0.2","55f244e632af740012170458","D2","batch4","pattern_show_trial_num","null","<p class=block-text>Trial 42 out of 78</p>","null","","","","","","","","","","","","","","","","","","","","","","","","","",""
"","","","","","image-keyboard-response","229","655523","0.0-3.0-7.0-1.2","55f244e632af740012170458","D2","batch4","pattern_response","704.2999999523163","stim/no_13_2_b.png","j","pattern_02","j","true","","","","704.2999999523163","true","35","","","","","","","","","","","","","","","","",""
"","","","","","html-keyboard-response","230","656837","0.0-3.0-7.0-0.3","55f244e632af740012170458","D2","batch4","pattern_show_trial_num","null","<p class=block-text>Trial 43 out of 78</p>","null","","","","","","","","","","","","","","","","","","","","","","","","","",""
"","","","","","image-keyboard-response","231","659062","0.0-3.0-7.0-1.3","55f244e632af740012170458","D2","batch4","pattern_response","2222.100000023842","stim/no_52_1.png","j","pattern_32","j","true","","","","2222.100000023842","true","36","","","","","","","","","","","","","","","","",""
"","","","","","html-keyboard-response","232","660373","0.0-3.0-7.0-0.4","55f244e632af740012170458","D2","batch4","pattern_show_trial_num","null","<p class=block-text>Trial 44 out of 78</p>","null","","","","","","","","","","","","","","","","","","","","","","","","","",""
"","","","","","image-keyboard-response","233","661914","0.0-3.0-7.0-1.4","55f244e632af740012170458","D2","batch4","pattern_response","1535.6000000238419","stim/yes_43_ver_w1_w.png","f","pattern_65","f","true","","","","1535.6000000238419","true","37","","","","","","","","","","","","","","","","",""
"","","","","","html-keyboard-response","234","663224","0.0-3.0-7.0-0.5","55f244e632af740012170458","D2","batch4","pattern_show_trial_num","null","<p class=block-text>Trial 45 out of 78</p>","null","","","","","","","","","","","","","","","","","","","","","","","","","",""
"","","","","","image-keyboard-response","235","665391","0.0-3.0-7.0-1.5","55f244e632af740012170458","D2","batch4","pattern_response","2162.399999976158","stim/no_55_1_w.png","j","pattern_34","j","true","","","","2162.399999976158","true","38","","","","","","","","","","","","","","","","",""
"","","","","","html-keyboard-response","236","666715","0.0-3.0-7.0-0.6","55f244e632af740012170458","D2","batch4","pattern_show_trial_num","null","<p class=block-text>Trial 46 out of 78</p>","null","","","","","","","","","","","","","","","","","","","","","","","","","",""
"","","","","","image-keyboard-response","237","668607","0.0-3.0-7.0-1.6","55f244e632af740012170458","D2","batch4","pattern_response","1885.6000000238419","stim/no_34_1_b.png","j","pattern_16","j","true","","","","1885.6000000238419","true","39","","","","","","","","","","","","","","","","",""
"","","","","","html-keyboard-response","238","669931","0.0-3.0-7.0-0.7","55f244e632af740012170458","D2","batch4","pattern_show_trial_num","null","<p class=block-text>Trial 47 out of 78</p>","null","","","","","","","","","","","","","","","","","","","","","","","","","",""
"","","","","","image-keyboard-response","239","673560","0.0-3.0-7.0-1.7","55f244e632af740012170458","D2","batch4","pattern_response","3623.9000000953674","stim/yes_48_dia_w1_w.png","j","pattern_69","f","false","","","","3623.9000000953674","false","39","","","","","","","","","","","","","","","","",""
"","","","","","html-keyboard-response","240","674884","0.0-3.0-7.0-0.8","55f244e632af740012170458","D2","batch4","pattern_show_trial_num","null","<p class=block-text>Trial 48 out of 78</p>","null","","","","","","","","","","","","","","","","","","","","","","","","","",""
"","","","","","image-keyboard-response","241","677911","0.0-3.0-7.0-1.8","55f244e632af740012170458","D2","batch4","pattern_response","3023.1999999284744","stim/no_62_1_w.png","j","pattern_36","j","true","","","","3023.1999999284744","true","40","","","","","","","","","","","","","","","","",""
"","","","","","html-keyboard-response","242","679267","0.0-3.0-7.0-0.9","55f244e632af740012170458","D2","batch4","pattern_show_trial_num","null","<p class=block-text>Trial 49 out of 78</p>","null","","","","","","","","","","","","","","","","","","","","","","","","","",""
"","","","","","image-keyboard-response","243","681027","0.0-3.0-7.0-1.9","55f244e632af740012170458","D2","batch4","pattern_response","1754.5","stim/no_50_1.png","j","pattern_30","j","true","","","","1754.5","true","41","","","","","","","","","","","","","","","","",""
"","","","","","html-keyboard-response","244","682339","0.0-3.0-7.0-0.10","55f244e632af740012170458","D2","batch4","pattern_show_trial_num","null","<p class=block-text>Trial 50 out of 78</p>","null","","","","","","","","","","","","","","","","","","","","","","","","","",""
"","","","","","image-keyboard-response","245","683971","0.0-3.0-7.0-1.10","55f244e632af740012170458","D2","batch4","pattern_response","1627","stim/no_26_1_w.png","j","pattern_10","j","true","","","","1627","true","42","","","","","","","","","","","","","","","","",""
"","","","","","html-keyboard-response","246","685285","0.0-3.0-7.0-0.11","55f244e632af740012170458","D2","batch4","pattern_show_trial_num","null","<p class=block-text>Trial 51 out of 78</p>","null","","","","","","","","","","","","","","","","","","","","","","","","","",""
"","","","","","image-keyboard-response","247","688017","0.0-3.0-7.0-1.11","55f244e632af740012170458","D2","batch4","pattern_response","2730.5","stim/yes_29_ver_w1.png","f","pattern_53","f","true","","","","2730.5","true","43","","","","","","","","","","","","","","","","",""
"","","","","","html-keyboard-response","248","689331","0.0-3.0-7.0-0.12","55f244e632af740012170458","D2","batch4","pattern_show_trial_num","null","<p class=block-text>Trial 52 out of 78</p>","null","","","","","","","","","","","","","","","","","","","","","","","","","",""
"","","","","","image-keyboard-response","249","690371","0.0-3.0-7.0-1.12","55f244e632af740012170458","D2","batch4","pattern_response","1033.8000000715256","stim/yes_28_ver_b1.png","f","pattern_51","f","true","","","","1033.8000000715256","true","44","","","","","","","","","","","","","","","","",""
"","","","","","html-keyboard-response","250","691682","0.0-3.0-7.0-0.13","55f244e632af740012170458","D2","batch4","pattern_show_trial_num","null","<p class=block-text>Trial 53 out of 78</p>","null","","","","","","","","","","","","","","","","","","","","","","","","","",""
"","","","","","image-keyboard-response","251","693419","0.0-3.0-7.0-1.13","55f244e632af740012170458","D2","batch4","pattern_response","1731.1000000238419","stim/no_23_1.png","j","pattern_08","j","true","","","","1731.1000000238419","true","45","","","","","","","","","","","","","","","","",""
"","","","","","html-keyboard-response","252","694742","0.0-3.0-7.0-0.14","55f244e632af740012170458","D2","batch4","pattern_show_trial_num","null","<p class=block-text>Trial 54 out of 78</p>","null","","","","","","","","","","","","","","","","","","","","","","","","","",""
"","","","","","image-keyboard-response","253","695696","0.0-3.0-7.0-1.14","55f244e632af740012170458","D2","batch4","pattern_response","950.8000000715256","stim/yes_67_hor_b1.png","f","pattern_79","f","true","","","","950.8000000715256","true","46","","","","","","","","","","","","","","","","",""
"","","","","","html-keyboard-response","254","696999","0.0-3.0-7.0-0.15","55f244e632af740012170458","D2","batch4","pattern_show_trial_num","null","<p class=block-text>Trial 55 out of 78</p>","null","","","","","","","","","","","","","","","","","","","","","","","","","",""
"","","","","","image-keyboard-response","255","699751","0.0-3.0-7.0-1.15","55f244e632af740012170458","D2","batch4","pattern_response","2748.1999999284744","stim/no_46_1_b.png","j","pattern_26","j","true","","","","2748.1999999284744","true","47","","","","","","","","","","","","","","","","",""
"","","","","","html-keyboard-response","256","701068","0.0-3.0-7.0-0.16","55f244e632af740012170458","D2","batch4","pattern_show_trial_num","null","<p class=block-text>Trial 56 out of 78</p>","null","","","","","","","","","","","","","","","","","","","","","","","","","",""
"","","","","","image-keyboard-response","257","703415","0.0-3.0-7.0-1.16","55f244e632af740012170458","D2","batch4","pattern_response","2341.6999999284744","stim/yes_52_ver_w1.png","j","pattern_73","f","false","","","","2341.6999999284744","false","47","","","","","","","","","","","","","","","","",""
"","","","","","html-keyboard-response","258","704728","0.0-3.0-7.0-0.17","55f244e632af740012170458","D2","batch4","pattern_show_trial_num","null","<p class=block-text>Trial 57 out of 78</p>","null","","","","","","","","","","","","","","","","","","","","","","","","","",""
"","","","","","image-keyboard-response","259","706988","0.0-3.0-7.0-1.17","55f244e632af740012170458","D2","batch4","pattern_response","2254","stim/no_70_2.png","j","pattern_40","j","true","","","","2254","true","48","","","","","","","","","","","","","","","","",""
"","","","","","html-keyboard-response","260","708290","0.0-3.0-7.0-0.18","55f244e632af740012170458","D2","batch4","pattern_show_trial_num","null","<p class=block-text>Trial 58 out of 78</p>","null","","","","","","","","","","","","","","","","","","","","","","","","","",""
"","","","","","image-keyboard-response","261","709995","0.0-3.0-7.0-1.18","55f244e632af740012170458","D2","batch4","pattern_response","1699.7999999523163","stim/yes_38_hor_b1_b.png","f","pattern_61","f","true","","","","1699.7999999523163","true","49","","","","","","","","","","","","","","","","",""
"","","","","","html-keyboard-response","262","711318","0.0-3.0-7.0-0.19","55f244e632af740012170458","D2","batch4","pattern_show_trial_num","null","<p class=block-text>Trial 59 out of 78</p>","null","","","","","","","","","","","","","","","","","","","","","","","","","",""
"","","","","","image-keyboard-response","263","712031","0.0-3.0-7.0-1.19","55f244e632af740012170458","D2","batch4","pattern_response","709.5","stim/yes_14_hor_b1_w.png","f","pattern_43","f","true","","","","709.5","true","50","","","","","","","","","","","","","","","","",""
"","","","","","html-keyboard-response","264","713337","0.0-3.0-7.0-0.20","55f244e632af740012170458","D2","batch4","pattern_show_trial_num","null","<p class=block-text>Trial 60 out of 78</p>","null","","","","","","","","","","","","","","","","","","","","","","","","","",""
"","","","","","image-keyboard-response","265","715839","0.0-3.0-7.0-1.20","55f244e632af740012170458","D2","batch4","pattern_response","2497","stim/no_36_2_w.png","j","pattern_18","j","true","","","","2497","true","51","","","","","","","","","","","","","","","","",""
"","","","","","html-keyboard-response","266","717155","0.0-3.0-7.0-0.21","55f244e632af740012170458","D2","batch4","pattern_show_trial_num","null","<p class=block-text>Trial 61 out of 78</p>","null","","","","","","","","","","","","","","","","","","","","","","","","","",""
"","","","","","image-keyboard-response","267","720996","0.0-3.0-7.0-1.21","55f244e632af740012170458","D2","batch4","pattern_response","3835.8000000715256","stim/yes_37_dia_w1.png","j","pattern_59","f","false","","","","3835.8000000715256","false","51","","","","","","","","","","","","","","","","",""
"","","","","","html-keyboard-response","268","722314","0.0-3.0-7.0-0.22","55f244e632af740012170458","D2","batch4","pattern_show_trial_num","null","<p class=block-text>Trial 62 out of 78</p>","null","","","","","","","","","","","","","","","","","","","","","","","","","",""
"","","","","","image-keyboard-response","269","723451","0.0-3.0-7.0-1.22","55f244e632af740012170458","D2","batch4","pattern_response","1131.7999999523163","stim/yes_55_hor_w1_w.png","f","pattern_75","f","true","","","","1131.7999999523163","true","52","","","","","","","","","","","","","","","","",""
"","","","","","html-keyboard-response","270","724780","0.0-3.0-7.0-0.23","55f244e632af740012170458","D2","batch4","pattern_show_trial_num","null","<p class=block-text>Trial 63 out of 78</p>","null","","","","","","","","","","","","","","","","","","","","","","","","","",""
"","","","","","image-keyboard-response","271","727159","0.0-3.0-7.0-1.23","55f244e632af740012170458","D2","batch4","pattern_response","2376.399999976158","stim/no_48_1_w.png","j","pattern_28","j","true","","","","2376.399999976158","true","53","","","","","","","","","","","","","","","","",""
"","","","","","html-keyboard-response","272","728478","0.0-3.0-7.0-0.24","55f244e632af740012170458","D2","batch4","pattern_show_trial_num","null","<p class=block-text>Trial 64 out of 78</p>","null","","","","","","","","","","","","","","","","","","","","","","","","","",""
"","","","","","image-keyboard-response","273","731348","0.0-3.0-7.0-1.24","55f244e632af740012170458","D2","batch4","pattern_response","2864.7999999523163","stim/no_65_1_b.png","j","pattern_38","j","true","","","","2864.7999999523163","true","54","","","","","","","","","","","","","","","","",""
"","","","","","html-keyboard-response","274","732662","0.0-3.0-7.0-0.25","55f244e632af740012170458","D2","batch4","pattern_show_trial_num","null","<p class=block-text>Trial 65 out of 78</p>","null","","","","","","","","","","","","","","","","","","","","","","","","","",""
"","","","","","image-keyboard-response","275","734683","0.0-3.0-7.0-1.25","55f244e632af740012170458","D2","batch4","pattern_response","2015.7000000476837","stim/no_29_1_b.png","j","pattern_12","j","true","","","","2015.7000000476837","true","55","","","","","","","","","","","","","","","","",""
"","","","","","html-keyboard-response","276","736003","0.0-3.0-7.0-0.26","55f244e632af740012170458","D2","batch4","pattern_show_trial_num","null","<p class=block-text>Trial 66 out of 78</p>","null","","","","","","","","","","","","","","","","","","","","","","","","","",""
"","","","","","image-keyboard-response","277","738599","0.0-3.0-7.0-1.26","55f244e632af740012170458","D2","batch4","pattern_response","2591.2999999523163","stim/yes_60_ver_b1_b.png","f","pattern_77","f","true","","","","2591.2999999523163","true","56","","","","","","","","","","","","","","","","",""
"","","","","","html-keyboard-response","278","739915","0.0-3.0-7.0-0.27","55f244e632af740012170458","D2","batch4","pattern_show_trial_num","null","<p class=block-text>Trial 67 out of 78</p>","null","","","","","","","","","","","","","","","","","","","","","","","","","",""
"","","","","","image-keyboard-response","279","741436","0.0-3.0-7.0-1.27","55f244e632af740012170458","D2","batch4","pattern_response","1517.9000000953674","stim/no_42_1_w.png","j","pattern_22","j","true","","","","1517.9000000953674","true","57","","","","","","","","","","","","","","","","",""
"","","","","","html-keyboard-response","280","742759","0.0-3.0-7.0-0.28","55f244e632af740012170458","D2","batch4","pattern_show_trial_num","null","<p class=block-text>Trial 68 out of 78</p>","null","","","","","","","","","","","","","","","","","","","","","","","","","",""
"","","","","","image-keyboard-response","281","744043","0.0-3.0-7.0-1.28","55f244e632af740012170458","D2","batch4","pattern_response","1279.7999999523163","stim/yes_22_ver_w1.png","f","pattern_47","f","true","","","","1279.7999999523163","true","58","","","","","","","","","","","","","","","","",""
"","","","","","html-keyboard-response","282","745364","0.0-3.0-7.0-0.29","55f244e632af740012170458","D2","batch4","pattern_show_trial_num","null","<p class=block-text>Trial 69 out of 78</p>","null","","","","","","","","","","","","","","","","","","","","","","","","","",""
"","","","","","image-keyboard-response","283","746251","0.0-3.0-7.0-1.29","55f244e632af740012170458","D2","batch4","pattern_response","882.8999999761581","stim/yes_17_dia_w1.png","f","pattern_45","f","true","","","","882.8999999761581","true","59","","","","","","","","","","","","","","","","",""
"","","","","","html-keyboard-response","284","747558","0.0-3.0-7.0-0.30","55f244e632af740012170458","D2","batch4","pattern_show_trial_num","null","<p class=block-text>Trial 70 out of 78</p>","null","","","","","","","","","","","","","","","","","","","","","","","","","",""
"","","","","","image-keyboard-response","285","748671","0.0-3.0-7.0-1.30","55f244e632af740012170458","D2","batch4","pattern_response","1108.7999999523163","stim/no_17_1_w.png","j","pattern_04","j","true","","","","1108.7999999523163","true","60","","","","","","","","","","","","","","","","",""
"","","","","","html-keyboard-response","286","749980","0.0-3.0-7.0-0.31","55f244e632af740012170458","D2","batch4","pattern_show_trial_num","null","<p class=block-text>Trial 71 out of 78</p>","null","","","","","","","","","","","","","","","","","","","","","","","","","",""
"","","","","","image-keyboard-response","287","750971","0.0-3.0-7.0-1.31","55f244e632af740012170458","D2","batch4","pattern_response","985.6000000238419","stim/yes_25_hor_b1_b.png","f","pattern_49","f","true","","","","985.6000000238419","true","61","","","","","","","","","","","","","","","","",""
"","","","","","html-keyboard-response","288","752294","0.0-3.0-7.0-0.32","55f244e632af740012170458","D2","batch4","pattern_show_trial_num","null","<p class=block-text>Trial 72 out of 78</p>","null","","","","","","","","","","","","","","","","","","","","","","","","","",""
"","","","","","image-keyboard-response","289","753252","0.0-3.0-7.0-1.32","55f244e632af740012170458","D2","batch4","pattern_response","954","stim/yes_40_dia_b1_b.png","f","pattern_63","f","true","","","","954","true","62","","","","","","","","","","","","","","","","",""
"","","","","","html-keyboard-response","290","754570","0.0-3.0-7.0-0.33","55f244e632af740012170458","D2","batch4","pattern_show_trial_num","null","<p class=block-text>Trial 73 out of 78</p>","null","","","","","","","","","","","","","","","","","","","","","","","","","",""
"","","","","","image-keyboard-response","291","756611","0.0-3.0-7.0-1.33","55f244e632af740012170458","D2","batch4","pattern_response","2036.7999999523163","stim/no_38_1_b.png","j","pattern_20","j","true","","","","2036.7999999523163","true","63","","","","","","","","","","","","","","","","",""
"","","","","","html-keyboard-response","292","757935","0.0-3.0-7.0-0.34","55f244e632af740012170458","D2","batch4","pattern_show_trial_num","null","<p class=block-text>Trial 74 out of 78</p>","null","","","","","","","","","","","","","","","","","","","","","","","","","",""
"","","","","","image-keyboard-response","293","759655","0.0-3.0-7.0-1.34","55f244e632af740012170458","D2","batch4","pattern_response","1714.7000000476837","stim/yes_35_dia_b1.png","f","pattern_57","f","true","","","","1714.7000000476837","true","64","","","","","","","","","","","","","","","","",""
"","","","","","html-keyboard-response","294","760968","0.0-3.0-7.0-0.35","55f244e632af740012170458","D2","batch4","pattern_show_trial_num","null","<p class=block-text>Trial 75 out of 78</p>","null","","","","","","","","","","","","","","","","","","","","","","","","","",""
"","","","","","image-keyboard-response","295","762427","0.0-3.0-7.0-1.35","55f244e632af740012170458","D2","batch4","pattern_response","1453.8999999761581","stim/no_32_1_w.png","j","pattern_14","j","true","","","","1453.8999999761581","true","65","","","","","","","","","","","","","","","","",""
"","","","","","html-keyboard-response","296","763746","0.0-3.0-7.0-0.36","55f244e632af740012170458","D2","batch4","pattern_show_trial_num","null","<p class=block-text>Trial 76 out of 78</p>","null","","","","","","","","","","","","","","","","","","","","","","","","","",""
"","","","","","image-keyboard-response","297","767284","0.0-3.0-7.0-1.36","55f244e632af740012170458","D2","batch4","pattern_response","3533.7000000476837","stim/yes_50_dia_w1.png","j","pattern_71","f","false","","","","3533.7000000476837","false","65","","","","","","","","","","","","","","","","",""
"","","","","","html-keyboard-response","298","768600","0.0-3.0-7.0-0.37","55f244e632af740012170458","D2","batch4","pattern_show_trial_num","null","<p class=block-text>Trial 77 out of 78</p>","null","","","","","","","","","","","","","","","","","","","","","","","","","",""
"","","","","","image-keyboard-response","299","770243","0.0-3.0-7.0-1.37","55f244e632af740012170458","D2","batch4","pattern_response","1637.2999999523163","stim/yes_45_hor_b2_b.png","f","pattern_67","f","true","","","","1637.2999999523163","true","66","","","","","","","","","","","","","","","","",""
"","","","","","html-keyboard-response","300","771550","0.0-3.0-7.0-0.38","55f244e632af740012170458","D2","batch4","pattern_show_trial_num","null","<p class=block-text>Trial 78 out of 78</p>","null","","","","","","","","","","","","","","","","","","","","","","","","","",""
"","","","","","image-keyboard-response","301","774363","0.0-3.0-7.0-1.38","55f244e632af740012170458","D2","batch4","pattern_response","2808.5","stim/no_44_1.png","j","pattern_24","j","true","","","","2808.5","true","67","","","","","","","","","","","","","","","","",""
"","","","","","html-button-response","302","781568","0.0-3.0-8.0","55f244e632af740012170458","D2","batch4","","6690","<p class = block-text>This concludes the 4-in-a-row detection game.Thank you for your responses!<br>
            You responded correctly on 86% of the trials.<br>
            When you are ready, press ""Continue"" button to continue </p>","0","","","","","","","","","","","","","","","","","","","","","","","","","",""
"true","","","","","fullscreen","303","783846","0.0-4.0-0.0","55f244e632af740012170458","D2","batch4","","","","","","","","","","","","","","","","","","","","","","","","","","","","","",""
"","","","","","instructions","304","815433","0.0-4.0-1.0-0.0-0.0","55f244e632af740012170458","D2","batch4","tol-instructions","31586.399999976158","","","","","","","","[{""page_index"":0,""viewing_time"":6038.100000023842},{""page_index"":1,""viewing_time"":1896.1000000238419},{""page_index"":2,""viewing_time"":5139},{""page_index"":3,""viewing_time"":5861.299999952316},{""page_index"":4,""viewing_time"":1887.7000000476837},{""page_index"":5,""viewing_time"":7215.799999952316},{""page_index"":6,""viewing_time"":3548.100000023842}]","","","","","","","","","","","","","","","","","","","",""
"","","","","","html-button-response","305","816283","0.0-4.0-1.0-1.0-0.0","55f244e632af740012170458","D2","batch4","tol_enter_quiz","848.5","<p class=block-text> Let's answer a few questions <br>","0","","","","","","","","","","","","","","","","","","","","","","","","","",""
"","","","","","html-button-response","306","818926","0.0-4.0-1.0-1.0-1.0","55f244e632af740012170458","D2","batch4","tol_quiz","2640.3000000715256","<p class = block-text>True or False: You can only move the ball on top of a peg. <br></p>","0","","","true","","","","","","","","","","","","","","","","","","","","","","",""
"","","","","","html-button-response","307","819803","0.0-4.0-1.0-1.0-2.0","55f244e632af740012170458","D2","batch4","tol_quiz_feedback","874.8000000715256","<p class = block-text>Correct! You can only move the ball on top of a peg.</p>","0","","","","","","","","","","","","","","","","","","","","","","","","","",""
"","","","","","html-button-response","308","822159","0.0-4.0-1.0-1.0-3.0","55f244e632af740012170458","D2","batch4","tol_quiz","2354.6999999284744","<p class = block-text>True or False: You should try to match your board with the target board with fewest moves possible. <br></p>","0","","","true","","","","","","","","","","","","","","","","","","","","","","",""
"","","","","","html-button-response","309","822763","0.0-4.0-1.0-1.0-4.0","55f244e632af740012170458","D2","batch4","tol_quiz_feedback","602.5","<p class = block-text>Correct! </p>","0","","","","","","","","","","","","","","","","","","","","","","","","","",""
"","","","","","html-button-response","310","824438","0.0-4.0-2.0","55f244e632af740012170458","D2","batch4","","1672.1999999284744","<p class=block-text> Now that you've understood the game, let's practice a few easier examples before we start!<br> <br>","0","","","","","","","","","","","","","","","","","","","","","","","","","",""
"","","","","","single-stim-button","311","828121","0.0-4.0-3.0-0.0","55f244e632af740012170458","D2","batch4","tol_practice","3680","","","","","","","","","","","","","","tol_peg_2","3680","3680","0","[[1,2,0],[0,0],[0]]","1","[[1,2,0],[0,0],[3]]","practice","3680","","","","","",""
"","","","","","single-stim-button","312","829120","0.0-4.0-3.0-1.0","55f244e632af740012170458","D2","batch4","tol_practice","997","","","","","","","","","","","","","","tol_peg_3","997","997","0","[[1,2,0],[0,0],[3]]","1","[[1,2,0],[0,0],[3]]","practice","997","","","","","",""
"","","","","","poldrack-single-stim","313","830128","0.0-4.0-4.0","55f244e632af740012170458","D2","batch4","tol_feedback","-1","","","","","true","","","","","","","","","","1000","1000","500","","","","","","-1","none","true","","0",""
"","","","","","single-stim-button","314","835164","0.0-4.0-5.0-0.0","55f244e632af740012170458","D2","batch4","tol_practice","5032","","","","","","","","","","","","","","tol_peg_1","5032","5032","0","[[1,0,0],[3,0],[0]]","2","[[0,0,0],[3,1],[2]]","practice","5032","","","","","",""
"","","","","","single-stim-button","315","836116","0.0-4.0-5.0-1.0","55f244e632af740012170458","D2","batch4","tol_practice","950","","","","","","","","","","","","","","tol_peg_3","950","950","0","[[1,0,0],[3,0],[2]]","2","[[0,0,0],[3,1],[2]]","practice","950","","","","","",""
"","","","","","single-stim-button","316","838151","0.0-4.0-5.1-0.1","55f244e632af740012170458","D2","batch4","tol_practice","2033","","","","","","","","","","","","","","tol_peg_1","2033","2033","0","[[0,0,0],[3,0],[2]]","3","[[0,0,0],[3,1],[2]]","practice","2033","","","","","",""
"","","","","","single-stim-button","317","838889","0.0-4.0-5.1-1.1","55f244e632af740012170458","D2","batch4","tol_practice","736","","","","","","","","","","","","","","tol_peg_2","736","736","0","[[0,0,0],[3,1],[2]]","3","[[0,0,0],[3,1],[2]]","practice","736","","","","","",""
"","","","","","poldrack-single-stim","318","839892","0.0-4.0-6.0","55f244e632af740012170458","D2","batch4","tol_feedback","-1","","","","","true","","","","","","","","","","1000","1000","500","","","","","","-1","none","true","","0",""
"","","","","","single-stim-button","319","842492","0.0-4.0-7.0-0.0","55f244e632af740012170458","D2","batch4","tol_practice","2598","","","","","","","","","","","","","","tol_peg_2","2598","2598","0","[[1,2,0],[0,0],[0]]","4","[[1,0,0],[2,0],[3]]","practice","2598","","","","","",""
"","","","","","single-stim-button","320","843625","0.0-4.0-7.0-1.0","55f244e632af740012170458","D2","batch4","tol_practice","1131","","","","","","","","","","","","","","tol_peg_3","1131","1131","0","[[1,2,0],[0,0],[3]]","4","[[1,0,0],[2,0],[3]]","practice","1131","","","","","",""
"","","","","","single-stim-button","321","844306","0.0-4.0-7.1-0.1","55f244e632af740012170458","D2","batch4","tol_practice","678","","","","","","","","","","","","","","tol_peg_1","678","678","0","[[1,0,0],[0,0],[3]]","5","[[1,0,0],[2,0],[3]]","practice","678","","","","","",""
"","","","","","single-stim-button","322","844877","0.0-4.0-7.1-1.1","55f244e632af740012170458","D2","batch4","tol_practice","570","","","","","","","","","","","","","","tol_peg_2","570","570","0","[[1,0,0],[2,0],[3]]","5","[[1,0,0],[2,0],[3]]","practice","570","","","","","",""
"","","","","","poldrack-single-stim","323","845883","0.0-4.0-8.0","55f244e632af740012170458","D2","batch4","tol_feedback","-1","","","","","true","","","","","","","","","","1000","1000","500","","","","","","-1","none","true","","0",""
"","","","","","html-button-response","324","847020","0.0-4.0-9.0","55f244e632af740012170458","D2","batch4","tol_instruction","1135","<div class = centerbox><p class = center-block-text>Great job! You are done with practice trials<br>You are about to start official trials.<br> <br> Problem <strong>1</strong> out of 25 problems</p></div>","0","","","","","","","","","","","","","","","","","","","","","","","","","",""
"","","","","","single-stim-button","325","852001","0.0-4.0-10.0-0.0","55f244e632af740012170458","D2","batch4","tol_tohand","3977","","","","","","","","","","","","","","tol_peg_2","3977","3977","0","[[1,2,0],[0,0],[0]]","1","[[1,3,0],[2,0],[0]]","0","0","","","","","","3"
"","","","","","single-stim-button","326","852798","0.0-4.0-10.0-1.0","55f244e632af740012170458","D2","batch4","tol_toboard","795","","","","","","","","","","","","","","tol_peg_3","795","795","0","[[1,2,0],[0,0],[3]]","1","[[1,3,0],[2,0],[0]]","0","0","","","","","","3"
"","","","","","single-stim-button","327","853516","0.0-4.0-10.1-0.1","55f244e632af740012170458","D2","batch4","tol_tohand","716","","","","","","","","","","","","","","tol_peg_1","716","716","0","[[1,0,0],[0,0],[3]]","2","[[1,3,0],[2,0],[0]]","0","0","","","","","","3"
"","","","","","single-stim-button","328","854104","0.0-4.0-10.1-1.1","55f244e632af740012170458","D2","batch4","tol_toboard","586","","","","","","","","","","","","","","tol_peg_2","586","586","0","[[1,0,0],[2,0],[3]]","2","[[1,3,0],[2,0],[0]]","0","0","","","","","","3"
"","","","","","single-stim-button","329","854648","0.0-4.0-10.2-0.2","55f244e632af740012170458","D2","batch4","tol_tohand","542","","","","","","","","","","","","","","tol_peg_3","542","542","0","[[1,0,0],[2,0],[0]]","3","[[1,3,0],[2,0],[0]]","0","0","","","","","","3"
"","","","","","single-stim-button","330","855434","0.0-4.0-10.2-1.2","55f244e632af740012170458","D2","batch4","tol_toboard","783","","","","","","","","","","","","","","tol_peg_1","783","783","0","[[1,3,0],[2,0],[0]]","3","[[1,3,0],[2,0],[0]]","0","0","","","","","","3"
"","","","","","poldrack-single-stim","331","856437","0.0-4.0-11.0","55f244e632af740012170458","D2","batch4","tol_feedback","-1","","","","","true","","","","","","","","","","1000","1000","500","","","","","","-1","none","true","3977","5235",""
"","","","","","html-button-response","332","857510","0.0-4.0-12.0","55f244e632af740012170458","D2","batch4","tol_trial_num","1071.1000000238419","<div class = centerbox><p class = center-block-text>problem <strong>2</strong> out of 25 problems</p></div>","0","","","","","","","","","","","","","","","","","","","","","","","","","",""
"","","","","","single-stim-button","333","863053","0.0-4.0-13.0-0.0","55f244e632af740012170458","D2","batch4","tol_tohand","5541","","","","","","","","","","","","","","tol_peg_1","5541","5541","0","[[1,0,0],[3,0],[0]]","1","[[2,1,3],[0,0],[0]]","1","0","","","","","","5"
"","","","","","single-stim-button","334","864042","0.0-4.0-13.0-1.0","55f244e632af740012170458","D2","batch4","tol_toboard","985","","","","","","","","","","","","","","tol_peg_3","985","985","0","[[1,0,0],[3,0],[2]]","1","[[2,1,3],[0,0],[0]]","1","0","","","","","","5"
"","","","","","single-stim-button","335","864764","0.0-4.0-13.1-0.1","55f244e632af740012170458","D2","batch4","tol_tohand","721","","","","","","","","","","","","","","tol_peg_1","721","721","0","[[0,0,0],[3,0],[2]]","2","[[2,1,3],[0,0],[0]]","1","0","","","","","","5"
"","","","","","single-stim-button","336","865228","0.0-4.0-13.1-1.1","55f244e632af740012170458","D2","batch4","tol_toboard","463","","","","","","","","","","","","","","tol_peg_2","463","463","0","[[0,0,0],[3,1],[2]]","2","[[2,1,3],[0,0],[0]]","1","0","","","","","","5"
"","","","","","single-stim-button","337","866171","0.0-4.0-13.2-0.2","55f244e632af740012170458","D2","batch4","tol_tohand","940","","","","","","","","","","","","","","tol_peg_3","940","940","0","[[0,0,0],[3,1],[0]]","3","[[2,1,3],[0,0],[0]]","1","0","","","","","","5"
"","","","","","single-stim-button","338","867003","0.0-4.0-13.2-1.2","55f244e632af740012170458","D2","batch4","tol_toboard","830","","","","","","","","","","","","","","tol_peg_1","830","830","0","[[2,0,0],[3,1],[0]]","3","[[2,1,3],[0,0],[0]]","1","0","","","","","","5"
"","","","","","single-stim-button","339","867602","0.0-4.0-13.3-0.3","55f244e632af740012170458","D2","batch4","tol_tohand","598","","","","","","","","","","","","","","tol_peg_2","598","598","0","[[2,0,0],[3,0],[0]]","4","[[2,1,3],[0,0],[0]]","1","0","","","","","","5"
"","","","","","single-stim-button","340","867996","0.0-4.0-13.3-1.3","55f244e632af740012170458","D2","batch4","tol_toboard","393","","","","","","","","","","","","","","tol_peg_1","393","393","0","[[2,1,0],[3,0],[0]]","4","[[2,1,3],[0,0],[0]]","1","0","","","","","","5"
"","","","","","single-stim-button","341","868477","0.0-4.0-13.4-0.4","55f244e632af740012170458","D2","batch4","tol_tohand","478","","","","","","","","","","","","","","tol_peg_2","478","478","0","[[2,1,0],[0,0],[0]]","5","[[2,1,3],[0,0],[0]]","1","0","","","","","","5"
"","","","","","single-stim-button","342","869115","0.0-4.0-13.4-1.4","55f244e632af740012170458","D2","batch4","tol_toboard","637","","","","","","","","","","","","","","tol_peg_1","637","637","0","[[2,1,3],[0,0],[0]]","5","[[2,1,3],[0,0],[0]]","1","0","","","","","","5"
"","","","","","poldrack-single-stim","343","870119","0.0-4.0-14.0","55f244e632af740012170458","D2","batch4","tol_feedback","-1","","","","","true","","","","","","","","","","1000","1000","500","","","","","","-1","none","true","5541","8278",""
"","","","","","html-button-response","344","870887","0.0-4.0-15.0","55f244e632af740012170458","D2","batch4","tol_trial_num","766.4000000953674","<div class = centerbox><p class = center-block-text>problem <strong>3</strong> out of 25 problems</p></div>","0","","","","","","","","","","","","","","","","","","","","","","","","","",""
"","","","","","single-stim-button","345","878045","0.0-4.0-16.0-0.0","55f244e632af740012170458","D2","batch4","tol_tohand","7156","","","","","","","","","","","","","","tol_peg_1","7156","7156","0","[[2,0,0],[0,0],[1]]","1","[[1,2,0],[3,0],[0]]","2","0","","","","","","4"
"","","","","","single-stim-button","346","879671","0.0-4.0-16.0-1.0","55f244e632af740012170458","D2","batch4","tol_toboard","1624","","","","","","","","","","","","","","tol_peg_2","1624","1624","0","[[2,0,0],[3,0],[1]]","1","[[1,2,0],[3,0],[0]]","2","0","","","","","","4"
"","","","","","single-stim-button","347","880919","0.0-4.0-16.1-0.1","55f244e632af740012170458","D2","batch4","tol_tohand","1246","","","","","","","","","","","","","","tol_peg_1","1246","1246","0","[[0,0,0],[3,0],[1]]","2","[[1,2,0],[3,0],[0]]","2","0","","","","","","4"
"","","","","","single-stim-button","348","881885","0.0-4.0-16.1-1.1","55f244e632af740012170458","D2","batch4","tol_toboard","964","","","","","","","","","","","","","","tol_peg_2","964","964","0","[[0,0,0],[3,2],[1]]","2","[[1,2,0],[3,0],[0]]","2","0","","","","","","4"
