"success","timeout","failed_images","failed_audio","failed_video","trial_type","trial_index","time_elapsed","internal_node_id","subject_id","study_id","session_id","view_history","rt","stimulus","response","task","correct","answer","item","fiar_detect_rt","fiar_detect_correct","total_correct_fiar_detect","post_trial_gap","choices","mouse_click","stim_duration","block_duration","timing_post_trial","current_position","tol_num_moves_made","tol_target","tol_problem_id","tol_rt","key_press","possible_responses","tol_correct","preplanning","tol_rt_per_trial","tol_min_moves","spm_correct","spm_rt"
"true","false","[]","[]","[]","preload","0","10981","0.0-0.0","56169e435c62cf000f822c76","E1","batch5","","","","","","","","","","","","","","","","","","","","","","","","","","","","","",""
"true","","","","","fullscreen","1","42751","0.0-1.0-0.0","56169e435c62cf000f822c76","E1","batch5","","","","","","","","","","","","","","","","","","","","","","","","","","","","","",""
"true","","","","","fullscreen","2","51386","0.0-2.0-0.0","56169e435c62cf000f822c76","E1","batch5","","","","","","","","","","","","","","","","","","","","","","","","","","","","","",""
"","","","","","instructions","3","91584","0.0-2.0-1.0-0.0","56169e435c62cf000f822c76","E1","batch5","[{""page_index"":0,""viewing_time"":21977},{""page_index"":1,""viewing_time"":18209}]","40186","","","","","","","","","","","","","","","","","","","","","","","","","","","",""
"","","","","","html-button-response","4","94944","0.0-2.0-1.0-1.0-0.0","56169e435c62cf000f822c76","E1","batch5","","3356","<p class=block-text> Let's answer a few questions <br>","0","pattern_enter_quiz","","","","","","","","","","","","","","","","","","","","","","","","",""
"","","","","","html-button-response","5","98642","0.0-2.0-1.0-1.0-1.0","56169e435c62cf000f822c76","E1","batch5","","3690","<p class = block-text>True or False: You will have as much time as you want to make each choice. <br></p>","1","pattern_quiz","true","","","","","","","","","","","","","","","","","","","","","","","",""
"","","","","","html-button-response","6","100844","0.0-2.0-1.0-1.0-2.0","56169e435c62cf000f822c76","E1","batch5","","2197","<p class = block-text>Correct! You should make your choice <strong> as fast as you can</strong>.</p>","0","pattern_quiz_feedback","","","","","","","","","","","","","","","","","","","","","","","","",""
"","","","","","html-button-response","7","105811","0.0-2.0-1.0-1.0-3.0","56169e435c62cf000f822c76","E1","batch5","","4958","<p class = block-text>True or False: You will look for 4 pieces in black or white color connected in a row either horizontally, vertically or diagonally. <br></p>","0","pattern_quiz","true","","","","","","","","","","","","","","","","","","","","","","","",""
"","","","","","html-button-response","8","107025","0.0-2.0-1.0-1.0-4.0","56169e435c62cf000f822c76","E1","batch5","","1205","<p class = block-text>Correct! </p>","0","pattern_quiz_feedback","","","","","","","","","","","","","","","","","","","","","","","","",""
"","","","","","html-button-response","9","108844","0.0-2.0-2.0","56169e435c62cf000f822c76","E1","batch5","","1806","<p class=block-text> Now that you've understood the game, let's do a few practice trials before we start!<br> <br>","0","pattern_enter_practice","","","","","","","","","","","","","","","","","","","","","","","","",""
"","","","","","image-keyboard-response","10","110937","0.0-2.0-3.0-0.0","56169e435c62cf000f822c76","E1","batch5","","1979","stim/prac_no_18_1.png","j","pattern_practice","true","j","","","","","","","","","","","","","","","","","","","","","","",""
"","","","","","html-keyboard-response","11","111965","0.0-2.0-3.0-1.0","56169e435c62cf000f822c76","E1","batch5","","null","<p style=""font-size:30px;color:green;"">Correct!</p>","null","pattern_feedback","","","","","","","","","","","","","","","","","","","","","","","","",""
"","","","","","image-keyboard-response","12","114052","0.0-2.0-3.0-0.1","56169e435c62cf000f822c76","E1","batch5","","2077","stim/prac_no_16_1.png","j","pattern_practice","true","j","","","","","","","","","","","","","","","","","","","","","","",""
"","","","","","html-keyboard-response","13","115072","0.0-2.0-3.0-1.1","56169e435c62cf000f822c76","E1","batch5","","null","<p style=""font-size:30px;color:green;"">Correct!</p>","null","pattern_feedback","","","","","","","","","","","","","","","","","","","","","","","","",""
"","","","","","image-keyboard-response","14","115880","0.0-2.0-3.0-0.2","56169e435c62cf000f822c76","E1","batch5","","799","stim/prac_yes_16_ver_w1.png","f","pattern_practice","true","f","","","","","","","","","","","","","","","","","","","","","","",""
"","","","","","html-keyboard-response","15","116903","0.0-2.0-3.0-1.2","56169e435c62cf000f822c76","E1","batch5","","null","<p style=""font-size:30px;color:green;"">Correct!</p>","null","pattern_feedback","","","","","","","","","","","","","","","","","","","","","","","","",""
"","","","","","image-keyboard-response","16","117716","0.0-2.0-3.0-0.3","56169e435c62cf000f822c76","E1","batch5","","803","stim/prac_yes_18_hor_w1.png","f","pattern_practice","true","f","","","","","","","","","","","","","","","","","","","","","","",""
"","","","","","html-keyboard-response","17","118740","0.0-2.0-3.0-1.3","56169e435c62cf000f822c76","E1","batch5","","null","<p style=""font-size:30px;color:green;"">Correct!</p>","null","pattern_feedback","","","","","","","","","","","","","","","","","","","","","","","","",""
"","","","","","image-keyboard-response","18","119516","0.0-2.0-3.0-0.4","56169e435c62cf000f822c76","E1","batch5","","756","stim/prac_yes_20_dia_b1.png","f","pattern_practice","true","f","","","","","","","","","","","","","","","","","","","","","","",""
"","","","","","html-keyboard-response","19","120538","0.0-2.0-3.0-1.4","56169e435c62cf000f822c76","E1","batch5","","null","<p style=""font-size:30px;color:green;"">Correct!</p>","null","pattern_feedback","","","","","","","","","","","","","","","","","","","","","","","","",""
"","","","","","html-button-response","20","124948","0.0-2.0-4.0","56169e435c62cf000f822c76","E1","batch5","","4407","<p class=block-text> Good job! You are done with practice trials!<br>
        You responded correctly on 100% of the trials.<br>
        Press the button below to start official trials. Now you won't see any feedback about your response</p>","0","pattern_enter_official_trials","","","","","","","","","","","","","","","","","","","","","","","","",""
"","","","","","html-keyboard-response","21","125753","0.0-2.0-5.0-0.0","56169e435c62cf000f822c76","E1","batch5","","null","<p class=block-text>Trial 1 out of 78</p>","null","pattern_show_trial_num","","","","","","","","","","","","","","","","","","","","","","","","",""
"","","","","","image-keyboard-response","22","126988","0.0-2.0-5.0-1.0","56169e435c62cf000f822c76","E1","batch5","","1220","stim/yes_37_hor_w1_w.png","f","pattern_response","true","f","pattern_60","1220","true","1","","","","","","","","","","","","","","","","","","",""
"","","","","","html-keyboard-response","23","128314","0.0-2.0-5.0-0.1","56169e435c62cf000f822c76","E1","batch5","","null","<p class=block-text>Trial 2 out of 78</p>","null","pattern_show_trial_num","","","","","","","","","","","","","","","","","","","","","","","","",""
"","","","","","image-keyboard-response","24","131023","0.0-2.0-5.0-1.1","56169e435c62cf000f822c76","E1","batch5","","2689","stim/no_37_2_w.png","j","pattern_response","true","j","pattern_19","2689","true","2","","","","","","","","","","","","","","","","","","",""
"","","","","","html-keyboard-response","25","132338","0.0-2.0-5.0-0.2","56169e435c62cf000f822c76","E1","batch5","","null","<p class=block-text>Trial 3 out of 78</p>","null","pattern_show_trial_num","","","","","","","","","","","","","","","","","","","","","","","","",""
"","","","","","image-keyboard-response","26","133438","0.0-2.0-5.0-1.2","56169e435c62cf000f822c76","E1","batch5","","1085","stim/yes_46_ver_b1_b.png","f","pattern_response","true","f","pattern_68","1085","true","3","","","","","","","","","","","","","","","","","","",""
"","","","","","html-keyboard-response","27","134746","0.0-2.0-5.0-0.3","56169e435c62cf000f822c76","E1","batch5","","null","<p class=block-text>Trial 4 out of 78</p>","null","pattern_show_trial_num","","","","","","","","","","","","","","","","","","","","","","","","",""
"","","","","","image-keyboard-response","28","135544","0.0-2.0-5.0-1.3","56169e435c62cf000f822c76","E1","batch5","","786","stim/yes_36_ver_w1_w.png","f","pattern_response","true","f","pattern_58","786","true","4","","","","","","","","","","","","","","","","","","",""
"","","","","","html-keyboard-response","29","136856","0.0-2.0-5.0-0.4","56169e435c62cf000f822c76","E1","batch5","","null","<p class=block-text>Trial 5 out of 78</p>","null","pattern_show_trial_num","","","","","","","","","","","","","","","","","","","","","","","","",""
"","","","","","image-keyboard-response","30","137702","0.0-2.0-5.0-1.4","56169e435c62cf000f822c76","E1","batch5","","835","stim/no_15_1_w.png","j","pattern_response","true","j","pattern_03","835","true","5","","","","","","","","","","","","","","","","","","",""
"","","","","","html-keyboard-response","31","139024","0.0-2.0-5.0-0.5","56169e435c62cf000f822c76","E1","batch5","","null","<p class=block-text>Trial 6 out of 78</p>","null","pattern_show_trial_num","","","","","","","","","","","","","","","","","","","","","","","","",""
"","","","","","image-keyboard-response","32","140599","0.0-2.0-5.0-1.5","56169e435c62cf000f822c76","E1","batch5","","1562","stim/yes_33_dia_w1_w.png","j","pattern_response","false","f","pattern_56","1562","false","5","","","","","","","","","","","","","","","","","","",""
"","","","","","html-keyboard-response","33","141915","0.0-2.0-5.0-0.6","56169e435c62cf000f822c76","E1","batch5","","null","<p class=block-text>Trial 7 out of 78</p>","null","pattern_show_trial_num","","","","","","","","","","","","","","","","","","","","","","","","",""
"","","","","","image-keyboard-response","34","142754","0.0-2.0-5.0-1.6","56169e435c62cf000f822c76","E1","batch5","","827","stim/yes_23_ver_b1.png","f","pattern_response","true","f","pattern_48","827","true","6","","","","","","","","","","","","","","","","","","",""
"","","","","","html-keyboard-response","35","144071","0.0-2.0-5.0-0.7","56169e435c62cf000f822c76","E1","batch5","","null","<p class=block-text>Trial 8 out of 78</p>","null","pattern_show_trial_num","","","","","","","","","","","","","","","","","","","","","","","","",""
"","","","","","image-keyboard-response","36","145591","0.0-2.0-5.0-1.7","56169e435c62cf000f822c76","E1","batch5","","1512","stim/yes_26_dia_w2_w.png","f","pattern_response","true","f","pattern_50","1512","true","7","","","","","","","","","","","","","","","","","","",""
"","","","","","html-keyboard-response","37","146908","0.0-2.0-5.0-0.8","56169e435c62cf000f822c76","E1","batch5","","null","<p class=block-text>Trial 9 out of 78</p>","null","pattern_show_trial_num","","","","","","","","","","","","","","","","","","","","","","","","",""
"","","","","","image-keyboard-response","38","148393","0.0-2.0-5.0-1.8","56169e435c62cf000f822c76","E1","batch5","","1473","stim/no_22_1_b.png","j","pattern_response","true","j","pattern_07","1473","true","8","","","","","","","","","","","","","","","","","","",""
"","","","","","html-keyboard-response","39","149705","0.0-2.0-5.0-0.9","56169e435c62cf000f822c76","E1","batch5","","null","<p class=block-text>Trial 10 out of 78</p>","null","pattern_show_trial_num","","","","","","","","","","","","","","","","","","","","","","","","",""
"","","","","","image-keyboard-response","40","151017","0.0-2.0-5.0-1.9","56169e435c62cf000f822c76","E1","batch5","","1301","stim/no_33_1_b.png","j","pattern_response","true","j","pattern_15","1301","true","9","","","","","","","","","","","","","","","","","","",""
"","","","","","html-keyboard-response","41","152330","0.0-2.0-5.0-0.10","56169e435c62cf000f822c76","E1","batch5","","null","<p class=block-text>Trial 11 out of 78</p>","null","pattern_show_trial_num","","","","","","","","","","","","","","","","","","","","","","","","",""
"","","","","","image-keyboard-response","42","152913","0.0-2.0-5.0-1.10","56169e435c62cf000f822c76","E1","batch5","","569","stim/yes_12_hor_w1_w.png","f","pattern_response","true","f","pattern_42","569","true","10","","","","","","","","","","","","","","","","","","",""
"","","","","","html-keyboard-response","43","154228","0.0-2.0-5.0-0.11","56169e435c62cf000f822c76","E1","batch5","","null","<p class=block-text>Trial 12 out of 78</p>","null","pattern_show_trial_num","","","","","","","","","","","","","","","","","","","","","","","","",""
"","","","","","image-keyboard-response","44","156393","0.0-2.0-5.0-1.11","56169e435c62cf000f822c76","E1","batch5","","2155","stim/no_43_2_b.png","j","pattern_response","true","j","pattern_23","2155","true","11","","","","","","","","","","","","","","","","","","",""
"","","","","","html-keyboard-response","45","157708","0.0-2.0-5.0-0.12","56169e435c62cf000f822c76","E1","batch5","","null","<p class=block-text>Trial 13 out of 78</p>","null","pattern_show_trial_num","","","","","","","","","","","","","","","","","","","","","","","","",""
"","","","","","image-keyboard-response","46","158548","0.0-2.0-5.0-1.12","56169e435c62cf000f822c76","E1","batch5","","830","stim/no_12_1.png","j","pattern_response","true","j","pattern_01","830","true","12","","","","","","","","","","","","","","","","","","",""
"","","","","","html-keyboard-response","47","159866","0.0-2.0-5.0-0.13","56169e435c62cf000f822c76","E1","batch5","","null","<p class=block-text>Trial 14 out of 78</p>","null","pattern_show_trial_num","","","","","","","","","","","","","","","","","","","","","","","","",""
"","","","","","image-keyboard-response","48","160529","0.0-2.0-5.0-1.13","56169e435c62cf000f822c76","E1","batch5","","655","stim/yes_29_hor_b1_b.png","f","pattern_response","true","f","pattern_52","655","true","13","","","","","","","","","","","","","","","","","","",""
"","","","","","html-keyboard-response","49","161847","0.0-2.0-5.0-0.14","56169e435c62cf000f822c76","E1","batch5","","null","<p class=block-text>Trial 15 out of 78</p>","null","pattern_show_trial_num","","","","","","","","","","","","","","","","","","","","","","","","",""
"","","","","","image-keyboard-response","50","163784","0.0-2.0-5.0-1.14","56169e435c62cf000f822c76","E1","batch5","","1921","stim/yes_51_dia_b1.png","f","pattern_response","true","f","pattern_72","1921","true","14","","","","","","","","","","","","","","","","","","",""
"","","","","","html-keyboard-response","51","165096","0.0-2.0-5.0-0.15","56169e435c62cf000f822c76","E1","batch5","","null","<p class=block-text>Trial 16 out of 78</p>","null","pattern_show_trial_num","","","","","","","","","","","","","","","","","","","","","","","","",""
"","","","","","image-keyboard-response","52","168203","0.0-2.0-5.0-1.15","56169e435c62cf000f822c76","E1","batch5","","3095","stim/no_67_1.png","j","pattern_response","true","j","pattern_39","3095","true","15","","","","","","","","","","","","","","","","","","",""
"","","","","","html-keyboard-response","53","169524","0.0-2.0-5.0-0.16","56169e435c62cf000f822c76","E1","batch5","","null","<p class=block-text>Trial 17 out of 78</p>","null","pattern_show_trial_num","","","","","","","","","","","","","","","","","","","","","","","","",""
"","","","","","image-keyboard-response","54","172260","0.0-2.0-5.0-1.16","56169e435c62cf000f822c76","E1","batch5","","2725","stim/no_51_1.png","j","pattern_response","true","j","pattern_31","2725","true","16","","","","","","","","","","","","","","","","","","",""
"","","","","","html-keyboard-response","55","173583","0.0-2.0-5.0-0.17","56169e435c62cf000f822c76","E1","batch5","","null","<p class=block-text>Trial 18 out of 78</p>","null","pattern_show_trial_num","","","","","","","","","","","","","","","","","","","","","","","","",""
"","","","","","image-keyboard-response","56","174390","0.0-2.0-5.0-1.17","56169e435c62cf000f822c76","E1","batch5","","791","stim/yes_15_dia_b1u_b.png","f","pattern_response","true","f","pattern_44","791","true","17","","","","","","","","","","","","","","","","","","",""
"","","","","","html-keyboard-response","57","175709","0.0-2.0-5.0-0.18","56169e435c62cf000f822c76","E1","batch5","","null","<p class=block-text>Trial 19 out of 78</p>","null","pattern_show_trial_num","","","","","","","","","","","","","","","","","","","","","","","","",""
"","","","","","image-keyboard-response","58","177225","0.0-2.0-5.0-1.18","56169e435c62cf000f822c76","E1","batch5","","1493","stim/no_45_1_w.png","j","pattern_response","true","j","pattern_25","1493","true","18","","","","","","","","","","","","","","","","","","",""
"","","","","","html-keyboard-response","59","178548","0.0-2.0-5.0-0.19","56169e435c62cf000f822c76","E1","batch5","","null","<p class=block-text>Trial 20 out of 78</p>","null","pattern_show_trial_num","","","","","","","","","","","","","","","","","","","","","","","","",""
"","","","","","image-keyboard-response","60","180379","0.0-2.0-5.0-1.19","56169e435c62cf000f822c76","E1","batch5","","1820","stim/no_53_1_b.png","j","pattern_response","true","j","pattern_33","1820","true","19","","","","","","","","","","","","","","","","","","",""
"","","","","","html-keyboard-response","61","181694","0.0-2.0-5.0-0.20","56169e435c62cf000f822c76","E1","batch5","","null","<p class=block-text>Trial 21 out of 78</p>","null","pattern_show_trial_num","","","","","","","","","","","","","","","","","","","","","","","","",""
"","","","","","image-keyboard-response","62","182840","0.0-2.0-5.0-1.20","56169e435c62cf000f822c76","E1","batch5","","1136","stim/yes_49_hor_w1_b.png","f","pattern_response","true","f","pattern_70","1136","true","20","","","","","","","","","","","","","","","","","","",""
"","","","","","html-keyboard-response","63","184156","0.0-2.0-5.0-0.21","56169e435c62cf000f822c76","E1","batch5","","null","<p class=block-text>Trial 22 out of 78</p>","null","pattern_show_trial_num","","","","","","","","","","","","","","","","","","","","","","","","",""
"","","","","","image-keyboard-response","64","185529","0.0-2.0-5.0-1.21","56169e435c62cf000f822c76","E1","batch5","","1365","stim/no_28_2.png","j","pattern_response","true","j","pattern_11","1365","true","21","","","","","","","","","","","","","","","","","","",""
"","","","","","html-keyboard-response","65","186841","0.0-2.0-5.0-0.22","56169e435c62cf000f822c76","E1","batch5","","null","<p class=block-text>Trial 23 out of 78</p>","null","pattern_show_trial_num","","","","","","","","","","","","","","","","","","","","","","","","",""
"","","","","","image-keyboard-response","66","188714","0.0-2.0-5.0-1.22","56169e435c62cf000f822c76","E1","batch5","","1862","stim/no_39_1_w.png","j","pattern_response","true","j","pattern_21","1862","true","22","","","","","","","","","","","","","","","","","","",""
"","","","","","html-keyboard-response","67","190030","0.0-2.0-5.0-0.23","56169e435c62cf000f822c76","E1","batch5","","null","<p class=block-text>Trial 24 out of 78</p>","null","pattern_show_trial_num","","","","","","","","","","","","","","","","","","","","","","","","",""
"","","","","","image-keyboard-response","68","192144","0.0-2.0-5.0-1.23","56169e435c62cf000f822c76","E1","batch5","","2105","stim/yes_58_dia_w1_w.png","j","pattern_response","false","f","pattern_76","2105","false","22","","","","","","","","","","","","","","","","","","",""
"","","","","","html-keyboard-response","69","193471","0.0-2.0-5.0-0.24","56169e435c62cf000f822c76","E1","batch5","","null","<p class=block-text>Trial 25 out of 78</p>","null","pattern_show_trial_num","","","","","","","","","","","","","","","","","","","","","","","","",""
"","","","","","image-keyboard-response","70","195465","0.0-2.0-5.0-1.24","56169e435c62cf000f822c76","E1","batch5","","1983","stim/yes_42_dia_w1_w.png","j","pattern_response","false","f","pattern_64","1983","false","22","","","","","","","","","","","","","","","","","","",""
"","","","","","html-keyboard-response","71","196782","0.0-2.0-5.0-0.25","56169e435c62cf000f822c76","E1","batch5","","null","<p class=block-text>Trial 26 out of 78</p>","null","pattern_show_trial_num","","","","","","","","","","","","","","","","","","","","","","","","",""
"","","","","","image-keyboard-response","72","197682","0.0-2.0-5.0-1.25","56169e435c62cf000f822c76","E1","batch5","","891","stim/yes_44_ver_w1_w.png","f","pattern_response","true","f","pattern_66","891","true","23","","","","","","","","","","","","","","","","","","",""
"","","","","","html-keyboard-response","73","199005","0.0-2.0-5.0-0.26","56169e435c62cf000f822c76","E1","batch5","","null","<p class=block-text>Trial 27 out of 78</p>","null","pattern_show_trial_num","","","","","","","","","","","","","","","","","","","","","","","","",""
"","","","","","image-keyboard-response","74","199668","0.0-2.0-5.0-1.26","56169e435c62cf000f822c76","E1","batch5","","652","stim/yes_39_hor_w1_w.png","f","pattern_response","true","f","pattern_62","652","true","24","","","","","","","","","","","","","","","","","","",""
"","","","","","html-keyboard-response","75","200984","0.0-2.0-5.0-0.27","56169e435c62cf000f822c76","E1","batch5","","null","<p class=block-text>Trial 28 out of 78</p>","null","pattern_show_trial_num","","","","","","","","","","","","","","","","","","","","","","","","",""
"","","","","","image-keyboard-response","76","202345","0.0-2.0-5.0-1.27","56169e435c62cf000f822c76","E1","batch5","","1355","stim/no_18_1_b.png","j","pattern_response","true","j","pattern_05","1355","true","25","","","","","","","","","","","","","","","","","","",""
"","","","","","html-keyboard-response","77","203660","0.0-2.0-5.0-0.28","56169e435c62cf000f822c76","E1","batch5","","null","<p class=block-text>Trial 29 out of 78</p>","null","pattern_show_trial_num","","","","","","","","","","","","","","","","","","","","","","","","",""
"","","","","","image-keyboard-response","78","205897","0.0-2.0-5.0-1.28","56169e435c62cf000f822c76","E1","batch5","","2223","stim/no_49_2_b.png","j","pattern_response","true","j","pattern_29","2223","true","26","","","","","","","","","","","","","","","","","","",""
"","","","","","html-keyboard-response","79","207219","0.0-2.0-5.0-0.29","56169e435c62cf000f822c76","E1","batch5","","null","<p class=block-text>Trial 30 out of 78</p>","null","pattern_show_trial_num","","","","","","","","","","","","","","","","","","","","","","","","",""
"","","","","","image-keyboard-response","80","208006","0.0-2.0-5.0-1.29","56169e435c62cf000f822c76","E1","batch5","","779","stim/yes_30_ver_b1_b.png","f","pattern_response","true","f","pattern_54","779","true","27","","","","","","","","","","","","","","","","","","",""
"","","","","","html-keyboard-response","81","209319","0.0-2.0-5.0-0.30","56169e435c62cf000f822c76","E1","batch5","","null","<p class=block-text>Trial 31 out of 78</p>","null","pattern_show_trial_num","","","","","","","","","","","","","","","","","","","","","","","","",""
"","","","","","image-keyboard-response","82","210160","0.0-2.0-5.0-1.30","56169e435c62cf000f822c76","E1","batch5","","829","stim/yes_17_ver_b1_b.png","f","pattern_response","true","f","pattern_46","829","true","28","","","","","","","","","","","","","","","","","","",""
"","","","","","html-keyboard-response","83","211481","0.0-2.0-5.0-0.31","56169e435c62cf000f822c76","E1","batch5","","null","<p class=block-text>Trial 32 out of 78</p>","null","pattern_show_trial_num","","","","","","","","","","","","","","","","","","","","","","","","",""
"","","","","","image-keyboard-response","84","213171","0.0-2.0-5.0-1.31","56169e435c62cf000f822c76","E1","batch5","","1684","stim/no_47_1_b.png","j","pattern_response","true","j","pattern_27","1684","true","29","","","","","","","","","","","","","","","","","","",""
"","","","","","html-keyboard-response","85","214489","0.0-2.0-5.0-0.32","56169e435c62cf000f822c76","E1","batch5","","null","<p class=block-text>Trial 33 out of 78</p>","null","pattern_show_trial_num","","","","","","","","","","","","","","","","","","","","","","","","",""
"","","","","","image-keyboard-response","86","216468","0.0-2.0-5.0-1.32","56169e435c62cf000f822c76","E1","batch5","","1958","stim/no_58_1_w.png","j","pattern_response","true","j","pattern_35","1958","true","30","","","","","","","","","","","","","","","","","","",""
"","","","","","html-keyboard-response","87","217785","0.0-2.0-5.0-0.33","56169e435c62cf000f822c76","E1","batch5","","null","<p class=block-text>Trial 34 out of 78</p>","null","pattern_show_trial_num","","","","","","","","","","","","","","","","","","","","","","","","",""
"","","","","","image-keyboard-response","88","219770","0.0-2.0-5.0-1.33","56169e435c62cf000f822c76","E1","batch5","","1976","stim/yes_70_ver_b1.png","f","pattern_response","true","f","pattern_80","1976","true","31","","","","","","","","","","","","","","","","","","",""
"","","","","","html-keyboard-response","89","221089","0.0-2.0-5.0-0.34","56169e435c62cf000f822c76","E1","batch5","","null","<p class=block-text>Trial 35 out of 78</p>","null","pattern_show_trial_num","","","","","","","","","","","","","","","","","","","","","","","","",""
"","","","","","image-keyboard-response","90","222557","0.0-2.0-5.0-1.34","56169e435c62cf000f822c76","E1","batch5","","1463","stim/no_25_1_b.png","j","pattern_response","true","j","pattern_09","1463","true","32","","","","","","","","","","","","","","","","","","",""
"","","","","","html-keyboard-response","91","223874","0.0-2.0-5.0-0.35","56169e435c62cf000f822c76","E1","batch5","","null","<p class=block-text>Trial 36 out of 78</p>","null","pattern_show_trial_num","","","","","","","","","","","","","","","","","","","","","","","","",""
"","","","","","image-keyboard-response","92","225335","0.0-2.0-5.0-1.35","56169e435c62cf000f822c76","E1","batch5","","1454","stim/no_30_1_b.png","j","pattern_response","true","j","pattern_13","1454","true","33","","","","","","","","","","","","","","","","","","",""
"","","","","","html-keyboard-response","93","226647","0.0-2.0-5.0-0.36","56169e435c62cf000f822c76","E1","batch5","","null","<p class=block-text>Trial 37 out of 78</p>","null","pattern_show_trial_num","","","","","","","","","","","","","","","","","","","","","","","","",""
"","","","","","image-keyboard-response","94","228123","0.0-2.0-5.0-1.36","56169e435c62cf000f822c76","E1","batch5","","1467","stim/yes_63_dia_b1.png","f","pattern_response","true","f","pattern_78","1467","true","34","","","","","","","","","","","","","","","","","","",""
"","","","","","html-keyboard-response","95","229435","0.0-2.0-5.0-0.37","56169e435c62cf000f822c76","E1","batch5","","null","<p class=block-text>Trial 38 out of 78</p>","null","pattern_show_trial_num","","","","","","","","","","","","","","","","","","","","","","","","",""
"","","","","","image-keyboard-response","96","230333","0.0-2.0-5.0-1.37","56169e435c62cf000f822c76","E1","batch5","","889","stim/yes_53_ver_b1_b.png","f","pattern_response","true","f","pattern_74","889","true","35","","","","","","","","","","","","","","","","","","",""
"","","","","","html-keyboard-response","97","231644","0.0-2.0-5.0-0.38","56169e435c62cf000f822c76","E1","batch5","","null","<p class=block-text>Trial 39 out of 78</p>","null","pattern_show_trial_num","","","","","","","","","","","","","","","","","","","","","","","","",""
"","","","","","image-keyboard-response","98","233898","0.0-2.0-5.0-1.38","56169e435c62cf000f822c76","E1","batch5","","2245","stim/no_36_1_b.png","j","pattern_response","true","j","pattern_17","2245","true","36","","","","","","","","","","","","","","","","","","",""
"","","","","","image-keyboard-response","99","236207","0.0-2.0-6.0","56169e435c62cf000f822c76","E1","batch5","","1799","stim/empty_board.png","j","attention_check","true","j","","","","","500","[""f"",""j""]","","","","","","","","","","","","","","","","",""
"","","","","","html-keyboard-response","100","237018","0.0-2.0-7.0-0.0","56169e435c62cf000f822c76","E1","batch5","","null","<p class=block-text>Trial 40 out of 78</p>","null","pattern_show_trial_num","","","","","","","","","","","","","","","","","","","","","","","","",""
"","","","","","image-keyboard-response","101","239306","0.0-2.0-7.0-1.0","56169e435c62cf000f822c76","E1","batch5","","2278","stim/yes_50_dia_w1.png","j","pattern_response","false","f","pattern_71","2278","false","36","","","","","","","","","","","","","","","","","","",""
"","","","","","html-keyboard-response","102","240615","0.0-2.0-7.0-0.1","56169e435c62cf000f822c76","E1","batch5","","null","<p class=block-text>Trial 41 out of 78</p>","null","pattern_show_trial_num","","","","","","","","","","","","","","","","","","","","","","","","",""
"","","","","","image-keyboard-response","103","241730","0.0-2.0-7.0-1.1","56169e435c62cf000f822c76","E1","batch5","","1107","stim/no_29_1_b.png","j","pattern_response","true","j","pattern_12","1107","true","37","","","","","","","","","","","","","","","","","","",""
"","","","","","html-keyboard-response","104","243047","0.0-2.0-7.0-0.2","56169e435c62cf000f822c76","E1","batch5","","null","<p class=block-text>Trial 42 out of 78</p>","null","pattern_show_trial_num","","","","","","","","","","","","","","","","","","","","","","","","",""
"","","","","","image-keyboard-response","105","243898","0.0-2.0-7.0-1.2","56169e435c62cf000f822c76","E1","batch5","","836","stim/yes_22_ver_w1.png","f","pattern_response","true","f","pattern_47","836","true","38","","","","","","","","","","","","","","","","","","",""
"","","","","","html-keyboard-response","106","245208","0.0-2.0-7.0-0.3","56169e435c62cf000f822c76","E1","batch5","","null","<p class=block-text>Trial 43 out of 78</p>","null","pattern_show_trial_num","","","","","","","","","","","","","","","","","","","","","","","","",""
"","","","","","image-keyboard-response","107","246021","0.0-2.0-7.0-1.3","56169e435c62cf000f822c76","E1","batch5","","807","stim/yes_25_hor_b1_b.png","f","pattern_response","true","f","pattern_49","807","true","39","","","","","","","","","","","","","","","","","","",""
"","","","","","html-keyboard-response","108","247337","0.0-2.0-7.0-0.4","56169e435c62cf000f822c76","E1","batch5","","null","<p class=block-text>Trial 44 out of 78</p>","null","pattern_show_trial_num","","","","","","","","","","","","","","","","","","","","","","","","",""
"","","","","","image-keyboard-response","109","248483","0.0-2.0-7.0-1.4","56169e435c62cf000f822c76","E1","batch5","","1135","stim/yes_52_ver_w1.png","f","pattern_response","true","f","pattern_73","1135","true","40","","","","","","","","","","","","","","","","","","",""
"","","","","","html-keyboard-response","110","249796","0.0-2.0-7.0-0.5","56169e435c62cf000f822c76","E1","batch5","","null","<p class=block-text>Trial 45 out of 78</p>","null","pattern_show_trial_num","","","","","","","","","","","","","","","","","","","","","","","","",""
"","","","","","image-keyboard-response","111","251202","0.0-2.0-7.0-1.5","56169e435c62cf000f822c76","E1","batch5","","1397","stim/no_34_1_b.png","j","pattern_response","true","j","pattern_16","1397","true","41","","","","","","","","","","","","","","","","","","",""
"","","","","","html-keyboard-response","112","252521","0.0-2.0-7.0-0.6","56169e435c62cf000f822c76","E1","batch5","","null","<p class=block-text>Trial 46 out of 78</p>","null","pattern_show_trial_num","","","","","","","","","","","","","","","","","","","","","","","","",""
"","","","","","image-keyboard-response","113","253595","0.0-2.0-7.0-1.6","56169e435c62cf000f822c76","E1","batch5","","1066","stim/no_13_2_b.png","j","pattern_response","true","j","pattern_02","1066","true","42","","","","","","","","","","","","","","","","","","",""
"","","","","","html-keyboard-response","114","254921","0.0-2.0-7.0-0.7","56169e435c62cf000f822c76","E1","batch5","","null","<p class=block-text>Trial 47 out of 78</p>","null","pattern_show_trial_num","","","","","","","","","","","","","","","","","","","","","","","","",""
"","","","","","image-keyboard-response","115","255664","0.0-2.0-7.0-1.7","56169e435c62cf000f822c76","E1","batch5","","736","stim/yes_14_hor_b1_w.png","f","pattern_response","true","f","pattern_43","736","true","43","","","","","","","","","","","","","","","","","","",""
"","","","","","html-keyboard-response","116","256983","0.0-2.0-7.0-0.8","56169e435c62cf000f822c76","E1","batch5","","null","<p class=block-text>Trial 48 out of 78</p>","null","pattern_show_trial_num","","","","","","","","","","","","","","","","","","","","","","","","",""
"","","","","","image-keyboard-response","117","257910","0.0-2.0-7.0-1.8","56169e435c62cf000f822c76","E1","batch5","","917","stim/no_23_1.png","j","pattern_response","true","j","pattern_08","917","true","44","","","","","","","","","","","","","","","","","","",""
"","","","","","html-keyboard-response","118","259230","0.0-2.0-7.0-0.9","56169e435c62cf000f822c76","E1","batch5","","null","<p class=block-text>Trial 49 out of 78</p>","null","pattern_show_trial_num","","","","","","","","","","","","","","","","","","","","","","","","",""
"","","","","","image-keyboard-response","119","261193","0.0-2.0-7.0-1.9","56169e435c62cf000f822c76","E1","batch5","","1950","stim/no_50_1.png","j","pattern_response","true","j","pattern_30","1950","true","45","","","","","","","","","","","","","","","","","","",""
"","","","","","html-keyboard-response","120","262517","0.0-2.0-7.0-0.10","56169e435c62cf000f822c76","E1","batch5","","null","<p class=block-text>Trial 50 out of 78</p>","null","pattern_show_trial_num","","","","","","","","","","","","","","","","","","","","","","","","",""
"","","","","","image-keyboard-response","121","264735","0.0-2.0-7.0-1.10","56169e435c62cf000f822c76","E1","batch5","","2209","stim/yes_60_ver_b1_b.png","j","pattern_response","false","f","pattern_77","2209","false","45","","","","","","","","","","","","","","","","","","",""
"","","","","","html-keyboard-response","122","266050","0.0-2.0-7.0-0.11","56169e435c62cf000f822c76","E1","batch5","","null","<p class=block-text>Trial 51 out of 78</p>","null","pattern_show_trial_num","","","","","","","","","","","","","","","","","","","","","","","","",""
"","","","","","image-keyboard-response","123","268320","0.0-2.0-7.0-1.11","56169e435c62cf000f822c76","E1","batch5","","2259","stim/no_70_2.png","j","pattern_response","true","j","pattern_40","2259","true","46","","","","","","","","","","","","","","","","","","",""
"","","","","","html-keyboard-response","124","269638","0.0-2.0-7.0-0.12","56169e435c62cf000f822c76","E1","batch5","","null","<p class=block-text>Trial 52 out of 78</p>","null","pattern_show_trial_num","","","","","","","","","","","","","","","","","","","","","","","","",""
"","","","","","image-keyboard-response","125","270412","0.0-2.0-7.0-1.12","56169e435c62cf000f822c76","E1","batch5","","762","stim/yes_43_ver_w1_w.png","f","pattern_response","true","f","pattern_65","762","true","47","","","","","","","","","","","","","","","","","","",""
"","","","","","html-keyboard-response","126","271736","0.0-2.0-7.0-0.13","56169e435c62cf000f822c76","E1","batch5","","null","<p class=block-text>Trial 53 out of 78</p>","null","pattern_show_trial_num","","","","","","","","","","","","","","","","","","","","","","","","",""
"","","","","","image-keyboard-response","127","272725","0.0-2.0-7.0-1.13","56169e435c62cf000f822c76","E1","batch5","","974","stim/yes_29_ver_w1.png","f","pattern_response","true","f","pattern_53","974","true","48","","","","","","","","","","","","","","","","","","",""
"","","","","","html-keyboard-response","128","274040","0.0-2.0-7.0-0.14","56169e435c62cf000f822c76","E1","batch5","","null","<p class=block-text>Trial 54 out of 78</p>","null","pattern_show_trial_num","","","","","","","","","","","","","","","","","","","","","","","","",""
"","","","","","image-keyboard-response","129","275224","0.0-2.0-7.0-1.14","56169e435c62cf000f822c76","E1","batch5","","1174","stim/no_26_1_w.png","j","pattern_response","true","j","pattern_10","1174","true","49","","","","","","","","","","","","","","","","","","",""
"","","","","","html-keyboard-response","130","276536","0.0-2.0-7.0-0.15","56169e435c62cf000f822c76","E1","batch5","","null","<p class=block-text>Trial 55 out of 78</p>","null","pattern_show_trial_num","","","","","","","","","","","","","","","","","","","","","","","","",""
"","","","","","image-keyboard-response","131","278646","0.0-2.0-7.0-1.15","56169e435c62cf000f822c76","E1","batch5","","2103","stim/no_38_1_b.png","j","pattern_response","true","j","pattern_20","2103","true","50","","","","","","","","","","","","","","","","","","",""
"","","","","","html-keyboard-response","132","279965","0.0-2.0-7.0-0.16","56169e435c62cf000f822c76","E1","batch5","","null","<p class=block-text>Trial 56 out of 78</p>","null","pattern_show_trial_num","","","","","","","","","","","","","","","","","","","","","","","","",""
"","","","","","image-keyboard-response","133","281625","0.0-2.0-7.0-1.16","56169e435c62cf000f822c76","E1","batch5","","1653","stim/no_48_1_w.png","f","pattern_response","false","j","pattern_28","1653","false","50","","","","","","","","","","","","","","","","","","",""
"","","","","","html-keyboard-response","134","282953","0.0-2.0-7.0-0.17","56169e435c62cf000f822c76","E1","batch5","","null","<p class=block-text>Trial 57 out of 78</p>","null","pattern_show_trial_num","","","","","","","","","","","","","","","","","","","","","","","","",""
"","","","","","image-keyboard-response","135","284493","0.0-2.0-7.0-1.17","56169e435c62cf000f822c76","E1","batch5","","1531","stim/yes_40_dia_b1_b.png","f","pattern_response","true","f","pattern_63","1531","true","51","","","","","","","","","","","","","","","","","","",""
"","","","","","html-keyboard-response","136","285815","0.0-2.0-7.0-0.18","56169e435c62cf000f822c76","E1","batch5","","null","<p class=block-text>Trial 58 out of 78</p>","null","pattern_show_trial_num","","","","","","","","","","","","","","","","","","","","","","","","",""
"","","","","","image-keyboard-response","137","287026","0.0-2.0-7.0-1.18","56169e435c62cf000f822c76","E1","batch5","","1192","stim/yes_55_hor_w1_w.png","f","pattern_response","true","f","pattern_75","1192","true","52","","","","","","","","","","","","","","","","","","",""
"","","","","","html-keyboard-response","138","288351","0.0-2.0-7.0-0.19","56169e435c62cf000f822c76","E1","batch5","","null","<p class=block-text>Trial 59 out of 78</p>","null","pattern_show_trial_num","","","","","","","","","","","","","","","","","","","","","","","","",""
"","","","","","image-keyboard-response","139","289914","0.0-2.0-7.0-1.19","56169e435c62cf000f822c76","E1","batch5","","1553","stim/yes_37_dia_w1.png","j","pattern_response","false","f","pattern_59","1553","false","52","","","","","","","","","","","","","","","","","","",""
"","","","","","html-keyboard-response","140","291231","0.0-2.0-7.0-0.20","56169e435c62cf000f822c76","E1","batch5","","null","<p class=block-text>Trial 60 out of 78</p>","null","pattern_show_trial_num","","","","","","","","","","","","","","","","","","","","","","","","",""
"","","","","","image-keyboard-response","141","293294","0.0-2.0-7.0-1.20","56169e435c62cf000f822c76","E1","batch5","","2054","stim/no_55_1_w.png","j","pattern_response","true","j","pattern_34","2054","true","53","","","","","","","","","","","","","","","","","","",""
"","","","","","html-keyboard-response","142","294607","0.0-2.0-7.0-0.21","56169e435c62cf000f822c76","E1","batch5","","null","<p class=block-text>Trial 61 out of 78</p>","null","pattern_show_trial_num","","","","","","","","","","","","","","","","","","","","","","","","",""
"","","","","","image-keyboard-response","143","295395","0.0-2.0-7.0-1.21","56169e435c62cf000f822c76","E1","batch5","","776","stim/yes_17_dia_w1.png","f","pattern_response","true","f","pattern_45","776","true","54","","","","","","","","","","","","","","","","","","",""
"","","","","","html-keyboard-response","144","296722","0.0-2.0-7.0-0.22","56169e435c62cf000f822c76","E1","batch5","","null","<p class=block-text>Trial 62 out of 78</p>","null","pattern_show_trial_num","","","","","","","","","","","","","","","","","","","","","","","","",""
"","","","","","image-keyboard-response","145","297567","0.0-2.0-7.0-1.22","56169e435c62cf000f822c76","E1","batch5","","835","stim/yes_38_hor_b1_b.png","f","pattern_response","true","f","pattern_61","835","true","55","","","","","","","","","","","","","","","","","","",""
"","","","","","html-keyboard-response","146","298889","0.0-2.0-7.0-0.23","56169e435c62cf000f822c76","E1","batch5","","null","<p class=block-text>Trial 63 out of 78</p>","null","pattern_show_trial_num","","","","","","","","","","","","","","","","","","","","","","","","",""
"","","","","","image-keyboard-response","147","300365","0.0-2.0-7.0-1.23","56169e435c62cf000f822c76","E1","batch5","","1463","stim/no_42_1_w.png","j","pattern_response","true","j","pattern_22","1463","true","56","","","","","","","","","","","","","","","","","","",""
"","","","","","html-keyboard-response","148","301688","0.0-2.0-7.0-0.24","56169e435c62cf000f822c76","E1","batch5","","null","<p class=block-text>Trial 64 out of 78</p>","null","pattern_show_trial_num","","","","","","","","","","","","","","","","","","","","","","","","",""
"","","","","","image-keyboard-response","149","303145","0.0-2.0-7.0-1.24","56169e435c62cf000f822c76","E1","batch5","","1447","stim/no_32_1_w.png","j","pattern_response","true","j","pattern_14","1447","true","57","","","","","","","","","","","","","","","","","","",""
"","","","","","html-keyboard-response","150","304457","0.0-2.0-7.0-0.25","56169e435c62cf000f822c76","E1","batch5","","null","<p class=block-text>Trial 65 out of 78</p>","null","pattern_show_trial_num","","","","","","","","","","","","","","","","","","","","","","","","",""
"","","","","","image-keyboard-response","151","306382","0.0-2.0-7.0-1.25","56169e435c62cf000f822c76","E1","batch5","","1914","stim/no_52_1.png","j","pattern_response","true","j","pattern_32","1914","true","58","","","","","","","","","","","","","","","","","","",""
"","","","","","html-keyboard-response","152","307696","0.0-2.0-7.0-0.26","56169e435c62cf000f822c76","E1","batch5","","null","<p class=block-text>Trial 66 out of 78</p>","null","pattern_show_trial_num","","","","","","","","","","","","","","","","","","","","","","","","",""
"","","","","","image-keyboard-response","153","309615","0.0-2.0-7.0-1.26","56169e435c62cf000f822c76","E1","batch5","","1906","stim/yes_67_hor_b1.png","f","pattern_response","true","f","pattern_79","1906","true","59","","","","","","","","","","","","","","","","","","",""
"","","","","","html-keyboard-response","154","310934","0.0-2.0-7.0-0.27","56169e435c62cf000f822c76","E1","batch5","","null","<p class=block-text>Trial 67 out of 78</p>","null","pattern_show_trial_num","","","","","","","","","","","","","","","","","","","","","","","","",""
"","","","","","image-keyboard-response","155","312293","0.0-2.0-7.0-1.27","56169e435c62cf000f822c76","E1","batch5","","1348","stim/yes_35_dia_b1.png","f","pattern_response","true","f","pattern_57","1348","true","60","","","","","","","","","","","","","","","","","","",""
"","","","","","html-keyboard-response","156","313617","0.0-2.0-7.0-0.28","56169e435c62cf000f822c76","E1","batch5","","null","<p class=block-text>Trial 68 out of 78</p>","null","pattern_show_trial_num","","","","","","","","","","","","","","","","","","","","","","","","",""
"","","","","","image-keyboard-response","157","314350","0.0-2.0-7.0-1.28","56169e435c62cf000f822c76","E1","batch5","","722","stim/yes_28_ver_b1.png","f","pattern_response","true","f","pattern_51","722","true","61","","","","","","","","","","","","","","","","","","",""
"","","","","","html-keyboard-response","158","315671","0.0-2.0-7.0-0.29","56169e435c62cf000f822c76","E1","batch5","","null","<p class=block-text>Trial 69 out of 78</p>","null","pattern_show_trial_num","","","","","","","","","","","","","","","","","","","","","","","","",""
"","","","","","image-keyboard-response","159","317915","0.0-2.0-7.0-1.29","56169e435c62cf000f822c76","E1","batch5","","2231","stim/yes_48_dia_w1_w.png","j","pattern_response","false","f","pattern_69","2231","false","61","","","","","","","","","","","","","","","","","","",""
"","","","","","html-keyboard-response","160","319233","0.0-2.0-7.0-0.30","56169e435c62cf000f822c76","E1","batch5","","null","<p class=block-text>Trial 70 out of 78</p>","null","pattern_show_trial_num","","","","","","","","","","","","","","","","","","","","","","","","",""
"","","","","","image-keyboard-response","161","320733","0.0-2.0-7.0-1.30","56169e435c62cf000f822c76","E1","batch5","","1490","stim/yes_31_hor_b1.png","f","pattern_response","true","f","pattern_55","1490","true","62","","","","","","","","","","","","","","","","","","",""
"","","","","","html-keyboard-response","162","322050","0.0-2.0-7.0-0.31","56169e435c62cf000f822c76","E1","batch5","","null","<p class=block-text>Trial 71 out of 78</p>","null","pattern_show_trial_num","","","","","","","","","","","","","","","","","","","","","","","","",""
"","","","","","image-keyboard-response","163","323567","0.0-2.0-7.0-1.31","56169e435c62cf000f822c76","E1","batch5","","1506","stim/no_46_1_b.png","j","pattern_response","true","j","pattern_26","1506","true","63","","","","","","","","","","","","","","","","","","",""
"","","","","","html-keyboard-response","164","324883","0.0-2.0-7.0-0.32","56169e435c62cf000f822c76","E1","batch5","","null","<p class=block-text>Trial 72 out of 78</p>","null","pattern_show_trial_num","","","","","","","","","","","","","","","","","","","","","","","","",""
"","","","","","image-keyboard-response","165","325864","0.0-2.0-7.0-1.32","56169e435c62cf000f822c76","E1","batch5","","971","stim/yes_45_hor_b2_b.png","f","pattern_response","true","f","pattern_67","971","true","64","","","","","","","","","","","","","","","","","","",""
"","","","","","html-keyboard-response","166","327188","0.0-2.0-7.0-0.33","56169e435c62cf000f822c76","E1","batch5","","null","<p class=block-text>Trial 73 out of 78</p>","null","pattern_show_trial_num","","","","","","","","","","","","","","","","","","","","","","","","",""
"","","","","","image-keyboard-response","167","329314","0.0-2.0-7.0-1.33","56169e435c62cf000f822c76","E1","batch5","","2115","stim/no_36_2_w.png","j","pattern_response","true","j","pattern_18","2115","true","65","","","","","","","","","","","","","","","","","","",""
"","","","","","html-keyboard-response","168","330630","0.0-2.0-7.0-0.34","56169e435c62cf000f822c76","E1","batch5","","null","<p class=block-text>Trial 74 out of 78</p>","null","pattern_show_trial_num","","","","","","","","","","","","","","","","","","","","","","","","",""
"","","","","","image-keyboard-response","169","331935","0.0-2.0-7.0-1.34","56169e435c62cf000f822c76","E1","batch5","","1299","stim/no_20_1_w.png","j","pattern_response","true","j","pattern_06","1299","true","66","","","","","","","","","","","","","","","","","","",""
"","","","","","html-keyboard-response","170","333251","0.0-2.0-7.0-0.35","56169e435c62cf000f822c76","E1","batch5","","null","<p class=block-text>Trial 75 out of 78</p>","null","pattern_show_trial_num","","","","","","","","","","","","","","","","","","","","","","","","",""
"","","","","","image-keyboard-response","171","334102","0.0-2.0-7.0-1.35","56169e435c62cf000f822c76","E1","batch5","","843","stim/no_17_1_w.png","j","pattern_response","true","j","pattern_04","843","true","67","","","","","","","","","","","","","","","","","","",""
"","","","","","html-keyboard-response","172","335413","0.0-2.0-7.0-0.36","56169e435c62cf000f822c76","E1","batch5","","null","<p class=block-text>Trial 76 out of 78</p>","null","pattern_show_trial_num","","","","","","","","","","","","","","","","","","","","","","","","",""
"","","","","","image-keyboard-response","173","337810","0.0-2.0-7.0-1.36","56169e435c62cf000f822c76","E1","batch5","","2386","stim/no_44_1.png","j","pattern_response","true","j","pattern_24","2386","true","68","","","","","","","","","","","","","","","","","","",""
"","","","","","html-keyboard-response","174","339129","0.0-2.0-7.0-0.37","56169e435c62cf000f822c76","E1","batch5","","null","<p class=block-text>Trial 77 out of 78</p>","null","pattern_show_trial_num","","","","","","","","","","","","","","","","","","","","","","","","",""
"","","","","","image-keyboard-response","175","342458","0.0-2.0-7.0-1.37","56169e435c62cf000f822c76","E1","batch5","","3318","stim/no_62_1_w.png","j","pattern_response","true","j","pattern_36","3318","true","69","","","","","","","","","","","","","","","","","","",""
"","","","","","html-keyboard-response","176","343783","0.0-2.0-7.0-0.38","56169e435c62cf000f822c76","E1","batch5","","null","<p class=block-text>Trial 78 out of 78</p>","null","pattern_show_trial_num","","","","","","","","","","","","","","","","","","","","","","","","",""
"","","","","","image-keyboard-response","177","352485","0.0-2.0-7.0-1.38","56169e435c62cf000f822c76","E1","batch5","","8694","stim/no_65_1_b.png","j","pattern_response","true","j","pattern_38","8694","true","70","","","","","","","","","","","","","","","","","","",""
"","","","","","html-button-response","178","370409","0.0-2.0-8.0","56169e435c62cf000f822c76","E1","batch5","","17401","<p class = block-text>This concludes the 4-in-a-row detection game.Thank you for your responses!<br>
            You responded correctly on 90% of the trials.<br>
            When you are ready, press ""Continue"" button to continue </p>","0","","","","","","","","","","","","","","","","","","","","","","","","","",""
"true","","","","","fullscreen","179","374286","0.0-3.0-0.0","56169e435c62cf000f822c76","E1","batch5","","","","","","","","","","","","","","","","","","","","","","","","","","","","","",""
"","","","","","instructions","180","439395","0.0-3.0-1.0-0.0-0.0","56169e435c62cf000f822c76","E1","batch5","[{""page_index"":0,""viewing_time"":14971},{""page_index"":1,""viewing_time"":4799},{""page_index"":2,""viewing_time"":6956},{""page_index"":3,""viewing_time"":12549},{""page_index"":4,""viewing_time"":8207},{""page_index"":5,""viewing_time"":12037},{""page_index"":6,""viewing_time"":5585}]","65104","","","tol-instructions","","","","","","","","","","","","","","","","","","","","","","","","",""
"","","","","","html-button-response","181","440778","0.0-3.0-1.0-1.0-0.0","56169e435c62cf000f822c76","E1","batch5","","1380","<p class=block-text> Let's answer a few questions <br>","0","tol_enter_quiz","","","","","","","","","","","","","","","","","","","","","","","","",""
"","","","","","html-button-response","182","445959","0.0-3.0-1.0-1.0-1.0","56169e435c62cf000f822c76","E1","batch5","","5176","<p class = block-text>True or False: You can only move the ball on top of a peg. <br></p>","1","tol_quiz","false","","","","","","","","","","","","","","","","","","","","","","","",""
"","","","","","html-button-response","183","448247","0.0-3.0-1.0-1.0-2.0","56169e435c62cf000f822c76","E1","batch5","","2286","<p class = block-text>Incorrect. Remember, you can only move the ball on top of a peg.</p>","0","tol_quiz_feedback","","","","","","","","","","","","","","","","","","","","","","","","",""
"","","","","","html-button-response","184","451386","0.0-3.0-1.0-1.0-3.0","56169e435c62cf000f822c76","E1","batch5","","3137","<p class = block-text>True or False: You should try to match your board with the target board with fewest moves possible. <br></p>","0","tol_quiz","true","","","","","","","","","","","","","","","","","","","","","","","",""
"","","","","","html-button-response","185","452508","0.0-3.0-1.0-1.0-4.0","56169e435c62cf000f822c76","E1","batch5","","1119","<p class = block-text>Correct! </p>","0","tol_quiz_feedback","","","","","","","","","","","","","","","","","","","","","","","","",""
"","","","","","html-button-response","186","454829","0.0-3.0-1.0-2.0-0.0","56169e435c62cf000f822c76","E1","batch5","","2319","<p class = block-text>You made too many incorrect choices.</p><p class = block-text>You will now repeat the instructions and quiz</p>","0","","","","","","","","","","","","","","","","","","","","","","","","","",""
"","","","","","instructions","187","461985","0.0-3.0-1.1-0.1-0.1","56169e435c62cf000f822c76","E1","batch5","[{""page_index"":0,""viewing_time"":1817},{""page_index"":1,""viewing_time"":576},{""page_index"":2,""viewing_time"":373},{""page_index"":3,""viewing_time"":406},{""page_index"":4,""viewing_time"":343},{""page_index"":5,""viewing_time"":669},{""page_index"":6,""viewing_time"":2968}]","7152","","","tol-instructions","","","","","","","","","","","","","","","","","","","","","","","","",""
"","","","","","html-button-response","188","463196","0.0-3.0-1.1-1.1-0.1","56169e435c62cf000f822c76","E1","batch5","","1210","<p class=block-text> Let's answer a few questions <br>","0","tol_enter_quiz","","","","","","","","","","","","","","","","","","","","","","","","",""
"","","","","","html-button-response","189","464766","0.0-3.0-1.1-1.1-1.1","56169e435c62cf000f822c76","E1","batch5","","1567","<p class = block-text>True or False: You can only move the ball on top of a peg. <br></p>","0","tol_quiz","true","","","","","","","","","","","","","","","","","","","","","","","",""
"","","","","","html-button-response","190","466213","0.0-3.0-1.1-1.1-2.1","56169e435c62cf000f822c76","E1","batch5","","1444","<p class = block-text>Correct! You can only move the ball on top of a peg.</p>","0","tol_quiz_feedback","","","","","","","","","","","","","","","","","","","","","","","","",""
"","","","","","html-button-response","191","467546","0.0-3.0-1.1-1.1-3.1","56169e435c62cf000f822c76","E1","batch5","","1329","<p class = block-text>True or False: You should try to match your board with the target board with fewest moves possible. <br></p>","0","tol_quiz","true","","","","","","","","","","","","","","","","","","","","","","","",""
"","","","","","html-button-response","192","468545","0.0-3.0-1.1-1.1-4.1","56169e435c62cf000f822c76","E1","batch5","","997","<p class = block-text>Correct! </p>","0","tol_quiz_feedback","","","","","","","","","","","","","","","","","","","","","","","","",""
"","","","","","html-button-response","193","469807","0.0-3.0-2.0","56169e435c62cf000f822c76","E1","batch5","","1260","<p class=block-text> Now that you've understood the game, let's practice a few easier examples before we start!<br> <br>","0","","","","","","","","","","","","","","","","","","","","","","","","","",""
"","","","","","single-stim-button","194","479195","0.0-3.0-3.0-0.0","56169e435c62cf000f822c76","E1","batch5","","9377","","","tol_practice","","","","","","","","","tol_peg_2","9377","9377","0","[[1,2,0],[0,0],[0]]","1","[[1,2,0],[0,0],[3]]","practice","9377","","","","","","","",""
"","","","","","single-stim-button","195","481166","0.0-3.0-3.0-1.0","56169e435c62cf000f822c76","E1","batch5","","1968","","","tol_practice","","","","","","","","","tol_peg_3","1968","1968","0","[[1,2,0],[0,0],[3]]","1","[[1,2,0],[0,0],[3]]","practice","1968","","","","","","","",""
"","","","","","poldrack-single-stim","196","482174","0.0-3.0-4.0","56169e435c62cf000f822c76","E1","batch5","","-1","","","tol_feedback","true","","","","","","","","","1000","1000","500","","","","","","-1","none","true","","0","","",""
"","","","","","single-stim-button","197","487790","0.0-3.0-5.0-0.0","56169e435c62cf000f822c76","E1","batch5","","5614","","","tol_practice","","","","","","","","","tol_peg_1","5614","5614","0","[[1,0,0],[3,0],[0]]","2","[[0,0,0],[3,1],[2]]","practice","5614","","","","","","","",""
"","","","","","single-stim-button","198","489906","0.0-3.0-5.0-1.0","56169e435c62cf000f822c76","E1","batch5","","2115","","","tol_practice","","","","","","","","","tol_peg_3","2115","2115","0","[[1,0,0],[3,0],[2]]","2","[[0,0,0],[3,1],[2]]","practice","2115","","","","","","","",""
"","","","","","single-stim-button","199","491156","0.0-3.0-5.1-0.1","56169e435c62cf000f822c76","E1","batch5","","1247","","","tol_practice","","","","","","","","","tol_peg_1","1247","1247","0","[[0,0,0],[3,0],[2]]","3","[[0,0,0],[3,1],[2]]","practice","1247","","","","","","","",""
"","","","","","single-stim-button","200","492413","0.0-3.0-5.1-1.1","56169e435c62cf000f822c76","E1","batch5","","1255","","","tol_practice","","","","","","","","","tol_peg_2","1255","1255","0","[[0,0,0],[3,1],[2]]","3","[[0,0,0],[3,1],[2]]","practice","1255","","","","","","","",""
"","","","","","poldrack-single-stim","201","493419","0.0-3.0-6.0","56169e435c62cf000f822c76","E1","batch5","","-1","","","tol_feedback","true","","","","","","","","","1000","1000","500","","","","","","-1","none","true","","0","","",""
"","","","","","single-stim-button","202","497750","0.0-3.0-7.0-0.0","56169e435c62cf000f822c76","E1","batch5","","4331","","","tol_practice","","","","","","","","","tol_peg_2","4331","4331","0","[[1,2,0],[0,0],[0]]","4","[[1,0,0],[2,0],[3]]","practice","4331","","","","","","","",""
"","","","","","single-stim-button","203","499243","0.0-3.0-7.0-1.0","56169e435c62cf000f822c76","E1","batch5","","1491","","","tol_practice","","","","","","","","","tol_peg_3","1491","1491","0","[[1,2,0],[0,0],[3]]","4","[[1,0,0],[2,0],[3]]","practice","1491","","","","","","","",""
"","","","","","single-stim-button","204","500351","0.0-3.0-7.1-0.1","56169e435c62cf000f822c76","E1","batch5","","1107","","","tol_practice","","","","","","","","","tol_peg_1","1107","1107","0","[[1,0,0],[0,0],[3]]","5","[[1,0,0],[2,0],[3]]","practice","1107","","","","","","","",""
"","","","","","single-stim-button","205","501522","0.0-3.0-7.1-1.1","56169e435c62cf000f822c76","E1","batch5","","1171","","","tol_practice","","","","","","","","","tol_peg_2","1171","1171","0","[[1,0,0],[2,0],[3]]","5","[[1,0,0],[2,0],[3]]","practice","1171","","","","","","","",""
"","","","","","poldrack-single-stim","206","502526","0.0-3.0-8.0","56169e435c62cf000f822c76","E1","batch5","","-1","","","tol_feedback","true","","","","","","","","","1000","1000","500","","","","","","-1","none","true","","0","","",""
"","","","","","html-button-response","207","505728","0.0-3.0-9.0","56169e435c62cf000f822c76","E1","batch5","","3200","<div class = centerbox><p class = center-block-text>Great job! You are done with practice trials<br>You are about to start official trials.<br> <br> Problem <strong>1</strong> out of 25 problems</p></div>","0","tol_instruction","","","","","","","","","","","","","","","","","","","","","","","","",""
"","","","","","single-stim-button","208","509965","0.0-3.0-10.0-0.0","56169e435c62cf000f822c76","E1","batch5","","3225","","","tol_tohand","","","","","","","","","tol_peg_2","3225","3225","0","[[1,2,0],[0,0],[0]]","1","[[1,3,0],[2,0],[0]]","0","0","","","","","","3","",""
"","","","","","single-stim-button","209","511116","0.0-3.0-10.0-1.0","56169e435c62cf000f822c76","E1","batch5","","1150","","","tol_toboard","","","","","","","","","tol_peg_1","1150","1150","0","[[1,2,3],[0,0],[0]]","1","[[1,3,0],[2,0],[0]]","0","0","","","","","","3","",""
"","","","","","single-stim-button","210","513108","0.0-3.0-10.1-0.1","56169e435c62cf000f822c76","E1","batch5","","1991","","","tol_tohand","","","","","","","","","tol_peg_1","1991","1991","0","[[1,2,0],[0,0],[0]]","2","[[1,3,0],[2,0],[0]]","0","0","","","","","","3","",""
"","","","","","single-stim-button","211","515469","0.0-3.0-10.1-1.1","56169e435c62cf000f822c76","E1","batch5","","2360","","","tol_toboard","","","","","","","","","tol_peg_3","2360","2360","0","[[1,2,0],[0,0],[3]]","2","[[1,3,0],[2,0],[0]]","0","0","","","","","","3","",""
"","","","","","single-stim-button","212","517207","0.0-3.0-10.2-0.2","56169e435c62cf000f822c76","E1","batch5","","1738","","","tol_tohand","","","","","","","","","tol_peg_1","1738","1738","0","[[1,0,0],[0,0],[3]]","3","[[1,3,0],[2,0],[0]]","0","0","","","","","","3","",""
"","","","","","single-stim-button","213","518936","0.0-3.0-10.2-1.2","56169e435c62cf000f822c76","E1","batch5","","1727","","","tol_toboard","","","","","","","","","tol_peg_2","1727","1727","0","[[1,0,0],[2,0],[3]]","3","[[1,3,0],[2,0],[0]]","0","0","","","","","","3","",""
"","","","","","single-stim-button","214","519971","0.0-3.0-10.3-0.3","56169e435c62cf000f822c76","E1","batch5","","1034","","","tol_tohand","","","","","","","","","tol_peg_3","1034","1034","0","[[1,0,0],[2,0],[0]]","4","[[1,3,0],[2,0],[0]]","0","0","","","","","","3","",""
"","","","","","single-stim-button","215","521298","0.0-3.0-10.3-1.3","56169e435c62cf000f822c76","E1","batch5","","1327","","","tol_toboard","","","","","","","","","tol_peg_1","1327","1327","0","[[1,3,0],[2,0],[0]]","4","[[1,3,0],[2,0],[0]]","0","0","","","","","","3","",""
"","","","","","poldrack-single-stim","216","522305","0.0-3.0-11.0","56169e435c62cf000f822c76","E1","batch5","","-1","","","tol_feedback","true","","","","","","","","","1000","1000","500","","","","","","-1","none","true","3225","7988","","",""
"","","","","","html-button-response","217","523857","0.0-3.0-12.0","56169e435c62cf000f822c76","E1","batch5","","1551","<div class = centerbox><p class = center-block-text>problem <strong>2</strong> out of 25 problems</p></div>","0","tol_trial_num","","","","","","","","","","","","","","","","","","","","","","","","",""
"","","","","","single-stim-button","218","531275","0.0-3.0-13.0-0.0","56169e435c62cf000f822c76","E1","batch5","","7415","","","tol_tohand","","","","","","","","","tol_peg_1","7415","7415","0","[[1,0,0],[3,0],[0]]","1","[[2,1,3],[0,0],[0]]","1","0","","","","","","5","",""
"","","","","","single-stim-button","219","532709","0.0-3.0-13.0-1.0","56169e435c62cf000f822c76","E1","batch5","","1434","","","tol_toboard","","","","","","","","","tol_peg_3","1434","1434","0","[[1,0,0],[3,0],[2]]","1","[[2,1,3],[0,0],[0]]","1","0","","","","","","5","",""
"","","","","","single-stim-button","220","534258","0.0-3.0-13.1-0.1","56169e435c62cf000f822c76","E1","batch5","","1547","","","tol_tohand","","","","","","","","","tol_peg_1","1547","1547","0","[[0,0,0],[3,0],[2]]","2","[[2,1,3],[0,0],[0]]","1","0","","","","","","5","",""
"","","","","","single-stim-button","221","537230","0.0-3.0-13.1-1.1","56169e435c62cf000f822c76","E1","batch5","","2971","","","tol_toboard","","","","","","","","","tol_peg_2","2971","2971","0","[[0,0,0],[3,1],[2]]","2","[[2,1,3],[0,0],[0]]","1","0","","","","","","5","",""
"","","","","","single-stim-button","222","538644","0.0-3.0-13.2-0.2","56169e435c62cf000f822c76","E1","batch5","","1413","","","tol_tohand","","","","","","","","","tol_peg_3","1413","1413","0","[[0,0,0],[3,1],[0]]","3","[[2,1,3],[0,0],[0]]","1","0","","","","","","5","",""
"","","","","","single-stim-button","223","540066","0.0-3.0-13.2-1.2","56169e435c62cf000f822c76","E1","batch5","","1421","","","tol_toboard","","","","","","","","","tol_peg_1","1421","1421","0","[[2,0,0],[3,1],[0]]","3","[[2,1,3],[0,0],[0]]","1","0","","","","","","5","",""
"","","","","","single-stim-button","224","541658","0.0-3.0-13.3-0.3","56169e435c62cf000f822c76","E1","batch5","","1590","","","tol_tohand","","","","","","","","","tol_peg_2","1590","1590","0","[[2,0,0],[3,0],[0]]","4","[[2,1,3],[0,0],[0]]","1","0","","","","","","5","",""
"","","","","","single-stim-button","225","542961","0.0-3.0-13.3-1.3","56169e435c62cf000f822c76","E1","batch5","","1303","","","tol_toboard","","","","","","","","","tol_peg_1","1303","1303","0","[[2,1,0],[3,0],[0]]","4","[[2,1,3],[0,0],[0]]","1","0","","","","","","5","",""
"","","","","","single-stim-button","226","543927","0.0-3.0-13.4-0.4","56169e435c62cf000f822c76","E1","batch5","","966","","","tol_tohand","","","","","","","","","tol_peg_2","966","966","0","[[2,1,0],[0,0],[0]]","5","[[2,1,3],[0,0],[0]]","1","0","","","","","","5","",""
"","","","","","single-stim-button","227","544994","0.0-3.0-13.4-1.4","56169e435c62cf000f822c76","E1","batch5","","1066","","","tol_toboard","","","","","","","","","tol_peg_1","1066","1066","0","[[2,1,3],[0,0],[0]]","5","[[2,1,3],[0,0],[0]]","1","0","","","","","","5","",""
"","","","","","poldrack-single-stim","228","546001","0.0-3.0-14.0","56169e435c62cf000f822c76","E1","batch5","","-1","","","tol_feedback","true","","","","","","","","","1000","1000","500","","","","","","-1","none","true","7415","12931","","",""
"","","","","","html-button-response","229","547141","0.0-3.0-15.0","56169e435c62cf000f822c76","E1","batch5","","1138","<div class = centerbox><p class = center-block-text>problem <strong>3</strong> out of 25 problems</p></div>","0","tol_trial_num","","","","","","","","","","","","","","","","","","","","","","","","",""
"","","","","","single-stim-button","230","550451","0.0-3.0-16.0-0.0","56169e435c62cf000f822c76","E1","batch5","","3306","","","tol_tohand","","","","","","","","","tol_peg_1","3306","3306","0","[[2,0,0],[0,0],[1]]","1","[[1,2,0],[3,0],[0]]","2","0","","","","","","4","",""
"","","","","","single-stim-button","231","551979","0.0-3.0-16.0-1.0","56169e435c62cf000f822c76","E1","batch5","","1527","","","tol_toboard","","","","","","","","","tol_peg_2","1527","1527","0","[[2,0,0],[3,0],[1]]","1","[[1,2,0],[3,0],[0]]","2","0","","","","","","4","",""
"","","","","","single-stim-button","232","557044","0.0-3.0-16.1-0.1","56169e435c62cf000f822c76","E1","batch5","","5065","","","tol_tohand","","","","","","","","","tol_peg_3","5065","5065","0","[[2,0,0],[3,0],[0]]","2","[[1,2,0],[3,0],[0]]","2","0","","","","","","4","",""
"","","","","","single-stim-button","233","559095","0.0-3.0-16.1-1.1","56169e435c62cf000f822c76","E1","batch5","","2050","","","tol_toboard","","","","","","","","","tol_peg_2","2050","2050","0","[[2,0,0],[3,1],[0]]","2","[[1,2,0],[3,0],[0]]","2","0","","","","","","4","",""
"","","","","","single-stim-button","234","560371","0.0-3.0-16.2-0.2","56169e435c62cf000f822c76","E1","batch5","","1274","","","tol_tohand","","","","","","","","","tol_peg_1","1274","1274","0","[[0,0,0],[3,1],[0]]","3","[[1,2,0],[3,0],[0]]","2","0","","","","","","4","",""
"","","","","","single-stim-button","235","562107","0.0-3.0-16.2-1.2","56169e435c62cf000f822c76","E1","batch5","","1736","","","tol_toboard","","","","","","","","","tol_peg_3","1736","1736","0","[[0,0,0],[3,1],[2]]","3","[[1,2,0],[3,0],[0]]","2","0","","","","","","4","",""
"","","","","","single-stim-button","236","563116","0.0-3.0-16.3-0.3","56169e435c62cf000f822c76","E1","batch5","","1009","","","tol_tohand","","","","","","","","","tol_peg_2","1009","1009","0","[[0,0,0],[3,0],[2]]","4","[[1,2,0],[3,0],[0]]","2","0","","","","","","4","",""
"","","","","","single-stim-button","237","564813","0.0-3.0-16.3-1.3","56169e435c62cf000f822c76","E1","batch5","","1695","","","tol_toboard","","","","","","","","","tol_peg_1","1695","1695","0","[[1,0,0],[3,0],[2]]","4","[[1,2,0],[3,0],[0]]","2","0","","","","","","4","",""
"","","","","","single-stim-button","238","565772","0.0-3.0-16.4-0.4","56169e435c62cf000f822c76","E1","batch5","","959","","","tol_tohand","","","","","","","","","tol_peg_3","959","959","0","[[1,0,0],[3,0],[0]]","5","[[1,2,0],[3,0],[0]]","2","0","","","","","","4","",""
"","","","","","single-stim-button","239","567202","0.0-3.0-16.4-1.4","56169e435c62cf000f822c76","E1","batch5","","1429","","","tol_toboard","","","","","","","","","tol_peg_1","1429","1429","0","[[1,2,0],[3,0],[0]]","5","[[1,2,0],[3,0],[0]]","2","0","","","","","","4","",""
"","","","","","poldrack-single-stim","240","568214","0.0-3.0-17.0","56169e435c62cf000f822c76","E1","batch5","","-1","","","tol_feedback","true","","","","","","","","","1000","1000","500","","","","","","-1","none","true","3306","11613","","",""
"","","","","","html-button-response","241","569398","0.0-3.0-18.0","56169e435c62cf000f822c76","E1","batch5","","1184","<div class = centerbox><p class = center-block-text>problem <strong>4</strong> out of 25 problems</p></div>","0","tol_trial_num","","","","","","","","","","","","","","","","","","","","","","","","",""
"","","","","","single-stim-button","242","573171","0.0-3.0-19.0-0.0","56169e435c62cf000f822c76","E1","batch5","","3773","","","tol_tohand","","","","","","","","","tol_peg_2","3773","3773","0","[[3,0,0],[2,0],[0]]","1","[[3,0,0],[1,0],[2]]","3","0","","","","","","3","",""
"","","","","","single-stim-button","243","577876","0.0-3.0-19.0-1.0","56169e435c62cf000f822c76","E1","batch5","","4704","","","tol_toboard","","","","","","","","","tol_peg_1","4704","4704","0","[[3,1,0],[2,0],[0]]","1","[[3,0,0],[1,0],[2]]","3","0","","","","","","3","",""
"","","","","","single-stim-button","244","579040","0.0-3.0-19.1-0.1","56169e435c62cf000f822c76","E1","batch5","","1164","","","tol_tohand","","","","","","","","","tol_peg_2","1164","1164","0","[[3,1,0],[0,0],[0]]","2","[[3,0,0],[1,0],[2]]","3","0","","","","","","3","",""
"","","","","","single-stim-button","245","580252","0.0-3.0-19.1-1.1","56169e435c62cf000f822c76","E1","batch5","","1210","","","tol_toboard","","","","","","","","","tol_peg_3","1210","1210","0","[[3,1,0],[0,0],[2]]","2","[[3,0,0],[1,0],[2]]","3","0","","","","","","3","",""
"","","","","","single-stim-button","246","581297","0.0-3.0-19.2-0.2","56169e435c62cf000f822c76","E1","batch5","","1043","","","tol_tohand","","","","","","","","","tol_peg_1","1043","1043","0","[[3,0,0],[0,0],[2]]","3","[[3,0,0],[1,0],[2]]","3","0","","","","","","3","",""
"","","","","","single-stim-button","247","582510","0.0-3.0-19.2-1.2","56169e435c62cf000f822c76","E1","batch5","","1212","","","tol_toboard","","","","","","","","","tol_peg_2","1212","1212","0","[[3,0,0],[1,0],[2]]","3","[[3,0,0],[1,0],[2]]","3","0","","","","","","3","",""
"","","","","","poldrack-single-stim","248","583513","0.0-3.0-20.0","56169e435c62cf000f822c76","E1","batch5","","-1","","","tol_feedback","true","","","","","","","","","1000","1000","500","","","","","","-1","none","true","3773","5980","","",""
"","","","","","html-button-response","249","584577","0.0-3.0-21.0","56169e435c62cf000f822c76","E1","batch5","","1061","<div class = centerbox><p class = center-block-text>problem <strong>5</strong> out of 25 problems</p></div>","0","tol_trial_num","","","","","","","","","","","","","","","","","","","","","","","","",""
"","","","","","single-stim-button","250","588051","0.0-3.0-22.0-0.0","56169e435c62cf000f822c76","E1","batch5","","3471","","","tol_tohand","","","","","","","","","tol_peg_2","3471","3471","0","[[1,0,0],[0,0],[3]]","1","[[0,0,0],[1,2],[3]]","4","0","","","","","","7","",""
"","","","","","single-stim-button","251","589451","0.0-3.0-22.0-1.0","56169e435c62cf000f822c76","E1","batch5","","1400","","","tol_toboard","","","","","","","","","tol_peg_1","1400","1400","0","[[1,2,0],[0,0],[3]]","1","[[0,0,0],[1,2],[3]]","4","0","","","","","","7","",""
"","","","","","single-stim-button","252","590682","0.0-3.0-22.1-0.1","56169e435c62cf000f822c76","E1","batch5","","1229","","","tol_tohand","","","","","","","","","tol_peg_3","1229","1229","0","[[1,2,0],[0,0],[0]]","2","[[0,0,0],[1,2],[3]]","4","0","","","","","","7","",""
"","","","","","single-stim-button","253","595919","0.0-3.0-22.1-1.1","56169e435c62cf000f822c76","E1","batch5","","5236","","","tol_toboard","","","","","","","","","tol_peg_3","5236","5236","0","[[1,2,0],[0,0],[3]]","2","[[0,0,0],[1,2],[3]]","4","0","","","","","","7","",""
"","","","","","single-stim-button","254","604204","0.0-3.0-22.2-0.2","56169e435c62cf000f822c76","E1","batch5","","8284","","","tol_tohand","","","","","","","","","tol_peg_3","8284","8284","0","[[1,2,0],[0,0],[0]]","3","[[0,0,0],[1,2],[3]]","4","0","","","","","","7","",""
"","","","","","single-stim-button","255","608269","0.0-3.0-22.2-1.2","56169e435c62cf000f822c76","E1","batch5","","4064","","","tol_toboard","","","","","","","","","tol_peg_3","4064","4064","0","[[1,2,0],[0,0],[3]]","3","[[0,0,0],[1,2],[3]]","4","0","","","","","","7","",""
"","","","","","single-stim-button","256","609546","0.0-3.0-22.3-0.3","56169e435c62cf000f822c76","E1","batch5","","1274","","","tol_tohand","","","","","","","","","tol_peg_1","1274","1274","0","[[1,0,0],[0,0],[3]]","4","[[0,0,0],[1,2],[3]]","4","0","","","","","","7","",""
"","","","","","single-stim-button","257","611830","0.0-3.0-22.3-1.3","56169e435c62cf000f822c76","E1","batch5","","2284","","","tol_toboard","","","","","","","","","tol_peg_2","2284","2284","0","[[1,0,0],[2,0],[3]]","4","[[0,0,0],[1,2],[3]]","4","0","","","","","","7","",""
"","","","","","single-stim-button","258","612862","0.0-3.0-22.4-0.4","56169e435c62cf000f822c76","E1","batch5","","1031","","","tol_tohand","","","","","","","","","tol_peg_1","1031","1031","0","[[0,0,0],[2,0],[3]]","5","[[0,0,0],[1,2],[3]]","4","0","","","","","","7","",""
"","","","","","single-stim-button","259","615647","0.0-3.0-22.4-1.4","56169e435c62cf000f822c76","E1","batch5","","2784","","","tol_toboard","","","","","","","","","tol_peg_2","2784","2784","0","[[0,0,0],[2,1],[3]]","5","[[0,0,0],[1,2],[3]]","4","0","","","","","","7","",""
"","","","","","single-stim-button","260","616829","0.0-3.0-22.5-0.5","56169e435c62cf000f822c76","E1","batch5","","1181","","","tol_tohand","","","","","","","","","tol_peg_3","1181","1181","0","[[0,0,0],[2,1],[0]]","6","[[0,0,0],[1,2],[3]]","4","0","","","","","","7","",""
"","","","","","single-stim-button","261","618153","0.0-3.0-22.5-1.5","56169e435c62cf000f822c76","E1","batch5","","1323","","","tol_toboard","","","","","","","","","tol_peg_1","1323","1323","0","[[3,0,0],[2,1],[0]]","6","[[0,0,0],[1,2],[3]]","4","0","","","","","","7","",""
"","","","","","single-stim-button","262","619500","0.0-3.0-22.6-0.6","56169e435c62cf000f822c76","E1","batch5","","1346","","","tol_tohand","","","","","","","","","tol_peg_2","1346","1346","0","[[3,0,0],[2,0],[0]]","7","[[0,0,0],[1,2],[3]]","4","0","","","","","","7","",""
"","","","","","single-stim-button","263","621330","0.0-3.0-22.6-1.6","56169e435c62cf000f822c76","E1","batch5","","1830","","","tol_toboard","","","","","","","","","tol_peg_3","1830","1830","0","[[3,0,0],[2,0],[1]]","7","[[0,0,0],[1,2],[3]]","4","0","","","","","","7","",""
"","","","","","single-stim-button","264","622316","0.0-3.0-22.7-0.7","56169e435c62cf000f822c76","E1","batch5","","986","","","tol_tohand","","","","","","","","","tol_peg_2","986","986","0","[[3,0,0],[0,0],[1]]","8","[[0,0,0],[1,2],[3]]","4","0","","","","","","7","",""
"","","","","","single-stim-button","265","623479","0.0-3.0-22.7-1.7","56169e435c62cf000f822c76","E1","batch5","","1163","","","tol_toboard","","","","","","","","","tol_peg_1","1163","1163","0","[[3,2,0],[0,0],[1]]","8","[[0,0,0],[1,2],[3]]","4","0","","","","","","7","",""
"","","","","","single-stim-button","266","624597","0.0-3.0-22.8-0.8","56169e435c62cf000f822c76","E1","batch5","","1118","","","tol_tohand","","","","","","","","","tol_peg_3","1118","1118","0","[[3,2,0],[0,0],[0]]","9","[[0,0,0],[1,2],[3]]","4","0","","","","","","7","",""
"","","","","","single-stim-button","267","625996","0.0-3.0-22.8-1.8","56169e435c62cf000f822c76","E1","batch5","","1399","","","tol_toboard","","","","","","","","","tol_peg_2","1399","1399","0","[[3,2,0],[1,0],[0]]","9","[[0,0,0],[1,2],[3]]","4","0","","","","","","7","",""
"","","","","","single-stim-button","268","627056","0.0-3.0-22.9-0.9","56169e435c62cf000f822c76","E1","batch5","","1059","","","tol_tohand","","","","","","","","","tol_peg_1","1059","1059","0","[[3,0,0],[1,0],[0]]","10","[[0,0,0],[1,2],[3]]","4","0","","","","","","7","",""
"","","","","","single-stim-button","269","628958","0.0-3.0-22.9-1.9","56169e435c62cf000f822c76","E1","batch5","","1902","","","tol_toboard","","","","","","","","","tol_peg_2","1902","1902","0","[[3,0,0],[1,2],[0]]","10","[[0,0,0],[1,2],[3]]","4","0","","","","","","7","",""
"","","","","","single-stim-button","270","630431","0.0-3.0-22.10-0.10","56169e435c62cf000f822c76","E1","batch5","","1472","","","tol_tohand","","","","","","","","","tol_peg_1","1472","1472","0","[[0,0,0],[1,2],[0]]","11","[[0,0,0],[1,2],[3]]","4","0","","","","","","7","",""
"","","","","","single-stim-button","271","631532","0.0-3.0-22.10-1.10","56169e435c62cf000f822c76","E1","batch5","","1098","","","tol_toboard","","","","","","","","","tol_peg_3","1098","1098","0","[[0,0,0],[1,2],[3]]","11","[[0,0,0],[1,2],[3]]","4","0","","","","","","7","",""
"","","","","","poldrack-single-stim","272","632537","0.0-3.0-23.0","56169e435c62cf000f822c76","E1","batch5","","-1","","","tol_feedback","true","","","","","","","","","1000","1000","500","","","","","","-1","none","true","3471","22451","","",""
"","","","","","html-button-response","273","633328","0.0-3.0-24.0","56169e435c62cf000f822c76","E1","batch5","","789","<div class = centerbox><p class = center-block-text>problem <strong>6</strong> out of 25 problems</p></div>","0","tol_trial_num","","","","","","","","","","","","","","","","","","","","","","","","",""
"","","","","","single-stim-button","274","640655","0.0-3.0-25.0-0.0","56169e435c62cf000f822c76","E1","batch5","","7324","","","tol_tohand","","","","","","","","","tol_peg_3","7324","7324","0","[[0,0,0],[1,2],[0]]","1","[[1,0,0],[2,3],[0]]","5","0","","","","","","6","",""
"","","","","","single-stim-button","275","645435","0.0-3.0-25.0-1.0","56169e435c62cf000f822c76","E1","batch5","","4778","","","tol_toboard","","","","","","","","","tol_peg_1","4778","4778","0","[[3,0,0],[1,2],[0]]","1","[[1,0,0],[2,3],[0]]","5","0","","","","","","6","",""
"","","","","","single-stim-button","276","646698","0.0-3.0-25.1-0.1","56169e435c62cf000f822c76","E1","batch5","","1260","","","tol_tohand","","","","","","","","","tol_peg_2","1260","1260","0","[[3,0,0],[1,0],[0]]","2","[[1,0,0],[2,3],[0]]","5","0","","","","","","6","",""
"","","","","","single-stim-button","277","648526","0.0-3.0-25.1-1.1","56169e435c62cf000f822c76","E1","batch5","","1828","","","tol_toboard","","","","","","","","","tol_peg_3","1828","1828","0","[[3,0,0],[1,0],[2]]","2","[[1,0,0],[2,3],[0]]","5","0","","","","","","6","",""
"","","","","","single-stim-button","278","657384","0.0-3.0-25.2-0.2","56169e435c62cf000f822c76","E1","batch5","","8857","","","tol_tohand","","","","","","","","","tol_peg_2","8857","8857","0","[[3,0,0],[0,0],[2]]","3","[[1,0,0],[2,3],[0]]","5","0","","","","","","6","",""
"","","","","","single-stim-button","279","659434","0.0-3.0-25.2-1.2","56169e435c62cf000f822c76","E1","batch5","","2050","","","tol_toboard","","","","","","","","","tol_peg_1","2050","2050","0","[[3,1,0],[0,0],[2]]","3","[[1,0,0],[2,3],[0]]","5","0","","","","","","6","",""
"","","","","","single-stim-button","280","661193","0.0-3.0-25.3-0.3","56169e435c62cf000f822c76","E1","batch5","","1757","","","tol_tohand","","","","","","","","","tol_peg_3","1757","1757","0","[[3,1,0],[0,0],[0]]","4","[[1,0,0],[2,3],[0]]","5","0","","","","","","6","",""
"","","","","","single-stim-button","281","662684","0.0-3.0-25.3-1.3","56169e435c62cf000f822c76","E1","batch5","","1490","","","tol_toboard","","","","","","","","","tol_peg_2","1490","1490","0","[[3,1,0],[2,0],[0]]","4","[[1,0,0],[2,3],[0]]","5","0","","","","","","6","",""
"","","","","","single-stim-button","282","663914","0.0-3.0-25.4-0.4","56169e435c62cf000f822c76","E1","batch5","","1229","","","tol_tohand","","","","","","","","","tol_peg_1","1229","1229","0","[[3,0,0],[2,0],[0]]","5","[[1,0,0],[2,3],[0]]","5","0","","","","","","6","",""
"","","","","","single-stim-button","283","665874","0.0-3.0-25.4-1.4","56169e435c62cf000f822c76","E1","batch5","","1960","","","tol_toboard","","","","","","","","","tol_peg_3","1960","1960","0","[[3,0,0],[2,0],[1]]","5","[[1,0,0],[2,3],[0]]","5","0","","","","","","6","",""
"","","","","","single-stim-button","284","668210","0.0-3.0-25.5-0.5","56169e435c62cf000f822c76","E1","batch5","","2335","","","tol_tohand","","","","","","","","","tol_peg_1","2335","2335","0","[[0,0,0],[2,0],[1]]","6","[[1,0,0],[2,3],[0]]","5","0","","","","","","6","",""
"","","","","","single-stim-button","285","669966","0.0-3.0-25.5-1.5","56169e435c62cf000f822c76","E1","batch5","","1756","","","tol_toboard","","","","","","","","","tol_peg_2","1756","1756","0","[[0,0,0],[2,3],[1]]","6","[[1,0,0],[2,3],[0]]","5","0","","","","","","6","",""
"","","","","","single-stim-button","286","671025","0.0-3.0-25.6-0.6","56169e435c62cf000f822c76","E1","batch5","","1059","","","tol_tohand","","","","","","","","","tol_peg_3","1059","1059","0","[[0,0,0],[2,3],[0]]","7","[[1,0,0],[2,3],[0]]","5","0","","","","","","6","",""
"","","","","","single-stim-button","287","672362","0.0-3.0-25.6-1.6","56169e435c62cf000f822c76","E1","batch5","","1336","","","tol_toboard","","","","","","","","","tol_peg_1","1336","1336","0","[[1,0,0],[2,3],[0]]","7","[[1,0,0],[2,3],[0]]","5","0","","","","","","6","",""
"","","","","","poldrack-single-stim","288","673376","0.0-3.0-26.0","56169e435c62cf000f822c76","E1","batch5","","-1","","","tol_feedback","true","","","","","","","","","1000","1000","500","","","","","","-1","none","true","7324","23821","","",""
"","","","","","html-button-response","289","674265","0.0-3.0-27.0","56169e435c62cf000f822c76","E1","batch5","","888","<div class = centerbox><p class = center-block-text>problem <strong>7</strong> out of 25 problems</p></div>","0","tol_trial_num","","","","","","","","","","","","","","","","","","","","","","","","",""
"","","","","","single-stim-button","290","682976","0.0-3.0-28.0-0.0","56169e435c62cf000f822c76","E1","batch5","","8709","","","tol_tohand","","","","","","","","","tol_peg_1","8709","8709","0","[[2,0,0],[0,0],[3]]","1","[[1,2,0],[3,0],[0]]","6","0","","","","","","5","",""
"","","","","","single-stim-button","291","684377","0.0-3.0-28.0-1.0","56169e435c62cf000f822c76","E1","batch5","","1400","","","tol_toboard","","","","","","","","","tol_peg_2","1400","1400","0","[[2,0,0],[1,0],[3]]","1","[[1,2,0],[3,0],[0]]","6","0","","","","","","5","",""
"","","","","","single-stim-button","292","685408","0.0-3.0-28.1-0.1","56169e435c62cf000f822c76","E1","batch5","","1031","","","tol_tohand","","","","","","","","","tol_peg_1","1031","1031","0","[[0,0,0],[1,0],[3]]","2","[[1,2,0],[3,0],[0]]","6","0","","","","","","5","",""
"","","","","","single-stim-button","293","695966","0.0-3.0-28.1-1.1","56169e435c62cf000f822c76","E1","batch5","","10556","","","tol_toboard","","","","","","","","","tol_peg_2","10556","10556","0","[[0,0,0],[1,2],[3]]","2","[[1,2,0],[3,0],[0]]","6","0","","","","","","5","",""
"","","","","","single-stim-button","294","696972","0.0-3.0-28.2-0.2","56169e435c62cf000f822c76","E1","batch5","","1005","","","tol_tohand","","","","","","","","","tol_peg_3","1005","1005","0","[[0,0,0],[1,2],[0]]","3","[[1,2,0],[3,0],[0]]","6","0","","","","","","5","",""
"","","","","","single-stim-button","295","700039","0.0-3.0-28.2-1.2","56169e435c62cf000f822c76","E1","batch5","","3067","","","tol_toboard","","","","","","","","","tol_peg_1","3067","3067","0","[[3,0,0],[1,2],[0]]","3","[[1,2,0],[3,0],[0]]","6","0","","","","","","5","",""
"","","","","","single-stim-button","296","708398","0.0-3.0-28.3-0.3","56169e435c62cf000f822c76","E1","batch5","","8358","","","tol_tohand","","","","","","","","","tol_peg_1","8358","8358","0","[[0,0,0],[1,2],[0]]","4","[[1,2,0],[3,0],[0]]","6","0","","","","","","5","",""
"","","","","","single-stim-button","297","710637","0.0-3.0-28.3-1.3","56169e435c62cf000f822c76","E1","batch5","","2237","","","tol_toboard","","","","","","","","","tol_peg_3","2237","2237","0","[[0,0,0],[1,2],[3]]","4","[[1,2,0],[3,0],[0]]","6","0","","","","","","5","",""
"","","","","","single-stim-button","298","715032","0.0-3.0-28.4-0.4","56169e435c62cf000f822c76","E1","batch5","","4395","","","tol_tohand","","","","","","","","","tol_peg_3","4395","4395","0","[[0,0,0],[1,2],[0]]","5","[[1,2,0],[3,0],[0]]","6","0","","","","","","5","",""
"","","","","","single-stim-button","299","720385","0.0-3.0-28.4-1.4","56169e435c62cf000f822c76","E1","batch5","","5352","","","tol_toboard","","","","","","","","","tol_peg_1","5352","5352","0","[[3,0,0],[1,2],[0]]","5","[[1,2,0],[3,0],[0]]","6","0","","","","","","5","",""
"","","","","","single-stim-button","300","721881","0.0-3.0-28.5-0.5","56169e435c62cf000f822c76","E1","batch5","","1494","","","tol_tohand","","","","","","","","","tol_peg_2","1494","1494","0","[[3,0,0],[1,0],[0]]","6","[[1,2,0],[3,0],[0]]","6","0","","","","","","5","",""
"","","","","","single-stim-button","301","723820","0.0-3.0-28.5-1.5","56169e435c62cf000f822c76","E1","batch5","","1938","","","tol_toboard","","","","","","","","","tol_peg_1","1938","1938","0","[[3,2,0],[1,0],[0]]","6","[[1,2,0],[3,0],[0]]","6","0","","","","","","5","",""
"","","","","","single-stim-button","302","725062","0.0-3.0-28.6-0.6","56169e435c62cf000f822c76","E1","batch5","","1241","","","tol_tohand","","","","","","","","","tol_peg_2","1241","1241","0","[[3,2,0],[0,0],[0]]","7","[[1,2,0],[3,0],[0]]","6","0","","","","","","5","",""
"","","","","","single-stim-button","303","726431","0.0-3.0-28.6-1.6","56169e435c62cf000f822c76","E1","batch5","","1369","","","tol_toboard","","","","","","","","","tol_peg_3","1369","1369","0","[[3,2,0],[0,0],[1]]","7","[[1,2,0],[3,0],[0]]","6","0","","","","","","5","",""
"","","","","","single-stim-button","304","730406","0.0-3.0-28.7-0.7","56169e435c62cf000f822c76","E1","batch5","","3974","","","tol_tohand","","","","","","","","","tol_peg_1","3974","3974","0","[[3,0,0],[0,0],[1]]","8","[[1,2,0],[3,0],[0]]","6","0","","","","","","5","",""
"","","","","","single-stim-button","305","732464","0.0-3.0-28.7-1.7","56169e435c62cf000f822c76","E1","batch5","","2057","","","tol_toboard","","","","","","","","","tol_peg_2","2057","2057","0","[[3,0,0],[2,0],[1]]","8","[[1,2,0],[3,0],[0]]","6","0","","","","","","5","",""
"","","","","","single-stim-button","306","733471","0.0-3.0-28.8-0.8","56169e435c62cf000f822c76","E1","batch5","","1005","","","tol_tohand","","","","","","","","","tol_peg_1","1005","1005","0","[[0,0,0],[2,0],[1]]","9","[[1,2,0],[3,0],[0]]","6","0","","","","","","5","",""
"","","","","","single-stim-button","307","735333","0.0-3.0-28.8-1.8","56169e435c62cf000f822c76","E1","batch5","","1861","","","tol_toboard","","","","","","","","","tol_peg_2","1861","1861","0","[[0,0,0],[2,3],[1]]","9","[[1,2,0],[3,0],[0]]","6","0","","","","","","5","",""
"","","","","","single-stim-button","308","736415","0.0-3.0-28.9-0.9","56169e435c62cf000f822c76","E1","batch5","","1082","","","tol_tohand","","","","","","","","","tol_peg_3","1082","1082","0","[[0,0,0],[2,3],[0]]","10","[[1,2,0],[3,0],[0]]","6","0","","","","","","5","",""
"","","","","","single-stim-button","309","737989","0.0-3.0-28.9-1.9","56169e435c62cf000f822c76","E1","batch5","","1573","","","tol_toboard","","","","","","","","","tol_peg_1","1573","1573","0","[[1,0,0],[2,3],[0]]","10","[[1,2,0],[3,0],[0]]","6","0","","","","","","5","",""
"","","","","","single-stim-button","310","739238","0.0-3.0-28.10-0.10","56169e435c62cf000f822c76","E1","batch5","","1249","","","tol_tohand","","","","","","","","","tol_peg_2","1249","1249","0","[[1,0,0],[2,0],[0]]","11","[[1,2,0],[3,0],[0]]","6","0","","","","","","5","",""
"","","","","","single-stim-button","311","740569","0.0-3.0-28.10-1.10","56169e435c62cf000f822c76","E1","batch5","","1329","","","tol_toboard","","","","","","","","","tol_peg_3","1329","1329","0","[[1,0,0],[2,0],[3]]","11","[[1,2,0],[3,0],[0]]","6","0","","","","","","5","",""
"","","","","","single-stim-button","312","741604","0.0-3.0-28.11-0.11","56169e435c62cf000f822c76","E1","batch5","","1034","","","tol_tohand","","","","","","","","","tol_peg_2","1034","1034","0","[[1,0,0],[0,0],[3]]","12","[[1,2,0],[3,0],[0]]","6","0","","","","","","5","",""
"","","","","","single-stim-button","313","743233","0.0-3.0-28.11-1.11","56169e435c62cf000f822c76","E1","batch5","","1629","","","tol_toboard","","","","","","","","","tol_peg_1","1629","1629","0","[[1,2,0],[0,0],[3]]","12","[[1,2,0],[3,0],[0]]","6","0","","","","","","5","",""
"","","","","","single-stim-button","314","744285","0.0-3.0-28.12-0.12","56169e435c62cf000f822c76","E1","batch5","","1050","","","tol_tohand","","","","","","","","","tol_peg_3","1050","1050","0","[[1,2,0],[0,0],[0]]","13","[[1,2,0],[3,0],[0]]","6","0","","","","","","5","",""
"","","","","","single-stim-button","315","745460","0.0-3.0-28.12-1.12","56169e435c62cf000f822c76","E1","batch5","","1174","","","tol_toboard","","","","","","","","","tol_peg_2","1174","1174","0","[[1,2,0],[3,0],[0]]","13","[[1,2,0],[3,0],[0]]","6","0","","","","","","5","",""
"","","","","","poldrack-single-stim","316","746476","0.0-3.0-29.0","56169e435c62cf000f822c76","E1","batch5","","-1","","","tol_feedback","true","","","","","","","","","1000","1000","500","","","","","","-1","none","true","8709","35627","","",""
"","","","","","html-button-response","317","747383","0.0-3.0-30.0","56169e435c62cf000f822c76","E1","batch5","","905","<div class = centerbox><p class = center-block-text>problem <strong>8</strong> out of 25 problems</p></div>","0","tol_trial_num","","","","","","","","","","","","","","","","","","","","","","","","",""
"","","","","","single-stim-button","318","752040","0.0-3.0-31.0-0.0","56169e435c62cf000f822c76","E1","batch5","","4653","","","tol_tohand","","","","","","","","","tol_peg_3","4653","4653","0","[[0,0,0],[2,3],[0]]","1","[[1,2,0],[3,0],[0]]","7","0","","","","","","4","",""
"","","","","","single-stim-button","319","753481","0.0-3.0-31.0-1.0","56169e435c62cf000f822c76","E1","batch5","","1439","","","tol_toboard","","","","","","","","","tol_peg_1","1439","1439","0","[[1,0,0],[2,3],[0]]","1","[[1,2,0],[3,0],[0]]","7","0","","","","","","4","",""
"","","","","","single-stim-button","320","754615","0.0-3.0-31.1-0.1","56169e435c62cf000f822c76","E1","batch5","","1133","","","tol_tohand","","","","","","","","","tol_peg_2","1133","1133","0","[[1,0,0],[2,0],[0]]","2","[[1,2,0],[3,0],[0]]","7","0","","","","","","4","",""
"","","","","","single-stim-button","321","755878","0.0-3.0-31.1-1.1","56169e435c62cf000f822c76","E1","batch5","","1262","","","tol_toboard","","","","","","","","","tol_peg_3","1262","1262","0","[[1,0,0],[2,0],[3]]","2","[[1,2,0],[3,0],[0]]","7","0","","","","","","4","",""
"","","","","","single-stim-button","322","757045","0.0-3.0-31.2-0.2","56169e435c62cf000f822c76","E1","batch5","","1166","","","tol_tohand","","","","","","","","","tol_peg_2","1166","1166","0","[[1,0,0],[0,0],[3]]","3","[[1,2,0],[3,0],[0]]","7","0","","","","","","4","",""
"","","","","","single-stim-button","323","758304","0.0-3.0-31.2-1.2","56169e435c62cf000f822c76","E1","batch5","","1258","","","tol_toboard","","","","","","","","","tol_peg_1","1258","1258","0","[[1,2,0],[0,0],[3]]","3","[[1,2,0],[3,0],[0]]","7","0","","","","","","4","",""
"","","","","","single-stim-button","324","759779","0.0-3.0-31.3-0.3","56169e435c62cf000f822c76","E1","batch5","","1475","","","tol_tohand","","","","","","","","","tol_peg_3","1475","1475","0","[[1,2,0],[0,0],[0]]","4","[[1,2,0],[3,0],[0]]","7","0","","","","","","4","",""
"","","","","","single-stim-button","325","761010","0.0-3.0-31.3-1.3","56169e435c62cf000f822c76","E1","batch5","","1230","","","tol_toboard","","","","","","","","","tol_peg_2","1230","1230","0","[[1,2,0],[3,0],[0]]","4","[[1,2,0],[3,0],[0]]","7","0","","","","","","4","",""
"","","","","","poldrack-single-stim","326","762020","0.0-3.0-32.0","56169e435c62cf000f822c76","E1","batch5","","-1","","","tol_feedback","true","","","","","","","","","1000","1000","500","","","","","","-1","none","true","4653","8427","","",""
"","","","","","html-button-response","327","763111","0.0-3.0-33.0","56169e435c62cf000f822c76","E1","batch5","","1091","<div class = centerbox><p class = center-block-text>problem <strong>9</strong> out of 25 problems</p></div>","0","tol_trial_num","","","","","","","","","","","","","","","","","","","","","","","","",""
"","","","","","single-stim-button","328","777263","0.0-3.0-34.0-0.0","56169e435c62cf000f822c76","E1","batch5","","14151","","","tol_tohand","","","","","","","","","tol_peg_1","14151","14151","0","[[3,0,0],[0,0],[1]]","1","[[2,1,0],[3,0],[0]]","8","0","","","","","","6","",""
"","","","","","single-stim-button","329","779628","0.0-3.0-34.0-1.0","56169e435c62cf000f822c76","E1","batch5","","2364","","","tol_toboard","","","","","","","","","tol_peg_2","2364","2364","0","[[3,0,0],[2,0],[1]]","1","[[2,1,0],[3,0],[0]]","8","0","","","","","","6","",""
"","","","","","single-stim-button","330","784486","0.0-3.0-34.1-0.1","56169e435c62cf000f822c76","E1","batch5","","4857","","","tol_tohand","","","","","","","","","tol_peg_1","4857","4857","0","[[0,0,0],[2,0],[1]]","2","[[2,1,0],[3,0],[0]]","8","0","","","","","","6","",""
"","","","","","single-stim-button","331","788195","0.0-3.0-34.1-1.1","56169e435c62cf000f822c76","E1","batch5","","3707","","","tol_toboard","","","","","","","","","tol_peg_1","3707","3707","0","[[3,0,0],[2,0],[1]]","2","[[2,1,0],[3,0],[0]]","8","0","","","","","","6","",""
"","","","","","single-stim-button","332","789155","0.0-3.0-34.2-0.2","56169e435c62cf000f822c76","E1","batch5","","957","","","tol_tohand","","","","","","","","","tol_peg_3","957","957","0","[[3,0,0],[2,0],[0]]","3","[[2,1,0],[3,0],[0]]","8","0","","","","","","6","",""
"","","","","","single-stim-button","333","800276","0.0-3.0-34.2-1.2","56169e435c62cf000f822c76","E1","batch5","","11119","","","tol_toboard","","","","","","","","","tol_peg_1","11119","11119","0","[[3,1,0],[2,0],[0]]","3","[[2,1,0],[3,0],[0]]","8","0","","","","","","6","",""
"","","","","","single-stim-button","334","801452","0.0-3.0-34.3-0.3","56169e435c62cf000f822c76","E1","batch5","","1176","","","tol_tohand","","","","","","","","","tol_peg_2","1176","1176","0","[[3,1,0],[0,0],[0]]","4","[[2,1,0],[3,0],[0]]","8","0","","","","","","6","",""
"","","","","","single-stim-button","335","802519","0.0-3.0-34.3-1.3","56169e435c62cf000f822c76","E1","batch5","","1067","","","tol_toboard","","","","","","","","","tol_peg_3","1067","1067","0","[[3,1,0],[0,0],[2]]","4","[[2,1,0],[3,0],[0]]","8","0","","","","","","6","",""
"","","","","","single-stim-button","336","803816","0.0-3.0-34.4-0.4","56169e435c62cf000f822c76","E1","batch5","","1296","","","tol_tohand","","","","","","","","","tol_peg_1","1296","1296","0","[[3,0,0],[0,0],[2]]","5","[[2,1,0],[3,0],[0]]","8","0","","","","","","6","",""
"","","","","","single-stim-button","337","805500","0.0-3.0-34.4-1.4","56169e435c62cf000f822c76","E1","batch5","","1682","","","tol_toboard","","","","","","","","","tol_peg_2","1682","1682","0","[[3,0,0],[1,0],[2]]","5","[[2,1,0],[3,0],[0]]","8","0","","","","","","6","",""
"","","","","","single-stim-button","338","806620","0.0-3.0-34.5-0.5","56169e435c62cf000f822c76","E1","batch5","","1120","","","tol_tohand","","","","","","","","","tol_peg_1","1120","1120","0","[[0,0,0],[1,0],[2]]","6","[[2,1,0],[3,0],[0]]","8","0","","","","","","6","",""
"","","","","","single-stim-button","339","808035","0.0-3.0-34.5-1.5","56169e435c62cf000f822c76","E1","batch5","","1413","","","tol_toboard","","","","","","","","","tol_peg_2","1413","1413","0","[[0,0,0],[1,3],[2]]","6","[[2,1,0],[3,0],[0]]","8","0","","","","","","6","",""
"","","","","","single-stim-button","340","808897","0.0-3.0-34.6-0.6","56169e435c62cf000f822c76","E1","batch5","","861","","","tol_tohand","","","","","","","","","tol_peg_3","861","861","0","[[0,0,0],[1,3],[0]]","7","[[2,1,0],[3,0],[0]]","8","0","","","","","","6","",""
"","","","","","single-stim-button","341","810421","0.0-3.0-34.6-1.6","56169e435c62cf000f822c76","E1","batch5","","1524","","","tol_toboard","","","","","","","","","tol_peg_1","1524","1524","0","[[2,0,0],[1,3],[0]]","7","[[2,1,0],[3,0],[0]]","8","0","","","","","","6","",""
"","","","","","single-stim-button","342","811424","0.0-3.0-34.7-0.7","56169e435c62cf000f822c76","E1","batch5","","999","","","tol_tohand","","","","","","","","","tol_peg_2","999","999","0","[[2,0,0],[1,0],[0]]","8","[[2,1,0],[3,0],[0]]","8","0","","","","","","6","",""
"","","","","","single-stim-button","343","812516","0.0-3.0-34.7-1.7","56169e435c62cf000f822c76","E1","batch5","","1092","","","tol_toboard","","","","","","","","","tol_peg_3","1092","1092","0","[[2,0,0],[1,0],[3]]","8","[[2,1,0],[3,0],[0]]","8","0","","","","","","6","",""
"","","","","","single-stim-button","344","813445","0.0-3.0-34.8-0.8","56169e435c62cf000f822c76","E1","batch5","","927","","","tol_tohand","","","","","","","","","tol_peg_2","927","927","0","[[2,0,0],[0,0],[3]]","9","[[2,1,0],[3,0],[0]]","8","0","","","","","","6","",""
"","","","","","single-stim-button","345","814641","0.0-3.0-34.8-1.8","56169e435c62cf000f822c76","E1","batch5","","1192","","","tol_toboard","","","","","","","","","tol_peg_1","1192","1192","0","[[2,1,0],[0,0],[3]]","9","[[2,1,0],[3,0],[0]]","8","0","","","","","","6","",""
"","","","","","single-stim-button","346","815615","0.0-3.0-34.9-0.9","56169e435c62cf000f822c76","E1","batch5","","974","","","tol_tohand","","","","","","","","","tol_peg_3","974","974","0","[[2,1,0],[0,0],[0]]","10","[[2,1,0],[3,0],[0]]","8","0","","","","","","6","",""
"","","","","","single-stim-button","347","816741","0.0-3.0-34.9-1.9","56169e435c62cf000f822c76","E1","batch5","","1124","","","tol_toboard","","","","","","","","","tol_peg_2","1124","1124","0","[[2,1,0],[3,0],[0]]","10","[[2,1,0],[3,0],[0]]","8","0","","","","","","6","",""
"","","","","","poldrack-single-stim","348","817753","0.0-3.0-35.0","56169e435c62cf000f822c76","E1","batch5","","-1","","","tol_feedback","true","","","","","","","","","1000","1000","500","","","","","","-1","none","true","14151","27318","","",""
"","","","","","html-button-response","349","818726","0.0-3.0-36.0","56169e435c62cf000f822c76","E1","batch5","","968","<div class = centerbox><p class = center-block-text>problem <strong>10</strong> out of 25 problems</p></div>","0","tol_trial_num","","","","","","","","","","","","","","","","","","","","","","","","",""
"","","","","","single-stim-button","350","823858","0.0-3.0-37.0-0.0","56169e435c62cf000f822c76","E1","batch5","","5129","","","tol_tohand","","","","","","","","","tol_peg_3","5129","5129","0","[[3,0,0],[1,0],[0]]","1","[[3,0,0],[2,1],[0]]","9","0","","","","","","3","",""
"","","","","","single-stim-button","351","825317","0.0-3.0-37.0-1.0","56169e435c62cf000f822c76","E1","batch5","","1458","","","tol_toboard","","","","","","","","","tol_peg_1","1458","1458","0","[[3,2,0],[1,0],[0]]","1","[[3,0,0],[2,1],[0]]","9","0","","","","","","3","",""
"","","","","","single-stim-button","352","826402","0.0-3.0-37.1-0.1","56169e435c62cf000f822c76","E1","batch5","","1084","","","tol_tohand","","","","","","","","","tol_peg_2","1084","1084","0","[[3,2,0],[0,0],[0]]","2","[[3,0,0],[2,1],[0]]","9","0","","","","","","3","",""
"","","","","","single-stim-button","353","827352","0.0-3.0-37.1-1.1","56169e435c62cf000f822c76","E1","batch5","","949","","","tol_toboard","","","","","","","","","tol_peg_3","949","949","0","[[3,2,0],[0,0],[1]]","2","[[3,0,0],[2,1],[0]]","9","0","","","","","","3","",""
"","","","","","single-stim-button","354","828395","0.0-3.0-37.2-0.2","56169e435c62cf000f822c76","E1","batch5","","1042","","","tol_tohand","","","","","","","","","tol_peg_1","1042","1042","0","[[3,0,0],[0,0],[1]]","3","[[3,0,0],[2,1],[0]]","9","0","","","","","","3","",""
