"success","timeout","failed_images","failed_audio","failed_video","trial_type","trial_index","time_elapsed","internal_node_id","subject_id","study_id","session_id","task","rt","stimulus","response","item","answer","correct","spm_correct","spm_rt","view_history","mouse_click","stim_duration","block_duration","timing_post_trial","current_position","tol_num_moves_made","tol_target","tol_problem_id","tol_rt","key_press","possible_responses","tol_correct","preplanning","tol_rt_per_trial","tol_min_moves","fiar_detect_rt","fiar_detect_correct","total_correct_fiar_detect","post_trial_gap","choices"
"true","false","[]","[]","[]","preload","0","8204","0.0-0.0","5654b02b04212700104a1d45","D2","batch4","","","","","","","","","","","","","","","","","","","","","","","","","","","","","",""
"true","","","","","fullscreen","1","19148","0.0-1.0-0.0","5654b02b04212700104a1d45","D2","batch4","","","","","","","","","","","","","","","","","","","","","","","","","","","","","",""
"true","","","","","fullscreen","2","22514","0.0-2.0-0.0","5654b02b04212700104a1d45","D2","batch4","spm_fullscreen","","","","","","","","","","","","","","","","","","","","","","","","","","","","",""
"","","","","","html-button-response","3","29053","0.0-2.0-1.0","5654b02b04212700104a1d45","D2","batch4","","6537","<p class = block-text><b>Instructions</b> <br>This is a widely used intelligence test in research. <br>In this test, a figure with a missing piece will be presented.<br>Below the figure are alternative pieces to complete the figure, only one of which is correct.<br> Different figures might involve different principles for obtaining the missing piece<br>Your job is to select the most logical piece to complete the figure.</p>","0","","","","","","","","","","","","","","","","","","","","","","","","","",""
"","","","","","html-keyboard-response","4","29858","0.0-2.0-2.0-0.0","5654b02b04212700104a1d45","D2","batch4","spm_show_trial_num","null","<p class=block-text>Trial 1 out of 60</p>","null","","","","","","","","","","","","","","","","","","","","","","","","","",""
"","","","","","image-button-response","5","37559","0.0-2.0-2.0-1.0","5654b02b04212700104a1d45","D2","batch4","spm_respsonse","7699","img/question_1_1.jpeg","2","mat_01","4","0","0","7699","","","","","","","","","","","","","","","","","","","","",""
"","","","","","html-keyboard-response","6","38628","0.0-2.0-2.0-0.1","5654b02b04212700104a1d45","D2","batch4","spm_show_trial_num","null","<p class=block-text>Trial 2 out of 60</p>","null","","","","","","","","","","","","","","","","","","","","","","","","","",""
"","","","","","image-button-response","7","46967","0.0-2.0-2.0-1.1","5654b02b04212700104a1d45","D2","batch4","spm_respsonse","8335","img/question_1_2.jpeg","4","mat_02","5","1","1","8335","","","","","","","","","","","","","","","","","","","","",""
"","","","","","html-keyboard-response","8","48033","0.0-2.0-2.0-0.2","5654b02b04212700104a1d45","D2","batch4","spm_show_trial_num","null","<p class=block-text>Trial 3 out of 60</p>","null","","","","","","","","","","","","","","","","","","","","","","","","","",""
"","","","","","image-button-response","9","50554","0.0-2.0-2.0-1.2","5654b02b04212700104a1d45","D2","batch4","spm_respsonse","2517","img/question_1_3.jpeg","0","mat_03","1","1","1","2517","","","","","","","","","","","","","","","","","","","","",""
"","","","","","html-keyboard-response","10","51635","0.0-2.0-2.0-0.3","5654b02b04212700104a1d45","D2","batch4","spm_show_trial_num","null","<p class=block-text>Trial 4 out of 60</p>","null","","","","","","","","","","","","","","","","","","","","","","","","","",""
"","","","","","image-button-response","11","54349","0.0-2.0-2.0-1.3","5654b02b04212700104a1d45","D2","batch4","spm_respsonse","2714","img/question_1_4.jpeg","1","mat_04","2","1","1","2714","","","","","","","","","","","","","","","","","","","","",""
"","","","","","html-keyboard-response","12","55424","0.0-2.0-2.0-0.4","5654b02b04212700104a1d45","D2","batch4","spm_show_trial_num","null","<p class=block-text>Trial 5 out of 60</p>","null","","","","","","","","","","","","","","","","","","","","","","","","","",""
"","","","","","image-button-response","13","59279","0.0-2.0-2.0-1.4","5654b02b04212700104a1d45","D2","batch4","spm_respsonse","3854","img/question_1_5.jpeg","5","mat_05","6","1","1","3854","","","","","","","","","","","","","","","","","","","","",""
"","","","","","html-keyboard-response","14","60347","0.0-2.0-2.0-0.5","5654b02b04212700104a1d45","D2","batch4","spm_show_trial_num","null","<p class=block-text>Trial 6 out of 60</p>","null","","","","","","","","","","","","","","","","","","","","","","","","","",""
"","","","","","image-button-response","15","63351","0.0-2.0-2.0-1.5","5654b02b04212700104a1d45","D2","batch4","spm_respsonse","3002","img/question_1_6.jpeg","2","mat_06","3","1","1","3002","","","","","","","","","","","","","","","","","","","","",""
"","","","","","html-keyboard-response","16","64408","0.0-2.0-2.0-0.6","5654b02b04212700104a1d45","D2","batch4","spm_show_trial_num","null","<p class=block-text>Trial 7 out of 60</p>","null","","","","","","","","","","","","","","","","","","","","","","","","","",""
"","","","","","image-button-response","17","70085","0.0-2.0-2.0-1.6","5654b02b04212700104a1d45","D2","batch4","spm_respsonse","5675","img/question_1_7.jpeg","5","mat_07","6","1","1","5675","","","","","","","","","","","","","","","","","","","","",""
"","","","","","html-keyboard-response","18","71151","0.0-2.0-2.0-0.7","5654b02b04212700104a1d45","D2","batch4","spm_show_trial_num","null","<p class=block-text>Trial 8 out of 60</p>","null","","","","","","","","","","","","","","","","","","","","","","","","","",""
"","","","","","image-button-response","19","77223","0.0-2.0-2.0-1.7","5654b02b04212700104a1d45","D2","batch4","spm_respsonse","6070","img/question_1_8.jpeg","1","mat_08","2","1","1","6070","","","","","","","","","","","","","","","","","","","","",""
"","","","","","html-keyboard-response","20","78291","0.0-2.0-2.0-0.8","5654b02b04212700104a1d45","D2","batch4","spm_show_trial_num","null","<p class=block-text>Trial 9 out of 60</p>","null","","","","","","","","","","","","","","","","","","","","","","","","","",""
"","","","","","image-button-response","21","82770","0.0-2.0-2.0-1.8","5654b02b04212700104a1d45","D2","batch4","spm_respsonse","4477","img/question_1_9.jpeg","0","mat_09","1","1","1","4477","","","","","","","","","","","","","","","","","","","","",""
"","","","","","html-keyboard-response","22","83846","0.0-2.0-2.0-0.9","5654b02b04212700104a1d45","D2","batch4","spm_show_trial_num","null","<p class=block-text>Trial 10 out of 60</p>","null","","","","","","","","","","","","","","","","","","","","","","","","","",""
"","","","","","image-button-response","23","88667","0.0-2.0-2.0-1.9","5654b02b04212700104a1d45","D2","batch4","spm_respsonse","4819","img/question_1_10.jpeg","2","mat_10","3","1","1","4819","","","","","","","","","","","","","","","","","","","","",""
"","","","","","html-keyboard-response","24","89733","0.0-2.0-2.0-0.10","5654b02b04212700104a1d45","D2","batch4","spm_show_trial_num","null","<p class=block-text>Trial 11 out of 60</p>","null","","","","","","","","","","","","","","","","","","","","","","","","","",""
"","","","","","image-button-response","25","97106","0.0-2.0-2.0-1.10","5654b02b04212700104a1d45","D2","batch4","spm_respsonse","7371","img/question_1_11.jpeg","3","mat_11","4","1","1","7371","","","","","","","","","","","","","","","","","","","","",""
"","","","","","html-keyboard-response","26","98174","0.0-2.0-2.0-0.11","5654b02b04212700104a1d45","D2","batch4","spm_show_trial_num","null","<p class=block-text>Trial 12 out of 60</p>","null","","","","","","","","","","","","","","","","","","","","","","","","","",""
"","","","","","image-button-response","27","108909","0.0-2.0-2.0-1.11","5654b02b04212700104a1d45","D2","batch4","spm_respsonse","10735","img/question_1_12.jpeg","4","mat_12","5","1","1","10735","","","","","","","","","","","","","","","","","","","","",""
"","","","","","html-keyboard-response","28","109980","0.0-2.0-2.0-0.12","5654b02b04212700104a1d45","D2","batch4","spm_show_trial_num","null","<p class=block-text>Trial 13 out of 60</p>","null","","","","","","","","","","","","","","","","","","","","","","","","","",""
"","","","","","image-button-response","29","112166","0.0-2.0-2.0-1.12","5654b02b04212700104a1d45","D2","batch4","spm_respsonse","2185","img/question_2_1.jpeg","1","mat_13","2","1","1","2185","","","","","","","","","","","","","","","","","","","","",""
"","","","","","html-keyboard-response","30","113238","0.0-2.0-2.0-0.13","5654b02b04212700104a1d45","D2","batch4","spm_show_trial_num","null","<p class=block-text>Trial 14 out of 60</p>","null","","","","","","","","","","","","","","","","","","","","","","","","","",""
"","","","","","image-button-response","31","118990","0.0-2.0-2.0-1.13","5654b02b04212700104a1d45","D2","batch4","spm_respsonse","5750","img/question_2_2.jpeg","5","mat_14","6","1","1","5750","","","","","","","","","","","","","","","","","","","","",""
"","","","","","html-keyboard-response","32","120059","0.0-2.0-2.0-0.14","5654b02b04212700104a1d45","D2","batch4","spm_show_trial_num","null","<p class=block-text>Trial 15 out of 60</p>","null","","","","","","","","","","","","","","","","","","","","","","","","","",""
"","","","","","image-button-response","33","123204","0.0-2.0-2.0-1.14","5654b02b04212700104a1d45","D2","batch4","spm_respsonse","3144","img/question_2_3.jpeg","0","mat_15","1","1","1","3144","","","","","","","","","","","","","","","","","","","","",""
"","","","","","html-keyboard-response","34","124281","0.0-2.0-2.0-0.15","5654b02b04212700104a1d45","D2","batch4","spm_show_trial_num","null","<p class=block-text>Trial 16 out of 60</p>","null","","","","","","","","","","","","","","","","","","","","","","","","","",""
"","","","","","image-button-response","35","129775","0.0-2.0-2.0-1.15","5654b02b04212700104a1d45","D2","batch4","spm_respsonse","5492","img/question_2_4.jpeg","1","mat_16","2","1","1","5492","","","","","","","","","","","","","","","","","","","","",""
"","","","","","html-keyboard-response","36","130839","0.0-2.0-2.0-0.16","5654b02b04212700104a1d45","D2","batch4","spm_show_trial_num","null","<p class=block-text>Trial 17 out of 60</p>","null","","","","","","","","","","","","","","","","","","","","","","","","","",""
"","","","","","image-button-response","37","141192","0.0-2.0-2.0-1.16","5654b02b04212700104a1d45","D2","batch4","spm_respsonse","10352","img/question_2_5.jpeg","0","mat_17","1","1","1","10352","","","","","","","","","","","","","","","","","","","","",""
"","","","","","html-keyboard-response","38","142270","0.0-2.0-2.0-0.17","5654b02b04212700104a1d45","D2","batch4","spm_show_trial_num","null","<p class=block-text>Trial 18 out of 60</p>","null","","","","","","","","","","","","","","","","","","","","","","","","","",""
"","","","","","image-button-response","39","146012","0.0-2.0-2.0-1.17","5654b02b04212700104a1d45","D2","batch4","spm_respsonse","3741","img/question_2_6.jpeg","2","mat_18","3","1","1","3741","","","","","","","","","","","","","","","","","","","","",""
"","","","","","html-keyboard-response","40","147083","0.0-2.0-2.0-0.18","5654b02b04212700104a1d45","D2","batch4","spm_show_trial_num","null","<p class=block-text>Trial 19 out of 60</p>","null","","","","","","","","","","","","","","","","","","","","","","","","","",""
"","","","","","image-button-response","41","154636","0.0-2.0-2.0-1.18","5654b02b04212700104a1d45","D2","batch4","spm_respsonse","7552","img/question_2_7.jpeg","5","mat_19","5","0","0","7552","","","","","","","","","","","","","","","","","","","","",""
"","","","","","html-keyboard-response","42","155710","0.0-2.0-2.0-0.19","5654b02b04212700104a1d45","D2","batch4","spm_show_trial_num","null","<p class=block-text>Trial 20 out of 60</p>","null","","","","","","","","","","","","","","","","","","","","","","","","","",""
"","","","","","image-button-response","43","160237","0.0-2.0-2.0-1.19","5654b02b04212700104a1d45","D2","batch4","spm_respsonse","4525","img/question_2_8.jpeg","5","mat_20","6","1","1","4525","","","","","","","","","","","","","","","","","","","","",""
"","","","","","html-keyboard-response","44","161297","0.0-2.0-2.0-0.20","5654b02b04212700104a1d45","D2","batch4","spm_show_trial_num","null","<p class=block-text>Trial 21 out of 60</p>","null","","","","","","","","","","","","","","","","","","","","","","","","","",""
"","","","","","image-button-response","45","164529","0.0-2.0-2.0-1.20","5654b02b04212700104a1d45","D2","batch4","spm_respsonse","3230","img/question_2_9.jpeg","3","mat_21","4","1","1","3230","","","","","","","","","","","","","","","","","","","","",""
"","","","","","html-keyboard-response","46","165596","0.0-2.0-2.0-0.21","5654b02b04212700104a1d45","D2","batch4","spm_show_trial_num","null","<p class=block-text>Trial 22 out of 60</p>","null","","","","","","","","","","","","","","","","","","","","","","","","","",""
"","","","","","image-button-response","47","170230","0.0-2.0-2.0-1.21","5654b02b04212700104a1d45","D2","batch4","spm_respsonse","4632","img/question_2_10.jpeg","2","mat_22","3","1","1","4632","","","","","","","","","","","","","","","","","","","","",""
"","","","","","html-keyboard-response","48","171303","0.0-2.0-2.0-0.22","5654b02b04212700104a1d45","D2","batch4","spm_show_trial_num","null","<p class=block-text>Trial 23 out of 60</p>","null","","","","","","","","","","","","","","","","","","","","","","","","","",""
"","","","","","image-button-response","49","175170","0.0-2.0-2.0-1.22","5654b02b04212700104a1d45","D2","batch4","spm_respsonse","3864","img/question_2_11.jpeg","3","mat_23","4","1","1","3864","","","","","","","","","","","","","","","","","","","","",""
"","","","","","html-keyboard-response","50","176244","0.0-2.0-2.0-0.23","5654b02b04212700104a1d45","D2","batch4","spm_show_trial_num","null","<p class=block-text>Trial 24 out of 60</p>","null","","","","","","","","","","","","","","","","","","","","","","","","","",""
"","","","","","image-button-response","51","184795","0.0-2.0-2.0-1.23","5654b02b04212700104a1d45","D2","batch4","spm_respsonse","8551","img/question_2_12.jpeg","0","mat_24","5","0","0","8551","","","","","","","","","","","","","","","","","","","","",""
"","","","","","html-button-response","52","186524","0.0-2.0-3.0","5654b02b04212700104a1d45","D2","batch4","attention_check","1471","<p class = block-text>Attention check: Please choose 1<br></p>","0","","","true","","","","","","","","","","","","","","","","","","","","","","",""
"","","","","","html-keyboard-response","53","187327","0.0-2.0-4.0-0.0","5654b02b04212700104a1d45","D2","batch4","spm_show_trial_num","null","<p class=block-text>Trial 25 out of 60</p>","null","","","","","","","","","","","","","","","","","","","","","","","","","",""
"","","","","","image-button-response","54","192797","0.0-2.0-4.0-1.0","5654b02b04212700104a1d45","D2","batch4","spm_respsonse","5467","img/question_3_1.jpeg","7","mat_25","8","1","1","5467","","","","","","","","","","","","","","","","","","","","",""
"","","","","","html-keyboard-response","55","193869","0.0-2.0-4.0-0.1","5654b02b04212700104a1d45","D2","batch4","spm_show_trial_num","null","<p class=block-text>Trial 26 out of 60</p>","null","","","","","","","","","","","","","","","","","","","","","","","","","",""
"","","","","","image-button-response","56","204203","0.0-2.0-4.0-1.1","5654b02b04212700104a1d45","D2","batch4","spm_respsonse","10334","img/question_3_2.jpeg","1","mat_26","2","1","1","10334","","","","","","","","","","","","","","","","","","","","",""
"","","","","","html-keyboard-response","57","205281","0.0-2.0-4.0-0.2","5654b02b04212700104a1d45","D2","batch4","spm_show_trial_num","null","<p class=block-text>Trial 27 out of 60</p>","null","","","","","","","","","","","","","","","","","","","","","","","","","",""
"","","","","","image-button-response","58","214830","0.0-2.0-4.0-1.2","5654b02b04212700104a1d45","D2","batch4","spm_respsonse","9548","img/question_3_3.jpeg","2","mat_27","3","1","1","9548","","","","","","","","","","","","","","","","","","","","",""
"","","","","","html-keyboard-response","59","215903","0.0-2.0-4.0-0.3","5654b02b04212700104a1d45","D2","batch4","spm_show_trial_num","null","<p class=block-text>Trial 28 out of 60</p>","null","","","","","","","","","","","","","","","","","","","","","","","","","",""
"","","","","","image-button-response","60","222058","0.0-2.0-4.0-1.3","5654b02b04212700104a1d45","D2","batch4","spm_respsonse","6153","img/question_3_4.jpeg","7","mat_28","8","1","1","6153","","","","","","","","","","","","","","","","","","","","",""
"","","","","","html-keyboard-response","61","223127","0.0-2.0-4.0-0.4","5654b02b04212700104a1d45","D2","batch4","spm_show_trial_num","null","<p class=block-text>Trial 29 out of 60</p>","null","","","","","","","","","","","","","","","","","","","","","","","","","",""
"","","","","","image-button-response","62","227671","0.0-2.0-4.0-1.4","5654b02b04212700104a1d45","D2","batch4","spm_respsonse","4543","img/question_3_5.jpeg","6","mat_29","7","1","1","4543","","","","","","","","","","","","","","","","","","","","",""
"","","","","","html-keyboard-response","63","228735","0.0-2.0-4.0-0.5","5654b02b04212700104a1d45","D2","batch4","spm_show_trial_num","null","<p class=block-text>Trial 30 out of 60</p>","null","","","","","","","","","","","","","","","","","","","","","","","","","",""
"","","","","","image-button-response","64","233194","0.0-2.0-4.0-1.5","5654b02b04212700104a1d45","D2","batch4","spm_respsonse","4457","img/question_3_6.jpeg","3","mat_30","4","1","1","4457","","","","","","","","","","","","","","","","","","","","",""
"","","","","","html-keyboard-response","65","234257","0.0-2.0-4.0-0.6","5654b02b04212700104a1d45","D2","batch4","spm_show_trial_num","null","<p class=block-text>Trial 31 out of 60</p>","null","","","","","","","","","","","","","","","","","","","","","","","","","",""
"","","","","","image-button-response","66","239708","0.0-2.0-4.0-1.6","5654b02b04212700104a1d45","D2","batch4","spm_respsonse","5449","img/question_3_7.jpeg","4","mat_31","5","1","1","5449","","","","","","","","","","","","","","","","","","","","",""
"","","","","","html-keyboard-response","67","240782","0.0-2.0-4.0-0.7","5654b02b04212700104a1d45","D2","batch4","spm_show_trial_num","null","<p class=block-text>Trial 32 out of 60</p>","null","","","","","","","","","","","","","","","","","","","","","","","","","",""
"","","","","","image-button-response","68","246253","0.0-2.0-4.0-1.7","5654b02b04212700104a1d45","D2","batch4","spm_respsonse","5470","img/question_3_8.jpeg","0","mat_32","1","1","1","5470","","","","","","","","","","","","","","","","","","","","",""
"","","","","","html-keyboard-response","69","247318","0.0-2.0-4.0-0.8","5654b02b04212700104a1d45","D2","batch4","spm_show_trial_num","null","<p class=block-text>Trial 33 out of 60</p>","null","","","","","","","","","","","","","","","","","","","","","","","","","",""
"","","","","","image-button-response","70","272808","0.0-2.0-4.0-1.8","5654b02b04212700104a1d45","D2","batch4","spm_respsonse","25490","img/question_3_9.jpeg","5","mat_33","7","0","0","25490","","","","","","","","","","","","","","","","","","","","",""
"","","","","","html-keyboard-response","71","273871","0.0-2.0-4.0-0.9","5654b02b04212700104a1d45","D2","batch4","spm_show_trial_num","null","<p class=block-text>Trial 34 out of 60</p>","null","","","","","","","","","","","","","","","","","","","","","","","","","",""
"","","","","","image-button-response","72","280378","0.0-2.0-4.0-1.9","5654b02b04212700104a1d45","D2","batch4","spm_respsonse","6504","img/question_3_10.jpeg","7","mat_34","6","0","0","6504","","","","","","","","","","","","","","","","","","","","",""
"","","","","","html-keyboard-response","73","281456","0.0-2.0-4.0-0.10","5654b02b04212700104a1d45","D2","batch4","spm_show_trial_num","null","<p class=block-text>Trial 35 out of 60</p>","null","","","","","","","","","","","","","","","","","","","","","","","","","",""
"","","","","","image-button-response","74","305336","0.0-2.0-4.0-1.10","5654b02b04212700104a1d45","D2","batch4","spm_respsonse","23878","img/question_3_11.jpeg","0","mat_35","1","1","1","23878","","","","","","","","","","","","","","","","","","","","",""
"","","","","","html-keyboard-response","75","306410","0.0-2.0-4.0-0.11","5654b02b04212700104a1d45","D2","batch4","spm_show_trial_num","null","<p class=block-text>Trial 36 out of 60</p>","null","","","","","","","","","","","","","","","","","","","","","","","","","",""
"","","","","","image-button-response","76","323391","0.0-2.0-4.0-1.11","5654b02b04212700104a1d45","D2","batch4","spm_respsonse","16979","img/question_3_12.jpeg","3","mat_36","2","0","0","16979","","","","","","","","","","","","","","","","","","","","",""
"","","","","","html-keyboard-response","77","324465","0.0-2.0-4.0-0.12","5654b02b04212700104a1d45","D2","batch4","spm_show_trial_num","null","<p class=block-text>Trial 37 out of 60</p>","null","","","","","","","","","","","","","","","","","","","","","","","","","",""
"","","","","","image-button-response","78","327715","0.0-2.0-4.0-1.12","5654b02b04212700104a1d45","D2","batch4","spm_respsonse","3249","img/question_4_1.jpeg","2","mat_37","3","1","1","3249","","","","","","","","","","","","","","","","","","","","",""
"","","","","","html-keyboard-response","79","328793","0.0-2.0-4.0-0.13","5654b02b04212700104a1d45","D2","batch4","spm_show_trial_num","null","<p class=block-text>Trial 38 out of 60</p>","null","","","","","","","","","","","","","","","","","","","","","","","","","",""
"","","","","","image-button-response","80","335725","0.0-2.0-4.0-1.13","5654b02b04212700104a1d45","D2","batch4","spm_respsonse","6931","img/question_4_2.jpeg","3","mat_38","4","1","1","6931","","","","","","","","","","","","","","","","","","","","",""
"","","","","","html-keyboard-response","81","336778","0.0-2.0-4.0-0.14","5654b02b04212700104a1d45","D2","batch4","spm_show_trial_num","null","<p class=block-text>Trial 39 out of 60</p>","null","","","","","","","","","","","","","","","","","","","","","","","","","",""
"","","","","","image-button-response","82","345670","0.0-2.0-4.0-1.14","5654b02b04212700104a1d45","D2","batch4","spm_respsonse","8890","img/question_4_3.jpeg","2","mat_39","3","1","1","8890","","","","","","","","","","","","","","","","","","","","",""
"","","","","","html-keyboard-response","83","346738","0.0-2.0-4.0-0.15","5654b02b04212700104a1d45","D2","batch4","spm_show_trial_num","null","<p class=block-text>Trial 40 out of 60</p>","null","","","","","","","","","","","","","","","","","","","","","","","","","",""
"","","","","","image-button-response","84","354574","0.0-2.0-4.0-1.15","5654b02b04212700104a1d45","D2","batch4","spm_respsonse","7834","img/question_4_4.jpeg","6","mat_40","7","1","1","7834","","","","","","","","","","","","","","","","","","","","",""
"","","","","","html-keyboard-response","85","355642","0.0-2.0-4.0-0.16","5654b02b04212700104a1d45","D2","batch4","spm_show_trial_num","null","<p class=block-text>Trial 41 out of 60</p>","null","","","","","","","","","","","","","","","","","","","","","","","","","",""
"","","","","","image-button-response","86","364423","0.0-2.0-4.0-1.16","5654b02b04212700104a1d45","D2","batch4","spm_respsonse","8778","img/question_4_5.jpeg","7","mat_41","8","1","1","8778","","","","","","","","","","","","","","","","","","","","",""
"","","","","","html-keyboard-response","87","365500","0.0-2.0-4.0-0.17","5654b02b04212700104a1d45","D2","batch4","spm_show_trial_num","null","<p class=block-text>Trial 42 out of 60</p>","null","","","","","","","","","","","","","","","","","","","","","","","","","",""
"","","","","","image-button-response","88","379330","0.0-2.0-4.0-1.17","5654b02b04212700104a1d45","D2","batch4","spm_respsonse","13829","img/question_4_6.jpeg","5","mat_42","6","1","1","13829","","","","","","","","","","","","","","","","","","","","",""
"","","","","","html-keyboard-response","89","380390","0.0-2.0-4.0-0.18","5654b02b04212700104a1d45","D2","batch4","spm_show_trial_num","null","<p class=block-text>Trial 43 out of 60</p>","null","","","","","","","","","","","","","","","","","","","","","","","","","",""
"","","","","","image-button-response","90","397989","0.0-2.0-4.0-1.18","5654b02b04212700104a1d45","D2","batch4","spm_respsonse","17596","img/question_4_7.jpeg","4","mat_43","5","1","1","17596","","","","","","","","","","","","","","","","","","","","",""
"","","","","","html-keyboard-response","91","399055","0.0-2.0-4.0-0.19","5654b02b04212700104a1d45","D2","batch4","spm_show_trial_num","null","<p class=block-text>Trial 44 out of 60</p>","null","","","","","","","","","","","","","","","","","","","","","","","","","",""
"","","","","","image-button-response","92","413215","0.0-2.0-4.0-1.19","5654b02b04212700104a1d45","D2","batch4","spm_respsonse","14158","img/question_4_8.jpeg","3","mat_44","4","1","1","14158","","","","","","","","","","","","","","","","","","","","",""
"","","","","","html-keyboard-response","93","414283","0.0-2.0-4.0-0.20","5654b02b04212700104a1d45","D2","batch4","spm_show_trial_num","null","<p class=block-text>Trial 45 out of 60</p>","null","","","","","","","","","","","","","","","","","","","","","","","","","",""
"","","","","","image-button-response","94","427903","0.0-2.0-4.0-1.20","5654b02b04212700104a1d45","D2","batch4","spm_respsonse","13619","img/question_4_9.jpeg","0","mat_45","1","1","1","13619","","","","","","","","","","","","","","","","","","","","",""
"","","","","","html-keyboard-response","95","428957","0.0-2.0-4.0-0.21","5654b02b04212700104a1d45","D2","batch4","spm_show_trial_num","null","<p class=block-text>Trial 46 out of 60</p>","null","","","","","","","","","","","","","","","","","","","","","","","","","",""
"","","","","","image-button-response","96","446035","0.0-2.0-4.0-1.21","5654b02b04212700104a1d45","D2","batch4","spm_respsonse","17076","img/question_4_10.jpeg","7","mat_46","2","0","0","17076","","","","","","","","","","","","","","","","","","","","",""
"","","","","","html-keyboard-response","97","447113","0.0-2.0-4.0-0.22","5654b02b04212700104a1d45","D2","batch4","spm_show_trial_num","null","<p class=block-text>Trial 47 out of 60</p>","null","","","","","","","","","","","","","","","","","","","","","","","","","",""
"","","","","","image-button-response","98","478939","0.0-2.0-4.0-1.22","5654b02b04212700104a1d45","D2","batch4","spm_respsonse","31825","img/question_4_11.jpeg","0","mat_47","5","0","0","31825","","","","","","","","","","","","","","","","","","","","",""
"","","","","","html-keyboard-response","99","480003","0.0-2.0-4.0-0.23","5654b02b04212700104a1d45","D2","batch4","spm_show_trial_num","null","<p class=block-text>Trial 48 out of 60</p>","null","","","","","","","","","","","","","","","","","","","","","","","","","",""
"","","","","","image-button-response","100","492759","0.0-2.0-4.0-1.23","5654b02b04212700104a1d45","D2","batch4","spm_respsonse","12754","img/question_4_12.jpeg","6","mat_48","6","0","0","12754","","","","","","","","","","","","","","","","","","","","",""
"","","","","","html-keyboard-response","101","493834","0.0-2.0-4.0-0.24","5654b02b04212700104a1d45","D2","batch4","spm_show_trial_num","null","<p class=block-text>Trial 49 out of 60</p>","null","","","","","","","","","","","","","","","","","","","","","","","","","",""
"","","","","","image-button-response","102","503091","0.0-2.0-4.0-1.24","5654b02b04212700104a1d45","D2","batch4","spm_respsonse","9255","img/question_5_1.jpeg","6","mat_49","7","1","1","9255","","","","","","","","","","","","","","","","","","","","",""
"","","","","","html-keyboard-response","103","504162","0.0-2.0-4.0-0.25","5654b02b04212700104a1d45","D2","batch4","spm_show_trial_num","null","<p class=block-text>Trial 50 out of 60</p>","null","","","","","","","","","","","","","","","","","","","","","","","","","",""
"","","","","","image-button-response","104","529617","0.0-2.0-4.0-1.25","5654b02b04212700104a1d45","D2","batch4","spm_respsonse","25454","img/question_5_2.jpeg","5","mat_50","6","1","1","25454","","","","","","","","","","","","","","","","","","","","",""
"","","","","","html-keyboard-response","105","530680","0.0-2.0-4.0-0.26","5654b02b04212700104a1d45","D2","batch4","spm_show_trial_num","null","<p class=block-text>Trial 51 out of 60</p>","null","","","","","","","","","","","","","","","","","","","","","","","","","",""
"","","","","","image-button-response","106","540445","0.0-2.0-4.0-1.26","5654b02b04212700104a1d45","D2","batch4","spm_respsonse","9762","img/question_5_3.jpeg","7","mat_51","8","1","1","9762","","","","","","","","","","","","","","","","","","","","",""
"","","","","","html-keyboard-response","107","541520","0.0-2.0-4.0-0.27","5654b02b04212700104a1d45","D2","batch4","spm_show_trial_num","null","<p class=block-text>Trial 52 out of 60</p>","null","","","","","","","","","","","","","","","","","","","","","","","","","",""
"","","","","","image-button-response","108","551273","0.0-2.0-4.0-1.27","5654b02b04212700104a1d45","D2","batch4","spm_respsonse","9751","img/question_5_4.jpeg","2","mat_52","2","0","0","9751","","","","","","","","","","","","","","","","","","","","",""
"","","","","","html-keyboard-response","109","552340","0.0-2.0-4.0-0.28","5654b02b04212700104a1d45","D2","batch4","spm_show_trial_num","null","<p class=block-text>Trial 53 out of 60</p>","null","","","","","","","","","","","","","","","","","","","","","","","","","",""
"","","","","","image-button-response","110","580258","0.0-2.0-4.0-1.28","5654b02b04212700104a1d45","D2","batch4","spm_respsonse","27917","img/question_5_5.jpeg","0","mat_53","1","1","1","27917","","","","","","","","","","","","","","","","","","","","",""
"","","","","","html-keyboard-response","111","581310","0.0-2.0-4.0-0.29","5654b02b04212700104a1d45","D2","batch4","spm_show_trial_num","null","<p class=block-text>Trial 54 out of 60</p>","null","","","","","","","","","","","","","","","","","","","","","","","","","",""
"","","","","","image-button-response","112","603044","0.0-2.0-4.0-1.29","5654b02b04212700104a1d45","D2","batch4","spm_respsonse","21732","img/question_5_6.jpeg","3","mat_54","5","0","0","21732","","","","","","","","","","","","","","","","","","","","",""
"","","","","","html-keyboard-response","113","604106","0.0-2.0-4.0-0.30","5654b02b04212700104a1d45","D2","batch4","spm_show_trial_num","null","<p class=block-text>Trial 55 out of 60</p>","null","","","","","","","","","","","","","","","","","","","","","","","","","",""
"","","","","","image-button-response","114","614622","0.0-2.0-4.0-1.30","5654b02b04212700104a1d45","D2","batch4","spm_respsonse","10514","img/question_5_7.jpeg","2","mat_55","1","0","0","10514","","","","","","","","","","","","","","","","","","","","",""
"","","","","","html-keyboard-response","115","615679","0.0-2.0-4.0-0.31","5654b02b04212700104a1d45","D2","batch4","spm_show_trial_num","null","<p class=block-text>Trial 56 out of 60</p>","null","","","","","","","","","","","","","","","","","","","","","","","","","",""
"","","","","","image-button-response","116","653162","0.0-2.0-4.0-1.31","5654b02b04212700104a1d45","D2","batch4","spm_respsonse","37481","img/question_5_8.jpeg","1","mat_56","6","0","0","37481","","","","","","","","","","","","","","","","","","","","",""
"","","","","","html-keyboard-response","117","654224","0.0-2.0-4.0-0.32","5654b02b04212700104a1d45","D2","batch4","spm_show_trial_num","null","<p class=block-text>Trial 57 out of 60</p>","null","","","","","","","","","","","","","","","","","","","","","","","","","",""
"","","","","","image-button-response","118","685455","0.0-2.0-4.0-1.32","5654b02b04212700104a1d45","D2","batch4","spm_respsonse","31230","img/question_5_9.jpeg","3","mat_57","3","0","0","31230","","","","","","","","","","","","","","","","","","","","",""
"","","","","","html-keyboard-response","119","686528","0.0-2.0-4.0-0.33","5654b02b04212700104a1d45","D2","batch4","spm_show_trial_num","null","<p class=block-text>Trial 58 out of 60</p>","null","","","","","","","","","","","","","","","","","","","","","","","","","",""
"","","","","","image-button-response","120","716088","0.0-2.0-4.0-1.33","5654b02b04212700104a1d45","D2","batch4","spm_respsonse","29557","img/question_5_10.jpeg","1","mat_58","2","1","1","29557","","","","","","","","","","","","","","","","","","","","",""
"","","","","","html-keyboard-response","121","717154","0.0-2.0-4.0-0.34","5654b02b04212700104a1d45","D2","batch4","spm_show_trial_num","null","<p class=block-text>Trial 59 out of 60</p>","null","","","","","","","","","","","","","","","","","","","","","","","","","",""
"","","","","","image-button-response","122","729128","0.0-2.0-4.0-1.34","5654b02b04212700104a1d45","D2","batch4","spm_respsonse","11972","img/question_5_11.jpeg","2","mat_59","4","0","0","11972","","","","","","","","","","","","","","","","","","","","",""
"","","","","","html-keyboard-response","123","730188","0.0-2.0-4.0-0.35","5654b02b04212700104a1d45","D2","batch4","spm_show_trial_num","null","<p class=block-text>Trial 60 out of 60</p>","null","","","","","","","","","","","","","","","","","","","","","","","","","",""
"","","","","","image-button-response","124","747494","0.0-2.0-4.0-1.35","5654b02b04212700104a1d45","D2","batch4","spm_respsonse","17302","img/question_5_12.jpeg","2","mat_60","5","0","0","17302","","","","","","","","","","","","","","","","","","","","",""
"","","","","","html-button-response","125","749707","0.0-2.0-5.0","5654b02b04212700104a1d45","D2","batch4","spm_goodbye","1952","<p class= block-text>This concludes the Standard Progressive Matrix game. Thank you for your responses!<br> When you are ready, click the button continue</p>","0","","","","","","","","","","","","","","","","","","","","","","","","","",""
"true","","","","","fullscreen","126","751955","0.0-3.0-0.0","5654b02b04212700104a1d45","D2","batch4","","","","","","","","","","","","","","","","","","","","","","","","","","","","","",""
"","","","","","instructions","127","795028","0.0-3.0-1.0-0.0-0.0","5654b02b04212700104a1d45","D2","batch4","tol-instructions","43071","","","","","","","","[{""page_index"":0,""viewing_time"":8471},{""page_index"":1,""viewing_time"":5657},{""page_index"":2,""viewing_time"":3170},{""page_index"":3,""viewing_time"":9376},{""page_index"":4,""viewing_time"":4854},{""page_index"":5,""viewing_time"":9484},{""page_index"":6,""viewing_time"":2059}]","","","","","","","","","","","","","","","","","","","",""
"","","","","","html-button-response","128","796019","0.0-3.0-1.0-1.0-0.0","5654b02b04212700104a1d45","D2","batch4","tol_enter_quiz","990","<p class=block-text> Let's answer a few questions <br>","0","","","","","","","","","","","","","","","","","","","","","","","","","",""
"","","","","","html-button-response","129","805229","0.0-3.0-1.0-1.0-1.0","5654b02b04212700104a1d45","D2","batch4","tol_quiz","9209","<p class = block-text>True or False: You can only move the ball on top of a peg. <br></p>","1","","","false","","","","","","","","","","","","","","","","","","","","","","",""
"","","","","","html-button-response","130","806671","0.0-3.0-1.0-1.0-2.0","5654b02b04212700104a1d45","D2","batch4","tol_quiz_feedback","1442","<p class = block-text>Incorrect. Remember, you can only move the ball on top of a peg.</p>","0","","","","","","","","","","","","","","","","","","","","","","","","","",""
"","","","","","html-button-response","131","808686","0.0-3.0-1.0-1.0-3.0","5654b02b04212700104a1d45","D2","batch4","tol_quiz","2015","<p class = block-text>True or False: You should try to match your board with the target board with fewest moves possible. <br></p>","0","","","true","","","","","","","","","","","","","","","","","","","","","","",""
"","","","","","html-button-response","132","809305","0.0-3.0-1.0-1.0-4.0","5654b02b04212700104a1d45","D2","batch4","tol_quiz_feedback","617","<p class = block-text>Correct! </p>","0","","","","","","","","","","","","","","","","","","","","","","","","","",""
"","","","","","html-button-response","133","811231","0.0-3.0-1.0-2.0-0.0","5654b02b04212700104a1d45","D2","batch4","","1926","<p class = block-text>You made too many incorrect choices.</p><p class = block-text>You will now repeat the instructions and quiz</p>","0","","","","","","","","","","","","","","","","","","","","","","","","","",""
"","","","","","instructions","134","819529","0.0-3.0-1.1-0.1-0.1","5654b02b04212700104a1d45","D2","batch4","tol-instructions","8297","","","","","","","","[{""page_index"":0,""viewing_time"":1123},{""page_index"":1,""viewing_time"":761},{""page_index"":2,""viewing_time"":452},{""page_index"":3,""viewing_time"":367},{""page_index"":4,""viewing_time"":508},{""page_index"":5,""viewing_time"":497},{""page_index"":6,""viewing_time"":4589}]","","","","","","","","","","","","","","","","","","","",""
"","","","","","html-button-response","135","820368","0.0-3.0-1.1-1.1-0.1","5654b02b04212700104a1d45","D2","batch4","tol_enter_quiz","837","<p class=block-text> Let's answer a few questions <br>","0","","","","","","","","","","","","","","","","","","","","","","","","","",""
"","","","","","html-button-response","136","821139","0.0-3.0-1.1-1.1-1.1","5654b02b04212700104a1d45","D2","batch4","tol_quiz","772","<p class = block-text>True or False: You can only move the ball on top of a peg. <br></p>","0","","","true","","","","","","","","","","","","","","","","","","","","","","",""
"","","","","","html-button-response","137","821780","0.0-3.0-1.1-1.1-2.1","5654b02b04212700104a1d45","D2","batch4","tol_quiz_feedback","639","<p class = block-text>Correct! You can only move the ball on top of a peg.</p>","0","","","","","","","","","","","","","","","","","","","","","","","","","",""
"","","","","","html-button-response","138","823013","0.0-3.0-1.1-1.1-3.1","5654b02b04212700104a1d45","D2","batch4","tol_quiz","1234","<p class = block-text>True or False: You should try to match your board with the target board with fewest moves possible. <br></p>","0","","","true","","","","","","","","","","","","","","","","","","","","","","",""
"","","","","","html-button-response","139","823676","0.0-3.0-1.1-1.1-4.1","5654b02b04212700104a1d45","D2","batch4","tol_quiz_feedback","663","<p class = block-text>Correct! </p>","0","","","","","","","","","","","","","","","","","","","","","","","","","",""
"","","","","","html-button-response","140","824580","0.0-3.0-2.0","5654b02b04212700104a1d45","D2","batch4","","904","<p class=block-text> Now that you've understood the game, let's practice a few easier examples before we start!<br> <br>","0","","","","","","","","","","","","","","","","","","","","","","","","","",""
"","","","","","single-stim-button","141","829361","0.0-3.0-3.0-0.0","5654b02b04212700104a1d45","D2","batch4","tol_practice","4779","","","","","","","","","tol_peg_2","4779","4779","0","[[1,2,0],[0,0],[0]]","1","[[1,2,0],[0,0],[3]]","practice","4779","","","","","","","","","","",""
"","","","","","single-stim-button","142","830682","0.0-3.0-3.0-1.0","5654b02b04212700104a1d45","D2","batch4","tol_practice","1321","","","","","","","","","tol_peg_3","1321","1321","0","[[1,2,0],[0,0],[3]]","1","[[1,2,0],[0,0],[3]]","practice","1321","","","","","","","","","","",""
"","","","","","poldrack-single-stim","143","831692","0.0-3.0-4.0","5654b02b04212700104a1d45","D2","batch4","tol_feedback","-1","","","","","true","","","","","1000","1000","500","","","","","","-1","none","true","","0","","","","","",""
"","","","","","single-stim-button","144","838451","0.0-3.0-5.0-0.0","5654b02b04212700104a1d45","D2","batch4","tol_practice","6759","","","","","","","","","tol_peg_1","6759","6759","0","[[1,0,0],[3,0],[0]]","2","[[0,0,0],[3,1],[2]]","practice","6759","","","","","","","","","","",""
"","","","","","single-stim-button","145","839268","0.0-3.0-5.0-1.0","5654b02b04212700104a1d45","D2","batch4","tol_practice","817","","","","","","","","","tol_peg_3","817","817","0","[[1,0,0],[3,0],[2]]","2","[[0,0,0],[3,1],[2]]","practice","817","","","","","","","","","","",""
"","","","","","single-stim-button","146","840117","0.0-3.0-5.1-0.1","5654b02b04212700104a1d45","D2","batch4","tol_practice","848","","","","","","","","","tol_peg_1","848","848","0","[[0,0,0],[3,0],[2]]","3","[[0,0,0],[3,1],[2]]","practice","848","","","","","","","","","","",""
"","","","","","single-stim-button","147","840812","0.0-3.0-5.1-1.1","5654b02b04212700104a1d45","D2","batch4","tol_practice","694","","","","","","","","","tol_peg_2","694","694","0","[[0,0,0],[3,1],[2]]","3","[[0,0,0],[3,1],[2]]","practice","694","","","","","","","","","","",""
"","","","","","poldrack-single-stim","148","841821","0.0-3.0-6.0","5654b02b04212700104a1d45","D2","batch4","tol_feedback","-1","","","","","true","","","","","1000","1000","500","","","","","","-1","none","true","","0","","","","","",""
"","","","","","single-stim-button","149","845291","0.0-3.0-7.0-0.0","5654b02b04212700104a1d45","D2","batch4","tol_practice","3470","","","","","","","","","tol_peg_2","3470","3470","0","[[1,2,0],[0,0],[0]]","4","[[1,0,0],[2,0],[3]]","practice","3470","","","","","","","","","","",""
"","","","","","single-stim-button","150","846161","0.0-3.0-7.0-1.0","5654b02b04212700104a1d45","D2","batch4","tol_practice","870","","","","","","","","","tol_peg_3","870","870","0","[[1,2,0],[0,0],[3]]","4","[[1,0,0],[2,0],[3]]","practice","870","","","","","","","","","","",""
"","","","","","single-stim-button","151","846791","0.0-3.0-7.1-0.1","5654b02b04212700104a1d45","D2","batch4","tol_practice","630","","","","","","","","","tol_peg_1","630","630","0","[[1,0,0],[0,0],[3]]","5","[[1,0,0],[2,0],[3]]","practice","630","","","","","","","","","","",""
"","","","","","single-stim-button","152","847388","0.0-3.0-7.1-1.1","5654b02b04212700104a1d45","D2","batch4","tol_practice","596","","","","","","","","","tol_peg_2","596","596","0","[[1,0,0],[2,0],[3]]","5","[[1,0,0],[2,0],[3]]","practice","596","","","","","","","","","","",""
"","","","","","poldrack-single-stim","153","848393","0.0-3.0-8.0","5654b02b04212700104a1d45","D2","batch4","tol_feedback","-1","","","","","true","","","","","1000","1000","500","","","","","","-1","none","true","","0","","","","","",""
"","","","","","html-button-response","154","850392","0.0-3.0-9.0","5654b02b04212700104a1d45","D2","batch4","tol_instruction","1998","<div class = centerbox><p class = center-block-text>Great job! You are done with practice trials<br>You are about to start official trials.<br> <br> Problem <strong>1</strong> out of 25 problems</p></div>","0","","","","","","","","","","","","","","","","","","","","","","","","","",""
"","","","","","single-stim-button","155","861902","0.0-3.0-10.0-0.0","5654b02b04212700104a1d45","D2","batch4","tol_tohand","10507","","","","","","","","","tol_peg_1","10507","10507","0","[[1,0,0],[3,0],[0]]","1","[[1,3,0],[2,0],[0]]","0","0","","","","","","3","","","","",""
"","","","","","single-stim-button","156","863257","0.0-3.0-10.0-1.0","5654b02b04212700104a1d45","D2","batch4","tol_toboard","1355","","","","","","","","","tol_peg_3","1355","1355","0","[[1,0,0],[3,0],[2]]","1","[[1,3,0],[2,0],[0]]","0","0","","","","","","3","","","","",""
"","","","","","single-stim-button","157","863887","0.0-3.0-10.1-0.1","5654b02b04212700104a1d45","D2","batch4","tol_tohand","629","","","","","","","","","tol_peg_2","629","629","0","[[1,0,0],[0,0],[2]]","2","[[1,3,0],[2,0],[0]]","0","0","","","","","","3","","","","",""
"","","","","","single-stim-button","158","864527","0.0-3.0-10.1-1.1","5654b02b04212700104a1d45","D2","batch4","tol_toboard","640","","","","","","","","","tol_peg_1","640","640","0","[[1,3,0],[0,0],[2]]","2","[[1,3,0],[2,0],[0]]","0","0","","","","","","3","","","","",""
"","","","","","single-stim-button","159","865189","0.0-3.0-10.2-0.2","5654b02b04212700104a1d45","D2","batch4","tol_tohand","661","","","","","","","","","tol_peg_3","661","661","0","[[1,3,0],[0,0],[0]]","3","[[1,3,0],[2,0],[0]]","0","0","","","","","","3","","","","",""
"","","","","","single-stim-button","160","865984","0.0-3.0-10.2-1.2","5654b02b04212700104a1d45","D2","batch4","tol_toboard","793","","","","","","","","","tol_peg_2","793","793","0","[[1,3,0],[2,0],[0]]","3","[[1,3,0],[2,0],[0]]","0","0","","","","","","3","","","","",""
"","","","","","poldrack-single-stim","161","867007","0.0-3.0-11.0","5654b02b04212700104a1d45","D2","batch4","tol_feedback","-1","","","","","true","","","","","1000","1000","500","","","","","","-1","none","true","10507","11797","","","","","",""
"","","","","","html-button-response","162","868054","0.0-3.0-12.0","5654b02b04212700104a1d45","D2","batch4","tol_trial_num","1046","<div class = centerbox><p class = center-block-text>problem <strong>2</strong> out of 25 problems</p></div>","0","","","","","","","","","","","","","","","","","","","","","","","","","",""
"","","","","","single-stim-button","163","877683","0.0-3.0-13.0-0.0","5654b02b04212700104a1d45","D2","batch4","tol_tohand","9629","","","","","","","","","tol_peg_1","9629","9629","0","[[1,0,0],[3,0],[0]]","1","[[2,1,3],[0,0],[0]]","1","0","","","","","","5","","","","",""
"","","","","","single-stim-button","164","882932","0.0-3.0-13.0-1.0","5654b02b04212700104a1d45","D2","batch4","tol_toboard","5249","","","","","","","","","tol_peg_3","5249","5249","0","[[1,0,0],[3,0],[2]]","1","[[2,1,3],[0,0],[0]]","1","0","","","","","","5","","","","",""
"","","","","","single-stim-button","165","883628","0.0-3.0-13.1-0.1","5654b02b04212700104a1d45","D2","batch4","tol_tohand","694","","","","","","","","","tol_peg_1","694","694","0","[[0,0,0],[3,0],[2]]","2","[[2,1,3],[0,0],[0]]","1","0","","","","","","5","","","","",""
"","","","","","single-stim-button","166","884125","0.0-3.0-13.1-1.1","5654b02b04212700104a1d45","D2","batch4","tol_toboard","497","","","","","","","","","tol_peg_2","497","497","0","[[0,0,0],[3,1],[2]]","2","[[2,1,3],[0,0],[0]]","1","0","","","","","","5","","","","",""
"","","","","","single-stim-button","167","885007","0.0-3.0-13.2-0.2","5654b02b04212700104a1d45","D2","batch4","tol_tohand","882","","","","","","","","","tol_peg_3","882","882","0","[[0,0,0],[3,1],[0]]","3","[[2,1,3],[0,0],[0]]","1","0","","","","","","5","","","","",""
"","","","","","single-stim-button","168","885835","0.0-3.0-13.2-1.2","5654b02b04212700104a1d45","D2","batch4","tol_toboard","828","","","","","","","","","tol_peg_1","828","828","0","[[2,0,0],[3,1],[0]]","3","[[2,1,3],[0,0],[0]]","1","0","","","","","","5","","","","",""
"","","","","","single-stim-button","169","886388","0.0-3.0-13.3-0.3","5654b02b04212700104a1d45","D2","batch4","tol_tohand","553","","","","","","","","","tol_peg_2","553","553","0","[[2,0,0],[3,0],[0]]","4","[[2,1,3],[0,0],[0]]","1","0","","","","","","5","","","","",""
"","","","","","single-stim-button","170","886883","0.0-3.0-13.3-1.3","5654b02b04212700104a1d45","D2","batch4","tol_toboard","494","","","","","","","","","tol_peg_1","494","494","0","[[2,1,0],[3,0],[0]]","4","[[2,1,3],[0,0],[0]]","1","0","","","","","","5","","","","",""
"","","","","","single-stim-button","171","887380","0.0-3.0-13.4-0.4","5654b02b04212700104a1d45","D2","batch4","tol_tohand","497","","","","","","","","","tol_peg_2","497","497","0","[[2,1,0],[0,0],[0]]","5","[[2,1,3],[0,0],[0]]","1","0","","","","","","5","","","","",""
"","","","","","single-stim-button","172","887877","0.0-3.0-13.4-1.4","5654b02b04212700104a1d45","D2","batch4","tol_toboard","497","","","","","","","","","tol_peg_1","497","497","0","[[2,1,3],[0,0],[0]]","5","[[2,1,3],[0,0],[0]]","1","0","","","","","","5","","","","",""
"","","","","","poldrack-single-stim","173","888893","0.0-3.0-14.0","5654b02b04212700104a1d45","D2","batch4","tol_feedback","-1","","","","","true","","","","","1000","1000","500","","","","","","-1","none","true","9629","12255","","","","","",""
"","","","","","html-button-response","174","889905","0.0-3.0-15.0","5654b02b04212700104a1d45","D2","batch4","tol_trial_num","1011","<div class = centerbox><p class = center-block-text>problem <strong>3</strong> out of 25 problems</p></div>","0","","","","","","","","","","","","","","","","","","","","","","","","","",""
"","","","","","single-stim-button","175","894262","0.0-3.0-16.0-0.0","5654b02b04212700104a1d45","D2","batch4","tol_tohand","4357","","","","","","","","","tol_peg_1","4357","4357","0","[[2,0,0],[0,0],[1]]","1","[[1,2,0],[3,0],[0]]","2","0","","","","","","4","","","","",""
"","","","","","single-stim-button","176","895276","0.0-3.0-16.0-1.0","5654b02b04212700104a1d45","D2","batch4","tol_toboard","1014","","","","","","","","","tol_peg_2","1014","1014","0","[[2,0,0],[3,0],[1]]","1","[[1,2,0],[3,0],[0]]","2","0","","","","","","4","","","","",""
"","","","","","single-stim-button","177","896588","0.0-3.0-16.1-0.1","5654b02b04212700104a1d45","D2","batch4","tol_tohand","1312","","","","","","","","","tol_peg_1","1312","1312","0","[[0,0,0],[3,0],[1]]","2","[[1,2,0],[3,0],[0]]","2","0","","","","","","4","","","","",""
"","","","","","single-stim-button","178","897183","0.0-3.0-16.1-1.1","5654b02b04212700104a1d45","D2","batch4","tol_toboard","594","","","","","","","","","tol_peg_2","594","594","0","[[0,0,0],[3,2],[1]]","2","[[1,2,0],[3,0],[0]]","2","0","","","","","","4","","","","",""
"","","","","","single-stim-button","179","897680","0.0-3.0-16.2-0.2","5654b02b04212700104a1d45","D2","batch4","tol_tohand","496","","","","","","","","","tol_peg_3","496","496","0","[[0,0,0],[3,2],[0]]","3","[[1,2,0],[3,0],[0]]","2","0","","","","","","4","","","","",""
"","","","","","single-stim-button","180","898343","0.0-3.0-16.2-1.2","5654b02b04212700104a1d45","D2","batch4","tol_toboard","663","","","","","","","","","tol_peg_1","663","663","0","[[1,0,0],[3,2],[0]]","3","[[1,2,0],[3,0],[0]]","2","0","","","","","","4","","","","",""
"","","","","","single-stim-button","181","898765","0.0-3.0-16.3-0.3","5654b02b04212700104a1d45","D2","batch4","tol_tohand","420","","","","","","","","","tol_peg_2","420","420","0","[[1,0,0],[3,0],[0]]","4","[[1,2,0],[3,0],[0]]","2","0","","","","","","4","","","","",""
"","","","","","single-stim-button","182","899251","0.0-3.0-16.3-1.3","5654b02b04212700104a1d45","D2","batch4","tol_toboard","486","","","","","","","","","tol_peg_1","486","486","0","[[1,2,0],[3,0],[0]]","4","[[1,2,0],[3,0],[0]]","2","0","","","","","","4","","","","",""
"","","","","","poldrack-single-stim","183","900263","0.0-3.0-17.0","5654b02b04212700104a1d45","D2","batch4","tol_feedback","-1","","","","","true","","","","","1000","1000","500","","","","","","-1","none","true","4357","6585","","","","","",""
"","","","","","html-button-response","184","901045","0.0-3.0-18.0","5654b02b04212700104a1d45","D2","batch4","tol_trial_num","783","<div class = centerbox><p class = center-block-text>problem <strong>4</strong> out of 25 problems</p></div>","0","","","","","","","","","","","","","","","","","","","","","","","","","",""
"","","","","","single-stim-button","185","904404","0.0-3.0-19.0-0.0","5654b02b04212700104a1d45","D2","batch4","tol_tohand","3358","","","","","","","","","tol_peg_2","3358","3358","0","[[3,0,0],[2,0],[0]]","1","[[3,0,0],[1,0],[2]]","3","0","","","","","","3","","","","",""
"","","","","","single-stim-button","186","905352","0.0-3.0-19.0-1.0","5654b02b04212700104a1d45","D2","batch4","tol_toboard","947","","","","","","","","","tol_peg_1","947","947","0","[[3,1,0],[2,0],[0]]","1","[[3,0,0],[1,0],[2]]","3","0","","","","","","3","","","","",""
"","","","","","single-stim-button","187","905837","0.0-3.0-19.1-0.1","5654b02b04212700104a1d45","D2","batch4","tol_tohand","485","","","","","","","","","tol_peg_2","485","485","0","[[3,1,0],[0,0],[0]]","2","[[3,0,0],[1,0],[2]]","3","0","","","","","","3","","","","",""
"","","","","","single-stim-button","188","906389","0.0-3.0-19.1-1.1","5654b02b04212700104a1d45","D2","batch4","tol_toboard","551","","","","","","","","","tol_peg_3","551","551","0","[[3,1,0],[0,0],[2]]","2","[[3,0,0],[1,0],[2]]","3","0","","","","","","3","","","","",""
"","","","","","single-stim-button","189","906909","0.0-3.0-19.2-0.2","5654b02b04212700104a1d45","D2","batch4","tol_tohand","519","","","","","","","","","tol_peg_1","519","519","0","[[3,0,0],[0,0],[2]]","3","[[3,0,0],[1,0],[2]]","3","0","","","","","","3","","","","",""
"","","","","","single-stim-button","190","907406","0.0-3.0-19.2-1.2","5654b02b04212700104a1d45","D2","batch4","tol_toboard","497","","","","","","","","","tol_peg_2","497","497","0","[[3,0,0],[1,0],[2]]","3","[[3,0,0],[1,0],[2]]","3","0","","","","","","3","","","","",""
"","","","","","poldrack-single-stim","191","908420","0.0-3.0-20.0","5654b02b04212700104a1d45","D2","batch4","tol_feedback","-1","","","","","true","","","","","1000","1000","500","","","","","","-1","none","true","3358","4362","","","","","",""
"","","","","","html-button-response","192","909311","0.0-3.0-21.0","5654b02b04212700104a1d45","D2","batch4","tol_trial_num","890","<div class = centerbox><p class = center-block-text>problem <strong>5</strong> out of 25 problems</p></div>","0","","","","","","","","","","","","","","","","","","","","","","","","","",""
"","","","","","single-stim-button","193","912469","0.0-3.0-22.0-0.0","5654b02b04212700104a1d45","D2","batch4","tol_tohand","3158","","","","","","","","","tol_peg_2","3158","3158","0","[[1,0,0],[0,0],[3]]","1","[[0,0,0],[1,2],[3]]","4","0","","","","","","7","","","","",""
"","","","","","single-stim-button","194","921257","0.0-3.0-22.0-1.0","5654b02b04212700104a1d45","D2","batch4","tol_toboard","8788","","","","","","","","","tol_peg_1","8788","8788","0","[[1,2,0],[0,0],[3]]","1","[[0,0,0],[1,2],[3]]","4","0","","","","","","7","","","","",""
"","","","","","single-stim-button","195","922051","0.0-3.0-22.1-0.1","5654b02b04212700104a1d45","D2","batch4","tol_tohand","793","","","","","","","","","tol_peg_3","793","793","0","[[1,2,0],[0,0],[0]]","2","[[0,0,0],[1,2],[3]]","4","0","","","","","","7","","","","",""
"","","","","","single-stim-button","196","922835","0.0-3.0-22.1-1.1","5654b02b04212700104a1d45","D2","batch4","tol_toboard","783","","","","","","","","","tol_peg_2","783","783","0","[[1,2,0],[3,0],[0]]","2","[[0,0,0],[1,2],[3]]","4","0","","","","","","7","","","","",""
"","","","","","single-stim-button","197","926544","0.0-3.0-22.2-0.2","5654b02b04212700104a1d45","D2","batch4","tol_tohand","3709","","","","","","","","","tol_peg_1","3709","3709","0","[[1,0,0],[3,0],[0]]","3","[[0,0,0],[1,2],[3]]","4","0","","","","","","7","","","","",""
"","","","","","single-stim-button","198","928636","0.0-3.0-22.2-1.2","5654b02b04212700104a1d45","D2","batch4","tol_toboard","2092","","","","","","","","","tol_peg_3","2092","2092","0","[[1,0,0],[3,0],[2]]","3","[[0,0,0],[1,2],[3]]","4","0","","","","","","7","","","","",""
"","","","","","single-stim-button","199","935304","0.0-3.0-22.3-0.3","5654b02b04212700104a1d45","D2","batch4","tol_tohand","6668","","","","","","","","","tol_peg_1","6668","6668","0","[[0,0,0],[3,0],[2]]","4","[[0,0,0],[1,2],[3]]","4","0","","","","","","7","","","","",""
"","","","","","single-stim-button","200","941840","0.0-3.0-22.3-1.3","5654b02b04212700104a1d45","D2","batch4","tol_toboard","6534","","","","","","","","","tol_peg_2","6534","6534","0","[[0,0,0],[3,1],[2]]","4","[[0,0,0],[1,2],[3]]","4","0","","","","","","7","","","","",""
"","","","","","single-stim-button","201","942733","0.0-3.0-22.4-0.4","5654b02b04212700104a1d45","D2","batch4","tol_tohand","893","","","","","","","","","tol_peg_3","893","893","0","[[0,0,0],[3,1],[0]]","5","[[0,0,0],[1,2],[3]]","4","0","","","","","","7","","","","",""
"","","","","","single-stim-button","202","946211","0.0-3.0-22.4-1.4","5654b02b04212700104a1d45","D2","batch4","tol_toboard","3478","","","","","","","","","tol_peg_1","3478","3478","0","[[2,0,0],[3,1],[0]]","5","[[0,0,0],[1,2],[3]]","4","0","","","","","","7","","","","",""
"","","","","","single-stim-button","203","946708","0.0-3.0-22.5-0.5","5654b02b04212700104a1d45","D2","batch4","tol_tohand","497","","","","","","","","","tol_peg_2","497","497","0","[[2,0,0],[3,0],[0]]","6","[[0,0,0],[1,2],[3]]","4","0","","","","","","7","","","","",""
"","","","","","single-stim-button","204","947150","0.0-3.0-22.5-1.5","5654b02b04212700104a1d45","D2","batch4","tol_toboard","442","","","","","","","","","tol_peg_1","442","442","0","[[2,1,0],[3,0],[0]]","6","[[0,0,0],[1,2],[3]]","4","0","","","","","","7","","","","",""
"","","","","","single-stim-button","205","948297","0.0-3.0-22.6-0.6","5654b02b04212700104a1d45","D2","batch4","tol_tohand","1147","","","","","","","","","tol_peg_2","1147","1147","0","[[2,1,0],[0,0],[0]]","7","[[0,0,0],[1,2],[3]]","4","0","","","","","","7","","","","",""
"","","","","","single-stim-button","206","949730","0.0-3.0-22.6-1.6","5654b02b04212700104a1d45","D2","batch4","tol_toboard","1432","","","","","","","","","tol_peg_3","1432","1432","0","[[2,1,0],[0,0],[3]]","7","[[0,0,0],[1,2],[3]]","4","0","","","","","","7","","","","",""
"","","","","","single-stim-button","207","950261","0.0-3.0-22.7-0.7","5654b02b04212700104a1d45","D2","batch4","tol_tohand","531","","","","","","","","","tol_peg_1","531","531","0","[[2,0,0],[0,0],[3]]","8","[[0,0,0],[1,2],[3]]","4","0","","","","","","7","","","","",""
"","","","","","single-stim-button","208","950790","0.0-3.0-22.7-1.7","5654b02b04212700104a1d45","D2","batch4","tol_toboard","529","","","","","","","","","tol_peg_2","529","529","0","[[2,0,0],[1,0],[3]]","8","[[0,0,0],[1,2],[3]]","4","0","","","","","","7","","","","",""
"","","","","","single-stim-button","209","951211","0.0-3.0-22.8-0.8","5654b02b04212700104a1d45","D2","batch4","tol_tohand","419","","","","","","","","","tol_peg_1","419","419","0","[[0,0,0],[1,0],[3]]","9","[[0,0,0],[1,2],[3]]","4","0","","","","","","7","","","","",""
"","","","","","single-stim-button","210","951576","0.0-3.0-22.8-1.8","5654b02b04212700104a1d45","D2","batch4","tol_toboard","365","","","","","","","","","tol_peg_2","365","365","0","[[0,0,0],[1,2],[3]]","9","[[0,0,0],[1,2],[3]]","4","0","","","","","","7","","","","",""
"","","","","","poldrack-single-stim","211","952579","0.0-3.0-23.0","5654b02b04212700104a1d45","D2","batch4","tol_feedback","-1","","","","","true","","","","","1000","1000","500","","","","","","-1","none","true","3158","17815","","","","","",""
"","","","","","html-button-response","212","953788","0.0-3.0-24.0","5654b02b04212700104a1d45","D2","batch4","tol_trial_num","1209","<div class = centerbox><p class = center-block-text>problem <strong>6</strong> out of 25 problems</p></div>","0","","","","","","","","","","","","","","","","","","","","","","","","","",""
"","","","","","single-stim-button","213","960985","0.0-3.0-25.0-0.0","5654b02b04212700104a1d45","D2","batch4","tol_tohand","7196","","","","","","","","","tol_peg_3","7196","7196","0","[[0,0,0],[1,2],[0]]","1","[[1,0,0],[2,3],[0]]","5","0","","","","","","6","","","","",""
"","","","","","single-stim-button","214","961856","0.0-3.0-25.0-1.0","5654b02b04212700104a1d45","D2","batch4","tol_toboard","871","","","","","","","","","tol_peg_1","871","871","0","[[3,0,0],[1,2],[0]]","1","[[1,0,0],[2,3],[0]]","5","0","","","","","","6","","","","",""
"","","","","","single-stim-button","215","962298","0.0-3.0-25.1-0.1","5654b02b04212700104a1d45","D2","batch4","tol_tohand","441","","","","","","","","","tol_peg_2","441","441","0","[[3,0,0],[1,0],[0]]","2","[[1,0,0],[2,3],[0]]","5","0","","","","","","6","","","","",""
"","","","","","single-stim-button","216","962949","0.0-3.0-25.1-1.1","5654b02b04212700104a1d45","D2","batch4","tol_toboard","650","","","","","","","","","tol_peg_1","650","650","0","[[3,2,0],[1,0],[0]]","2","[[1,0,0],[2,3],[0]]","5","0","","","","","","6","","","","",""
"","","","","","single-stim-button","217","963424","0.0-3.0-25.2-0.2","5654b02b04212700104a1d45","D2","batch4","tol_tohand","474","","","","","","","","","tol_peg_2","474","474","0","[[3,2,0],[0,0],[0]]","3","[[1,0,0],[2,3],[0]]","5","0","","","","","","6","","","","",""
"","","","","","single-stim-button","218","963997","0.0-3.0-25.2-1.2","5654b02b04212700104a1d45","D2","batch4","tol_toboard","573","","","","","","","","","tol_peg_3","573","573","0","[[3,2,0],[0,0],[1]]","3","[[1,0,0],[2,3],[0]]","5","0","","","","","","6","","","","",""
"","","","","","single-stim-button","219","965560","0.0-3.0-25.3-0.3","5654b02b04212700104a1d45","D2","batch4","tol_tohand","1562","","","","","","","","","tol_peg_1","1562","1562","0","[[3,0,0],[0,0],[1]]","4","[[1,0,0],[2,3],[0]]","5","0","","","","","","6","","","","",""
"","","","","","single-stim-button","220","966168","0.0-3.0-25.3-1.3","5654b02b04212700104a1d45","D2","batch4","tol_toboard","608","","","","","","","","","tol_peg_2","608","608","0","[[3,0,0],[2,0],[1]]","4","[[1,0,0],[2,3],[0]]","5","0","","","","","","6","","","","",""
"","","","","","single-stim-button","221","966753","0.0-3.0-25.4-0.4","5654b02b04212700104a1d45","D2","batch4","tol_tohand","585","","","","","","","","","tol_peg_1","585","585","0","[[0,0,0],[2,0],[1]]","5","[[1,0,0],[2,3],[0]]","5","0","","","","","","6","","","","",""
"","","","","","single-stim-button","222","967271","0.0-3.0-25.4-1.4","5654b02b04212700104a1d45","D2","batch4","tol_toboard","518","","","","","","","","","tol_peg_2","518","518","0","[[0,0,0],[2,3],[1]]","5","[[1,0,0],[2,3],[0]]","5","0","","","","","","6","","","","",""
"","","","","","single-stim-button","223","967835","0.0-3.0-25.5-0.5","5654b02b04212700104a1d45","D2","batch4","tol_tohand","563","","","","","","","","","tol_peg_3","563","563","0","[[0,0,0],[2,3],[0]]","6","[[1,0,0],[2,3],[0]]","5","0","","","","","","6","","","","",""
"","","","","","single-stim-button","224","968398","0.0-3.0-25.5-1.5","5654b02b04212700104a1d45","D2","batch4","tol_toboard","563","","","","","","","","","tol_peg_1","563","563","0","[[1,0,0],[2,3],[0]]","6","[[1,0,0],[2,3],[0]]","5","0","","","","","","6","","","","",""
"","","","","","poldrack-single-stim","225","969403","0.0-3.0-26.0","5654b02b04212700104a1d45","D2","batch4","tol_feedback","-1","","","","","true","","","","","1000","1000","500","","","","","","-1","none","true","7196","10821","","","","","",""
"","","","","","html-button-response","226","970920","0.0-3.0-27.0","5654b02b04212700104a1d45","D2","batch4","tol_trial_num","1518","<div class = centerbox><p class = center-block-text>problem <strong>7</strong> out of 25 problems</p></div>","0","","","","","","","","","","","","","","","","","","","","","","","","","",""
"","","","","","single-stim-button","227","975235","0.0-3.0-28.0-0.0","5654b02b04212700104a1d45","D2","batch4","tol_tohand","4313","","","","","","","","","tol_peg_3","4313","4313","0","[[2,1,0],[0,0],[0]]","1","[[1,2,0],[3,0],[0]]","6","0","","","","","","5","","","","",""
"","","","","","single-stim-button","228","976314","0.0-3.0-28.0-1.0","5654b02b04212700104a1d45","D2","batch4","tol_toboard","1079","","","","","","","","","tol_peg_2","1079","1079","0","[[2,1,0],[3,0],[0]]","1","[[1,2,0],[3,0],[0]]","6","0","","","","","","5","","","","",""
"","","","","","single-stim-button","229","977174","0.0-3.0-28.1-0.1","5654b02b04212700104a1d45","D2","batch4","tol_tohand","860","","","","","","","","","tol_peg_1","860","860","0","[[2,0,0],[3,0],[0]]","2","[[1,2,0],[3,0],[0]]","6","0","","","","","","5","","","","",""
"","","","","","single-stim-button","230","979960","0.0-3.0-28.1-1.1","5654b02b04212700104a1d45","D2","batch4","tol_toboard","2786","","","","","","","","","tol_peg_2","2786","2786","0","[[2,0,0],[3,1],[0]]","2","[[1,2,0],[3,0],[0]]","6","0","","","","","","5","","","","",""
"","","","","","single-stim-button","231","980600","0.0-3.0-28.2-0.2","5654b02b04212700104a1d45","D2","batch4","tol_tohand","640","","","","","","","","","tol_peg_1","640","640","0","[[0,0,0],[3,1],[0]]","3","[[1,2,0],[3,0],[0]]","6","0","","","","","","5","","","","",""
"","","","","","single-stim-button","232","981394","0.0-3.0-28.2-1.2","5654b02b04212700104a1d45","D2","batch4","tol_toboard","794","","","","","","","","","tol_peg_3","794","794","0","[[0,0,0],[3,1],[2]]","3","[[1,2,0],[3,0],[0]]","6","0","","","","","","5","","","","",""
"","","","","","single-stim-button","233","982694","0.0-3.0-28.3-0.3","5654b02b04212700104a1d45","D2","batch4","tol_tohand","1299","","","","","","","","","tol_peg_2","1299","1299","0","[[0,0,0],[3,0],[2]]","4","[[1,2,0],[3,0],[0]]","6","0","","","","","","5","","","","",""
"","","","","","single-stim-button","234","983400","0.0-3.0-28.3-1.3","5654b02b04212700104a1d45","D2","batch4","tol_toboard","706","","","","","","","","","tol_peg_1","706","706","0","[[1,0,0],[3,0],[2]]","4","[[1,2,0],[3,0],[0]]","6","0","","","","","","5","","","","",""
"","","","","","single-stim-button","235","984040","0.0-3.0-28.4-0.4","5654b02b04212700104a1d45","D2","batch4","tol_tohand","640","","","","","","","","","tol_peg_3","640","640","0","[[1,0,0],[3,0],[0]]","5","[[1,2,0],[3,0],[0]]","6","0","","","","","","5","","","","",""
"","","","","","single-stim-button","236","984658","0.0-3.0-28.4-1.4","5654b02b04212700104a1d45","D2","batch4","tol_toboard","618","","","","","","","","","tol_peg_1","618","618","0","[[1,2,0],[3,0],[0]]","5","[[1,2,0],[3,0],[0]]","6","0","","","","","","5","","","","",""
"","","","","","poldrack-single-stim","237","985670","0.0-3.0-29.0","5654b02b04212700104a1d45","D2","batch4","tol_feedback","-1","","","","","true","","","","","1000","1000","500","","","","","","-1","none","true","4313","7752","","","","","",""
"","","","","","html-button-response","238","987045","0.0-3.0-30.0","5654b02b04212700104a1d45","D2","batch4","tol_trial_num","1375","<div class = centerbox><p class = center-block-text>problem <strong>8</strong> out of 25 problems</p></div>","0","","","","","","","","","","","","","","","","","","","","","","","","","",""
"","","","","","single-stim-button","239","989391","0.0-3.0-31.0-0.0","5654b02b04212700104a1d45","D2","batch4","tol_tohand","2345","","","","","","","","","tol_peg_3","2345","2345","0","[[0,0,0],[2,3],[0]]","1","[[1,2,0],[3,0],[0]]","7","0","","","","","","4","","","","",""
"","","","","","single-stim-button","240","992583","0.0-3.0-31.0-1.0","5654b02b04212700104a1d45","D2","batch4","tol_toboard","3191","","","","","","","","","tol_peg_1","3191","3191","0","[[1,0,0],[2,3],[0]]","1","[[1,2,0],[3,0],[0]]","7","0","","","","","","4","","","","",""
"","","","","","single-stim-button","241","996501","0.0-3.0-31.1-0.1","5654b02b04212700104a1d45","D2","batch4","tol_tohand","3918","","","","","","","","","tol_peg_2","3918","3918","0","[[1,0,0],[2,0],[0]]","2","[[1,2,0],[3,0],[0]]","7","0","","","","","","4","","","","",""
"","","","","","single-stim-button","242","998318","0.0-3.0-31.1-1.1","5654b02b04212700104a1d45","D2","batch4","tol_toboard","1817","","","","","","","","","tol_peg_3","1817","1817","0","[[1,0,0],[2,0],[3]]","2","[[1,2,0],[3,0],[0]]","7","0","","","","","","4","","","","",""
"","","","","","single-stim-button","243","998858","0.0-3.0-31.2-0.2","5654b02b04212700104a1d45","D2","batch4","tol_tohand","539","","","","","","","","","tol_peg_2","539","539","0","[[1,0,0],[0,0],[3]]","3","[[1,2,0],[3,0],[0]]","7","0","","","","","","4","","","","",""
"","","","","","single-stim-button","244","999322","0.0-3.0-31.2-1.2","5654b02b04212700104a1d45","D2","batch4","tol_toboard","464","","","","","","","","","tol_peg_1","464","464","0","[[1,2,0],[0,0],[3]]","3","[[1,2,0],[3,0],[0]]","7","0","","","","","","4","","","","",""
"","","","","","single-stim-button","245","999786","0.0-3.0-31.3-0.3","5654b02b04212700104a1d45","D2","batch4","tol_tohand","464","","","","","","","","","tol_peg_3","464","464","0","[[1,2,0],[0,0],[0]]","4","[[1,2,0],[3,0],[0]]","7","0","","","","","","4","","","","",""
"","","","","","single-stim-button","246","1000195","0.0-3.0-31.3-1.3","5654b02b04212700104a1d45","D2","batch4","tol_toboard","409","","","","","","","","","tol_peg_2","409","409","0","[[1,2,0],[3,0],[0]]","4","[[1,2,0],[3,0],[0]]","7","0","","","","","","4","","","","",""
"","","","","","poldrack-single-stim","247","1001210","0.0-3.0-32.0","5654b02b04212700104a1d45","D2","batch4","tol_feedback","-1","","","","","true","","","","","1000","1000","500","","","","","","-1","none","true","2345","7266","","","","","",""
"","","","","","html-button-response","248","1001934","0.0-3.0-33.0","5654b02b04212700104a1d45","D2","batch4","tol_trial_num","724","<div class = centerbox><p class = center-block-text>problem <strong>9</strong> out of 25 problems</p></div>","0","","","","","","","","","","","","","","","","","","","","","","","","","",""
"","","","","","single-stim-button","249","1017027","0.0-3.0-34.0-0.0","5654b02b04212700104a1d45","D2","batch4","tol_tohand","15092","","","","","","","","","tol_peg_3","15092","15092","0","[[3,2,0],[0,0],[0]]","1","[[2,1,0],[3,0],[0]]","8","0","","","","","","6","","","","",""
"","","","","","single-stim-button","250","1017799","0.0-3.0-34.0-1.0","5654b02b04212700104a1d45","D2","batch4","tol_toboard","772","","","","","","","","","tol_peg_2","772","772","0","[[3,2,0],[1,0],[0]]","1","[[2,1,0],[3,0],[0]]","8","0","","","","","","6","","","","",""
"","","","","","single-stim-button","251","1018483","0.0-3.0-34.1-0.1","5654b02b04212700104a1d45","D2","batch4","tol_tohand","684","","","","","","","","","tol_peg_1","684","684","0","[[3,0,0],[1,0],[0]]","2","[[2,1,0],[3,0],[0]]","8","0","","","","","","6","","","","",""
"","","","","","single-stim-button","252","1025481","0.0-3.0-34.1-1.1","5654b02b04212700104a1d45","D2","batch4","tol_toboard","6998","","","","","","","","","tol_peg_2","6998","6998","0","[[3,0,0],[1,2],[0]]","2","[[2,1,0],[3,0],[0]]","8","0","","","","","","6","","","","",""
"","","","","","single-stim-button","253","1025957","0.0-3.0-34.2-0.2","5654b02b04212700104a1d45","D2","batch4","tol_tohand","476","","","","","","","","","tol_peg_1","476","476","0","[[0,0,0],[1,2],[0]]","3","[[2,1,0],[3,0],[0]]","8","0","","","","","","6","","","","",""
"","","","","","single-stim-button","254","1026541","0.0-3.0-34.2-1.2","5654b02b04212700104a1d45","D2","batch4","tol_toboard","583","","","","","","","","","tol_peg_3","583","583","0","[[0,0,0],[1,2],[3]]","3","[[2,1,0],[3,0],[0]]","8","0","","","","","","6","","","","",""
"","","","","","single-stim-button","255","1027082","0.0-3.0-34.3-0.3","5654b02b04212700104a1d45","D2","batch4","tol_tohand","541","","","","","","","","","tol_peg_2","541","541","0","[[0,0,0],[1,0],[3]]","4","[[2,1,0],[3,0],[0]]","8","0","","","","","","6","","","","",""
"","","","","","single-stim-button","256","1027569","0.0-3.0-34.3-1.3","5654b02b04212700104a1d45","D2","batch4","tol_toboard","487","","","","","","","","","tol_peg_1","487","487","0","[[2,0,0],[1,0],[3]]","4","[[2,1,0],[3,0],[0]]","8","0","","","","","","6","","","","",""
"","","","","","single-stim-button","257","1027989","0.0-3.0-34.4-0.4","5654b02b04212700104a1d45","D2","batch4","tol_tohand","419","","","","","","","","","tol_peg_2","419","419","0","[[2,0,0],[0,0],[3]]","5","[[2,1,0],[3,0],[0]]","8","0","","","","","","6","","","","",""
"","","","","","single-stim-button","258","1028409","0.0-3.0-34.4-1.4","5654b02b04212700104a1d45","D2","batch4","tol_toboard","420","","","","","","","","","tol_peg_1","420","420","0","[[2,1,0],[0,0],[3]]","5","[[2,1,0],[3,0],[0]]","8","0","","","","","","6","","","","",""
"","","","","","single-stim-button","259","1028906","0.0-3.0-34.5-0.5","5654b02b04212700104a1d45","D2","batch4","tol_tohand","497","","","","","","","","","tol_peg_3","497","497","0","[[2,1,0],[0,0],[0]]","6","[[2,1,0],[3,0],[0]]","8","0","","","","","","6","","","","",""
"","","","","","single-stim-button","260","1029305","0.0-3.0-34.5-1.5","5654b02b04212700104a1d45","D2","batch4","tol_toboard","399","","","","","","","","","tol_peg_2","399","399","0","[[2,1,0],[3,0],[0]]","6","[[2,1,0],[3,0],[0]]","8","0","","","","","","6","","","","",""
"","","","","","poldrack-single-stim","261","1030312","0.0-3.0-35.0","5654b02b04212700104a1d45","D2","batch4","tol_feedback","-1","","","","","true","","","","","1000","1000","500","","","","","","-1","none","true","15092","17709","","","","","",""
"","","","","","html-button-response","262","1031265","0.0-3.0-36.0","5654b02b04212700104a1d45","D2","batch4","tol_trial_num","952","<div class = centerbox><p class = center-block-text>problem <strong>10</strong> out of 25 problems</p></div>","0","","","","","","","","","","","","","","","","","","","","","","","","","",""
"","","","","","single-stim-button","263","1035622","0.0-3.0-37.0-0.0","5654b02b04212700104a1d45","D2","batch4","tol_tohand","4357","","","","","","","","","tol_peg_3","4357","4357","0","[[3,0,0],[1,0],[0]]","1","[[3,0,0],[2,1],[0]]","9","0","","","","","","3","","","","",""
"","","","","","single-stim-button","264","1037087","0.0-3.0-37.0-1.0","5654b02b04212700104a1d45","D2","batch4","tol_toboard","1465","","","","","","","","","tol_peg_1","1465","1465","0","[[3,2,0],[1,0],[0]]","1","[[3,0,0],[2,1],[0]]","9","0","","","","","","3","","","","",""
"","","","","","single-stim-button","265","1037573","0.0-3.0-37.1-0.1","5654b02b04212700104a1d45","D2","batch4","tol_tohand","486","","","","","","","","","tol_peg_2","486","486","0","[[3,2,0],[0,0],[0]]","2","[[3,0,0],[2,1],[0]]","9","0","","","","","","3","","","","",""
"","","","","","single-stim-button","266","1038059","0.0-3.0-37.1-1.1","5654b02b04212700104a1d45","D2","batch4","tol_toboard","486","","","","","","","","","tol_peg_3","486","486","0","[[3,2,0],[0,0],[1]]","2","[[3,0,0],[2,1],[0]]","9","0","","","","","","3","","","","",""
"","","","","","single-stim-button","267","1038579","0.0-3.0-37.2-0.2","5654b02b04212700104a1d45","D2","batch4","tol_tohand","520","","","","","","","","","tol_peg_1","520","520","0","[[3,0,0],[0,0],[1]]","3","[[3,0,0],[2,1],[0]]","9","0","","","","","","3","","","","",""
"","","","","","single-stim-button","268","1039207","0.0-3.0-37.2-1.2","5654b02b04212700104a1d45","D2","batch4","tol_toboard","628","","","","","","","","","tol_peg_2","628","628","0","[[3,0,0],[2,0],[1]]","3","[[3,0,0],[2,1],[0]]","9","0","","","","","","3","","","","",""
"","","","","","single-stim-button","269","1039671","0.0-3.0-37.3-0.3","5654b02b04212700104a1d45","D2","batch4","tol_tohand","464","","","","","","","","","tol_peg_3","464","464","0","[[3,0,0],[2,0],[0]]","4","[[3,0,0],[2,1],[0]]","9","0","","","","","","3","","","","",""
"","","","","","single-stim-button","270","1040103","0.0-3.0-37.3-1.3","5654b02b04212700104a1d45","D2","batch4","tol_toboard","432","","","","","","","","","tol_peg_2","432","432","0","[[3,0,0],[2,1],[0]]","4","[[3,0,0],[2,1],[0]]","9","0","","","","","","3","","","","",""
"","","","","","poldrack-single-stim","271","1041115","0.0-3.0-38.0","5654b02b04212700104a1d45","D2","batch4","tol_feedback","-1","","","","","true","","","","","1000","1000","500","","","","","","-1","none","true","4357","5827","","","","","",""
"","","","","","html-button-response","272","1042106","0.0-3.0-39.0","5654b02b04212700104a1d45","D2","batch4","tol_trial_num","993","<div class = centerbox><p class = center-block-text>problem <strong>11</strong> out of 25 problems</p></div>","0","","","","","","","","","","","","","","","","","","","","","","","","","",""
"","","","","","single-stim-button","273","1045135","0.0-3.0-40.0-0.0","5654b02b04212700104a1d45","D2","batch4","tol_tohand","3028","","","","","","","","","tol_peg_2","3028","3028","0","[[1,2,0],[0,0],[0]]","1","[[2,0,0],[1,3],[0]]","10","0","","","","","","6","","","","",""
"","","","","","single-stim-button","274","1055953","0.0-3.0-40.0-1.0","5654b02b04212700104a1d45","D2","batch4","tol_toboard","10818","","","","","","","","","tol_peg_2","10818","10818","0","[[1,2,0],[3,0],[0]]","1","[[2,0,0],[1,3],[0]]","10","0","","","","","","6","","","","",""
"","","","","","single-stim-button","275","1080369","0.0-3.0-40.1-0.1","5654b02b04212700104a1d45","D2","batch4","tol_tohand","24416","","","","","","","","","tol_peg_1","24416","24416","0","[[1,0,0],[3,0],[0]]","2","[[2,0,0],[1,3],[0]]","10","0","","","","","","6","","","","",""
"","","","","","single-stim-button","276","1081250","0.0-3.0-40.1-1.1","5654b02b04212700104a1d45","D2","batch4","tol_toboard","881","","","","","","","","","tol_peg_3","881","881","0","[[1,0,0],[3,0],[2]]","2","[[2,0,0],[1,3],[0]]","10","0","","","","","","6","","","","",""
"","","","","","single-stim-button","277","1081902","0.0-3.0-40.2-0.2","5654b02b04212700104a1d45","D2","batch4","tol_tohand","651","","","","","","","","","tol_peg_1","651","651","0","[[0,0,0],[3,0],[2]]","3","[[2,0,0],[1,3],[0]]","10","0","","","","","","6","","","","",""
"","","","","","single-stim-button","278","1082399","0.0-3.0-40.2-1.2","5654b02b04212700104a1d45","D2","batch4","tol_toboard","497","","","","","","","","","tol_peg_2","497","497","0","[[0,0,0],[3,1],[2]]","3","[[2,0,0],[1,3],[0]]","10","0","","","","","","6","","","","",""
"","","","","","single-stim-button","279","1082873","0.0-3.0-40.3-0.3","5654b02b04212700104a1d45","D2","batch4","tol_tohand","474","","","","","","","","","tol_peg_3","474","474","0","[[0,0,0],[3,1],[0]]","4","[[2,0,0],[1,3],[0]]","10","0","","","","","","6","","","","",""
"","","","","","single-stim-button","280","1083548","0.0-3.0-40.3-1.3","5654b02b04212700104a1d45","D2","batch4","tol_toboard","675","","","","","","","","","tol_peg_1","675","675","0","[[2,0,0],[3,1],[0]]","4","[[2,0,0],[1,3],[0]]","10","0","","","","","","6","","","","",""
"","","","","","single-stim-button","281","1084396","0.0-3.0-40.4-0.4","5654b02b04212700104a1d45","D2","batch4","tol_tohand","848","","","","","","","","","tol_peg_2","848","848","0","[[2,0,0],[3,0],[0]]","5","[[2,0,0],[1,3],[0]]","10","0","","","","","","6","","","","",""
"","","","","","single-stim-button","282","1084839","0.0-3.0-40.4-1.4","5654b02b04212700104a1d45","D2","batch4","tol_toboard","442","","","","","","","","","tol_peg_3","442","442","0","[[2,0,0],[3,0],[1]]","5","[[2,0,0],[1,3],[0]]","10","0","","","","","","6","","","","",""
"","","","","","single-stim-button","283","1085776","0.0-3.0-40.5-0.5","5654b02b04212700104a1d45","D2","batch4","tol_tohand","937","","","","","","","","","tol_peg_2","937","937","0","[[2,0,0],[0,0],[1]]","6","[[2,0,0],[1,3],[0]]","10","0","","","","","","6","","","","",""
"","","","","","single-stim-button","284","1086207","0.0-3.0-40.5-1.5","5654b02b04212700104a1d45","D2","batch4","tol_toboard","430","","","","","","","","","tol_peg_1","430","430","0","[[2,3,0],[0,0],[1]]","6","[[2,0,0],[1,3],[0]]","10","0","","","","","","6","","","","",""
"","","","","","single-stim-button","285","1086737","0.0-3.0-40.6-0.6","5654b02b04212700104a1d45","D2","batch4","tol_tohand","530","","","","","","","","","tol_peg_3","530","530","0","[[2,3,0],[0,0],[0]]","7","[[2,0,0],[1,3],[0]]","10","0","","","","","","6","","","","",""
"","","","","","single-stim-button","286","1087145","0.0-3.0-40.6-1.6","5654b02b04212700104a1d45","D2","batch4","tol_toboard","408","","","","","","","","","tol_peg_2","408","408","0","[[2,3,0],[1,0],[0]]","7","[[2,0,0],[1,3],[0]]","10","0","","","","","","6","","","","",""
"","","","","","single-stim-button","287","1087533","0.0-3.0-40.7-0.7","5654b02b04212700104a1d45","D2","batch4","tol_tohand","388","","","","","","","","","tol_peg_1","388","388","0","[[2,0,0],[1,0],[0]]","8","[[2,0,0],[1,3],[0]]","10","0","","","","","","6","","","","",""
"","","","","","single-stim-button","288","1087832","0.0-3.0-40.7-1.7","5654b02b04212700104a1d45","D2","batch4","tol_toboard","299","","","","","","","","","tol_peg_2","299","299","0","[[2,0,0],[1,3],[0]]","8","[[2,0,0],[1,3],[0]]","10","0","","","","","","6","","","","",""
"","","","","","poldrack-single-stim","289","1088847","0.0-3.0-41.0","5654b02b04212700104a1d45","D2","batch4","tol_feedback","-1","","","","","true","","","","","1000","1000","500","","","","","","-1","none","true","3028","31272","","","","","",""
"","","","","","html-button-response","290","1089737","0.0-3.0-42.0","5654b02b04212700104a1d45","D2","batch4","tol_trial_num","889","<div class = centerbox><p class = center-block-text>problem <strong>12</strong> out of 25 problems</p></div>","0","","","","","","","","","","","","","","","","","","","","","","","","","",""
"","","","","","single-stim-button","291","1095504","0.0-3.0-43.0-0.0","5654b02b04212700104a1d45","D2","batch4","tol_tohand","5767","","","","","","","","","tol_peg_1","5767","5767","0","[[1,0,0],[3,0],[0]]","1","[[2,3,0],[0,0],[1]]","11","0","","","","","","4","","","","",""
"","","","","","single-stim-button","292","1096254","0.0-3.0-43.0-1.0","5654b02b04212700104a1d45","D2","batch4","tol_toboard","750","","","","","","","","","tol_peg_3","750","750","0","[[1,0,0],[3,0],[2]]","1","[[2,3,0],[0,0],[1]]","11","0","","","","","","4","","","","",""
"","","","","","single-stim-button","293","1096783","0.0-3.0-43.1-0.1","5654b02b04212700104a1d45","D2","batch4","tol_tohand","529","","","","","","","","","tol_peg_1","529","529","0","[[0,0,0],[3,0],[2]]","2","[[2,3,0],[0,0],[1]]","11","0","","","","","","4","","","","",""
"","","","","","single-stim-button","294","1097336","0.0-3.0-43.1-1.1","5654b02b04212700104a1d45","D2","batch4","tol_toboard","553","","","","","","","","","tol_peg_2","553","553","0","[[0,0,0],[3,1],[2]]","2","[[2,3,0],[0,0],[1]]","11","0","","","","","","4","","","","",""
"","","","","","single-stim-button","295","1098218","0.0-3.0-43.2-0.2","5654b02b04212700104a1d45","D2","batch4","tol_tohand","881","","","","","","","","","tol_peg_3","881","881","0","[[0,0,0],[3,1],[0]]","3","[[2,3,0],[0,0],[1]]","11","0","","","","","","4","","","","",""
"","","","","","single-stim-button","296","1099135","0.0-3.0-43.2-1.2","5654b02b04212700104a1d45","D2","batch4","tol_toboard","917","","","","","","","","","tol_peg_1","917","917","0","[[2,0,0],[3,1],[0]]","3","[[2,3,0],[0,0],[1]]","11","0","","","","","","4","","","","",""
"","","","","","single-stim-button","297","1099599","0.0-3.0-43.3-0.3","5654b02b04212700104a1d45","D2","batch4","tol_tohand","464","","","","","","","","","tol_peg_2","464","464","0","[[2,0,0],[3,0],[0]]","4","[[2,3,0],[0,0],[1]]","11","0","","","","","","4","","","","",""
"","","","","","single-stim-button","298","1100073","0.0-3.0-43.3-1.3","5654b02b04212700104a1d45","D2","batch4","tol_toboard","474","","","","","","","","","tol_peg_3","474","474","0","[[2,0,0],[3,0],[1]]","4","[[2,3,0],[0,0],[1]]","11","0","","","","","","4","","","","",""
"","","","","","single-stim-button","299","1100526","0.0-3.0-43.4-0.4","5654b02b04212700104a1d45","D2","batch4","tol_tohand","452","","","","","","","","","tol_peg_2","452","452","0","[[2,0,0],[0,0],[1]]","5","[[2,3,0],[0,0],[1]]","11","0","","","","","","4","","","","",""
"","","","","","single-stim-button","300","1100891","0.0-3.0-43.4-1.4","5654b02b04212700104a1d45","D2","batch4","tol_toboard","365","","","","","","","","","tol_peg_1","365","365","0","[[2,3,0],[0,0],[1]]","5","[[2,3,0],[0,0],[1]]","11","0","","","","","","4","","","","",""
"","","","","","poldrack-single-stim","301","1101904","0.0-3.0-44.0","5654b02b04212700104a1d45","D2","batch4","tol_feedback","-1","","","","","true","","","","","1000","1000","500","","","","","","-1","none","true","5767","8093","","","","","",""
"","","","","","html-button-response","302","1102697","0.0-3.0-45.0","5654b02b04212700104a1d45","D2","batch4","tol_trial_num","793","<div class = centerbox><p class = center-block-text>problem <strong>13</strong> out of 25 problems</p></div>","0","","","","","","","","","","","","","","","","","","","","","","","","","",""
"","","","","","single-stim-button","303","1107804","0.0-3.0-46.0-0.0","5654b02b04212700104a1d45","D2","batch4","tol_tohand","5107","","","","","","","","","tol_peg_1","5107","5107","0","[[1,0,0],[3,0],[0]]","1","[[0,0,0],[2,3],[1]]","12","0","","","","","","4","","","","",""
"","","","","","single-stim-button","304","1108522","0.0-3.0-46.0-1.0","5654b02b04212700104a1d45","D2","batch4","tol_toboard","717","","","","","","","","","tol_peg_2","717","717","0","[[1,0,0],[3,2],[0]]","1","[[0,0,0],[2,3],[1]]","12","0","","","","","","4","","","","",""
"","","","","","single-stim-button","305","1109018","0.0-3.0-46.1-0.1","5654b02b04212700104a1d45","D2","batch4","tol_tohand","496","","","","","","","","","tol_peg_1","496","496","0","[[0,0,0],[3,2],[0]]","2","[[0,0,0],[2,3],[1]]","12","0","","","","","","4","","","","",""
"","","","","","single-stim-button","306","1109637","0.0-3.0-46.1-1.1","5654b02b04212700104a1d45","D2","batch4","tol_toboard","618","","","","","","","","","tol_peg_3","618","618","0","[[0,0,0],[3,2],[1]]","2","[[0,0,0],[2,3],[1]]","12","0","","","","","","4","","","","",""
"","","","","","single-stim-button","307","1110221","0.0-3.0-46.2-0.2","5654b02b04212700104a1d45","D2","batch4","tol_tohand","584","","","","","","","","","tol_peg_2","584","584","0","[[0,0,0],[3,0],[1]]","3","[[0,0,0],[2,3],[1]]","12","0","","","","","","4","","","","",""
"","","","","","single-stim-button","308","1110708","0.0-3.0-46.2-1.2","5654b02b04212700104a1d45","D2","batch4","tol_toboard","485","","","","","","","","","tol_peg_1","485","485","0","[[2,0,0],[3,0],[1]]","3","[[0,0,0],[2,3],[1]]","12","0","","","","","","4","","","","",""
"","","","","","single-stim-button","309","1113098","0.0-3.0-46.3-0.3","5654b02b04212700104a1d45","D2","batch4","tol_tohand","2389","","","","","","","","","tol_peg_2","2389","2389","0","[[2,0,0],[0,0],[1]]","4","[[0,0,0],[2,3],[1]]","12","0","","","","","","4","","","","",""
"","","","","","single-stim-button","310","1115180","0.0-3.0-46.3-1.3","5654b02b04212700104a1d45","D2","batch4","tol_toboard","2081","","","","","","","","","tol_peg_2","2081","2081","0","[[2,0,0],[3,0],[1]]","4","[[0,0,0],[2,3],[1]]","12","0","","","","","","4","","","","",""
"","","","","","single-stim-button","311","1117116","0.0-3.0-46.4-0.4","5654b02b04212700104a1d45","D2","batch4","tol_tohand","1936","","","","","","","","","tol_peg_3","1936","1936","0","[[2,0,0],[3,0],[0]]","5","[[0,0,0],[2,3],[1]]","12","0","","","","","","4","","","","",""
"","","","","","single-stim-button","312","1117702","0.0-3.0-46.4-1.4","5654b02b04212700104a1d45","D2","batch4","tol_toboard","585","","","","","","","","","tol_peg_1","585","585","0","[[2,1,0],[3,0],[0]]","5","[[0,0,0],[2,3],[1]]","12","0","","","","","","4","","","","",""
"","","","","","single-stim-button","313","1118147","0.0-3.0-46.5-0.5","5654b02b04212700104a1d45","D2","batch4","tol_tohand","445","","","","","","","","","tol_peg_2","445","445","0","[[2,1,0],[0,0],[0]]","6","[[0,0,0],[2,3],[1]]","12","0","","","","","","4","","","","",""
"","","","","","single-stim-button","314","1118686","0.0-3.0-46.5-1.5","5654b02b04212700104a1d45","D2","batch4","tol_toboard","539","","","","","","","","","tol_peg_3","539","539","0","[[2,1,0],[0,0],[3]]","6","[[0,0,0],[2,3],[1]]","12","0","","","","","","4","","","","",""
"","","","","","single-stim-button","315","1119193","0.0-3.0-46.6-0.6","5654b02b04212700104a1d45","D2","batch4","tol_tohand","507","","","","","","","","","tol_peg_1","507","507","0","[[2,0,0],[0,0],[3]]","7","[[0,0,0],[2,3],[1]]","12","0","","","","","","4","","","","",""
"","","","","","single-stim-button","316","1119792","0.0-3.0-46.6-1.6","5654b02b04212700104a1d45","D2","batch4","tol_toboard","598","","","","","","","","","tol_peg_2","598","598","0","[[2,0,0],[1,0],[3]]","7","[[0,0,0],[2,3],[1]]","12","0","","","","","","4","","","","",""
"","","","","","single-stim-button","317","1122908","0.0-3.0-46.7-0.7","5654b02b04212700104a1d45","D2","batch4","tol_tohand","3116","","","","","","","","","tol_peg_1","3116","3116","0","[[0,0,0],[1,0],[3]]","8","[[0,0,0],[2,3],[1]]","12","0","","","","","","4","","","","",""
"","","","","","single-stim-button","318","1126210","0.0-3.0-46.7-1.7","5654b02b04212700104a1d45","D2","batch4","tol_toboard","3301","","","","","","","","","tol_peg_2","3301","3301","0","[[0,0,0],[1,2],[3]]","8","[[0,0,0],[2,3],[1]]","12","0","","","","","","4","","","","",""
"","","","","","single-stim-button","319","1127234","0.0-3.0-46.8-0.8","5654b02b04212700104a1d45","D2","batch4","tol_tohand","1024","","","","","","","","","tol_peg_3","1024","1024","0","[[0,0,0],[1,2],[0]]","9","[[0,0,0],[2,3],[1]]","12","0","","","","","","4","","","","",""
"","","","","","single-stim-button","320","1127777","0.0-3.0-46.8-1.8","5654b02b04212700104a1d45","D2","batch4","tol_toboard","543","","","","","","","","","tol_peg_1","543","543","0","[[3,0,0],[1,2],[0]]","9","[[0,0,0],[2,3],[1]]","12","0","","","","","","4","","","","",""
"","","","","","single-stim-button","321","1128308","0.0-3.0-46.9-0.9","5654b02b04212700104a1d45","D2","batch4","tol_tohand","531","","","","","","","","","tol_peg_2","531","531","0","[[3,0,0],[1,0],[0]]","10","[[0,0,0],[2,3],[1]]","12","0","","","","","","4","","","","",""
"","","","","","single-stim-button","322","1130587","0.0-3.0-46.9-1.9","5654b02b04212700104a1d45","D2","batch4","tol_toboard","2279","","","","","","","","","tol_peg_3","2279","2279","0","[[3,0,0],[1,0],[2]]","10","[[0,0,0],[2,3],[1]]","12","0","","","","","","4","","","","",""
"","","","","","single-stim-button","323","1131072","0.0-3.0-46.10-0.10","5654b02b04212700104a1d45","D2","batch4","tol_tohand","483","","","","","","","","","tol_peg_2","483","483","0","[[3,0,0],[0,0],[2]]","11","[[0,0,0],[2,3],[1]]","12","0","","","","","","4","","","","",""
"","","","","","single-stim-button","324","1131537","0.0-3.0-46.10-1.10","5654b02b04212700104a1d45","D2","batch4","tol_toboard","465","","","","","","","","","tol_peg_1","465","465","0","[[3,1,0],[0,0],[2]]","11","[[0,0,0],[2,3],[1]]","12","0","","","","","","4","","","","",""
"","","","","","single-stim-button","325","1131978","0.0-3.0-46.11-0.11","5654b02b04212700104a1d45","D2","batch4","tol_tohand","441","","","","","","","","","tol_peg_3","441","441","0","[[3,1,0],[0,0],[0]]","12","[[0,0,0],[2,3],[1]]","12","0","","","","","","4","","","","",""
"","","","","","single-stim-button","326","1132498","0.0-3.0-46.11-1.11","5654b02b04212700104a1d45","D2","batch4","tol_toboard","520","","","","","","","","","tol_peg_2","520","520","0","[[3,1,0],[2,0],[0]]","12","[[0,0,0],[2,3],[1]]","12","0","","","","","","4","","","","",""
"","","","","","single-stim-button","327","1133558","0.0-3.0-46.12-0.12","5654b02b04212700104a1d45","D2","batch4","tol_tohand","1060","","","","","","","","","tol_peg_1","1060","1060","0","[[3,0,0],[2,0],[0]]","13","[[0,0,0],[2,3],[1]]","12","0","","","","","","4","","","","",""
"","","","","","single-stim-button","328","1134153","0.0-3.0-46.12-1.12","5654b02b04212700104a1d45","D2","batch4","tol_toboard","594","","","","","","","","","tol_peg_3","594","594","0","[[3,0,0],[2,0],[1]]","13","[[0,0,0],[2,3],[1]]","12","0","","","","","","4","","","","",""
"","","","","","single-stim-button","329","1135079","0.0-3.0-46.13-0.13","5654b02b04212700104a1d45","D2","batch4","tol_tohand","926","","","","","","","","","tol_peg_1","926","926","0","[[0,0,0],[2,0],[1]]","14","[[0,0,0],[2,3],[1]]","12","0","","","","","","4","","","","",""
"","","","","","single-stim-button","330","1135378","0.0-3.0-46.13-1.13","5654b02b04212700104a1d45","D2","batch4","tol_toboard","299","","","","","","","","","tol_peg_2","299","299","0","[[0,0,0],[2,3],[1]]","14","[[0,0,0],[2,3],[1]]","12","0","","","","","","4","","","","",""
"","","","","","poldrack-single-stim","331","1136382","0.0-3.0-47.0","5654b02b04212700104a1d45","D2","batch4","tol_feedback","-1","","","","","true","","","","","1000","1000","500","","","","","","-1","none","true","5107","19045","","","","","",""
"","","","","","html-button-response","332","1139067","0.0-3.0-48.0","5654b02b04212700104a1d45","D2","batch4","attention_check","2684","<p class = block-text>How many balls are in your board<br></p>","1","","","true","","","","","","","","","","","","","","","","","","","","","","",""
"","","","","","html-button-response","333","1140104","0.0-3.0-49.0","5654b02b04212700104a1d45","D2","batch4","tol_trial_num","1037","<div class = centerbox><p class = center-block-text>problem <strong>14</strong> out of 25 problems</p></div>","0","","","","","","","","","","","","","","","","","","","","","","","","","",""
"","","","","","single-stim-button","334","1144111","0.0-3.0-50.0-0.0","5654b02b04212700104a1d45","D2","batch4","tol_tohand","4006","","","","","","","","","tol_peg_1","4006","4006","0","[[2,0,0],[3,0],[0]]","1","[[1,2,0],[3,0],[0]]","13","0","","","","","","4","","","","",""
"","","","","","single-stim-button","335","1145289","0.0-3.0-50.0-1.0","5654b02b04212700104a1d45","D2","batch4","tol_toboard","1178","","","","","","","","","tol_peg_3","1178","1178","0","[[2,0,0],[3,0],[1]]","1","[[1,2,0],[3,0],[0]]","13","0","","","","","","4","","","","",""
"","","","","","single-stim-button","336","1145830","0.0-3.0-50.1-0.1","5654b02b04212700104a1d45","D2","batch4","tol_tohand","540","","","","","","","","","tol_peg_1","540","540","0","[[0,0,0],[3,0],[1]]","2","[[1,2,0],[3,0],[0]]","13","0","","","","","","4","","","","",""
"","","","","","single-stim-button","337","1146229","0.0-3.0-50.1-1.1","5654b02b04212700104a1d45","D2","batch4","tol_toboard","397","","","","","","","","","tol_peg_2","397","397","0","[[0,0,0],[3,2],[1]]","2","[[1,2,0],[3,0],[0]]","13","0","","","","","","4","","","","",""
"","","","","","single-stim-button","338","1146802","0.0-3.0-50.2-0.2","5654b02b04212700104a1d45","D2","batch4","tol_tohand","573","","","","","","","","","tol_peg_3","573","573","0","[[0,0,0],[3,2],[0]]","3","[[1,2,0],[3,0],[0]]","13","0","","","","","","4","","","","",""
"","","","","","single-stim-button","339","1147398","0.0-3.0-50.2-1.2","5654b02b04212700104a1d45","D2","batch4","tol_toboard","596","","","","","","","","","tol_peg_1","596","596","0","[[1,0,0],[3,2],[0]]","3","[[1,2,0],[3,0],[0]]","13","0","","","","","","4","","","","",""
"","","","","","single-stim-button","340","1147753","0.0-3.0-50.3-0.3","5654b02b04212700104a1d45","D2","batch4","tol_tohand","353","","","","","","","","","tol_peg_2","353","353","0","[[1,0,0],[3,0],[0]]","4","[[1,2,0],[3,0],[0]]","13","0","","","","","","4","","","","",""
"","","","","","single-stim-button","341","1148184","0.0-3.0-50.3-1.3","5654b02b04212700104a1d45","D2","batch4","tol_toboard","431","","","","","","","","","tol_peg_1","431","431","0","[[1,2,0],[3,0],[0]]","4","[[1,2,0],[3,0],[0]]","13","0","","","","","","4","","","","",""
"","","","","","poldrack-single-stim","342","1149196","0.0-3.0-51.0","5654b02b04212700104a1d45","D2","batch4","tol_feedback","-1","","","","","true","","","","","1000","1000","500","","","","","","-1","none","true","4006","5472","","","","","",""
"","","","","","html-button-response","343","1150134","0.0-3.0-52.0","5654b02b04212700104a1d45","D2","batch4","tol_trial_num","938","<div class = centerbox><p class = center-block-text>problem <strong>15</strong> out of 25 problems</p></div>","0","","","","","","","","","","","","","","","","","","","","","","","","","",""
"","","","","","single-stim-button","344","1153547","0.0-3.0-53.0-0.0","5654b02b04212700104a1d45","D2","batch4","tol_tohand","3412","","","","","","","","","tol_peg_1","3412","3412","0","[[1,0,0],[3,0],[0]]","1","[[2,0,0],[3,0],[1]]","14","0","","","","","","3","","","","",""
"","","","","","single-stim-button","345","1154022","0.0-3.0-53.0-1.0","5654b02b04212700104a1d45","D2","batch4","tol_toboard","475","","","","","","","","","tol_peg_2","475","475","0","[[1,0,0],[3,2],[0]]","1","[[2,0,0],[3,0],[1]]","14","0","","","","","","3","","","","",""
"","","","","","single-stim-button","346","1154597","0.0-3.0-53.1-0.1","5654b02b04212700104a1d45","D2","batch4","tol_tohand","575","","","","","","","","","tol_peg_1","575","575","0","[[0,0,0],[3,2],[0]]","2","[[2,0,0],[3,0],[1]]","14","0","","","","","","3","","","","",""
"","","","","","single-stim-button","347","1155060","0.0-3.0-53.1-1.1","5654b02b04212700104a1d45","D2","batch4","tol_toboard","463","","","","","","","","","tol_peg_3","463","463","0","[[0,0,0],[3,2],[1]]","2","[[2,0,0],[3,0],[1]]","14","0","","","","","","3","","","","",""
"","","","","","single-stim-button","348","1155601","0.0-3.0-53.2-0.2","5654b02b04212700104a1d45","D2","batch4","tol_tohand","541","","","","","","","","","tol_peg_2","541","541","0","[[0,0,0],[3,0],[1]]","3","[[2,0,0],[3,0],[1]]","14","0","","","","","","3","","","","",""
"","","","","","single-stim-button","349","1156043","0.0-3.0-53.2-1.2","5654b02b04212700104a1d45","D2","batch4","tol_toboard","442","","","","","","","","","tol_peg_1","442","442","0","[[2,0,0],[3,0],[1]]","3","[[2,0,0],[3,0],[1]]","14","0","","","","","","3","","","","",""
"","","","","","poldrack-single-stim","350","1157049","0.0-3.0-54.0","5654b02b04212700104a1d45","D2","batch4","tol_feedback","-1","","","","","true","","","","","1000","1000","500","","","","","","-1","none","true","3412","4528","","","","","",""
"","","","","","html-button-response","351","1157992","0.0-3.0-55.0","5654b02b04212700104a1d45","D2","batch4","tol_trial_num","942","<div class = centerbox><p class = center-block-text>problem <strong>16</strong> out of 25 problems</p></div>","0","","","","","","","","","","","","","","","","","","","","","","","","","",""
"","","","","","single-stim-button","352","1164343","0.0-3.0-56.0-0.0","5654b02b04212700104a1d45","D2","batch4","tol_tohand","6351","","","","","","","","","tol_peg_3","6351","6351","0","[[0,0,0],[2,3],[0]]","1","[[2,3,0],[1,0],[0]]","15","0","","","","","","7","","","","",""
"","","","","","single-stim-button","353","1164971","0.0-3.0-56.0-1.0","5654b02b04212700104a1d45","D2","batch4","tol_toboard","627","","","","","","","","","tol_peg_1","627","627","0","[[1,0,0],[2,3],[0]]","1","[[2,3,0],[1,0],[0]]","15","0","","","","","","7","","","","",""
"","","","","","single-stim-button","354","1165677","0.0-3.0-56.1-0.1","5654b02b04212700104a1d45","D2","batch4","tol_tohand","706","","","","","","","","","tol_peg_2","706","706","0","[[1,0,0],[2,0],[0]]","2","[[2,3,0],[1,0],[0]]","15","0","","","","","","7","","","","",""
"","","","","","single-stim-button","355","1167351","0.0-3.0-56.1-1.1","5654b02b04212700104a1d45","D2","batch4","tol_toboard","1674","","","","","","","","","tol_peg_3","1674","1674","0","[[1,0,0],[2,0],[3]]","2","[[2,3,0],[1,0],[0]]","15","0","","","","","","7","","","","",""
"","","","","","single-stim-button","356","1171996","0.0-3.0-56.2-0.2","5654b02b04212700104a1d45","D2","batch4","tol_tohand","4644","","","","","","","","","tol_peg_3","4644","4644","0","[[1,0,0],[2,0],[0]]","3","[[2,3,0],[1,0],[0]]","15","0","","","","","","7","","","","",""
"","","","","","single-stim-button","357","1172604","0.0-3.0-56.2-1.2","5654b02b04212700104a1d45","D2","batch4","tol_toboard","608","","","","","","","","","tol_peg_1","608","608","0","[[1,3,0],[2,0],[0]]","3","[[2,3,0],[1,0],[0]]","15","0","","","","","","7","","","","",""
"","","","","","single-stim-button","358","1173122","0.0-3.0-56.3-0.3","5654b02b04212700104a1d45","D2","batch4","tol_tohand","518","","","","","","","","","tol_peg_2","518","518","0","[[1,3,0],[0,0],[0]]","4","[[2,3,0],[1,0],[0]]","15","0","","","","","","7","","","","",""
"","","","","","single-stim-button","359","1173654","0.0-3.0-56.3-1.3","5654b02b04212700104a1d45","D2","batch4","tol_toboard","531","","","","","","","","","tol_peg_3","531","531","0","[[1,3,0],[0,0],[2]]","4","[[2,3,0],[1,0],[0]]","15","0","","","","","","7","","","","",""
