"success","timeout","failed_images","failed_audio","failed_video","trial_type","trial_index","time_elapsed","internal_node_id","subject_id","study_id","session_id","task","rt","stimulus","response","item","answer","correct","spm_correct","spm_rt","view_history","fiar_detect_rt","fiar_detect_correct","total_correct_fiar_detect","post_trial_gap","choices","mouse_click","stim_duration","block_duration","timing_post_trial","current_position","tol_num_moves_made","tol_target","tol_problem_id","tol_rt","key_press","possible_responses","tol_correct","preplanning","tol_rt_per_trial","tol_min_moves"
"true","false","[]","[]","[]","preload","0","6002","0.0-0.0","5678620289319e0011651232","E1","batch5","","","","","","","","","","","","","","","","","","","","","","","","","","","","","",""
"true","","","","","fullscreen","1","26849","0.0-1.0-0.0","5678620289319e0011651232","E1","batch5","","","","","","","","","","","","","","","","","","","","","","","","","","","","","",""
"true","","","","","fullscreen","2","30607","0.0-2.0-0.0","5678620289319e0011651232","E1","batch5","spm_fullscreen","","","","","","","","","","","","","","","","","","","","","","","","","","","","",""
"","","","","","html-button-response","3","43434","0.0-2.0-1.0","5678620289319e0011651232","E1","batch5","","12825.899999856949","<p class = block-text><b>Instructions</b> <br>This is a widely used intelligence test in research. <br>In this test, a figure with a missing piece will be presented.<br>Below the figure are alternative pieces to complete the figure, only one of which is correct.<br> Different figures might involve different principles for obtaining the missing piece<br>Your job is to select the most logical piece to complete the figure.</p>","0","","","","","","","","","","","","","","","","","","","","","","","","","",""
"","","","","","html-keyboard-response","4","44240","0.0-2.0-2.0-0.0","5678620289319e0011651232","E1","batch5","spm_show_trial_num","null","<p class=block-text>Trial 1 out of 60</p>","null","","","","","","","","","","","","","","","","","","","","","","","","","",""
"","","","","","image-button-response","5","48439","0.0-2.0-2.0-1.0","5678620289319e0011651232","E1","batch5","spm_respsonse","4197.399999856949","img/question_1_1.jpeg","3","mat_01","4","1","1","4197.399999856949","","","","","","","","","","","","","","","","","","","","",""
"","","","","","html-keyboard-response","6","49497","0.0-2.0-2.0-0.1","5678620289319e0011651232","E1","batch5","spm_show_trial_num","null","<p class=block-text>Trial 2 out of 60</p>","null","","","","","","","","","","","","","","","","","","","","","","","","","",""
"","","","","","image-button-response","7","51445","0.0-2.0-2.0-1.1","5678620289319e0011651232","E1","batch5","spm_respsonse","1947.4000000953674","img/question_1_2.jpeg","4","mat_02","5","1","1","1947.4000000953674","","","","","","","","","","","","","","","","","","","","",""
"","","","","","html-keyboard-response","8","52505","0.0-2.0-2.0-0.2","5678620289319e0011651232","E1","batch5","spm_show_trial_num","null","<p class=block-text>Trial 3 out of 60</p>","null","","","","","","","","","","","","","","","","","","","","","","","","","",""
"","","","","","image-button-response","9","55985","0.0-2.0-2.0-1.2","5678620289319e0011651232","E1","batch5","spm_respsonse","3479.699999809265","img/question_1_3.jpeg","0","mat_03","1","1","1","3479.699999809265","","","","","","","","","","","","","","","","","","","","",""
"","","","","","html-keyboard-response","10","57059","0.0-2.0-2.0-0.3","5678620289319e0011651232","E1","batch5","spm_show_trial_num","null","<p class=block-text>Trial 4 out of 60</p>","null","","","","","","","","","","","","","","","","","","","","","","","","","",""
"","","","","","image-button-response","11","59460","0.0-2.0-2.0-1.3","5678620289319e0011651232","E1","batch5","spm_respsonse","2399.600000143051","img/question_1_4.jpeg","1","mat_04","2","1","1","2399.600000143051","","","","","","","","","","","","","","","","","","","","",""
"","","","","","html-keyboard-response","12","60536","0.0-2.0-2.0-0.4","5678620289319e0011651232","E1","batch5","spm_show_trial_num","null","<p class=block-text>Trial 5 out of 60</p>","null","","","","","","","","","","","","","","","","","","","","","","","","","",""
"","","","","","image-button-response","13","63817","0.0-2.0-2.0-1.4","5678620289319e0011651232","E1","batch5","spm_respsonse","3280.800000190735","img/question_1_5.jpeg","5","mat_05","6","1","1","3280.800000190735","","","","","","","","","","","","","","","","","","","","",""
"","","","","","html-keyboard-response","14","64883","0.0-2.0-2.0-0.5","5678620289319e0011651232","E1","batch5","spm_show_trial_num","null","<p class=block-text>Trial 6 out of 60</p>","null","","","","","","","","","","","","","","","","","","","","","","","","","",""
"","","","","","image-button-response","15","68032","0.0-2.0-2.0-1.5","5678620289319e0011651232","E1","batch5","spm_respsonse","3148.4000000953674","img/question_1_6.jpeg","2","mat_06","3","1","1","3148.4000000953674","","","","","","","","","","","","","","","","","","","","",""
"","","","","","html-keyboard-response","16","69088","0.0-2.0-2.0-0.6","5678620289319e0011651232","E1","batch5","spm_show_trial_num","null","<p class=block-text>Trial 7 out of 60</p>","null","","","","","","","","","","","","","","","","","","","","","","","","","",""
"","","","","","image-button-response","17","73164","0.0-2.0-2.0-1.6","5678620289319e0011651232","E1","batch5","spm_respsonse","4075.4000000953674","img/question_1_7.jpeg","5","mat_07","6","1","1","4075.4000000953674","","","","","","","","","","","","","","","","","","","","",""
"","","","","","html-keyboard-response","18","74230","0.0-2.0-2.0-0.7","5678620289319e0011651232","E1","batch5","spm_show_trial_num","null","<p class=block-text>Trial 8 out of 60</p>","null","","","","","","","","","","","","","","","","","","","","","","","","","",""
"","","","","","image-button-response","19","79796","0.0-2.0-2.0-1.7","5678620289319e0011651232","E1","batch5","spm_respsonse","5565.5","img/question_1_8.jpeg","1","mat_08","2","1","1","5565.5","","","","","","","","","","","","","","","","","","","","",""
"","","","","","html-keyboard-response","20","80861","0.0-2.0-2.0-0.8","5678620289319e0011651232","E1","batch5","spm_show_trial_num","null","<p class=block-text>Trial 9 out of 60</p>","null","","","","","","","","","","","","","","","","","","","","","","","","","",""
"","","","","","image-button-response","21","84332","0.0-2.0-2.0-1.8","5678620289319e0011651232","E1","batch5","spm_respsonse","3470.100000143051","img/question_1_9.jpeg","0","mat_09","1","1","1","3470.100000143051","","","","","","","","","","","","","","","","","","","","",""
"","","","","","html-keyboard-response","22","85390","0.0-2.0-2.0-0.9","5678620289319e0011651232","E1","batch5","spm_show_trial_num","null","<p class=block-text>Trial 10 out of 60</p>","null","","","","","","","","","","","","","","","","","","","","","","","","","",""
"","","","","","image-button-response","23","91543","0.0-2.0-2.0-1.9","5678620289319e0011651232","E1","batch5","spm_respsonse","6151.400000095367","img/question_1_10.jpeg","2","mat_10","3","1","1","6151.400000095367","","","","","","","","","","","","","","","","","","","","",""
"","","","","","html-keyboard-response","24","92616","0.0-2.0-2.0-0.10","5678620289319e0011651232","E1","batch5","spm_show_trial_num","null","<p class=block-text>Trial 11 out of 60</p>","null","","","","","","","","","","","","","","","","","","","","","","","","","",""
"","","","","","image-button-response","25","104131","0.0-2.0-2.0-1.10","5678620289319e0011651232","E1","batch5","spm_respsonse","11514.700000047684","img/question_1_11.jpeg","3","mat_11","4","1","1","11514.700000047684","","","","","","","","","","","","","","","","","","","","",""
"","","","","","html-keyboard-response","26","105213","0.0-2.0-2.0-0.11","5678620289319e0011651232","E1","batch5","spm_show_trial_num","null","<p class=block-text>Trial 12 out of 60</p>","null","","","","","","","","","","","","","","","","","","","","","","","","","",""
"","","","","","image-button-response","27","113086","0.0-2.0-2.0-1.11","5678620289319e0011651232","E1","batch5","spm_respsonse","7871.899999856949","img/question_1_12.jpeg","4","mat_12","5","1","1","7871.899999856949","","","","","","","","","","","","","","","","","","","","",""
"","","","","","html-keyboard-response","28","114161","0.0-2.0-2.0-0.12","5678620289319e0011651232","E1","batch5","spm_show_trial_num","null","<p class=block-text>Trial 13 out of 60</p>","null","","","","","","","","","","","","","","","","","","","","","","","","","",""
"","","","","","image-button-response","29","118048","0.0-2.0-2.0-1.12","5678620289319e0011651232","E1","batch5","spm_respsonse","3886.600000143051","img/question_2_1.jpeg","1","mat_13","2","1","1","3886.600000143051","","","","","","","","","","","","","","","","","","","","",""
"","","","","","html-keyboard-response","30","119115","0.0-2.0-2.0-0.13","5678620289319e0011651232","E1","batch5","spm_show_trial_num","null","<p class=block-text>Trial 14 out of 60</p>","null","","","","","","","","","","","","","","","","","","","","","","","","","",""
"","","","","","image-button-response","31","125083","0.0-2.0-2.0-1.13","5678620289319e0011651232","E1","batch5","spm_respsonse","5967.5","img/question_2_2.jpeg","5","mat_14","6","1","1","5967.5","","","","","","","","","","","","","","","","","","","","",""
"","","","","","html-keyboard-response","32","126150","0.0-2.0-2.0-0.14","5678620289319e0011651232","E1","batch5","spm_show_trial_num","null","<p class=block-text>Trial 15 out of 60</p>","null","","","","","","","","","","","","","","","","","","","","","","","","","",""
"","","","","","image-button-response","33","129688","0.0-2.0-2.0-1.14","5678620289319e0011651232","E1","batch5","spm_respsonse","3537","img/question_2_3.jpeg","0","mat_15","1","1","1","3537","","","","","","","","","","","","","","","","","","","","",""
"","","","","","html-keyboard-response","34","130746","0.0-2.0-2.0-0.15","5678620289319e0011651232","E1","batch5","spm_show_trial_num","null","<p class=block-text>Trial 16 out of 60</p>","null","","","","","","","","","","","","","","","","","","","","","","","","","",""
"","","","","","image-button-response","35","134225","0.0-2.0-2.0-1.15","5678620289319e0011651232","E1","batch5","spm_respsonse","3478.5","img/question_2_4.jpeg","1","mat_16","2","1","1","3478.5","","","","","","","","","","","","","","","","","","","","",""
"","","","","","html-keyboard-response","36","135286","0.0-2.0-2.0-0.16","5678620289319e0011651232","E1","batch5","spm_show_trial_num","null","<p class=block-text>Trial 17 out of 60</p>","null","","","","","","","","","","","","","","","","","","","","","","","","","",""
"","","","","","image-button-response","37","139296","0.0-2.0-2.0-1.16","5678620289319e0011651232","E1","batch5","spm_respsonse","4009.4000000953674","img/question_2_5.jpeg","0","mat_17","1","1","1","4009.4000000953674","","","","","","","","","","","","","","","","","","","","",""
"","","","","","html-keyboard-response","38","140362","0.0-2.0-2.0-0.17","5678620289319e0011651232","E1","batch5","spm_show_trial_num","null","<p class=block-text>Trial 18 out of 60</p>","null","","","","","","","","","","","","","","","","","","","","","","","","","",""
"","","","","","image-button-response","39","144059","0.0-2.0-2.0-1.17","5678620289319e0011651232","E1","batch5","spm_respsonse","3695.899999856949","img/question_2_6.jpeg","2","mat_18","3","1","1","3695.899999856949","","","","","","","","","","","","","","","","","","","","",""
"","","","","","html-keyboard-response","40","145118","0.0-2.0-2.0-0.18","5678620289319e0011651232","E1","batch5","spm_show_trial_num","null","<p class=block-text>Trial 19 out of 60</p>","null","","","","","","","","","","","","","","","","","","","","","","","","","",""
"","","","","","image-button-response","41","150260","0.0-2.0-2.0-1.18","5678620289319e0011651232","E1","batch5","spm_respsonse","5140.799999952316","img/question_2_7.jpeg","4","mat_19","5","1","1","5140.799999952316","","","","","","","","","","","","","","","","","","","","",""
"","","","","","html-keyboard-response","42","151327","0.0-2.0-2.0-0.19","5678620289319e0011651232","E1","batch5","spm_show_trial_num","null","<p class=block-text>Trial 20 out of 60</p>","null","","","","","","","","","","","","","","","","","","","","","","","","","",""
"","","","","","image-button-response","43","157327","0.0-2.0-2.0-1.19","5678620289319e0011651232","E1","batch5","spm_respsonse","5998.900000095367","img/question_2_8.jpeg","5","mat_20","6","1","1","5998.900000095367","","","","","","","","","","","","","","","","","","","","",""
"","","","","","html-keyboard-response","44","158398","0.0-2.0-2.0-0.20","5678620289319e0011651232","E1","batch5","spm_show_trial_num","null","<p class=block-text>Trial 21 out of 60</p>","null","","","","","","","","","","","","","","","","","","","","","","","","","",""
"","","","","","image-button-response","45","163222","0.0-2.0-2.0-1.20","5678620289319e0011651232","E1","batch5","spm_respsonse","4823.299999952316","img/question_2_9.jpeg","0","mat_21","4","0","0","4823.299999952316","","","","","","","","","","","","","","","","","","","","",""
"","","","","","html-keyboard-response","46","164281","0.0-2.0-2.0-0.21","5678620289319e0011651232","E1","batch5","spm_show_trial_num","null","<p class=block-text>Trial 22 out of 60</p>","null","","","","","","","","","","","","","","","","","","","","","","","","","",""
"","","","","","image-button-response","47","171765","0.0-2.0-2.0-1.21","5678620289319e0011651232","E1","batch5","spm_respsonse","7483.599999904633","img/question_2_10.jpeg","2","mat_22","3","1","1","7483.599999904633","","","","","","","","","","","","","","","","","","","","",""
"","","","","","html-keyboard-response","48","172838","0.0-2.0-2.0-0.22","5678620289319e0011651232","E1","batch5","spm_show_trial_num","null","<p class=block-text>Trial 23 out of 60</p>","null","","","","","","","","","","","","","","","","","","","","","","","","","",""
"","","","","","image-button-response","49","176350","0.0-2.0-2.0-1.22","5678620289319e0011651232","E1","batch5","spm_respsonse","3511.4000000953674","img/question_2_11.jpeg","3","mat_23","4","1","1","3511.4000000953674","","","","","","","","","","","","","","","","","","","","",""
"","","","","","html-keyboard-response","50","177425","0.0-2.0-2.0-0.23","5678620289319e0011651232","E1","batch5","spm_show_trial_num","null","<p class=block-text>Trial 24 out of 60</p>","null","","","","","","","","","","","","","","","","","","","","","","","","","",""
"","","","","","image-button-response","51","188129","0.0-2.0-2.0-1.23","5678620289319e0011651232","E1","batch5","spm_respsonse","10702.799999952316","img/question_2_12.jpeg","4","mat_24","5","1","1","10702.799999952316","","","","","","","","","","","","","","","","","","","","",""
"","","","","","html-button-response","52","190618","0.0-2.0-3.0","5678620289319e0011651232","E1","batch5","attention_check","2238.100000143051","<p class = block-text>Attention check: Please choose 1<br></p>","0","","","true","","","","","","","","","","","","","","","","","","","","","","",""
"","","","","","html-keyboard-response","53","191433","0.0-2.0-4.0-0.0","5678620289319e0011651232","E1","batch5","spm_show_trial_num","null","<p class=block-text>Trial 25 out of 60</p>","null","","","","","","","","","","","","","","","","","","","","","","","","","",""
"","","","","","image-button-response","54","196677","0.0-2.0-4.0-1.0","5678620289319e0011651232","E1","batch5","spm_respsonse","5243.100000143051","img/question_3_1.jpeg","7","mat_25","8","1","1","5243.100000143051","","","","","","","","","","","","","","","","","","","","",""
"","","","","","html-keyboard-response","55","197741","0.0-2.0-4.0-0.1","5678620289319e0011651232","E1","batch5","spm_show_trial_num","null","<p class=block-text>Trial 26 out of 60</p>","null","","","","","","","","","","","","","","","","","","","","","","","","","",""
"","","","","","image-button-response","56","204744","0.0-2.0-4.0-1.1","5678620289319e0011651232","E1","batch5","spm_respsonse","7001.599999904633","img/question_3_2.jpeg","1","mat_26","2","1","1","7001.599999904633","","","","","","","","","","","","","","","","","","","","",""
"","","","","","html-keyboard-response","57","205811","0.0-2.0-4.0-0.2","5678620289319e0011651232","E1","batch5","spm_show_trial_num","null","<p class=block-text>Trial 27 out of 60</p>","null","","","","","","","","","","","","","","","","","","","","","","","","","",""
"","","","","","image-button-response","58","217960","0.0-2.0-4.0-1.2","5678620289319e0011651232","E1","batch5","spm_respsonse","12148.600000143051","img/question_3_3.jpeg","0","mat_27","3","0","0","12148.600000143051","","","","","","","","","","","","","","","","","","","","",""
"","","","","","html-keyboard-response","59","219021","0.0-2.0-4.0-0.3","5678620289319e0011651232","E1","batch5","spm_show_trial_num","null","<p class=block-text>Trial 28 out of 60</p>","null","","","","","","","","","","","","","","","","","","","","","","","","","",""
"","","","","","image-button-response","60","230163","0.0-2.0-4.0-1.3","5678620289319e0011651232","E1","batch5","spm_respsonse","11140.599999904633","img/question_3_4.jpeg","7","mat_28","8","1","1","11140.599999904633","","","","","","","","","","","","","","","","","","","","",""
"","","","","","html-keyboard-response","61","231244","0.0-2.0-4.0-0.4","5678620289319e0011651232","E1","batch5","spm_show_trial_num","null","<p class=block-text>Trial 29 out of 60</p>","null","","","","","","","","","","","","","","","","","","","","","","","","","",""
"","","","","","image-button-response","62","238630","0.0-2.0-4.0-1.4","5678620289319e0011651232","E1","batch5","spm_respsonse","7385","img/question_3_5.jpeg","6","mat_29","7","1","1","7385","","","","","","","","","","","","","","","","","","","","",""
"","","","","","html-keyboard-response","63","239693","0.0-2.0-4.0-0.5","5678620289319e0011651232","E1","batch5","spm_show_trial_num","null","<p class=block-text>Trial 30 out of 60</p>","null","","","","","","","","","","","","","","","","","","","","","","","","","",""
"","","","","","image-button-response","64","244419","0.0-2.0-4.0-1.5","5678620289319e0011651232","E1","batch5","spm_respsonse","4724.899999856949","img/question_3_6.jpeg","3","mat_30","4","1","1","4724.899999856949","","","","","","","","","","","","","","","","","","","","",""
"","","","","","html-keyboard-response","65","245483","0.0-2.0-4.0-0.6","5678620289319e0011651232","E1","batch5","spm_show_trial_num","null","<p class=block-text>Trial 31 out of 60</p>","null","","","","","","","","","","","","","","","","","","","","","","","","","",""
"","","","","","image-button-response","66","252444","0.0-2.0-4.0-1.6","5678620289319e0011651232","E1","batch5","spm_respsonse","6960.5","img/question_3_7.jpeg","4","mat_31","5","1","1","6960.5","","","","","","","","","","","","","","","","","","","","",""
"","","","","","html-keyboard-response","67","253515","0.0-2.0-4.0-0.7","5678620289319e0011651232","E1","batch5","spm_show_trial_num","null","<p class=block-text>Trial 32 out of 60</p>","null","","","","","","","","","","","","","","","","","","","","","","","","","",""
"","","","","","image-button-response","68","268712","0.0-2.0-4.0-1.7","5678620289319e0011651232","E1","batch5","spm_respsonse","15195.799999952316","img/question_3_8.jpeg","0","mat_32","1","1","1","15195.799999952316","","","","","","","","","","","","","","","","","","","","",""
"","","","","","html-keyboard-response","69","269779","0.0-2.0-4.0-0.8","5678620289319e0011651232","E1","batch5","spm_show_trial_num","null","<p class=block-text>Trial 33 out of 60</p>","null","","","","","","","","","","","","","","","","","","","","","","","","","",""
"","","","","","image-button-response","70","280358","0.0-2.0-4.0-1.8","5678620289319e0011651232","E1","batch5","spm_respsonse","10577.599999904633","img/question_3_9.jpeg","6","mat_33","7","1","1","10577.599999904633","","","","","","","","","","","","","","","","","","","","",""
"","","","","","html-keyboard-response","71","281434","0.0-2.0-4.0-0.9","5678620289319e0011651232","E1","batch5","spm_show_trial_num","null","<p class=block-text>Trial 34 out of 60</p>","null","","","","","","","","","","","","","","","","","","","","","","","","","",""
"","","","","","image-button-response","72","298709","0.0-2.0-4.0-1.9","5678620289319e0011651232","E1","batch5","spm_respsonse","17274.5","img/question_3_10.jpeg","3","mat_34","6","0","0","17274.5","","","","","","","","","","","","","","","","","","","","",""
"","","","","","html-keyboard-response","73","299775","0.0-2.0-4.0-0.10","5678620289319e0011651232","E1","batch5","spm_show_trial_num","null","<p class=block-text>Trial 35 out of 60</p>","null","","","","","","","","","","","","","","","","","","","","","","","","","",""
"","","","","","image-button-response","74","317159","0.0-2.0-4.0-1.10","5678620289319e0011651232","E1","batch5","spm_respsonse","17382.5","img/question_3_11.jpeg","0","mat_35","1","1","1","17382.5","","","","","","","","","","","","","","","","","","","","",""
"","","","","","html-keyboard-response","75","318232","0.0-2.0-4.0-0.11","5678620289319e0011651232","E1","batch5","spm_show_trial_num","null","<p class=block-text>Trial 36 out of 60</p>","null","","","","","","","","","","","","","","","","","","","","","","","","","",""
"","","","","","image-button-response","76","342595","0.0-2.0-4.0-1.11","5678620289319e0011651232","E1","batch5","spm_respsonse","24361.200000047684","img/question_3_12.jpeg","1","mat_36","2","1","1","24361.200000047684","","","","","","","","","","","","","","","","","","","","",""
"","","","","","html-keyboard-response","77","343655","0.0-2.0-4.0-0.12","5678620289319e0011651232","E1","batch5","spm_show_trial_num","null","<p class=block-text>Trial 37 out of 60</p>","null","","","","","","","","","","","","","","","","","","","","","","","","","",""
"","","","","","image-button-response","78","347163","0.0-2.0-4.0-1.12","5678620289319e0011651232","E1","batch5","spm_respsonse","3506.300000190735","img/question_4_1.jpeg","2","mat_37","3","1","1","3506.300000190735","","","","","","","","","","","","","","","","","","","","",""
"","","","","","html-keyboard-response","79","348234","0.0-2.0-4.0-0.13","5678620289319e0011651232","E1","batch5","spm_show_trial_num","null","<p class=block-text>Trial 38 out of 60</p>","null","","","","","","","","","","","","","","","","","","","","","","","","","",""
"","","","","","image-button-response","80","352497","0.0-2.0-4.0-1.13","5678620289319e0011651232","E1","batch5","spm_respsonse","4262.200000047684","img/question_4_2.jpeg","3","mat_38","4","1","1","4262.200000047684","","","","","","","","","","","","","","","","","","","","",""
"","","","","","html-keyboard-response","81","353562","0.0-2.0-4.0-0.14","5678620289319e0011651232","E1","batch5","spm_show_trial_num","null","<p class=block-text>Trial 39 out of 60</p>","null","","","","","","","","","","","","","","","","","","","","","","","","","",""
"","","","","","image-button-response","82","362583","0.0-2.0-4.0-1.14","5678620289319e0011651232","E1","batch5","spm_respsonse","9019.899999856949","img/question_4_3.jpeg","2","mat_39","3","1","1","9019.899999856949","","","","","","","","","","","","","","","","","","","","",""
"","","","","","html-keyboard-response","83","363659","0.0-2.0-4.0-0.15","5678620289319e0011651232","E1","batch5","spm_show_trial_num","null","<p class=block-text>Trial 40 out of 60</p>","null","","","","","","","","","","","","","","","","","","","","","","","","","",""
"","","","","","image-button-response","84","370817","0.0-2.0-4.0-1.15","5678620289319e0011651232","E1","batch5","spm_respsonse","7157.599999904633","img/question_4_4.jpeg","6","mat_40","7","1","1","7157.599999904633","","","","","","","","","","","","","","","","","","","","",""
"","","","","","html-keyboard-response","85","371894","0.0-2.0-4.0-0.16","5678620289319e0011651232","E1","batch5","spm_show_trial_num","null","<p class=block-text>Trial 41 out of 60</p>","null","","","","","","","","","","","","","","","","","","","","","","","","","",""
"","","","","","image-button-response","86","378407","0.0-2.0-4.0-1.16","5678620289319e0011651232","E1","batch5","spm_respsonse","6511.799999952316","img/question_4_5.jpeg","7","mat_41","8","1","1","6511.799999952316","","","","","","","","","","","","","","","","","","","","",""
"","","","","","html-keyboard-response","87","379461","0.0-2.0-4.0-0.17","5678620289319e0011651232","E1","batch5","spm_show_trial_num","null","<p class=block-text>Trial 42 out of 60</p>","null","","","","","","","","","","","","","","","","","","","","","","","","","",""
"","","","","","image-button-response","88","388669","0.0-2.0-4.0-1.17","5678620289319e0011651232","E1","batch5","spm_respsonse","9207.599999904633","img/question_4_6.jpeg","5","mat_42","6","1","1","9207.599999904633","","","","","","","","","","","","","","","","","","","","",""
"","","","","","html-keyboard-response","89","389727","0.0-2.0-4.0-0.18","5678620289319e0011651232","E1","batch5","spm_show_trial_num","null","<p class=block-text>Trial 43 out of 60</p>","null","","","","","","","","","","","","","","","","","","","","","","","","","",""
"","","","","","image-button-response","90","403745","0.0-2.0-4.0-1.18","5678620289319e0011651232","E1","batch5","spm_respsonse","14017.800000190735","img/question_4_7.jpeg","4","mat_43","5","1","1","14017.800000190735","","","","","","","","","","","","","","","","","","","","",""
"","","","","","html-keyboard-response","91","404809","0.0-2.0-4.0-0.19","5678620289319e0011651232","E1","batch5","spm_show_trial_num","null","<p class=block-text>Trial 44 out of 60</p>","null","","","","","","","","","","","","","","","","","","","","","","","","","",""
"","","","","","image-button-response","92","412648","0.0-2.0-4.0-1.19","5678620289319e0011651232","E1","batch5","spm_respsonse","7838.299999952316","img/question_4_8.jpeg","3","mat_44","4","1","1","7838.299999952316","","","","","","","","","","","","","","","","","","","","",""
"","","","","","html-keyboard-response","93","413715","0.0-2.0-4.0-0.20","5678620289319e0011651232","E1","batch5","spm_show_trial_num","null","<p class=block-text>Trial 45 out of 60</p>","null","","","","","","","","","","","","","","","","","","","","","","","","","",""
"","","","","","image-button-response","94","437712","0.0-2.0-4.0-1.20","5678620289319e0011651232","E1","batch5","spm_respsonse","23996.5","img/question_4_9.jpeg","0","mat_45","1","1","1","23996.5","","","","","","","","","","","","","","","","","","","","",""
"","","","","","html-keyboard-response","95","438769","0.0-2.0-4.0-0.21","5678620289319e0011651232","E1","batch5","spm_show_trial_num","null","<p class=block-text>Trial 46 out of 60</p>","null","","","","","","","","","","","","","","","","","","","","","","","","","",""
"","","","","","image-button-response","96","446609","0.0-2.0-4.0-1.21","5678620289319e0011651232","E1","batch5","spm_respsonse","7839.099999904633","img/question_4_10.jpeg","1","mat_46","2","1","1","7839.099999904633","","","","","","","","","","","","","","","","","","","","",""
"","","","","","html-keyboard-response","97","447671","0.0-2.0-4.0-0.22","5678620289319e0011651232","E1","batch5","spm_show_trial_num","null","<p class=block-text>Trial 47 out of 60</p>","null","","","","","","","","","","","","","","","","","","","","","","","","","",""
"","","","","","image-button-response","98","483292","0.0-2.0-4.0-1.22","5678620289319e0011651232","E1","batch5","spm_respsonse","35620.700000047684","img/question_4_11.jpeg","4","mat_47","5","1","1","35620.700000047684","","","","","","","","","","","","","","","","","","","","",""
"","","","","","html-keyboard-response","99","484359","0.0-2.0-4.0-0.23","5678620289319e0011651232","E1","batch5","spm_show_trial_num","null","<p class=block-text>Trial 48 out of 60</p>","null","","","","","","","","","","","","","","","","","","","","","","","","","",""
"","","","","","image-button-response","100","506546","0.0-2.0-4.0-1.23","5678620289319e0011651232","E1","batch5","spm_respsonse","22186.199999809265","img/question_4_12.jpeg","7","mat_48","6","0","0","22186.199999809265","","","","","","","","","","","","","","","","","","","","",""
"","","","","","html-keyboard-response","101","507611","0.0-2.0-4.0-0.24","5678620289319e0011651232","E1","batch5","spm_show_trial_num","null","<p class=block-text>Trial 49 out of 60</p>","null","","","","","","","","","","","","","","","","","","","","","","","","","",""
"","","","","","image-button-response","102","520259","0.0-2.0-4.0-1.24","5678620289319e0011651232","E1","batch5","spm_respsonse","12646.599999904633","img/question_5_1.jpeg","6","mat_49","7","1","1","12646.599999904633","","","","","","","","","","","","","","","","","","","","",""
"","","","","","html-keyboard-response","103","521327","0.0-2.0-4.0-0.25","5678620289319e0011651232","E1","batch5","spm_show_trial_num","null","<p class=block-text>Trial 50 out of 60</p>","null","","","","","","","","","","","","","","","","","","","","","","","","","",""
"","","","","","image-button-response","104","531290","0.0-2.0-4.0-1.25","5678620289319e0011651232","E1","batch5","spm_respsonse","9961.799999952316","img/question_5_2.jpeg","5","mat_50","6","1","1","9961.799999952316","","","","","","","","","","","","","","","","","","","","",""
"","","","","","html-keyboard-response","105","532358","0.0-2.0-4.0-0.26","5678620289319e0011651232","E1","batch5","spm_show_trial_num","null","<p class=block-text>Trial 51 out of 60</p>","null","","","","","","","","","","","","","","","","","","","","","","","","","",""
"","","","","","image-button-response","106","548468","0.0-2.0-4.0-1.26","5678620289319e0011651232","E1","batch5","spm_respsonse","16108.5","img/question_5_3.jpeg","7","mat_51","8","1","1","16108.5","","","","","","","","","","","","","","","","","","","","",""
"","","","","","html-keyboard-response","107","549529","0.0-2.0-4.0-0.27","5678620289319e0011651232","E1","batch5","spm_show_trial_num","null","<p class=block-text>Trial 52 out of 60</p>","null","","","","","","","","","","","","","","","","","","","","","","","","","",""
"","","","","","image-button-response","108","558265","0.0-2.0-4.0-1.27","5678620289319e0011651232","E1","batch5","spm_respsonse","8735.099999904633","img/question_5_4.jpeg","1","mat_52","2","1","1","8735.099999904633","","","","","","","","","","","","","","","","","","","","",""
"","","","","","html-keyboard-response","109","559326","0.0-2.0-4.0-0.28","5678620289319e0011651232","E1","batch5","spm_show_trial_num","null","<p class=block-text>Trial 53 out of 60</p>","null","","","","","","","","","","","","","","","","","","","","","","","","","",""
"","","","","","image-button-response","110","567966","0.0-2.0-4.0-1.28","5678620289319e0011651232","E1","batch5","spm_respsonse","8638.900000095367","img/question_5_5.jpeg","0","mat_53","1","1","1","8638.900000095367","","","","","","","","","","","","","","","","","","","","",""
"","","","","","html-keyboard-response","111","569045","0.0-2.0-4.0-0.29","5678620289319e0011651232","E1","batch5","spm_show_trial_num","null","<p class=block-text>Trial 54 out of 60</p>","null","","","","","","","","","","","","","","","","","","","","","","","","","",""
"","","","","","image-button-response","112","589780","0.0-2.0-4.0-1.29","5678620289319e0011651232","E1","batch5","spm_respsonse","20734.700000047684","img/question_5_6.jpeg","4","mat_54","5","1","1","20734.700000047684","","","","","","","","","","","","","","","","","","","","",""
"","","","","","html-keyboard-response","113","590839","0.0-2.0-4.0-0.30","5678620289319e0011651232","E1","batch5","spm_show_trial_num","null","<p class=block-text>Trial 55 out of 60</p>","null","","","","","","","","","","","","","","","","","","","","","","","","","",""
"","","","","","image-button-response","114","619968","0.0-2.0-4.0-1.30","5678620289319e0011651232","E1","batch5","spm_respsonse","29128.400000095367","img/question_5_7.jpeg","0","mat_55","1","1","1","29128.400000095367","","","","","","","","","","","","","","","","","","","","",""
"","","","","","html-keyboard-response","115","621020","0.0-2.0-4.0-0.31","5678620289319e0011651232","E1","batch5","spm_show_trial_num","null","<p class=block-text>Trial 56 out of 60</p>","null","","","","","","","","","","","","","","","","","","","","","","","","","",""
"","","","","","image-button-response","116","632422","0.0-2.0-4.0-1.31","5678620289319e0011651232","E1","batch5","spm_respsonse","11401.5","img/question_5_8.jpeg","5","mat_56","6","1","1","11401.5","","","","","","","","","","","","","","","","","","","","",""
"","","","","","html-keyboard-response","117","633488","0.0-2.0-4.0-0.32","5678620289319e0011651232","E1","batch5","spm_show_trial_num","null","<p class=block-text>Trial 57 out of 60</p>","null","","","","","","","","","","","","","","","","","","","","","","","","","",""
"","","","","","image-button-response","118","650167","0.0-2.0-4.0-1.32","5678620289319e0011651232","E1","batch5","spm_respsonse","16677.5","img/question_5_9.jpeg","2","mat_57","3","1","1","16677.5","","","","","","","","","","","","","","","","","","","","",""
"","","","","","html-keyboard-response","119","651234","0.0-2.0-4.0-0.33","5678620289319e0011651232","E1","batch5","spm_show_trial_num","null","<p class=block-text>Trial 58 out of 60</p>","null","","","","","","","","","","","","","","","","","","","","","","","","","",""
"","","","","","image-button-response","120","675682","0.0-2.0-4.0-1.33","5678620289319e0011651232","E1","batch5","spm_respsonse","24446.799999952316","img/question_5_10.jpeg","1","mat_58","2","1","1","24446.799999952316","","","","","","","","","","","","","","","","","","","","",""
"","","","","","html-keyboard-response","121","676750","0.0-2.0-4.0-0.34","5678620289319e0011651232","E1","batch5","spm_show_trial_num","null","<p class=block-text>Trial 59 out of 60</p>","null","","","","","","","","","","","","","","","","","","","","","","","","","",""
"","","","","","image-button-response","122","716390","0.0-2.0-4.0-1.34","5678620289319e0011651232","E1","batch5","spm_respsonse","39638.90000009537","img/question_5_11.jpeg","4","mat_59","4","0","0","39638.90000009537","","","","","","","","","","","","","","","","","","","","",""
"","","","","","html-keyboard-response","123","717462","0.0-2.0-4.0-0.35","5678620289319e0011651232","E1","batch5","spm_show_trial_num","null","<p class=block-text>Trial 60 out of 60</p>","null","","","","","","","","","","","","","","","","","","","","","","","","","",""
"","","","","","image-button-response","124","758670","0.0-2.0-4.0-1.35","5678620289319e0011651232","E1","batch5","spm_respsonse","41207.200000047684","img/question_5_12.jpeg","2","mat_60","5","0","0","41207.200000047684","","","","","","","","","","","","","","","","","","","","",""
"","","","","","html-button-response","125","762132","0.0-2.0-5.0","5678620289319e0011651232","E1","batch5","spm_goodbye","3200.2999999523163","<p class= block-text>This concludes the Standard Progressive Matrix game. Thank you for your responses!<br> When you are ready, click the button continue</p>","0","","","","","","","","","","","","","","","","","","","","","","","","","",""
"true","","","","","fullscreen","126","767430","0.0-3.0-0.0","5678620289319e0011651232","E1","batch5","","","","","","","","","","","","","","","","","","","","","","","","","","","","","",""
"","","","","","instructions","127","793043","0.0-3.0-1.0-0.0","5678620289319e0011651232","E1","batch5","","25612.099999904633","","","","","","","","[{""page_index"":0,""viewing_time"":16676.699999809265},{""page_index"":1,""viewing_time"":8935.100000143051}]","","","","","","","","","","","","","","","","","","","",""
"","","","","","html-button-response","128","794139","0.0-3.0-1.0-1.0-0.0","5678620289319e0011651232","E1","batch5","pattern_enter_quiz","1095.7999999523163","<p class=block-text> Let's answer a few questions <br>","0","","","","","","","","","","","","","","","","","","","","","","","","","",""
"","","","","","html-button-response","129","799106","0.0-3.0-1.0-1.0-1.0","5678620289319e0011651232","E1","batch5","pattern_quiz","4966","<p class = block-text>True or False: You will have as much time as you want to make each choice. <br></p>","1","","","true","","","","","","","","","","","","","","","","","","","","","","",""
"","","","","","html-button-response","130","801443","0.0-3.0-1.0-1.0-2.0","5678620289319e0011651232","E1","batch5","pattern_quiz_feedback","2336.4000000953674","<p class = block-text>Correct! You should make your choice <strong> as fast as you can</strong>.</p>","0","","","","","","","","","","","","","","","","","","","","","","","","","",""
"","","","","","html-button-response","131","806321","0.0-3.0-1.0-1.0-3.0","5678620289319e0011651232","E1","batch5","pattern_quiz","4877.199999809265","<p class = block-text>True or False: You will look for 4 pieces in black or white color connected in a row either horizontally, vertically or diagonally. <br></p>","0","","","true","","","","","","","","","","","","","","","","","","","","","","",""
"","","","","","html-button-response","132","807352","0.0-3.0-1.0-1.0-4.0","5678620289319e0011651232","E1","batch5","pattern_quiz_feedback","1030.2999999523163","<p class = block-text>Correct! </p>","0","","","","","","","","","","","","","","","","","","","","","","","","","",""
"","","","","","html-button-response","133","809099","0.0-3.0-2.0","5678620289319e0011651232","E1","batch5","pattern_enter_practice","1746","<p class=block-text> Now that you've understood the game, let's do a few practice trials before we start!<br> <br>","0","","","","","","","","","","","","","","","","","","","","","","","","","",""
"","","","","","image-keyboard-response","134","811373","0.0-3.0-3.0-0.0","5678620289319e0011651232","E1","batch5","pattern_practice","2272.5","stim/prac_no_16_1.png","j","","j","true","","","","","","","","","","","","","","","","","","","","","","",""
"","","","","","html-keyboard-response","135","812386","0.0-3.0-3.0-1.0","5678620289319e0011651232","E1","batch5","pattern_feedback","null","<p style=""font-size:30px;color:green;"">Correct!</p>","null","","","","","","","","","","","","","","","","","","","","","","","","","",""
"","","","","","image-keyboard-response","136","813953","0.0-3.0-3.0-0.1","5678620289319e0011651232","E1","batch5","pattern_practice","1566.5999999046326","stim/prac_yes_18_hor_w1.png","f","","f","true","","","","","","","","","","","","","","","","","","","","","","",""
"","","","","","html-keyboard-response","137","814959","0.0-3.0-3.0-1.1","5678620289319e0011651232","E1","batch5","pattern_feedback","null","<p style=""font-size:30px;color:green;"">Correct!</p>","null","","","","","","","","","","","","","","","","","","","","","","","","","",""
"","","","","","image-keyboard-response","138","816725","0.0-3.0-3.0-0.2","5678620289319e0011651232","E1","batch5","pattern_practice","1765.2999999523163","stim/prac_yes_20_dia_b1.png","f","","f","true","","","","","","","","","","","","","","","","","","","","","","",""
"","","","","","html-keyboard-response","139","817742","0.0-3.0-3.0-1.2","5678620289319e0011651232","E1","batch5","pattern_feedback","null","<p style=""font-size:30px;color:green;"">Correct!</p>","null","","","","","","","","","","","","","","","","","","","","","","","","","",""
"","","","","","image-keyboard-response","140","818944","0.0-3.0-3.0-0.3","5678620289319e0011651232","E1","batch5","pattern_practice","1201.5","stim/prac_yes_16_ver_w1.png","f","","f","true","","","","","","","","","","","","","","","","","","","","","","",""
"","","","","","html-keyboard-response","141","819961","0.0-3.0-3.0-1.3","5678620289319e0011651232","E1","batch5","pattern_feedback","null","<p style=""font-size:30px;color:green;"">Correct!</p>","null","","","","","","","","","","","","","","","","","","","","","","","","","",""
"","","","","","image-keyboard-response","142","821181","0.0-3.0-3.0-0.4","5678620289319e0011651232","E1","batch5","pattern_practice","1219.1000001430511","stim/prac_no_18_1.png","j","","j","true","","","","","","","","","","","","","","","","","","","","","","",""
"","","","","","html-keyboard-response","143","822186","0.0-3.0-3.0-1.4","5678620289319e0011651232","E1","batch5","pattern_feedback","null","<p style=""font-size:30px;color:green;"">Correct!</p>","null","","","","","","","","","","","","","","","","","","","","","","","","","",""
"","","","","","html-button-response","144","825728","0.0-3.0-4.0","5678620289319e0011651232","E1","batch5","pattern_enter_official_trials","3542","<p class=block-text> Good job! You are done with practice trials!<br>
        You responded correctly on 100% of the trials.<br>
        Press the button below to start official trials. Now you won't see any feedback about your response</p>","0","","","","","","","","","","","","","","","","","","","","","","","","","",""
"","","","","","html-keyboard-response","145","826530","0.0-3.0-5.0-0.0","5678620289319e0011651232","E1","batch5","pattern_show_trial_num","null","<p class=block-text>Trial 1 out of 78</p>","null","","","","","","","","","","","","","","","","","","","","","","","","","",""
"","","","","","image-keyboard-response","146","827697","0.0-3.0-5.0-1.0","5678620289319e0011651232","E1","batch5","pattern_response","1166.6000001430511","stim/yes_23_ver_b1.png","f","pattern_48","f","true","","","","1166.6000001430511","true","1","","","","","","","","","","","","","","","","",""
"","","","","","html-keyboard-response","147","829003","0.0-3.0-5.0-0.1","5678620289319e0011651232","E1","batch5","pattern_show_trial_num","null","<p class=block-text>Trial 2 out of 78</p>","null","","","","","","","","","","","","","","","","","","","","","","","","","",""
"","","","","","image-keyboard-response","148","830825","0.0-3.0-5.0-1.1","5678620289319e0011651232","E1","batch5","pattern_response","1822.2000000476837","stim/no_51_1.png","f","pattern_31","j","false","","","","1822.2000000476837","false","1","","","","","","","","","","","","","","","","",""
"","","","","","html-keyboard-response","149","832140","0.0-3.0-5.0-0.2","5678620289319e0011651232","E1","batch5","pattern_show_trial_num","null","<p class=block-text>Trial 3 out of 78</p>","null","","","","","","","","","","","","","","","","","","","","","","","","","",""
"","","","","","image-keyboard-response","150","834504","0.0-3.0-5.0-1.2","5678620289319e0011651232","E1","batch5","pattern_response","2362.899999856949","stim/no_36_1_b.png","j","pattern_17","j","true","","","","2362.899999856949","true","2","","","","","","","","","","","","","","","","",""
"","","","","","html-keyboard-response","151","835821","0.0-3.0-5.0-0.3","5678620289319e0011651232","E1","batch5","pattern_show_trial_num","null","<p class=block-text>Trial 4 out of 78</p>","null","","","","","","","","","","","","","","","","","","","","","","","","","",""
"","","","","","image-keyboard-response","152","836925","0.0-3.0-5.0-1.3","5678620289319e0011651232","E1","batch5","pattern_response","1102.7999999523163","stim/no_25_1_b.png","f","pattern_09","j","false","","","","1102.7999999523163","false","2","","","","","","","","","","","","","","","","",""
"","","","","","html-keyboard-response","153","838241","0.0-3.0-5.0-0.4","5678620289319e0011651232","E1","batch5","pattern_show_trial_num","null","<p class=block-text>Trial 5 out of 78</p>","null","","","","","","","","","","","","","","","","","","","","","","","","","",""
"","","","","","image-keyboard-response","154","840485","0.0-3.0-5.0-1.4","5678620289319e0011651232","E1","batch5","pattern_response","2243.0999999046326","stim/yes_53_ver_b1_b.png","f","pattern_74","f","true","","","","2243.0999999046326","true","3","","","","","","","","","","","","","","","","",""
"","","","","","html-keyboard-response","155","841797","0.0-3.0-5.0-0.5","5678620289319e0011651232","E1","batch5","pattern_show_trial_num","null","<p class=block-text>Trial 6 out of 78</p>","null","","","","","","","","","","","","","","","","","","","","","","","","","",""
"","","","","","image-keyboard-response","156","842712","0.0-3.0-5.0-1.5","5678620289319e0011651232","E1","batch5","pattern_response","914.2999999523163","stim/yes_15_dia_b1u_b.png","f","pattern_44","f","true","","","","914.2999999523163","true","4","","","","","","","","","","","","","","","","",""
"","","","","","html-keyboard-response","157","844023","0.0-3.0-5.0-0.6","5678620289319e0011651232","E1","batch5","pattern_show_trial_num","null","<p class=block-text>Trial 7 out of 78</p>","null","","","","","","","","","","","","","","","","","","","","","","","","","",""
"","","","","","image-keyboard-response","158","845408","0.0-3.0-5.0-1.6","5678620289319e0011651232","E1","batch5","pattern_response","1384.5","stim/yes_42_dia_w1_w.png","f","pattern_64","f","true","","","","1384.5","true","5","","","","","","","","","","","","","","","","",""
"","","","","","html-keyboard-response","159","846718","0.0-3.0-5.0-0.7","5678620289319e0011651232","E1","batch5","pattern_show_trial_num","null","<p class=block-text>Trial 8 out of 78</p>","null","","","","","","","","","","","","","","","","","","","","","","","","","",""
"","","","","","image-keyboard-response","160","850124","0.0-3.0-5.0-1.7","5678620289319e0011651232","E1","batch5","pattern_response","3405.4000000953674","stim/no_45_1_w.png","j","pattern_25","j","true","","","","3405.4000000953674","true","6","","","","","","","","","","","","","","","","",""
"","","","","","html-keyboard-response","161","851443","0.0-3.0-5.0-0.8","5678620289319e0011651232","E1","batch5","pattern_show_trial_num","null","<p class=block-text>Trial 9 out of 78</p>","null","","","","","","","","","","","","","","","","","","","","","","","","","",""
"","","","","","image-keyboard-response","162","854964","0.0-3.0-5.0-1.8","5678620289319e0011651232","E1","batch5","pattern_response","3520.5999999046326","stim/no_39_1_w.png","j","pattern_21","j","true","","","","3520.5999999046326","true","7","","","","","","","","","","","","","","","","",""
"","","","","","html-keyboard-response","163","856282","0.0-3.0-5.0-0.9","5678620289319e0011651232","E1","batch5","pattern_show_trial_num","null","<p class=block-text>Trial 10 out of 78</p>","null","","","","","","","","","","","","","","","","","","","","","","","","","",""
"","","","","","image-keyboard-response","164","857543","0.0-3.0-5.0-1.9","5678620289319e0011651232","E1","batch5","pattern_response","1260.5","stim/no_22_1_b.png","j","pattern_07","j","true","","","","1260.5","true","8","","","","","","","","","","","","","","","","",""
"","","","","","html-keyboard-response","165","858867","0.0-3.0-5.0-0.10","5678620289319e0011651232","E1","batch5","pattern_show_trial_num","null","<p class=block-text>Trial 11 out of 78</p>","null","","","","","","","","","","","","","","","","","","","","","","","","","",""
"","","","","","image-keyboard-response","166","859823","0.0-3.0-5.0-1.10","5678620289319e0011651232","E1","batch5","pattern_response","954.6999998092651","stim/yes_37_hor_w1_w.png","f","pattern_60","f","true","","","","954.6999998092651","true","9","","","","","","","","","","","","","","","","",""
"","","","","","html-keyboard-response","167","861135","0.0-3.0-5.0-0.11","5678620289319e0011651232","E1","batch5","pattern_show_trial_num","null","<p class=block-text>Trial 12 out of 78</p>","null","","","","","","","","","","","","","","","","","","","","","","","","","",""
"","","","","","image-keyboard-response","168","862795","0.0-3.0-5.0-1.11","5678620289319e0011651232","E1","batch5","pattern_response","1659.5999999046326","stim/no_30_1_b.png","j","pattern_13","j","true","","","","1659.5999999046326","true","10","","","","","","","","","","","","","","","","",""
"","","","","","html-keyboard-response","169","864103","0.0-3.0-5.0-0.12","5678620289319e0011651232","E1","batch5","pattern_show_trial_num","null","<p class=block-text>Trial 13 out of 78</p>","null","","","","","","","","","","","","","","","","","","","","","","","","","",""
"","","","","","image-keyboard-response","170","864967","0.0-3.0-5.0-1.12","5678620289319e0011651232","E1","batch5","pattern_response","863.4000000953674","stim/yes_39_hor_w1_w.png","f","pattern_62","f","true","","","","863.4000000953674","true","11","","","","","","","","","","","","","","","","",""
"","","","","","html-keyboard-response","171","866274","0.0-3.0-5.0-0.13","5678620289319e0011651232","E1","batch5","pattern_show_trial_num","null","<p class=block-text>Trial 14 out of 78</p>","null","","","","","","","","","","","","","","","","","","","","","","","","","",""
"","","","","","image-keyboard-response","172","867203","0.0-3.0-5.0-1.13","5678620289319e0011651232","E1","batch5","pattern_response","929","stim/yes_17_ver_b1_b.png","f","pattern_46","f","true","","","","929","true","12","","","","","","","","","","","","","","","","",""
"","","","","","html-keyboard-response","173","868525","0.0-3.0-5.0-0.14","5678620289319e0011651232","E1","batch5","pattern_show_trial_num","null","<p class=block-text>Trial 15 out of 78</p>","null","","","","","","","","","","","","","","","","","","","","","","","","","",""
"","","","","","image-keyboard-response","174","870367","0.0-3.0-5.0-1.14","5678620289319e0011651232","E1","batch5","pattern_response","1841.7000000476837","stim/yes_70_ver_b1.png","f","pattern_80","f","true","","","","1841.7000000476837","true","13","","","","","","","","","","","","","","","","",""
"","","","","","html-keyboard-response","175","871674","0.0-3.0-5.0-0.15","5678620289319e0011651232","E1","batch5","pattern_show_trial_num","null","<p class=block-text>Trial 16 out of 78</p>","null","","","","","","","","","","","","","","","","","","","","","","","","","",""
"","","","","","image-keyboard-response","176","875939","0.0-3.0-5.0-1.15","5678620289319e0011651232","E1","batch5","pattern_response","4264","stim/no_37_2_w.png","j","pattern_19","j","true","","","","4264","true","14","","","","","","","","","","","","","","","","",""
"","","","","","html-keyboard-response","177","877254","0.0-3.0-5.0-0.16","5678620289319e0011651232","E1","batch5","pattern_show_trial_num","null","<p class=block-text>Trial 17 out of 78</p>","null","","","","","","","","","","","","","","","","","","","","","","","","","",""
"","","","","","image-keyboard-response","178","878188","0.0-3.0-5.0-1.16","5678620289319e0011651232","E1","batch5","pattern_response","933.0999999046326","stim/yes_36_ver_w1_w.png","f","pattern_58","f","true","","","","933.0999999046326","true","15","","","","","","","","","","","","","","","","",""
"","","","","","html-keyboard-response","179","879510","0.0-3.0-5.0-0.17","5678620289319e0011651232","E1","batch5","pattern_show_trial_num","null","<p class=block-text>Trial 18 out of 78</p>","null","","","","","","","","","","","","","","","","","","","","","","","","","",""
"","","","","","image-keyboard-response","180","881062","0.0-3.0-5.0-1.17","5678620289319e0011651232","E1","batch5","pattern_response","1551.5999999046326","stim/yes_30_ver_b1_b.png","f","pattern_54","f","true","","","","1551.5999999046326","true","16","","","","","","","","","","","","","","","","",""
"","","","","","html-keyboard-response","181","882371","0.0-3.0-5.0-0.18","5678620289319e0011651232","E1","batch5","pattern_show_trial_num","null","<p class=block-text>Trial 19 out of 78</p>","null","","","","","","","","","","","","","","","","","","","","","","","","","",""
"","","","","","image-keyboard-response","182","883478","0.0-3.0-5.0-1.18","5678620289319e0011651232","E1","batch5","pattern_response","1107.0999999046326","stim/yes_33_dia_w1_w.png","f","pattern_56","f","true","","","","1107.0999999046326","true","17","","","","","","","","","","","","","","","","",""
"","","","","","html-keyboard-response","183","884805","0.0-3.0-5.0-0.19","5678620289319e0011651232","E1","batch5","pattern_show_trial_num","null","<p class=block-text>Trial 20 out of 78</p>","null","","","","","","","","","","","","","","","","","","","","","","","","","",""
"","","","","","image-keyboard-response","184","886678","0.0-3.0-5.0-1.19","5678620289319e0011651232","E1","batch5","pattern_response","1872.2999999523163","stim/no_53_1_b.png","f","pattern_33","j","false","","","","1872.2999999523163","false","17","","","","","","","","","","","","","","","","",""
"","","","","","html-keyboard-response","185","887997","0.0-3.0-5.0-0.20","5678620289319e0011651232","E1","batch5","pattern_show_trial_num","null","<p class=block-text>Trial 21 out of 78</p>","null","","","","","","","","","","","","","","","","","","","","","","","","","",""
"","","","","","image-keyboard-response","186","889310","0.0-3.0-5.0-1.20","5678620289319e0011651232","E1","batch5","pattern_response","1312.3999998569489","stim/no_18_1_b.png","j","pattern_05","j","true","","","","1312.3999998569489","true","18","","","","","","","","","","","","","","","","",""
"","","","","","html-keyboard-response","187","890633","0.0-3.0-5.0-0.21","5678620289319e0011651232","E1","batch5","pattern_show_trial_num","null","<p class=block-text>Trial 22 out of 78</p>","null","","","","","","","","","","","","","","","","","","","","","","","","","",""
"","","","","","image-keyboard-response","188","892809","0.0-3.0-5.0-1.21","5678620289319e0011651232","E1","batch5","pattern_response","2175.199999809265","stim/yes_49_hor_w1_b.png","f","pattern_70","f","true","","","","2175.199999809265","true","19","","","","","","","","","","","","","","","","",""
"","","","","","html-keyboard-response","189","894115","0.0-3.0-5.0-0.22","5678620289319e0011651232","E1","batch5","pattern_show_trial_num","null","<p class=block-text>Trial 23 out of 78</p>","null","","","","","","","","","","","","","","","","","","","","","","","","","",""
"","","","","","image-keyboard-response","190","895649","0.0-3.0-5.0-1.22","5678620289319e0011651232","E1","batch5","pattern_response","1533.0999999046326","stim/no_12_1.png","j","pattern_01","j","true","","","","1533.0999999046326","true","20","","","","","","","","","","","","","","","","",""
"","","","","","html-keyboard-response","191","896962","0.0-3.0-5.0-0.23","5678620289319e0011651232","E1","batch5","pattern_show_trial_num","null","<p class=block-text>Trial 24 out of 78</p>","null","","","","","","","","","","","","","","","","","","","","","","","","","",""
"","","","","","image-keyboard-response","192","899530","0.0-3.0-5.0-1.23","5678620289319e0011651232","E1","batch5","pattern_response","2567.399999856949","stim/yes_63_dia_b1.png","f","pattern_78","f","true","","","","2567.399999856949","true","21","","","","","","","","","","","","","","","","",""
"","","","","","html-keyboard-response","193","900852","0.0-3.0-5.0-0.24","5678620289319e0011651232","E1","batch5","pattern_show_trial_num","null","<p class=block-text>Trial 25 out of 78</p>","null","","","","","","","","","","","","","","","","","","","","","","","","","",""
"","","","","","image-keyboard-response","194","904360","0.0-3.0-5.0-1.24","5678620289319e0011651232","E1","batch5","pattern_response","3506.800000190735","stim/yes_58_dia_w1_w.png","j","pattern_76","f","false","","","","3506.800000190735","false","21","","","","","","","","","","","","","","","","",""
"","","","","","html-keyboard-response","195","905667","0.0-3.0-5.0-0.25","5678620289319e0011651232","E1","batch5","pattern_show_trial_num","null","<p class=block-text>Trial 26 out of 78</p>","null","","","","","","","","","","","","","","","","","","","","","","","","","",""
"","","","","","image-keyboard-response","196","908804","0.0-3.0-5.0-1.25","5678620289319e0011651232","E1","batch5","pattern_response","3137","stim/no_43_2_b.png","j","pattern_23","j","true","","","","3137","true","22","","","","","","","","","","","","","","","","",""
"","","","","","html-keyboard-response","197","910113","0.0-3.0-5.0-0.26","5678620289319e0011651232","E1","batch5","pattern_show_trial_num","null","<p class=block-text>Trial 27 out of 78</p>","null","","","","","","","","","","","","","","","","","","","","","","","","","",""
"","","","","","image-keyboard-response","198","911905","0.0-3.0-5.0-1.26","5678620289319e0011651232","E1","batch5","pattern_response","1790.9000000953674","stim/yes_29_hor_b1_b.png","f","pattern_52","f","true","","","","1790.9000000953674","true","23","","","","","","","","","","","","","","","","",""
"","","","","","html-keyboard-response","199","913227","0.0-3.0-5.0-0.27","5678620289319e0011651232","E1","batch5","pattern_show_trial_num","null","<p class=block-text>Trial 28 out of 78</p>","null","","","","","","","","","","","","","","","","","","","","","","","","","",""
"","","","","","image-keyboard-response","200","916173","0.0-3.0-5.0-1.27","5678620289319e0011651232","E1","batch5","pattern_response","2945.0999999046326","stim/no_33_1_b.png","j","pattern_15","j","true","","","","2945.0999999046326","true","24","","","","","","","","","","","","","","","","",""
"","","","","","html-keyboard-response","201","917480","0.0-3.0-5.0-0.28","5678620289319e0011651232","E1","batch5","pattern_show_trial_num","null","<p class=block-text>Trial 29 out of 78</p>","null","","","","","","","","","","","","","","","","","","","","","","","","","",""
"","","","","","image-keyboard-response","202","918545","0.0-3.0-5.0-1.28","5678620289319e0011651232","E1","batch5","pattern_response","1063.7000000476837","stim/yes_26_dia_w2_w.png","f","pattern_50","f","true","","","","1063.7000000476837","true","25","","","","","","","","","","","","","","","","",""
"","","","","","html-keyboard-response","203","919865","0.0-3.0-5.0-0.29","5678620289319e0011651232","E1","batch5","pattern_show_trial_num","null","<p class=block-text>Trial 30 out of 78</p>","null","","","","","","","","","","","","","","","","","","","","","","","","","",""
"","","","","","image-keyboard-response","204","924509","0.0-3.0-5.0-1.29","5678620289319e0011651232","E1","batch5","pattern_response","4643.399999856949","stim/no_67_1.png","j","pattern_39","j","true","","","","4643.399999856949","true","26","","","","","","","","","","","","","","","","",""
"","","","","","html-keyboard-response","205","925809","0.0-3.0-5.0-0.30","5678620289319e0011651232","E1","batch5","pattern_show_trial_num","null","<p class=block-text>Trial 31 out of 78</p>","null","","","","","","","","","","","","","","","","","","","","","","","","","",""
"","","","","","image-keyboard-response","206","927657","0.0-3.0-5.0-1.30","5678620289319e0011651232","E1","batch5","pattern_response","1846.5999999046326","stim/yes_51_dia_b1.png","f","pattern_72","f","true","","","","1846.5999999046326","true","27","","","","","","","","","","","","","","","","",""
"","","","","","html-keyboard-response","207","928964","0.0-3.0-5.0-0.31","5678620289319e0011651232","E1","batch5","pattern_show_trial_num","null","<p class=block-text>Trial 32 out of 78</p>","null","","","","","","","","","","","","","","","","","","","","","","","","","",""
"","","","","","image-keyboard-response","208","932183","0.0-3.0-5.0-1.31","5678620289319e0011651232","E1","batch5","pattern_response","3218.2000000476837","stim/no_47_1_b.png","j","pattern_27","j","true","","","","3218.2000000476837","true","28","","","","","","","","","","","","","","","","",""
"","","","","","html-keyboard-response","209","933486","0.0-3.0-5.0-0.32","5678620289319e0011651232","E1","batch5","pattern_show_trial_num","null","<p class=block-text>Trial 33 out of 78</p>","null","","","","","","","","","","","","","","","","","","","","","","","","","",""
"","","","","","image-keyboard-response","210","935000","0.0-3.0-5.0-1.32","5678620289319e0011651232","E1","batch5","pattern_response","1512.9000000953674","stim/no_15_1_w.png","j","pattern_03","j","true","","","","1512.9000000953674","true","29","","","","","","","","","","","","","","","","",""
"","","","","","html-keyboard-response","211","936308","0.0-3.0-5.0-0.33","5678620289319e0011651232","E1","batch5","pattern_show_trial_num","null","<p class=block-text>Trial 34 out of 78</p>","null","","","","","","","","","","","","","","","","","","","","","","","","","",""
"","","","","","image-keyboard-response","212","937032","0.0-3.0-5.0-1.33","5678620289319e0011651232","E1","batch5","pattern_response","722.9000000953674","stim/yes_12_hor_w1_w.png","f","pattern_42","f","true","","","","722.9000000953674","true","30","","","","","","","","","","","","","","","","",""
"","","","","","html-keyboard-response","213","938342","0.0-3.0-5.0-0.34","5678620289319e0011651232","E1","batch5","pattern_show_trial_num","null","<p class=block-text>Trial 35 out of 78</p>","null","","","","","","","","","","","","","","","","","","","","","","","","","",""
"","","","","","image-keyboard-response","214","941779","0.0-3.0-5.0-1.34","5678620289319e0011651232","E1","batch5","pattern_response","3436.2000000476837","stim/no_49_2_b.png","j","pattern_29","j","true","","","","3436.2000000476837","true","31","","","","","","","","","","","","","","","","",""
"","","","","","html-keyboard-response","215","943102","0.0-3.0-5.0-0.35","5678620289319e0011651232","E1","batch5","pattern_show_trial_num","null","<p class=block-text>Trial 36 out of 78</p>","null","","","","","","","","","","","","","","","","","","","","","","","","","",""
"","","","","","image-keyboard-response","216","945508","0.0-3.0-5.0-1.35","5678620289319e0011651232","E1","batch5","pattern_response","2405.2000000476837","stim/no_28_2.png","j","pattern_11","j","true","","","","2405.2000000476837","true","32","","","","","","","","","","","","","","","","",""
"","","","","","html-keyboard-response","217","946815","0.0-3.0-5.0-0.36","5678620289319e0011651232","E1","batch5","pattern_show_trial_num","null","<p class=block-text>Trial 37 out of 78</p>","null","","","","","","","","","","","","","","","","","","","","","","","","","",""
"","","","","","image-keyboard-response","218","950504","0.0-3.0-5.0-1.36","5678620289319e0011651232","E1","batch5","pattern_response","3688.800000190735","stim/yes_44_ver_w1_w.png","j","pattern_66","f","false","","","","3688.800000190735","false","32","","","","","","","","","","","","","","","","",""
"","","","","","html-keyboard-response","219","951815","0.0-3.0-5.0-0.37","5678620289319e0011651232","E1","batch5","pattern_show_trial_num","null","<p class=block-text>Trial 38 out of 78</p>","null","","","","","","","","","","","","","","","","","","","","","","","","","",""
"","","","","","image-keyboard-response","220","957783","0.0-3.0-5.0-1.37","5678620289319e0011651232","E1","batch5","pattern_response","5967.200000047684","stim/no_58_1_w.png","j","pattern_35","j","true","","","","5967.200000047684","true","33","","","","","","","","","","","","","","","","",""
"","","","","","html-keyboard-response","221","959101","0.0-3.0-5.0-0.38","5678620289319e0011651232","E1","batch5","pattern_show_trial_num","null","<p class=block-text>Trial 39 out of 78</p>","null","","","","","","","","","","","","","","","","","","","","","","","","","",""
"","","","","","image-keyboard-response","222","960219","0.0-3.0-5.0-1.38","5678620289319e0011651232","E1","batch5","pattern_response","1117","stim/yes_46_ver_b1_b.png","f","pattern_68","f","true","","","","1117","true","34","","","","","","","","","","","","","","","","",""
"","","","","","image-keyboard-response","223","963255","0.0-3.0-6.0","5678620289319e0011651232","E1","batch5","attention_check","2531.4000000953674","stim/empty_board.png","j","","j","true","","","","","","","500","[""f"",""j""]","","","","","","","","","","","","","","",""
"","","","","","html-keyboard-response","224","964067","0.0-3.0-7.0-0.0","5678620289319e0011651232","E1","batch5","pattern_show_trial_num","null","<p class=block-text>Trial 40 out of 78</p>","null","","","","","","","","","","","","","","","","","","","","","","","","","",""
"","","","","","image-keyboard-response","225","967239","0.0-3.0-7.0-1.0","5678620289319e0011651232","E1","batch5","pattern_response","3171.800000190735","stim/no_23_1.png","j","pattern_08","j","true","","","","3171.800000190735","true","35","","","","","","","","","","","","","","","","",""
"","","","","","html-keyboard-response","226","968546","0.0-3.0-7.0-0.1","5678620289319e0011651232","E1","batch5","pattern_show_trial_num","null","<p class=block-text>Trial 41 out of 78</p>","null","","","","","","","","","","","","","","","","","","","","","","","","","",""
"","","","","","image-keyboard-response","227","970535","0.0-3.0-7.0-1.1","5678620289319e0011651232","E1","batch5","pattern_response","1988.2999999523163","stim/yes_45_hor_b2_b.png","f","pattern_67","f","true","","","","1988.2999999523163","true","36","","","","","","","","","","","","","","","","",""
"","","","","","html-keyboard-response","228","971836","0.0-3.0-7.0-0.2","5678620289319e0011651232","E1","batch5","pattern_show_trial_num","null","<p class=block-text>Trial 42 out of 78</p>","null","","","","","","","","","","","","","","","","","","","","","","","","","",""
"","","","","","image-keyboard-response","229","973975","0.0-3.0-7.0-1.2","5678620289319e0011651232","E1","batch5","pattern_response","2137.7999999523163","stim/yes_50_dia_w1.png","f","pattern_71","f","true","","","","2137.7999999523163","true","37","","","","","","","","","","","","","","","","",""
"","","","","","html-keyboard-response","230","975287","0.0-3.0-7.0-0.3","5678620289319e0011651232","E1","batch5","pattern_show_trial_num","null","<p class=block-text>Trial 43 out of 78</p>","null","","","","","","","","","","","","","","","","","","","","","","","","","",""
"","","","","","image-keyboard-response","231","977238","0.0-3.0-7.0-1.3","5678620289319e0011651232","E1","batch5","pattern_response","1950","stim/yes_31_hor_b1.png","f","pattern_55","f","true","","","","1950","true","38","","","","","","","","","","","","","","","","",""
"","","","","","html-keyboard-response","232","978554","0.0-3.0-7.0-0.4","5678620289319e0011651232","E1","batch5","pattern_show_trial_num","null","<p class=block-text>Trial 44 out of 78</p>","null","","","","","","","","","","","","","","","","","","","","","","","","","",""
"","","","","","image-keyboard-response","233","981979","0.0-3.0-7.0-1.4","5678620289319e0011651232","E1","batch5","pattern_response","3424.7000000476837","stim/yes_60_ver_b1_b.png","f","pattern_77","f","true","","","","3424.7000000476837","true","39","","","","","","","","","","","","","","","","",""
"","","","","","html-keyboard-response","234","983289","0.0-3.0-7.0-0.5","5678620289319e0011651232","E1","batch5","pattern_show_trial_num","null","<p class=block-text>Trial 45 out of 78</p>","null","","","","","","","","","","","","","","","","","","","","","","","","","",""
"","","","","","image-keyboard-response","235","984478","0.0-3.0-7.0-1.5","5678620289319e0011651232","E1","batch5","pattern_response","1188.3000001907349","stim/yes_29_ver_w1.png","f","pattern_53","f","true","","","","1188.3000001907349","true","40","","","","","","","","","","","","","","","","",""
"","","","","","html-keyboard-response","236","985786","0.0-3.0-7.0-0.6","5678620289319e0011651232","E1","batch5","pattern_show_trial_num","null","<p class=block-text>Trial 46 out of 78</p>","null","","","","","","","","","","","","","","","","","","","","","","","","","",""
"","","","","","image-keyboard-response","237","988274","0.0-3.0-7.0-1.6","5678620289319e0011651232","E1","batch5","pattern_response","2487.5","stim/no_34_1_b.png","j","pattern_16","j","true","","","","2487.5","true","41","","","","","","","","","","","","","","","","",""
"","","","","","html-keyboard-response","238","989593","0.0-3.0-7.0-0.7","5678620289319e0011651232","E1","batch5","pattern_show_trial_num","null","<p class=block-text>Trial 47 out of 78</p>","null","","","","","","","","","","","","","","","","","","","","","","","","","",""
"","","","","","image-keyboard-response","239","992614","0.0-3.0-7.0-1.7","5678620289319e0011651232","E1","batch5","pattern_response","3020.5","stim/yes_35_dia_b1.png","f","pattern_57","f","true","","","","3020.5","true","42","","","","","","","","","","","","","","","","",""
"","","","","","html-keyboard-response","240","993921","0.0-3.0-7.0-0.8","5678620289319e0011651232","E1","batch5","pattern_show_trial_num","null","<p class=block-text>Trial 48 out of 78</p>","null","","","","","","","","","","","","","","","","","","","","","","","","","",""
"","","","","","image-keyboard-response","241","997398","0.0-3.0-7.0-1.8","5678620289319e0011651232","E1","batch5","pattern_response","3476.600000143051","stim/no_44_1.png","j","pattern_24","j","true","","","","3476.600000143051","true","43","","","","","","","","","","","","","","","","",""
"","","","","","html-keyboard-response","242","998706","0.0-3.0-7.0-0.9","5678620289319e0011651232","E1","batch5","pattern_show_trial_num","null","<p class=block-text>Trial 49 out of 78</p>","null","","","","","","","","","","","","","","","","","","","","","","","","","",""
"","","","","","image-keyboard-response","243","1001901","0.0-3.0-7.0-1.9","5678620289319e0011651232","E1","batch5","pattern_response","3193.9000000953674","stim/yes_55_hor_w1_w.png","j","pattern_75","f","false","","","","3193.9000000953674","false","43","","","","","","","","","","","","","","","","",""
"","","","","","html-keyboard-response","244","1003216","0.0-3.0-7.0-0.10","5678620289319e0011651232","E1","batch5","pattern_show_trial_num","null","<p class=block-text>Trial 50 out of 78</p>","null","","","","","","","","","","","","","","","","","","","","","","","","","",""
"","","","","","image-keyboard-response","245","1005838","0.0-3.0-7.0-1.10","5678620289319e0011651232","E1","batch5","pattern_response","2621.2999999523163","stim/yes_40_dia_b1_b.png","j","pattern_63","f","false","","","","2621.2999999523163","false","43","","","","","","","","","","","","","","","","",""
"","","","","","html-keyboard-response","246","1007163","0.0-3.0-7.0-0.11","5678620289319e0011651232","E1","batch5","pattern_show_trial_num","null","<p class=block-text>Trial 51 out of 78</p>","null","","","","","","","","","","","","","","","","","","","","","","","","","",""
"","","","","","image-keyboard-response","247","1011653","0.0-3.0-7.0-1.11","5678620289319e0011651232","E1","batch5","pattern_response","4489.400000095367","stim/no_46_1_b.png","j","pattern_26","j","true","","","","4489.400000095367","true","44","","","","","","","","","","","","","","","","",""
"","","","","","html-keyboard-response","248","1012970","0.0-3.0-7.0-0.12","5678620289319e0011651232","E1","batch5","pattern_show_trial_num","null","<p class=block-text>Trial 52 out of 78</p>","null","","","","","","","","","","","","","","","","","","","","","","","","","",""
"","","","","","image-keyboard-response","249","1015249","0.0-3.0-7.0-1.12","5678620289319e0011651232","E1","batch5","pattern_response","2277.9000000953674","stim/no_29_1_b.png","j","pattern_12","j","true","","","","2277.9000000953674","true","45","","","","","","","","","","","","","","","","",""
"","","","","","html-keyboard-response","250","1016572","0.0-3.0-7.0-0.13","5678620289319e0011651232","E1","batch5","pattern_show_trial_num","null","<p class=block-text>Trial 53 out of 78</p>","null","","","","","","","","","","","","","","","","","","","","","","","","","",""
"","","","","","image-keyboard-response","251","1017917","0.0-3.0-7.0-1.13","5678620289319e0011651232","E1","batch5","pattern_response","1344.9000000953674","stim/yes_52_ver_w1.png","f","pattern_73","f","true","","","","1344.9000000953674","true","46","","","","","","","","","","","","","","","","",""
"","","","","","html-keyboard-response","252","1019235","0.0-3.0-7.0-0.14","5678620289319e0011651232","E1","batch5","pattern_show_trial_num","null","<p class=block-text>Trial 54 out of 78</p>","null","","","","","","","","","","","","","","","","","","","","","","","","","",""
"","","","","","image-keyboard-response","253","1022289","0.0-3.0-7.0-1.14","5678620289319e0011651232","E1","batch5","pattern_response","3053.699999809265","stim/no_36_2_w.png","j","pattern_18","j","true","","","","3053.699999809265","true","47","","","","","","","","","","","","","","","","",""
"","","","","","html-keyboard-response","254","1023603","0.0-3.0-7.0-0.15","5678620289319e0011651232","E1","batch5","pattern_show_trial_num","null","<p class=block-text>Trial 55 out of 78</p>","null","","","","","","","","","","","","","","","","","","","","","","","","","",""
"","","","","","image-keyboard-response","255","1028525","0.0-3.0-7.0-1.15","5678620289319e0011651232","E1","batch5","pattern_response","4921.200000047684","stim/no_70_2.png","j","pattern_40","j","true","","","","4921.200000047684","true","48","","","","","","","","","","","","","","","","",""
"","","","","","html-keyboard-response","256","1029834","0.0-3.0-7.0-0.16","5678620289319e0011651232","E1","batch5","pattern_show_trial_num","null","<p class=block-text>Trial 56 out of 78</p>","null","","","","","","","","","","","","","","","","","","","","","","","","","",""
"","","","","","image-keyboard-response","257","1033448","0.0-3.0-7.0-1.16","5678620289319e0011651232","E1","batch5","pattern_response","3612.7000000476837","stim/no_52_1.png","j","pattern_32","j","true","","","","3612.7000000476837","true","49","","","","","","","","","","","","","","","","",""
"","","","","","html-keyboard-response","258","1034773","0.0-3.0-7.0-0.17","5678620289319e0011651232","E1","batch5","pattern_show_trial_num","null","<p class=block-text>Trial 57 out of 78</p>","null","","","","","","","","","","","","","","","","","","","","","","","","","",""
"","","","","","image-keyboard-response","259","1035772","0.0-3.0-7.0-1.17","5678620289319e0011651232","E1","batch5","pattern_response","997.2000000476837","stim/yes_25_hor_b1_b.png","f","pattern_49","f","true","","","","997.2000000476837","true","50","","","","","","","","","","","","","","","","",""
"","","","","","html-keyboard-response","260","1037084","0.0-3.0-7.0-0.18","5678620289319e0011651232","E1","batch5","pattern_show_trial_num","null","<p class=block-text>Trial 58 out of 78</p>","null","","","","","","","","","","","","","","","","","","","","","","","","","",""
"","","","","","image-keyboard-response","261","1038568","0.0-3.0-7.0-1.18","5678620289319e0011651232","E1","batch5","pattern_response","1484","stim/yes_67_hor_b1.png","f","pattern_79","f","true","","","","1484","true","51","","","","","","","","","","","","","","","","",""
"","","","","","html-keyboard-response","262","1039880","0.0-3.0-7.0-0.19","5678620289319e0011651232","E1","batch5","pattern_show_trial_num","null","<p class=block-text>Trial 59 out of 78</p>","null","","","","","","","","","","","","","","","","","","","","","","","","","",""
"","","","","","image-keyboard-response","263","1042404","0.0-3.0-7.0-1.19","5678620289319e0011651232","E1","batch5","pattern_response","2522.9000000953674","stim/no_55_1_w.png","j","pattern_34","j","true","","","","2522.9000000953674","true","52","","","","","","","","","","","","","","","","",""
"","","","","","html-keyboard-response","264","1043710","0.0-3.0-7.0-0.20","5678620289319e0011651232","E1","batch5","pattern_show_trial_num","null","<p class=block-text>Trial 60 out of 78</p>","null","","","","","","","","","","","","","","","","","","","","","","","","","",""
"","","","","","image-keyboard-response","265","1044708","0.0-3.0-7.0-1.20","5678620289319e0011651232","E1","batch5","pattern_response","997.3999998569489","stim/yes_22_ver_w1.png","f","pattern_47","f","true","","","","997.3999998569489","true","53","","","","","","","","","","","","","","","","",""
"","","","","","html-keyboard-response","266","1046033","0.0-3.0-7.0-0.21","5678620289319e0011651232","E1","batch5","pattern_show_trial_num","null","<p class=block-text>Trial 61 out of 78</p>","null","","","","","","","","","","","","","","","","","","","","","","","","","",""
"","","","","","image-keyboard-response","267","1048583","0.0-3.0-7.0-1.21","5678620289319e0011651232","E1","batch5","pattern_response","2550","stim/no_20_1_w.png","f","pattern_06","j","false","","","","2550","false","53","","","","","","","","","","","","","","","","",""
"","","","","","html-keyboard-response","268","1049899","0.0-3.0-7.0-0.22","5678620289319e0011651232","E1","batch5","pattern_show_trial_num","null","<p class=block-text>Trial 62 out of 78</p>","null","","","","","","","","","","","","","","","","","","","","","","","","","",""
"","","","","","image-keyboard-response","269","1051779","0.0-3.0-7.0-1.22","5678620289319e0011651232","E1","batch5","pattern_response","1879.9000000953674","stim/no_32_1_w.png","j","pattern_14","j","true","","","","1879.9000000953674","true","54","","","","","","","","","","","","","","","","",""
"","","","","","html-keyboard-response","270","1053098","0.0-3.0-7.0-0.23","5678620289319e0011651232","E1","batch5","pattern_show_trial_num","null","<p class=block-text>Trial 63 out of 78</p>","null","","","","","","","","","","","","","","","","","","","","","","","","","",""
"","","","","","image-keyboard-response","271","1056163","0.0-3.0-7.0-1.23","5678620289319e0011651232","E1","batch5","pattern_response","3064.2999999523163","stim/no_38_1_b.png","j","pattern_20","j","true","","","","3064.2999999523163","true","55","","","","","","","","","","","","","","","","",""
"","","","","","html-keyboard-response","272","1057490","0.0-3.0-7.0-0.24","5678620289319e0011651232","E1","batch5","pattern_show_trial_num","null","<p class=block-text>Trial 64 out of 78</p>","null","","","","","","","","","","","","","","","","","","","","","","","","","",""
"","","","","","image-keyboard-response","273","1060792","0.0-3.0-7.0-1.24","5678620289319e0011651232","E1","batch5","pattern_response","3301.2999999523163","stim/no_48_1_w.png","j","pattern_28","j","true","","","","3301.2999999523163","true","56","","","","","","","","","","","","","","","","",""
"","","","","","html-keyboard-response","274","1062117","0.0-3.0-7.0-0.25","5678620289319e0011651232","E1","batch5","pattern_show_trial_num","null","<p class=block-text>Trial 65 out of 78</p>","null","","","","","","","","","","","","","","","","","","","","","","","","","",""
"","","","","","image-keyboard-response","275","1064087","0.0-3.0-7.0-1.25","5678620289319e0011651232","E1","batch5","pattern_response","1969.2999999523163","stim/yes_38_hor_b1_b.png","f","pattern_61","f","true","","","","1969.2999999523163","true","57","","","","","","","","","","","","","","","","",""
"","","","","","html-keyboard-response","276","1065408","0.0-3.0-7.0-0.26","5678620289319e0011651232","E1","batch5","pattern_show_trial_num","null","<p class=block-text>Trial 66 out of 78</p>","null","","","","","","","","","","","","","","","","","","","","","","","","","",""
"","","","","","image-keyboard-response","277","1070174","0.0-3.0-7.0-1.26","5678620289319e0011651232","E1","batch5","pattern_response","4765.899999856949","stim/no_62_1_w.png","j","pattern_36","j","true","","","","4765.899999856949","true","58","","","","","","","","","","","","","","","","",""
"","","","","","html-keyboard-response","278","1071494","0.0-3.0-7.0-0.27","5678620289319e0011651232","E1","batch5","pattern_show_trial_num","null","<p class=block-text>Trial 67 out of 78</p>","null","","","","","","","","","","","","","","","","","","","","","","","","","",""
"","","","","","image-keyboard-response","279","1072750","0.0-3.0-7.0-1.27","5678620289319e0011651232","E1","batch5","pattern_response","1255.2999999523163","stim/yes_14_hor_b1_w.png","f","pattern_43","f","true","","","","1255.2999999523163","true","59","","","","","","","","","","","","","","","","",""
"","","","","","html-keyboard-response","280","1074065","0.0-3.0-7.0-0.28","5678620289319e0011651232","E1","batch5","pattern_show_trial_num","null","<p class=block-text>Trial 68 out of 78</p>","null","","","","","","","","","","","","","","","","","","","","","","","","","",""
"","","","","","image-keyboard-response","281","1075041","0.0-3.0-7.0-1.28","5678620289319e0011651232","E1","batch5","pattern_response","975.5","stim/yes_17_dia_w1.png","f","pattern_45","f","true","","","","975.5","true","60","","","","","","","","","","","","","","","","",""
"","","","","","html-keyboard-response","282","1076354","0.0-3.0-7.0-0.29","5678620289319e0011651232","E1","batch5","pattern_show_trial_num","null","<p class=block-text>Trial 69 out of 78</p>","null","","","","","","","","","","","","","","","","","","","","","","","","","",""
"","","","","","image-keyboard-response","283","1082277","0.0-3.0-7.0-1.29","5678620289319e0011651232","E1","batch5","pattern_response","5923.200000047684","stim/no_65_1_b.png","j","pattern_38","j","true","","","","5923.200000047684","true","61","","","","","","","","","","","","","","","","",""
"","","","","","html-keyboard-response","284","1083601","0.0-3.0-7.0-0.30","5678620289319e0011651232","E1","batch5","pattern_show_trial_num","null","<p class=block-text>Trial 70 out of 78</p>","null","","","","","","","","","","","","","","","","","","","","","","","","","",""
"","","","","","image-keyboard-response","285","1084714","0.0-3.0-7.0-1.30","5678620289319e0011651232","E1","batch5","pattern_response","1111.9000000953674","stim/yes_43_ver_w1_w.png","f","pattern_65","f","true","","","","1111.9000000953674","true","62","","","","","","","","","","","","","","","","",""
"","","","","","html-keyboard-response","286","1086029","0.0-3.0-7.0-0.31","5678620289319e0011651232","E1","batch5","pattern_show_trial_num","null","<p class=block-text>Trial 71 out of 78</p>","null","","","","","","","","","","","","","","","","","","","","","","","","","",""
"","","","","","image-keyboard-response","287","1087089","0.0-3.0-7.0-1.31","5678620289319e0011651232","E1","batch5","pattern_response","1059.6000001430511","stim/yes_28_ver_b1.png","f","pattern_51","f","true","","","","1059.6000001430511","true","63","","","","","","","","","","","","","","","","",""
"","","","","","html-keyboard-response","288","1088405","0.0-3.0-7.0-0.32","5678620289319e0011651232","E1","batch5","pattern_show_trial_num","null","<p class=block-text>Trial 72 out of 78</p>","null","","","","","","","","","","","","","","","","","","","","","","","","","",""
"","","","","","image-keyboard-response","289","1091713","0.0-3.0-7.0-1.32","5678620289319e0011651232","E1","batch5","pattern_response","3307.4000000953674","stim/yes_37_dia_w1.png","j","pattern_59","f","false","","","","3307.4000000953674","false","63","","","","","","","","","","","","","","","","",""
"","","","","","html-keyboard-response","290","1093020","0.0-3.0-7.0-0.33","5678620289319e0011651232","E1","batch5","pattern_show_trial_num","null","<p class=block-text>Trial 73 out of 78</p>","null","","","","","","","","","","","","","","","","","","","","","","","","","",""
"","","","","","image-keyboard-response","291","1096717","0.0-3.0-7.0-1.33","5678620289319e0011651232","E1","batch5","pattern_response","3695.9000000953674","stim/no_50_1.png","j","pattern_30","j","true","","","","3695.9000000953674","true","64","","","","","","","","","","","","","","","","",""
"","","","","","html-keyboard-response","292","1098036","0.0-3.0-7.0-0.34","5678620289319e0011651232","E1","batch5","pattern_show_trial_num","null","<p class=block-text>Trial 74 out of 78</p>","null","","","","","","","","","","","","","","","","","","","","","","","","","",""
"","","","","","image-keyboard-response","293","1099972","0.0-3.0-7.0-1.34","5678620289319e0011651232","E1","batch5","pattern_response","1935.2999999523163","stim/yes_48_dia_w1_w.png","f","pattern_69","f","true","","","","1935.2999999523163","true","65","","","","","","","","","","","","","","","","",""
"","","","","","html-keyboard-response","294","1101290","0.0-3.0-7.0-0.35","5678620289319e0011651232","E1","batch5","pattern_show_trial_num","null","<p class=block-text>Trial 75 out of 78</p>","null","","","","","","","","","","","","","","","","","","","","","","","","","",""
"","","","","","image-keyboard-response","295","1102964","0.0-3.0-7.0-1.35","5678620289319e0011651232","E1","batch5","pattern_response","1673.1000001430511","stim/no_26_1_w.png","j","pattern_10","j","true","","","","1673.1000001430511","true","66","","","","","","","","","","","","","","","","",""
"","","","","","html-keyboard-response","296","1104282","0.0-3.0-7.0-0.36","5678620289319e0011651232","E1","batch5","pattern_show_trial_num","null","<p class=block-text>Trial 76 out of 78</p>","null","","","","","","","","","","","","","","","","","","","","","","","","","",""
"","","","","","image-keyboard-response","297","1106044","0.0-3.0-7.0-1.36","5678620289319e0011651232","E1","batch5","pattern_response","1761.8000001907349","stim/no_17_1_w.png","j","pattern_04","j","true","","","","1761.8000001907349","true","67","","","","","","","","","","","","","","","","",""
"","","","","","html-keyboard-response","298","1107370","0.0-3.0-7.0-0.37","5678620289319e0011651232","E1","batch5","pattern_show_trial_num","null","<p class=block-text>Trial 77 out of 78</p>","null","","","","","","","","","","","","","","","","","","","","","","","","","",""
"","","","","","image-keyboard-response","299","1110005","0.0-3.0-7.0-1.37","5678620289319e0011651232","E1","batch5","pattern_response","2633.7999999523163","stim/no_42_1_w.png","j","pattern_22","j","true","","","","2633.7999999523163","true","68","","","","","","","","","","","","","","","","",""
"","","","","","html-keyboard-response","300","1111311","0.0-3.0-7.0-0.38","5678620289319e0011651232","E1","batch5","pattern_show_trial_num","null","<p class=block-text>Trial 78 out of 78</p>","null","","","","","","","","","","","","","","","","","","","","","","","","","",""
"","","","","","image-keyboard-response","301","1112600","0.0-3.0-7.0-1.38","5678620289319e0011651232","E1","batch5","pattern_response","1287.8999998569489","stim/no_13_2_b.png","j","pattern_02","j","true","","","","1287.8999998569489","true","69","","","","","","","","","","","","","","","","",""
"","","","","","html-button-response","302","1117457","0.0-3.0-8.0","5678620289319e0011651232","E1","batch5","","4352.900000095367","<p class = block-text>This concludes the 4-in-a-row detection game.Thank you for your responses!<br>
            You responded correctly on 88% of the trials.<br>
            When you are ready, press ""Continue"" button to continue </p>","0","","","","","","","","","","","","","","","","","","","","","","","","","",""
"true","","","","","fullscreen","303","1120670","0.0-4.0-0.0","5678620289319e0011651232","E1","batch5","","","","","","","","","","","","","","","","","","","","","","","","","","","","","",""
"","","","","","instructions","304","1204210","0.0-4.0-1.0-0.0-0.0","5678620289319e0011651232","E1","batch5","tol-instructions","83539.59999990463","","","","","","","","[{""page_index"":0,""viewing_time"":30895.599999904633},{""page_index"":1,""viewing_time"":4797.100000143051},{""page_index"":2,""viewing_time"":6203.899999856949},{""page_index"":3,""viewing_time"":13485.600000143051},{""page_index"":4,""viewing_time"":10769},{""page_index"":5,""viewing_time"":12872.700000047684},{""page_index"":6,""viewing_time"":4515.5}]","","","","","","","","","","","","","","","","","","","",""
"","","","","","html-button-response","305","1205171","0.0-4.0-1.0-1.0-0.0","5678620289319e0011651232","E1","batch5","tol_enter_quiz","960.4000000953674","<p class=block-text> Let's answer a few questions <br>","0","","","","","","","","","","","","","","","","","","","","","","","","","",""
"","","","","","html-button-response","306","1209155","0.0-4.0-1.0-1.0-1.0","5678620289319e0011651232","E1","batch5","tol_quiz","3983.5999999046326","<p class = block-text>True or False: You can only move the ball on top of a peg. <br></p>","0","","","true","","","","","","","","","","","","","","","","","","","","","","",""
"","","","","","html-button-response","307","1210802","0.0-4.0-1.0-1.0-2.0","5678620289319e0011651232","E1","batch5","tol_quiz_feedback","1646","<p class = block-text>Correct! You can only move the ball on top of a peg.</p>","0","","","","","","","","","","","","","","","","","","","","","","","","","",""
"","","","","","html-button-response","308","1213987","0.0-4.0-1.0-1.0-3.0","5678620289319e0011651232","E1","batch5","tol_quiz","3184.4000000953674","<p class = block-text>True or False: You should try to match your board with the target board with fewest moves possible. <br></p>","0","","","true","","","","","","","","","","","","","","","","","","","","","","",""
"","","","","","html-button-response","309","1214999","0.0-4.0-1.0-1.0-4.0","5678620289319e0011651232","E1","batch5","tol_quiz_feedback","1011.2000000476837","<p class = block-text>Correct! </p>","0","","","","","","","","","","","","","","","","","","","","","","","","","",""
"","","","","","html-button-response","310","1216877","0.0-4.0-2.0","5678620289319e0011651232","E1","batch5","","1877.0999999046326","<p class=block-text> Now that you've understood the game, let's practice a few easier examples before we start!<br> <br>","0","","","","","","","","","","","","","","","","","","","","","","","","","",""
"","","","","","single-stim-button","311","1219281","0.0-4.0-3.0-0.0","5678620289319e0011651232","E1","batch5","tol_practice","2402","","","","","","","","","","","","","","tol_peg_2","2402","2402","0","[[1,2,0],[0,0],[0]]","1","[[1,2,0],[0,0],[3]]","practice","2402","","","","","",""
"","","","","","single-stim-button","312","1220274","0.0-4.0-3.0-1.0","5678620289319e0011651232","E1","batch5","tol_practice","993","","","","","","","","","","","","","","tol_peg_3","993","993","0","[[1,2,0],[0,0],[3]]","1","[[1,2,0],[0,0],[3]]","practice","993","","","","","",""
"","","","","","poldrack-single-stim","313","1221290","0.0-4.0-4.0","5678620289319e0011651232","E1","batch5","tol_feedback","-1","","","","","true","","","","","","","","","","1000","1000","500","","","","","","-1","none","true","","0",""
"","","","","","single-stim-button","314","1224640","0.0-4.0-5.0-0.0","5678620289319e0011651232","E1","batch5","tol_practice","3350","","","","","","","","","","","","","","tol_peg_1","3350","3350","0","[[1,0,0],[3,0],[0]]","2","[[0,0,0],[3,1],[2]]","practice","3350","","","","","",""
"","","","","","single-stim-button","315","1225347","0.0-4.0-5.0-1.0","5678620289319e0011651232","E1","batch5","tol_practice","707","","","","","","","","","","","","","","tol_peg_3","707","707","0","[[1,0,0],[3,0],[2]]","2","[[0,0,0],[3,1],[2]]","practice","707","","","","","",""
"","","","","","single-stim-button","316","1225950","0.0-4.0-5.1-0.1","5678620289319e0011651232","E1","batch5","tol_practice","603","","","","","","","","","","","","","","tol_peg_1","603","603","0","[[0,0,0],[3,0],[2]]","3","[[0,0,0],[3,1],[2]]","practice","603","","","","","",""
"","","","","","single-stim-button","317","1226520","0.0-4.0-5.1-1.1","5678620289319e0011651232","E1","batch5","tol_practice","570","","","","","","","","","","","","","","tol_peg_2","570","570","0","[[0,0,0],[3,1],[2]]","3","[[0,0,0],[3,1],[2]]","practice","570","","","","","",""
"","","","","","poldrack-single-stim","318","1227528","0.0-4.0-6.0","5678620289319e0011651232","E1","batch5","tol_feedback","-1","","","","","true","","","","","","","","","","1000","1000","500","","","","","","-1","none","true","","0",""
"","","","","","single-stim-button","319","1229639","0.0-4.0-7.0-0.0","5678620289319e0011651232","E1","batch5","tol_practice","2111","","","","","","","","","","","","","","tol_peg_2","2111","2111","0","[[1,2,0],[0,0],[0]]","4","[[1,0,0],[2,0],[3]]","practice","2111","","","","","",""
"","","","","","single-stim-button","320","1230401","0.0-4.0-7.0-1.0","5678620289319e0011651232","E1","batch5","tol_practice","762","","","","","","","","","","","","","","tol_peg_3","762","762","0","[[1,2,0],[0,0],[3]]","4","[[1,0,0],[2,0],[3]]","practice","762","","","","","",""
"","","","","","single-stim-button","321","1231292","0.0-4.0-7.1-0.1","5678620289319e0011651232","E1","batch5","tol_practice","891","","","","","","","","","","","","","","tol_peg_1","891","891","0","[[1,0,0],[0,0],[3]]","5","[[1,0,0],[2,0],[3]]","practice","891","","","","","",""
"","","","","","single-stim-button","322","1231791","0.0-4.0-7.1-1.1","5678620289319e0011651232","E1","batch5","tol_practice","499","","","","","","","","","","","","","","tol_peg_2","499","499","0","[[1,0,0],[2,0],[3]]","5","[[1,0,0],[2,0],[3]]","practice","499","","","","","",""
"","","","","","poldrack-single-stim","323","1232806","0.0-4.0-8.0","5678620289319e0011651232","E1","batch5","tol_feedback","-1","","","","","true","","","","","","","","","","1000","1000","500","","","","","","-1","none","true","","0",""
"","","","","","html-button-response","324","1235180","0.0-4.0-9.0","5678620289319e0011651232","E1","batch5","tol_instruction","2373.2999999523163","<div class = centerbox><p class = center-block-text>Great job! You are done with practice trials<br>You are about to start official trials.<br> <br> Problem <strong>1</strong> out of 25 problems</p></div>","0","","","","","","","","","","","","","","","","","","","","","","","","","",""
"","","","","","single-stim-button","325","1239180","0.0-4.0-10.0-0.0","5678620289319e0011651232","E1","batch5","tol_tohand","2993","","","","","","","","","","","","","","tol_peg_1","2993","2993","0","[[1,0,0],[3,0],[0]]","1","[[1,3,0],[2,0],[0]]","0","0","","","","","","3"
"","","","","","single-stim-button","326","1239908","0.0-4.0-10.0-1.0","5678620289319e0011651232","E1","batch5","tol_toboard","727","","","","","","","","","","","","","","tol_peg_3","727","727","0","[[1,0,0],[3,0],[2]]","1","[[1,3,0],[2,0],[0]]","0","0","","","","","","3"
"","","","","","single-stim-button","327","1240402","0.0-4.0-10.1-0.1","5678620289319e0011651232","E1","batch5","tol_tohand","494","","","","","","","","","","","","","","tol_peg_2","494","494","0","[[1,0,0],[0,0],[2]]","2","[[1,3,0],[2,0],[0]]","0","0","","","","","","3"
"","","","","","single-stim-button","328","1241073","0.0-4.0-10.1-1.1","5678620289319e0011651232","E1","batch5","tol_toboard","671","","","","","","","","","","","","","","tol_peg_1","671","671","0","[[1,3,0],[0,0],[2]]","2","[[1,3,0],[2,0],[0]]","0","0","","","","","","3"
"","","","","","single-stim-button","329","1241654","0.0-4.0-10.2-0.2","5678620289319e0011651232","E1","batch5","tol_tohand","581","","","","","","","","","","","","","","tol_peg_3","581","581","0","[[1,3,0],[0,0],[0]]","3","[[1,3,0],[2,0],[0]]","0","0","","","","","","3"
"","","","","","single-stim-button","330","1242149","0.0-4.0-10.2-1.2","5678620289319e0011651232","E1","batch5","tol_toboard","495","","","","","","","","","","","","","","tol_peg_2","495","495","0","[[1,3,0],[2,0],[0]]","3","[[1,3,0],[2,0],[0]]","0","0","","","","","","3"
"","","","","","poldrack-single-stim","331","1243157","0.0-4.0-11.0","5678620289319e0011651232","E1","batch5","tol_feedback","-1","","","","","true","","","","","","","","","","1000","1000","500","","","","","","-1","none","true","2993","4068",""
"","","","","","html-button-response","332","1244320","0.0-4.0-12.0","5678620289319e0011651232","E1","batch5","tol_trial_num","1162.2000000476837","<div class = centerbox><p class = center-block-text>problem <strong>2</strong> out of 25 problems</p></div>","0","","","","","","","","","","","","","","","","","","","","","","","","","",""
"","","","","","single-stim-button","333","1247467","0.0-4.0-13.0-0.0","5678620289319e0011651232","E1","batch5","tol_tohand","3147","","","","","","","","","","","","","","tol_peg_1","3147","3147","0","[[1,0,0],[3,0],[0]]","1","[[2,1,3],[0,0],[0]]","1","0","","","","","","5"
"","","","","","single-stim-button","334","1249033","0.0-4.0-13.0-1.0","5678620289319e0011651232","E1","batch5","tol_toboard","1566","","","","","","","","","","","","","","tol_peg_3","1566","1566","0","[[1,0,0],[3,0],[2]]","1","[[2,1,3],[0,0],[0]]","1","0","","","","","","5"
"","","","","","single-stim-button","335","1252437","0.0-4.0-13.1-0.1","5678620289319e0011651232","E1","batch5","tol_tohand","3403","","","","","","","","","","","","","","tol_peg_1","3403","3403","0","[[0,0,0],[3,0],[2]]","2","[[2,1,3],[0,0],[0]]","1","0","","","","","","5"
"","","","","","single-stim-button","336","1252929","0.0-4.0-13.1-1.1","5678620289319e0011651232","E1","batch5","tol_toboard","492","","","","","","","","","","","","","","tol_peg_2","492","492","0","[[0,0,0],[3,1],[2]]","2","[[2,1,3],[0,0],[0]]","1","0","","","","","","5"
"","","","","","single-stim-button","337","1253422","0.0-4.0-13.2-0.2","5678620289319e0011651232","E1","batch5","tol_tohand","493","","","","","","","","","","","","","","tol_peg_3","493","493","0","[[0,0,0],[3,1],[0]]","3","[[2,1,3],[0,0],[0]]","1","0","","","","","","5"
"","","","","","single-stim-button","338","1254134","0.0-4.0-13.2-1.2","5678620289319e0011651232","E1","batch5","tol_toboard","712","","","","","","","","","","","","","","tol_peg_1","712","712","0","[[2,0,0],[3,1],[0]]","3","[[2,1,3],[0,0],[0]]","1","0","","","","","","5"
"","","","","","single-stim-button","339","1254551","0.0-4.0-13.3-0.3","5678620289319e0011651232","E1","batch5","tol_tohand","417","","","","","","","","","","","","","","tol_peg_2","417","417","0","[[2,0,0],[3,0],[0]]","4","[[2,1,3],[0,0],[0]]","1","0","","","","","","5"
"","","","","","single-stim-button","340","1255143","0.0-4.0-13.3-1.3","5678620289319e0011651232","E1","batch5","tol_toboard","592","","","","","","","","","","","","","","tol_peg_1","592","592","0","[[2,1,0],[3,0],[0]]","4","[[2,1,3],[0,0],[0]]","1","0","","","","","","5"
"","","","","","single-stim-button","341","1255739","0.0-4.0-13.4-0.4","5678620289319e0011651232","E1","batch5","tol_tohand","596","","","","","","","","","","","","","","tol_peg_2","596","596","0","[[2,1,0],[0,0],[0]]","5","[[2,1,3],[0,0],[0]]","1","0","","","","","","5"
"","","","","","single-stim-button","342","1256289","0.0-4.0-13.4-1.4","5678620289319e0011651232","E1","batch5","tol_toboard","550","","","","","","","","","","","","","","tol_peg_1","550","550","0","[[2,1,3],[0,0],[0]]","5","[[2,1,3],[0,0],[0]]","1","0","","","","","","5"
"","","","","","poldrack-single-stim","343","1257302","0.0-4.0-14.0","5678620289319e0011651232","E1","batch5","tol_feedback","-1","","","","","true","","","","","","","","","","1000","1000","500","","","","","","-1","none","true","3147","8056",""
"","","","","","html-button-response","344","1258332","0.0-4.0-15.0","5678620289319e0011651232","E1","batch5","tol_trial_num","1029","<div class = centerbox><p class = center-block-text>problem <strong>3</strong> out of 25 problems</p></div>","0","","","","","","","","","","","","","","","","","","","","","","","","","",""
"","","","","","single-stim-button","345","1261621","0.0-4.0-16.0-0.0","5678620289319e0011651232","E1","batch5","tol_tohand","3288","","","","","","","","","","","","","","tol_peg_1","3288","3288","0","[[2,0,0],[0,0],[1]]","1","[[1,2,0],[3,0],[0]]","2","0","","","","","","4"
"","","","","","single-stim-button","346","1263560","0.0-4.0-16.0-1.0","5678620289319e0011651232","E1","batch5","tol_toboard","1939","","","","","","","","","","","","","","tol_peg_2","1939","1939","0","[[2,0,0],[3,0],[1]]","1","[[1,2,0],[3,0],[0]]","2","0","","","","","","4"
"","","","","","single-stim-button","347","1264342","0.0-4.0-16.1-0.1","5678620289319e0011651232","E1","batch5","tol_tohand","782","","","","","","","","","","","","","","tol_peg_1","782","782","0","[[0,0,0],[3,0],[1]]","2","[[1,2,0],[3,0],[0]]","2","0","","","","","","4"
