"success","timeout","failed_images","failed_audio","failed_video","trial_type","trial_index","time_elapsed","internal_node_id","subject_id","study_id","session_id","view_history","rt","stimulus","response","task","correct","answer","item","fiar_detect_rt","fiar_detect_correct","total_correct_fiar_detect","post_trial_gap","choices","mouse_click","stim_duration","block_duration","timing_post_trial","current_position","tol_num_moves_made","tol_target","tol_problem_id","tol_rt","key_press","possible_responses","tol_correct","preplanning","tol_rt_per_trial","tol_min_moves","spm_correct","spm_rt"
"true","false","[]","[]","[]","preload","0","13980","0.0-0.0","56ac1289f209e0000cdabbe6","E1","batch5","","","","","","","","","","","","","","","","","","","","","","","","","","","","","",""
"true","","","","","fullscreen","1","21284","0.0-1.0-0.0","56ac1289f209e0000cdabbe6","E1","batch5","","","","","","","","","","","","","","","","","","","","","","","","","","","","","",""
"true","","","","","fullscreen","2","25093","0.0-2.0-0.0","56ac1289f209e0000cdabbe6","E1","batch5","","","","","","","","","","","","","","","","","","","","","","","","","","","","","",""
"","","","","","instructions","3","56208","0.0-2.0-1.0-0.0","56ac1289f209e0000cdabbe6","E1","batch5","[{""page_index"":0,""viewing_time"":22564.89999985695},{""page_index"":1,""viewing_time"":8547.800000190735}]","31113","","","","","","","","","","","","","","","","","","","","","","","","","","","",""
"","","","","","html-button-response","4","58204","0.0-2.0-1.0-1.0-0.0","56ac1289f209e0000cdabbe6","E1","batch5","","1995.2999999523163","<p class=block-text> Let's answer a few questions <br>","0","pattern_enter_quiz","","","","","","","","","","","","","","","","","","","","","","","","",""
"","","","","","html-button-response","5","62274","0.0-2.0-1.0-1.0-1.0","56ac1289f209e0000cdabbe6","E1","batch5","","4068.2000000476837","<p class = block-text>True or False: You will have as much time as you want to make each choice. <br></p>","1","pattern_quiz","true","","","","","","","","","","","","","","","","","","","","","","","",""
"","","","","","html-button-response","6","64188","0.0-2.0-1.0-1.0-2.0","56ac1289f209e0000cdabbe6","E1","batch5","","1912","<p class = block-text>Correct! You should make your choice <strong> as fast as you can</strong>.</p>","0","pattern_quiz_feedback","","","","","","","","","","","","","","","","","","","","","","","","",""
"","","","","","html-button-response","7","68384","0.0-2.0-1.0-1.0-3.0","56ac1289f209e0000cdabbe6","E1","batch5","","4195.100000143051","<p class = block-text>True or False: You will look for 4 pieces in black or white color connected in a row either horizontally, vertically or diagonally. <br></p>","0","pattern_quiz","true","","","","","","","","","","","","","","","","","","","","","","","",""
"","","","","","html-button-response","8","69668","0.0-2.0-1.0-1.0-4.0","56ac1289f209e0000cdabbe6","E1","batch5","","1283.5","<p class = block-text>Correct! </p>","0","pattern_quiz_feedback","","","","","","","","","","","","","","","","","","","","","","","","",""
"","","","","","html-button-response","9","71764","0.0-2.0-2.0","56ac1289f209e0000cdabbe6","E1","batch5","","2093.7999999523163","<p class=block-text> Now that you've understood the game, let's do a few practice trials before we start!<br> <br>","0","pattern_enter_practice","","","","","","","","","","","","","","","","","","","","","","","","",""
"","","","","","image-keyboard-response","10","74768","0.0-2.0-3.0-0.0","56ac1289f209e0000cdabbe6","E1","batch5","","3001.5999999046326","stim/prac_no_16_1.png","j","pattern_practice","true","j","","","","","","","","","","","","","","","","","","","","","","",""
"","","","","","html-keyboard-response","11","75784","0.0-2.0-3.0-1.0","56ac1289f209e0000cdabbe6","E1","batch5","","null","<p style=""font-size:30px;color:green;"">Correct!</p>","null","pattern_feedback","","","","","","","","","","","","","","","","","","","","","","","","",""
"","","","","","image-keyboard-response","12","77814","0.0-2.0-3.0-0.1","56ac1289f209e0000cdabbe6","E1","batch5","","2028.2000000476837","stim/prac_yes_20_dia_b1.png","j","pattern_practice","false","f","","","","","","","","","","","","","","","","","","","","","","",""
"","","","","","html-keyboard-response","13","78825","0.0-2.0-3.0-1.1","56ac1289f209e0000cdabbe6","E1","batch5","","null","<p style=""font-size:30px;color:red;"">Wrong.</p>","null","pattern_feedback","","","","","","","","","","","","","","","","","","","","","","","","",""
"","","","","","image-keyboard-response","14","82229","0.0-2.0-3.0-0.2","56ac1289f209e0000cdabbe6","E1","batch5","","3402.5","stim/prac_no_18_1.png","j","pattern_practice","true","j","","","","","","","","","","","","","","","","","","","","","","",""
"","","","","","html-keyboard-response","15","83241","0.0-2.0-3.0-1.2","56ac1289f209e0000cdabbe6","E1","batch5","","null","<p style=""font-size:30px;color:green;"">Correct!</p>","null","pattern_feedback","","","","","","","","","","","","","","","","","","","","","","","","",""
"","","","","","image-keyboard-response","16","84186","0.0-2.0-3.0-0.3","56ac1289f209e0000cdabbe6","E1","batch5","","942.7000000476837","stim/prac_yes_18_hor_w1.png","f","pattern_practice","true","f","","","","","","","","","","","","","","","","","","","","","","",""
"","","","","","html-keyboard-response","17","85202","0.0-2.0-3.0-1.3","56ac1289f209e0000cdabbe6","E1","batch5","","null","<p style=""font-size:30px;color:green;"">Correct!</p>","null","pattern_feedback","","","","","","","","","","","","","","","","","","","","","","","","",""
"","","","","","image-keyboard-response","18","86055","0.0-2.0-3.0-0.4","56ac1289f209e0000cdabbe6","E1","batch5","","852.2000000476837","stim/prac_yes_16_ver_w1.png","f","pattern_practice","true","f","","","","","","","","","","","","","","","","","","","","","","",""
"","","","","","html-keyboard-response","19","87078","0.0-2.0-3.0-1.4","56ac1289f209e0000cdabbe6","E1","batch5","","null","<p style=""font-size:30px;color:green;"">Correct!</p>","null","pattern_feedback","","","","","","","","","","","","","","","","","","","","","","","","",""
"","","","","","html-button-response","20","93478","0.0-2.0-4.0","56ac1289f209e0000cdabbe6","E1","batch5","","6398.600000143051","<p class=block-text> Good job! You are done with practice trials!<br>
        You responded correctly on 80% of the trials.<br>
        Press the button below to start official trials. Now you won't see any feedback about your response</p>","0","pattern_enter_official_trials","","","","","","","","","","","","","","","","","","","","","","","","",""
"","","","","","html-keyboard-response","21","94292","0.0-2.0-5.0-0.0","56ac1289f209e0000cdabbe6","E1","batch5","","null","<p class=block-text>Trial 1 out of 78</p>","null","pattern_show_trial_num","","","","","","","","","","","","","","","","","","","","","","","","",""
"","","","","","image-keyboard-response","22","95125","0.0-2.0-5.0-1.0","56ac1289f209e0000cdabbe6","E1","batch5","","831.5","stim/yes_37_hor_w1_w.png","f","pattern_response","true","f","pattern_60","831.5","true","1","","","","","","","","","","","","","","","","","","",""
"","","","","","html-keyboard-response","23","96437","0.0-2.0-5.0-0.1","56ac1289f209e0000cdabbe6","E1","batch5","","null","<p class=block-text>Trial 2 out of 78</p>","null","pattern_show_trial_num","","","","","","","","","","","","","","","","","","","","","","","","",""
"","","","","","image-keyboard-response","24","99713","0.0-2.0-5.0-1.1","56ac1289f209e0000cdabbe6","E1","batch5","","3274.4000000953674","stim/no_49_2_b.png","j","pattern_response","true","j","pattern_29","3274.4000000953674","true","2","","","","","","","","","","","","","","","","","","",""
"","","","","","html-keyboard-response","25","101026","0.0-2.0-5.0-0.2","56ac1289f209e0000cdabbe6","E1","batch5","","null","<p class=block-text>Trial 3 out of 78</p>","null","pattern_show_trial_num","","","","","","","","","","","","","","","","","","","","","","","","",""
"","","","","","image-keyboard-response","26","104832","0.0-2.0-5.0-1.2","56ac1289f209e0000cdabbe6","E1","batch5","","3804.0999999046326","stim/no_47_1_b.png","j","pattern_response","true","j","pattern_27","3804.0999999046326","true","3","","","","","","","","","","","","","","","","","","",""
"","","","","","html-keyboard-response","27","106134","0.0-2.0-5.0-0.3","56ac1289f209e0000cdabbe6","E1","batch5","","null","<p class=block-text>Trial 4 out of 78</p>","null","pattern_show_trial_num","","","","","","","","","","","","","","","","","","","","","","","","",""
"","","","","","image-keyboard-response","28","113990","0.0-2.0-5.0-1.3","56ac1289f209e0000cdabbe6","E1","batch5","","7854.5","stim/yes_51_dia_b1.png","j","pattern_response","false","f","pattern_72","7854.5","false","3","","","","","","","","","","","","","","","","","","",""
"","","","","","html-keyboard-response","29","115305","0.0-2.0-5.0-0.4","56ac1289f209e0000cdabbe6","E1","batch5","","null","<p class=block-text>Trial 5 out of 78</p>","null","pattern_show_trial_num","","","","","","","","","","","","","","","","","","","","","","","","",""
"","","","","","image-keyboard-response","30","117140","0.0-2.0-5.0-1.4","56ac1289f209e0000cdabbe6","E1","batch5","","1832.7000000476837","stim/yes_30_ver_b1_b.png","f","pattern_response","true","f","pattern_54","1832.7000000476837","true","4","","","","","","","","","","","","","","","","","","",""
"","","","","","html-keyboard-response","31","118448","0.0-2.0-5.0-0.5","56ac1289f209e0000cdabbe6","E1","batch5","","null","<p class=block-text>Trial 6 out of 78</p>","null","pattern_show_trial_num","","","","","","","","","","","","","","","","","","","","","","","","",""
"","","","","","image-keyboard-response","32","126556","0.0-2.0-5.0-1.5","56ac1289f209e0000cdabbe6","E1","batch5","","8107.099999904633","stim/yes_53_ver_b1_b.png","f","pattern_response","true","f","pattern_74","8107.099999904633","true","5","","","","","","","","","","","","","","","","","","",""
"","","","","","html-keyboard-response","33","127877","0.0-2.0-5.0-0.6","56ac1289f209e0000cdabbe6","E1","batch5","","null","<p class=block-text>Trial 7 out of 78</p>","null","pattern_show_trial_num","","","","","","","","","","","","","","","","","","","","","","","","",""
"","","","","","image-keyboard-response","34","129850","0.0-2.0-5.0-1.6","56ac1289f209e0000cdabbe6","E1","batch5","","1971.5","stim/no_15_1_w.png","j","pattern_response","true","j","pattern_03","1971.5","true","6","","","","","","","","","","","","","","","","","","",""
"","","","","","html-keyboard-response","35","131172","0.0-2.0-5.0-0.7","56ac1289f209e0000cdabbe6","E1","batch5","","null","<p class=block-text>Trial 8 out of 78</p>","null","pattern_show_trial_num","","","","","","","","","","","","","","","","","","","","","","","","",""
"","","","","","image-keyboard-response","36","141434","0.0-2.0-5.0-1.7","56ac1289f209e0000cdabbe6","E1","batch5","","10259.700000047684","stim/no_33_1_b.png","j","pattern_response","true","j","pattern_15","10259.700000047684","true","7","","","","","","","","","","","","","","","","","","",""
"","","","","","html-keyboard-response","37","142748","0.0-2.0-5.0-0.8","56ac1289f209e0000cdabbe6","E1","batch5","","null","<p class=block-text>Trial 9 out of 78</p>","null","pattern_show_trial_num","","","","","","","","","","","","","","","","","","","","","","","","",""
"","","","","","image-keyboard-response","38","144216","0.0-2.0-5.0-1.8","56ac1289f209e0000cdabbe6","E1","batch5","","1466.4000000953674","stim/yes_70_ver_b1.png","f","pattern_response","true","f","pattern_80","1466.4000000953674","true","8","","","","","","","","","","","","","","","","","","",""
"","","","","","html-keyboard-response","39","145544","0.0-2.0-5.0-0.9","56ac1289f209e0000cdabbe6","E1","batch5","","null","<p class=block-text>Trial 10 out of 78</p>","null","pattern_show_trial_num","","","","","","","","","","","","","","","","","","","","","","","","",""
"","","","","","image-keyboard-response","40","154573","0.0-2.0-5.0-1.9","56ac1289f209e0000cdabbe6","E1","batch5","","9028.599999904633","stim/yes_44_ver_w1_w.png","j","pattern_response","false","f","pattern_66","9028.599999904633","false","8","","","","","","","","","","","","","","","","","","",""
"","","","","","html-keyboard-response","41","155885","0.0-2.0-5.0-0.10","56ac1289f209e0000cdabbe6","E1","batch5","","null","<p class=block-text>Trial 11 out of 78</p>","null","pattern_show_trial_num","","","","","","","","","","","","","","","","","","","","","","","","",""
"","","","","","image-keyboard-response","42","162291","0.0-2.0-5.0-1.10","56ac1289f209e0000cdabbe6","E1","batch5","","6404.899999856949","stim/no_25_1_b.png","j","pattern_response","true","j","pattern_09","6404.899999856949","true","9","","","","","","","","","","","","","","","","","","",""
"","","","","","html-keyboard-response","43","163597","0.0-2.0-5.0-0.11","56ac1289f209e0000cdabbe6","E1","batch5","","null","<p class=block-text>Trial 12 out of 78</p>","null","pattern_show_trial_num","","","","","","","","","","","","","","","","","","","","","","","","",""
"","","","","","image-keyboard-response","44","174744","0.0-2.0-5.0-1.11","56ac1289f209e0000cdabbe6","E1","batch5","","11146.299999952316","stim/no_45_1_w.png","j","pattern_response","true","j","pattern_25","11146.299999952316","true","10","","","","","","","","","","","","","","","","","","",""
"","","","","","html-keyboard-response","45","176060","0.0-2.0-5.0-0.12","56ac1289f209e0000cdabbe6","E1","batch5","","null","<p class=block-text>Trial 13 out of 78</p>","null","pattern_show_trial_num","","","","","","","","","","","","","","","","","","","","","","","","",""
"","","","","","image-keyboard-response","46","186603","0.0-2.0-5.0-1.12","56ac1289f209e0000cdabbe6","E1","batch5","","10541.400000095367","stim/no_39_1_w.png","j","pattern_response","true","j","pattern_21","10541.400000095367","true","11","","","","","","","","","","","","","","","","","","",""
"","","","","","html-keyboard-response","47","187920","0.0-2.0-5.0-0.13","56ac1289f209e0000cdabbe6","E1","batch5","","null","<p class=block-text>Trial 14 out of 78</p>","null","pattern_show_trial_num","","","","","","","","","","","","","","","","","","","","","","","","",""
"","","","","","image-keyboard-response","48","191694","0.0-2.0-5.0-1.13","56ac1289f209e0000cdabbe6","E1","batch5","","3772.100000143051","stim/yes_63_dia_b1.png","f","pattern_response","true","f","pattern_78","3772.100000143051","true","12","","","","","","","","","","","","","","","","","","",""
"","","","","","html-keyboard-response","49","193016","0.0-2.0-5.0-0.14","56ac1289f209e0000cdabbe6","E1","batch5","","null","<p class=block-text>Trial 15 out of 78</p>","null","pattern_show_trial_num","","","","","","","","","","","","","","","","","","","","","","","","",""
"","","","","","image-keyboard-response","50","193868","0.0-2.0-5.0-1.14","56ac1289f209e0000cdabbe6","E1","batch5","","850.5","stim/yes_12_hor_w1_w.png","f","pattern_response","true","f","pattern_42","850.5","true","13","","","","","","","","","","","","","","","","","","",""
"","","","","","html-keyboard-response","51","195183","0.0-2.0-5.0-0.15","56ac1289f209e0000cdabbe6","E1","batch5","","null","<p class=block-text>Trial 16 out of 78</p>","null","pattern_show_trial_num","","","","","","","","","","","","","","","","","","","","","","","","",""
"","","","","","image-keyboard-response","52","209520","0.0-2.0-5.0-1.15","56ac1289f209e0000cdabbe6","E1","batch5","","14335.5","stim/yes_58_dia_w1_w.png","j","pattern_response","false","f","pattern_76","14335.5","false","13","","","","","","","","","","","","","","","","","","",""
"","","","","","html-keyboard-response","53","210832","0.0-2.0-5.0-0.16","56ac1289f209e0000cdabbe6","E1","batch5","","null","<p class=block-text>Trial 17 out of 78</p>","null","pattern_show_trial_num","","","","","","","","","","","","","","","","","","","","","","","","",""
"","","","","","image-keyboard-response","54","216903","0.0-2.0-5.0-1.16","56ac1289f209e0000cdabbe6","E1","batch5","","6068.700000047684","stim/yes_42_dia_w1_w.png","f","pattern_response","true","f","pattern_64","6068.700000047684","true","14","","","","","","","","","","","","","","","","","","",""
"","","","","","html-keyboard-response","55","218219","0.0-2.0-5.0-0.17","56ac1289f209e0000cdabbe6","E1","batch5","","null","<p class=block-text>Trial 18 out of 78</p>","null","pattern_show_trial_num","","","","","","","","","","","","","","","","","","","","","","","","",""
"","","","","","image-keyboard-response","56","219146","0.0-2.0-5.0-1.17","56ac1289f209e0000cdabbe6","E1","batch5","","923.2999999523163","stim/yes_17_ver_b1_b.png","f","pattern_response","true","f","pattern_46","923.2999999523163","true","15","","","","","","","","","","","","","","","","","","",""
"","","","","","html-keyboard-response","57","220456","0.0-2.0-5.0-0.18","56ac1289f209e0000cdabbe6","E1","batch5","","null","<p class=block-text>Trial 19 out of 78</p>","null","pattern_show_trial_num","","","","","","","","","","","","","","","","","","","","","","","","",""
"","","","","","image-keyboard-response","58","228399","0.0-2.0-5.0-1.18","56ac1289f209e0000cdabbe6","E1","batch5","","7941.799999952316","stim/no_30_1_b.png","j","pattern_response","true","j","pattern_13","7941.799999952316","true","16","","","","","","","","","","","","","","","","","","",""
"","","","","","html-keyboard-response","59","229706","0.0-2.0-5.0-0.19","56ac1289f209e0000cdabbe6","E1","batch5","","null","<p class=block-text>Trial 20 out of 78</p>","null","pattern_show_trial_num","","","","","","","","","","","","","","","","","","","","","","","","",""
"","","","","","image-keyboard-response","60","241148","0.0-2.0-5.0-1.19","56ac1289f209e0000cdabbe6","E1","batch5","","11440.5","stim/no_43_2_b.png","j","pattern_response","true","j","pattern_23","11440.5","true","17","","","","","","","","","","","","","","","","","","",""
"","","","","","html-keyboard-response","61","242452","0.0-2.0-5.0-0.20","56ac1289f209e0000cdabbe6","E1","batch5","","null","<p class=block-text>Trial 21 out of 78</p>","null","pattern_show_trial_num","","","","","","","","","","","","","","","","","","","","","","","","",""
"","","","","","image-keyboard-response","62","243326","0.0-2.0-5.0-1.20","56ac1289f209e0000cdabbe6","E1","batch5","","872.2999999523163","stim/yes_29_hor_b1_b.png","f","pattern_response","true","f","pattern_52","872.2999999523163","true","18","","","","","","","","","","","","","","","","","","",""
"","","","","","html-keyboard-response","63","244636","0.0-2.0-5.0-0.21","56ac1289f209e0000cdabbe6","E1","batch5","","null","<p class=block-text>Trial 22 out of 78</p>","null","pattern_show_trial_num","","","","","","","","","","","","","","","","","","","","","","","","",""
"","","","","","image-keyboard-response","64","249421","0.0-2.0-5.0-1.21","56ac1289f209e0000cdabbe6","E1","batch5","","4783.799999952316","stim/no_22_1_b.png","j","pattern_response","true","j","pattern_07","4783.799999952316","true","19","","","","","","","","","","","","","","","","","","",""
"","","","","","html-keyboard-response","65","250736","0.0-2.0-5.0-0.22","56ac1289f209e0000cdabbe6","E1","batch5","","null","<p class=block-text>Trial 23 out of 78</p>","null","pattern_show_trial_num","","","","","","","","","","","","","","","","","","","","","","","","",""
"","","","","","image-keyboard-response","66","261721","0.0-2.0-5.0-1.22","56ac1289f209e0000cdabbe6","E1","batch5","","10983.5","stim/no_51_1.png","j","pattern_response","true","j","pattern_31","10983.5","true","20","","","","","","","","","","","","","","","","","","",""
"","","","","","html-keyboard-response","67","263032","0.0-2.0-5.0-0.23","56ac1289f209e0000cdabbe6","E1","batch5","","null","<p class=block-text>Trial 24 out of 78</p>","null","pattern_show_trial_num","","","","","","","","","","","","","","","","","","","","","","","","",""
"","","","","","image-keyboard-response","68","263876","0.0-2.0-5.0-1.23","56ac1289f209e0000cdabbe6","E1","batch5","","842.5","stim/yes_36_ver_w1_w.png","f","pattern_response","true","f","pattern_58","842.5","true","21","","","","","","","","","","","","","","","","","","",""
"","","","","","html-keyboard-response","69","265196","0.0-2.0-5.0-0.24","56ac1289f209e0000cdabbe6","E1","batch5","","null","<p class=block-text>Trial 25 out of 78</p>","null","pattern_show_trial_num","","","","","","","","","","","","","","","","","","","","","","","","",""
"","","","","","image-keyboard-response","70","266224","0.0-2.0-5.0-1.24","56ac1289f209e0000cdabbe6","E1","batch5","","1026.7999999523163","stim/yes_23_ver_b1.png","f","pattern_response","true","f","pattern_48","1026.7999999523163","true","22","","","","","","","","","","","","","","","","","","",""
"","","","","","html-keyboard-response","71","267535","0.0-2.0-5.0-0.25","56ac1289f209e0000cdabbe6","E1","batch5","","null","<p class=block-text>Trial 26 out of 78</p>","null","pattern_show_trial_num","","","","","","","","","","","","","","","","","","","","","","","","",""
"","","","","","image-keyboard-response","72","278784","0.0-2.0-5.0-1.25","56ac1289f209e0000cdabbe6","E1","batch5","","11248.299999952316","stim/no_58_1_w.png","j","pattern_response","true","j","pattern_35","11248.299999952316","true","23","","","","","","","","","","","","","","","","","","",""
"","","","","","html-keyboard-response","73","280094","0.0-2.0-5.0-0.26","56ac1289f209e0000cdabbe6","E1","batch5","","null","<p class=block-text>Trial 27 out of 78</p>","null","pattern_show_trial_num","","","","","","","","","","","","","","","","","","","","","","","","",""
"","","","","","image-keyboard-response","74","286218","0.0-2.0-5.0-1.26","56ac1289f209e0000cdabbe6","E1","batch5","","6122.600000143051","stim/no_28_2.png","j","pattern_response","true","j","pattern_11","6122.600000143051","true","24","","","","","","","","","","","","","","","","","","",""
"","","","","","html-keyboard-response","75","287540","0.0-2.0-5.0-0.27","56ac1289f209e0000cdabbe6","E1","batch5","","null","<p class=block-text>Trial 28 out of 78</p>","null","pattern_show_trial_num","","","","","","","","","","","","","","","","","","","","","","","","",""
"","","","","","image-keyboard-response","76","288310","0.0-2.0-5.0-1.27","56ac1289f209e0000cdabbe6","E1","batch5","","768","stim/yes_39_hor_w1_w.png","f","pattern_response","true","f","pattern_62","768","true","25","","","","","","","","","","","","","","","","","","",""
"","","","","","html-keyboard-response","77","289630","0.0-2.0-5.0-0.28","56ac1289f209e0000cdabbe6","E1","batch5","","null","<p class=block-text>Trial 29 out of 78</p>","null","pattern_show_trial_num","","","","","","","","","","","","","","","","","","","","","","","","",""
"","","","","","image-keyboard-response","78","300632","0.0-2.0-5.0-1.28","56ac1289f209e0000cdabbe6","E1","batch5","","11001.100000143051","stim/no_53_1_b.png","j","pattern_response","true","j","pattern_33","11001.100000143051","true","26","","","","","","","","","","","","","","","","","","",""
"","","","","","html-keyboard-response","79","301933","0.0-2.0-5.0-0.29","56ac1289f209e0000cdabbe6","E1","batch5","","null","<p class=block-text>Trial 30 out of 78</p>","null","pattern_show_trial_num","","","","","","","","","","","","","","","","","","","","","","","","",""
"","","","","","image-keyboard-response","80","304132","0.0-2.0-5.0-1.29","56ac1289f209e0000cdabbe6","E1","batch5","","2197.0999999046326","stim/yes_26_dia_w2_w.png","f","pattern_response","true","f","pattern_50","2197.0999999046326","true","27","","","","","","","","","","","","","","","","","","",""
"","","","","","html-keyboard-response","81","305447","0.0-2.0-5.0-0.30","56ac1289f209e0000cdabbe6","E1","batch5","","null","<p class=block-text>Trial 31 out of 78</p>","null","pattern_show_trial_num","","","","","","","","","","","","","","","","","","","","","","","","",""
"","","","","","image-keyboard-response","82","309017","0.0-2.0-5.0-1.30","56ac1289f209e0000cdabbe6","E1","batch5","","3568.2000000476837","stim/no_18_1_b.png","j","pattern_response","true","j","pattern_05","3568.2000000476837","true","28","","","","","","","","","","","","","","","","","","",""
"","","","","","html-keyboard-response","83","310329","0.0-2.0-5.0-0.31","56ac1289f209e0000cdabbe6","E1","batch5","","null","<p class=block-text>Trial 32 out of 78</p>","null","pattern_show_trial_num","","","","","","","","","","","","","","","","","","","","","","","","",""
"","","","","","image-keyboard-response","84","311566","0.0-2.0-5.0-1.31","56ac1289f209e0000cdabbe6","E1","batch5","","1235.5999999046326","stim/yes_46_ver_b1_b.png","f","pattern_response","true","f","pattern_68","1235.5999999046326","true","29","","","","","","","","","","","","","","","","","","",""
"","","","","","html-keyboard-response","85","312868","0.0-2.0-5.0-0.32","56ac1289f209e0000cdabbe6","E1","batch5","","null","<p class=block-text>Trial 33 out of 78</p>","null","pattern_show_trial_num","","","","","","","","","","","","","","","","","","","","","","","","",""
"","","","","","image-keyboard-response","86","315009","0.0-2.0-5.0-1.32","56ac1289f209e0000cdabbe6","E1","batch5","","2139.9000000953674","stim/yes_33_dia_w1_w.png","f","pattern_response","true","f","pattern_56","2139.9000000953674","true","30","","","","","","","","","","","","","","","","","","",""
"","","","","","html-keyboard-response","87","316325","0.0-2.0-5.0-0.33","56ac1289f209e0000cdabbe6","E1","batch5","","null","<p class=block-text>Trial 34 out of 78</p>","null","pattern_show_trial_num","","","","","","","","","","","","","","","","","","","","","","","","",""
"","","","","","image-keyboard-response","88","328403","0.0-2.0-5.0-1.33","56ac1289f209e0000cdabbe6","E1","batch5","","12076.699999809265","stim/no_67_1.png","j","pattern_response","true","j","pattern_39","12076.699999809265","true","31","","","","","","","","","","","","","","","","","","",""
"","","","","","html-keyboard-response","89","329713","0.0-2.0-5.0-0.34","56ac1289f209e0000cdabbe6","E1","batch5","","null","<p class=block-text>Trial 35 out of 78</p>","null","pattern_show_trial_num","","","","","","","","","","","","","","","","","","","","","","","","",""
"","","","","","image-keyboard-response","90","338058","0.0-2.0-5.0-1.34","56ac1289f209e0000cdabbe6","E1","batch5","","8343.200000047684","stim/no_37_2_w.png","j","pattern_response","true","j","pattern_19","8343.200000047684","true","32","","","","","","","","","","","","","","","","","","",""
"","","","","","html-keyboard-response","91","339371","0.0-2.0-5.0-0.35","56ac1289f209e0000cdabbe6","E1","batch5","","null","<p class=block-text>Trial 36 out of 78</p>","null","pattern_show_trial_num","","","","","","","","","","","","","","","","","","","","","","","","",""
"","","","","","image-keyboard-response","92","340238","0.0-2.0-5.0-1.35","56ac1289f209e0000cdabbe6","E1","batch5","","865.2999999523163","stim/yes_15_dia_b1u_b.png","f","pattern_response","true","f","pattern_44","865.2999999523163","true","33","","","","","","","","","","","","","","","","","","",""
"","","","","","html-keyboard-response","93","341551","0.0-2.0-5.0-0.36","56ac1289f209e0000cdabbe6","E1","batch5","","null","<p class=block-text>Trial 37 out of 78</p>","null","pattern_show_trial_num","","","","","","","","","","","","","","","","","","","","","","","","",""
"","","","","","image-keyboard-response","94","343857","0.0-2.0-5.0-1.36","56ac1289f209e0000cdabbe6","E1","batch5","","2304.899999856949","stim/no_12_1.png","j","pattern_response","true","j","pattern_01","2304.899999856949","true","34","","","","","","","","","","","","","","","","","","",""
"","","","","","html-keyboard-response","95","345169","0.0-2.0-5.0-0.37","56ac1289f209e0000cdabbe6","E1","batch5","","null","<p class=block-text>Trial 38 out of 78</p>","null","pattern_show_trial_num","","","","","","","","","","","","","","","","","","","","","","","","",""
"","","","","","image-keyboard-response","96","353251","0.0-2.0-5.0-1.37","56ac1289f209e0000cdabbe6","E1","batch5","","8080.900000095367","stim/no_36_1_b.png","j","pattern_response","true","j","pattern_17","8080.900000095367","true","35","","","","","","","","","","","","","","","","","","",""
"","","","","","html-keyboard-response","97","354564","0.0-2.0-5.0-0.38","56ac1289f209e0000cdabbe6","E1","batch5","","null","<p class=block-text>Trial 39 out of 78</p>","null","pattern_show_trial_num","","","","","","","","","","","","","","","","","","","","","","","","",""
"","","","","","image-keyboard-response","98","355965","0.0-2.0-5.0-1.38","56ac1289f209e0000cdabbe6","E1","batch5","","1399.5","stim/yes_49_hor_w1_b.png","f","pattern_response","true","f","pattern_70","1399.5","true","36","","","","","","","","","","","","","","","","","","",""
"","","","","","image-keyboard-response","99","358537","0.0-2.0-6.0","56ac1289f209e0000cdabbe6","E1","batch5","","2067.5","stim/empty_board.png","j","attention_check","true","j","","","","","500","[""f"",""j""]","","","","","","","","","","","","","","","","",""
"","","","","","html-keyboard-response","100","359352","0.0-2.0-7.0-0.0","56ac1289f209e0000cdabbe6","E1","batch5","","null","<p class=block-text>Trial 40 out of 78</p>","null","pattern_show_trial_num","","","","","","","","","","","","","","","","","","","","","","","","",""
"","","","","","image-keyboard-response","101","365276","0.0-2.0-7.0-1.0","56ac1289f209e0000cdabbe6","E1","batch5","","5922.5","stim/yes_40_dia_b1_b.png","f","pattern_response","true","f","pattern_63","5922.5","true","37","","","","","","","","","","","","","","","","","","",""
"","","","","","html-keyboard-response","102","366585","0.0-2.0-7.0-0.1","56ac1289f209e0000cdabbe6","E1","batch5","","null","<p class=block-text>Trial 41 out of 78</p>","null","pattern_show_trial_num","","","","","","","","","","","","","","","","","","","","","","","","",""
"","","","","","image-keyboard-response","103","368977","0.0-2.0-7.0-1.1","56ac1289f209e0000cdabbe6","E1","batch5","","2390.2999999523163","stim/yes_17_dia_w1.png","f","pattern_response","true","f","pattern_45","2390.2999999523163","true","38","","","","","","","","","","","","","","","","","","",""
"","","","","","html-keyboard-response","104","370291","0.0-2.0-7.0-0.2","56ac1289f209e0000cdabbe6","E1","batch5","","null","<p class=block-text>Trial 42 out of 78</p>","null","pattern_show_trial_num","","","","","","","","","","","","","","","","","","","","","","","","",""
"","","","","","image-keyboard-response","105","378461","0.0-2.0-7.0-1.2","56ac1289f209e0000cdabbe6","E1","batch5","","8168.900000095367","stim/no_46_1_b.png","j","pattern_response","true","j","pattern_26","8168.900000095367","true","39","","","","","","","","","","","","","","","","","","",""
"","","","","","html-keyboard-response","106","379776","0.0-2.0-7.0-0.3","56ac1289f209e0000cdabbe6","E1","batch5","","null","<p class=block-text>Trial 43 out of 78</p>","null","pattern_show_trial_num","","","","","","","","","","","","","","","","","","","","","","","","",""
"","","","","","image-keyboard-response","107","380775","0.0-2.0-7.0-1.3","56ac1289f209e0000cdabbe6","E1","batch5","","997.1000001430511","stim/yes_52_ver_w1.png","f","pattern_response","true","f","pattern_73","997.1000001430511","true","40","","","","","","","","","","","","","","","","","","",""
"","","","","","html-keyboard-response","108","382083","0.0-2.0-7.0-0.4","56ac1289f209e0000cdabbe6","E1","batch5","","null","<p class=block-text>Trial 44 out of 78</p>","null","pattern_show_trial_num","","","","","","","","","","","","","","","","","","","","","","","","",""
"","","","","","image-keyboard-response","109","382723","0.0-2.0-7.0-1.4","56ac1289f209e0000cdabbe6","E1","batch5","","638.9000000953674","stim/yes_14_hor_b1_w.png","f","pattern_response","true","f","pattern_43","638.9000000953674","true","41","","","","","","","","","","","","","","","","","","",""
"","","","","","html-keyboard-response","110","384036","0.0-2.0-7.0-0.5","56ac1289f209e0000cdabbe6","E1","batch5","","null","<p class=block-text>Trial 45 out of 78</p>","null","pattern_show_trial_num","","","","","","","","","","","","","","","","","","","","","","","","",""
"","","","","","image-keyboard-response","111","390792","0.0-2.0-7.0-1.5","56ac1289f209e0000cdabbe6","E1","batch5","","6754.700000047684","stim/no_38_1_b.png","j","pattern_response","true","j","pattern_20","6754.700000047684","true","42","","","","","","","","","","","","","","","","","","",""
"","","","","","html-keyboard-response","112","392103","0.0-2.0-7.0-0.6","56ac1289f209e0000cdabbe6","E1","batch5","","null","<p class=block-text>Trial 46 out of 78</p>","null","pattern_show_trial_num","","","","","","","","","","","","","","","","","","","","","","","","",""
"","","","","","image-keyboard-response","113","396702","0.0-2.0-7.0-1.6","56ac1289f209e0000cdabbe6","E1","batch5","","4597.700000047684","stim/no_29_1_b.png","j","pattern_response","true","j","pattern_12","4597.700000047684","true","43","","","","","","","","","","","","","","","","","","",""
"","","","","","html-keyboard-response","114","398011","0.0-2.0-7.0-0.7","56ac1289f209e0000cdabbe6","E1","batch5","","null","<p class=block-text>Trial 47 out of 78</p>","null","pattern_show_trial_num","","","","","","","","","","","","","","","","","","","","","","","","",""
"","","","","","image-keyboard-response","115","398790","0.0-2.0-7.0-1.7","56ac1289f209e0000cdabbe6","E1","batch5","","777.7999999523163","stim/yes_22_ver_w1.png","f","pattern_response","true","f","pattern_47","777.7999999523163","true","44","","","","","","","","","","","","","","","","","","",""
"","","","","","html-keyboard-response","116","400101","0.0-2.0-7.0-0.8","56ac1289f209e0000cdabbe6","E1","batch5","","null","<p class=block-text>Trial 48 out of 78</p>","null","pattern_show_trial_num","","","","","","","","","","","","","","","","","","","","","","","","",""
"","","","","","image-keyboard-response","117","406298","0.0-2.0-7.0-1.8","56ac1289f209e0000cdabbe6","E1","batch5","","6195.099999904633","stim/yes_50_dia_w1.png","f","pattern_response","true","f","pattern_71","6195.099999904633","true","45","","","","","","","","","","","","","","","","","","",""
"","","","","","html-keyboard-response","118","407611","0.0-2.0-7.0-0.9","56ac1289f209e0000cdabbe6","E1","batch5","","null","<p class=block-text>Trial 49 out of 78</p>","null","pattern_show_trial_num","","","","","","","","","","","","","","","","","","","","","","","","",""
"","","","","","image-keyboard-response","119","408574","0.0-2.0-7.0-1.9","56ac1289f209e0000cdabbe6","E1","batch5","","961.5","stim/yes_45_hor_b2_b.png","f","pattern_response","true","f","pattern_67","961.5","true","46","","","","","","","","","","","","","","","","","","",""
"","","","","","html-keyboard-response","120","409880","0.0-2.0-7.0-0.10","56ac1289f209e0000cdabbe6","E1","batch5","","null","<p class=block-text>Trial 50 out of 78</p>","null","pattern_show_trial_num","","","","","","","","","","","","","","","","","","","","","","","","",""
"","","","","","image-keyboard-response","121","418763","0.0-2.0-7.0-1.10","56ac1289f209e0000cdabbe6","E1","batch5","","8881.699999809265","stim/no_48_1_w.png","j","pattern_response","true","j","pattern_28","8881.699999809265","true","47","","","","","","","","","","","","","","","","","","",""
"","","","","","html-keyboard-response","122","420074","0.0-2.0-7.0-0.11","56ac1289f209e0000cdabbe6","E1","batch5","","null","<p class=block-text>Trial 51 out of 78</p>","null","pattern_show_trial_num","","","","","","","","","","","","","","","","","","","","","","","","",""
"","","","","","image-keyboard-response","123","421849","0.0-2.0-7.0-1.11","56ac1289f209e0000cdabbe6","E1","batch5","","1772.8000001907349","stim/yes_37_dia_w1.png","f","pattern_response","true","f","pattern_59","1772.8000001907349","true","48","","","","","","","","","","","","","","","","","","",""
"","","","","","html-keyboard-response","124","423157","0.0-2.0-7.0-0.12","56ac1289f209e0000cdabbe6","E1","batch5","","null","<p class=block-text>Trial 52 out of 78</p>","null","pattern_show_trial_num","","","","","","","","","","","","","","","","","","","","","","","","",""
"","","","","","image-keyboard-response","125","425709","0.0-2.0-7.0-1.12","56ac1289f209e0000cdabbe6","E1","batch5","","2550.5999999046326","stim/no_20_1_w.png","j","pattern_response","true","j","pattern_06","2550.5999999046326","true","49","","","","","","","","","","","","","","","","","","",""
"","","","","","html-keyboard-response","126","427033","0.0-2.0-7.0-0.13","56ac1289f209e0000cdabbe6","E1","batch5","","null","<p class=block-text>Trial 53 out of 78</p>","null","pattern_show_trial_num","","","","","","","","","","","","","","","","","","","","","","","","",""
"","","","","","image-keyboard-response","127","428002","0.0-2.0-7.0-1.13","56ac1289f209e0000cdabbe6","E1","batch5","","967.7999999523163","stim/yes_43_ver_w1_w.png","f","pattern_response","true","f","pattern_65","967.7999999523163","true","50","","","","","","","","","","","","","","","","","","",""
"","","","","","html-keyboard-response","128","429310","0.0-2.0-7.0-0.14","56ac1289f209e0000cdabbe6","E1","batch5","","null","<p class=block-text>Trial 54 out of 78</p>","null","pattern_show_trial_num","","","","","","","","","","","","","","","","","","","","","","","","",""
"","","","","","image-keyboard-response","129","434798","0.0-2.0-7.0-1.14","56ac1289f209e0000cdabbe6","E1","batch5","","5486.399999856949","stim/no_36_2_w.png","j","pattern_response","true","j","pattern_18","5486.399999856949","true","51","","","","","","","","","","","","","","","","","","",""
"","","","","","html-keyboard-response","130","436102","0.0-2.0-7.0-0.15","56ac1289f209e0000cdabbe6","E1","batch5","","null","<p class=block-text>Trial 55 out of 78</p>","null","pattern_show_trial_num","","","","","","","","","","","","","","","","","","","","","","","","",""
"","","","","","image-keyboard-response","131","437854","0.0-2.0-7.0-1.15","56ac1289f209e0000cdabbe6","E1","batch5","","1750.5","stim/no_13_2_b.png","j","pattern_response","true","j","pattern_02","1750.5","true","52","","","","","","","","","","","","","","","","","","",""
"","","","","","html-keyboard-response","132","439155","0.0-2.0-7.0-0.16","56ac1289f209e0000cdabbe6","E1","batch5","","null","<p class=block-text>Trial 56 out of 78</p>","null","pattern_show_trial_num","","","","","","","","","","","","","","","","","","","","","","","","",""
"","","","","","image-keyboard-response","133","439932","0.0-2.0-7.0-1.16","56ac1289f209e0000cdabbe6","E1","batch5","","776","stim/yes_29_ver_w1.png","f","pattern_response","true","f","pattern_53","776","true","53","","","","","","","","","","","","","","","","","","",""
"","","","","","html-keyboard-response","134","441248","0.0-2.0-7.0-0.17","56ac1289f209e0000cdabbe6","E1","batch5","","null","<p class=block-text>Trial 57 out of 78</p>","null","pattern_show_trial_num","","","","","","","","","","","","","","","","","","","","","","","","",""
"","","","","","image-keyboard-response","135","443024","0.0-2.0-7.0-1.17","56ac1289f209e0000cdabbe6","E1","batch5","","1774.9000000953674","stim/yes_48_dia_w1_w.png","f","pattern_response","true","f","pattern_69","1774.9000000953674","true","54","","","","","","","","","","","","","","","","","","",""
"","","","","","html-keyboard-response","136","444331","0.0-2.0-7.0-0.18","56ac1289f209e0000cdabbe6","E1","batch5","","null","<p class=block-text>Trial 58 out of 78</p>","null","pattern_show_trial_num","","","","","","","","","","","","","","","","","","","","","","","","",""
"","","","","","image-keyboard-response","137","445677","0.0-2.0-7.0-1.18","56ac1289f209e0000cdabbe6","E1","batch5","","1343.7000000476837","stim/yes_38_hor_b1_b.png","f","pattern_response","true","f","pattern_61","1343.7000000476837","true","55","","","","","","","","","","","","","","","","","","",""
"","","","","","html-keyboard-response","138","446997","0.0-2.0-7.0-0.19","56ac1289f209e0000cdabbe6","E1","batch5","","null","<p class=block-text>Trial 59 out of 78</p>","null","pattern_show_trial_num","","","","","","","","","","","","","","","","","","","","","","","","",""
"","","","","","image-keyboard-response","139","449270","0.0-2.0-7.0-1.19","56ac1289f209e0000cdabbe6","E1","batch5","","2271.0999999046326","stim/no_23_1.png","j","pattern_response","true","j","pattern_08","2271.0999999046326","true","56","","","","","","","","","","","","","","","","","","",""
"","","","","","html-keyboard-response","140","450573","0.0-2.0-7.0-0.20","56ac1289f209e0000cdabbe6","E1","batch5","","null","<p class=block-text>Trial 60 out of 78</p>","null","pattern_show_trial_num","","","","","","","","","","","","","","","","","","","","","","","","",""
"","","","","","image-keyboard-response","141","463349","0.0-2.0-7.0-1.20","56ac1289f209e0000cdabbe6","E1","batch5","","12774.799999952316","stim/no_65_1_b.png","j","pattern_response","true","j","pattern_38","12774.799999952316","true","57","","","","","","","","","","","","","","","","","","",""
"","","","","","html-keyboard-response","142","464653","0.0-2.0-7.0-0.21","56ac1289f209e0000cdabbe6","E1","batch5","","null","<p class=block-text>Trial 61 out of 78</p>","null","pattern_show_trial_num","","","","","","","","","","","","","","","","","","","","","","","","",""
"","","","","","image-keyboard-response","143","472771","0.0-2.0-7.0-1.21","56ac1289f209e0000cdabbe6","E1","batch5","","8116.300000190735","stim/no_55_1_w.png","j","pattern_response","true","j","pattern_34","8116.300000190735","true","58","","","","","","","","","","","","","","","","","","",""
"","","","","","html-keyboard-response","144","474093","0.0-2.0-7.0-0.22","56ac1289f209e0000cdabbe6","E1","batch5","","null","<p class=block-text>Trial 62 out of 78</p>","null","pattern_show_trial_num","","","","","","","","","","","","","","","","","","","","","","","","",""
"","","","","","image-keyboard-response","145","484508","0.0-2.0-7.0-1.22","56ac1289f209e0000cdabbe6","E1","batch5","","10414.199999809265","stim/no_70_2.png","j","pattern_response","true","j","pattern_40","10414.199999809265","true","59","","","","","","","","","","","","","","","","","","",""
"","","","","","html-keyboard-response","146","485825","0.0-2.0-7.0-0.23","56ac1289f209e0000cdabbe6","E1","batch5","","null","<p class=block-text>Trial 63 out of 78</p>","null","pattern_show_trial_num","","","","","","","","","","","","","","","","","","","","","","","","",""
"","","","","","image-keyboard-response","147","493626","0.0-2.0-7.0-1.23","56ac1289f209e0000cdabbe6","E1","batch5","","7799.599999904633","stim/no_42_1_w.png","j","pattern_response","true","j","pattern_22","7799.599999904633","true","60","","","","","","","","","","","","","","","","","","",""
"","","","","","html-keyboard-response","148","494931","0.0-2.0-7.0-0.24","56ac1289f209e0000cdabbe6","E1","batch5","","null","<p class=block-text>Trial 64 out of 78</p>","null","pattern_show_trial_num","","","","","","","","","","","","","","","","","","","","","","","","",""
"","","","","","image-keyboard-response","149","496639","0.0-2.0-7.0-1.24","56ac1289f209e0000cdabbe6","E1","batch5","","1706.2000000476837","stim/yes_35_dia_b1.png","f","pattern_response","true","f","pattern_57","1706.2000000476837","true","61","","","","","","","","","","","","","","","","","","",""
"","","","","","html-keyboard-response","150","497954","0.0-2.0-7.0-0.25","56ac1289f209e0000cdabbe6","E1","batch5","","null","<p class=block-text>Trial 65 out of 78</p>","null","pattern_show_trial_num","","","","","","","","","","","","","","","","","","","","","","","","",""
"","","","","","image-keyboard-response","151","499936","0.0-2.0-7.0-1.25","56ac1289f209e0000cdabbe6","E1","batch5","","1981.4000000953674","stim/yes_60_ver_b1_b.png","f","pattern_response","true","f","pattern_77","1981.4000000953674","true","62","","","","","","","","","","","","","","","","","","",""
"","","","","","html-keyboard-response","152","501257","0.0-2.0-7.0-0.26","56ac1289f209e0000cdabbe6","E1","batch5","","null","<p class=block-text>Trial 66 out of 78</p>","null","pattern_show_trial_num","","","","","","","","","","","","","","","","","","","","","","","","",""
"","","","","","image-keyboard-response","153","508200","0.0-2.0-7.0-1.26","56ac1289f209e0000cdabbe6","E1","batch5","","6942","stim/no_52_1.png","j","pattern_response","true","j","pattern_32","6942","true","63","","","","","","","","","","","","","","","","","","",""
"","","","","","html-keyboard-response","154","509528","0.0-2.0-7.0-0.27","56ac1289f209e0000cdabbe6","E1","batch5","","null","<p class=block-text>Trial 67 out of 78</p>","null","pattern_show_trial_num","","","","","","","","","","","","","","","","","","","","","","","","",""
"","","","","","image-keyboard-response","155","517148","0.0-2.0-7.0-1.27","56ac1289f209e0000cdabbe6","E1","batch5","","7618.5","stim/no_44_1.png","j","pattern_response","true","j","pattern_24","7618.5","true","64","","","","","","","","","","","","","","","","","","",""
"","","","","","html-keyboard-response","156","518467","0.0-2.0-7.0-0.28","56ac1289f209e0000cdabbe6","E1","batch5","","null","<p class=block-text>Trial 68 out of 78</p>","null","pattern_show_trial_num","","","","","","","","","","","","","","","","","","","","","","","","",""
"","","","","","image-keyboard-response","157","523808","0.0-2.0-7.0-1.28","56ac1289f209e0000cdabbe6","E1","batch5","","5339.599999904633","stim/yes_31_hor_b1.png","j","pattern_response","false","f","pattern_55","5339.599999904633","false","64","","","","","","","","","","","","","","","","","","",""
"","","","","","html-keyboard-response","158","525130","0.0-2.0-7.0-0.29","56ac1289f209e0000cdabbe6","E1","batch5","","null","<p class=block-text>Trial 69 out of 78</p>","null","pattern_show_trial_num","","","","","","","","","","","","","","","","","","","","","","","","",""
"","","","","","image-keyboard-response","159","531866","0.0-2.0-7.0-1.29","56ac1289f209e0000cdabbe6","E1","batch5","","6734.599999904633","stim/no_34_1_b.png","j","pattern_response","true","j","pattern_16","6734.599999904633","true","65","","","","","","","","","","","","","","","","","","",""
"","","","","","html-keyboard-response","160","533186","0.0-2.0-7.0-0.30","56ac1289f209e0000cdabbe6","E1","batch5","","null","<p class=block-text>Trial 70 out of 78</p>","null","pattern_show_trial_num","","","","","","","","","","","","","","","","","","","","","","","","",""
"","","","","","image-keyboard-response","161","545509","0.0-2.0-7.0-1.30","56ac1289f209e0000cdabbe6","E1","batch5","","12321.299999952316","stim/no_50_1.png","j","pattern_response","true","j","pattern_30","12321.299999952316","true","66","","","","","","","","","","","","","","","","","","",""
"","","","","","html-keyboard-response","162","546816","0.0-2.0-7.0-0.31","56ac1289f209e0000cdabbe6","E1","batch5","","null","<p class=block-text>Trial 71 out of 78</p>","null","pattern_show_trial_num","","","","","","","","","","","","","","","","","","","","","","","","",""
"","","","","","image-keyboard-response","163","547954","0.0-2.0-7.0-1.31","56ac1289f209e0000cdabbe6","E1","batch5","","1137.2000000476837","stim/yes_55_hor_w1_w.png","f","pattern_response","true","f","pattern_75","1137.2000000476837","true","67","","","","","","","","","","","","","","","","","","",""
"","","","","","html-keyboard-response","164","549262","0.0-2.0-7.0-0.32","56ac1289f209e0000cdabbe6","E1","batch5","","null","<p class=block-text>Trial 72 out of 78</p>","null","pattern_show_trial_num","","","","","","","","","","","","","","","","","","","","","","","","",""
"","","","","","image-keyboard-response","165","550518","0.0-2.0-7.0-1.32","56ac1289f209e0000cdabbe6","E1","batch5","","1255.5","stim/yes_67_hor_b1.png","f","pattern_response","true","f","pattern_79","1255.5","true","68","","","","","","","","","","","","","","","","","","",""
"","","","","","html-keyboard-response","166","551831","0.0-2.0-7.0-0.33","56ac1289f209e0000cdabbe6","E1","batch5","","null","<p class=block-text>Trial 73 out of 78</p>","null","pattern_show_trial_num","","","","","","","","","","","","","","","","","","","","","","","","",""
"","","","","","image-keyboard-response","167","556371","0.0-2.0-7.0-1.33","56ac1289f209e0000cdabbe6","E1","batch5","","4538.200000047684","stim/no_32_1_w.png","j","pattern_response","true","j","pattern_14","4538.200000047684","true","69","","","","","","","","","","","","","","","","","","",""
"","","","","","html-keyboard-response","168","557682","0.0-2.0-7.0-0.34","56ac1289f209e0000cdabbe6","E1","batch5","","null","<p class=block-text>Trial 74 out of 78</p>","null","pattern_show_trial_num","","","","","","","","","","","","","","","","","","","","","","","","",""
"","","","","","image-keyboard-response","169","568664","0.0-2.0-7.0-1.34","56ac1289f209e0000cdabbe6","E1","batch5","","10980.400000095367","stim/no_62_1_w.png","j","pattern_response","true","j","pattern_36","10980.400000095367","true","70","","","","","","","","","","","","","","","","","","",""
"","","","","","html-keyboard-response","170","569977","0.0-2.0-7.0-0.35","56ac1289f209e0000cdabbe6","E1","batch5","","null","<p class=block-text>Trial 75 out of 78</p>","null","pattern_show_trial_num","","","","","","","","","","","","","","","","","","","","","","","","",""
"","","","","","image-keyboard-response","171","572553","0.0-2.0-7.0-1.35","56ac1289f209e0000cdabbe6","E1","batch5","","2574.100000143051","stim/no_17_1_w.png","j","pattern_response","true","j","pattern_04","2574.100000143051","true","71","","","","","","","","","","","","","","","","","","",""
"","","","","","html-keyboard-response","172","573873","0.0-2.0-7.0-0.36","56ac1289f209e0000cdabbe6","E1","batch5","","null","<p class=block-text>Trial 76 out of 78</p>","null","pattern_show_trial_num","","","","","","","","","","","","","","","","","","","","","","","","",""
"","","","","","image-keyboard-response","173","576974","0.0-2.0-7.0-1.36","56ac1289f209e0000cdabbe6","E1","batch5","","3100.2000000476837","stim/no_26_1_w.png","j","pattern_response","true","j","pattern_10","3100.2000000476837","true","72","","","","","","","","","","","","","","","","","","",""
"","","","","","html-keyboard-response","174","578297","0.0-2.0-7.0-0.37","56ac1289f209e0000cdabbe6","E1","batch5","","null","<p class=block-text>Trial 77 out of 78</p>","null","pattern_show_trial_num","","","","","","","","","","","","","","","","","","","","","","","","",""
"","","","","","image-keyboard-response","175","581134","0.0-2.0-7.0-1.37","56ac1289f209e0000cdabbe6","E1","batch5","","2835.7000000476837","stim/yes_28_ver_b1.png","f","pattern_response","true","f","pattern_51","2835.7000000476837","true","73","","","","","","","","","","","","","","","","","","",""
"","","","","","html-keyboard-response","176","582450","0.0-2.0-7.0-0.38","56ac1289f209e0000cdabbe6","E1","batch5","","null","<p class=block-text>Trial 78 out of 78</p>","null","pattern_show_trial_num","","","","","","","","","","","","","","","","","","","","","","","","",""
"","","","","","image-keyboard-response","177","583211","0.0-2.0-7.0-1.38","56ac1289f209e0000cdabbe6","E1","batch5","","759.4000000953674","stim/yes_25_hor_b1_b.png","f","pattern_response","true","f","pattern_49","759.4000000953674","true","74","","","","","","","","","","","","","","","","","","",""
"","","","","","html-button-response","178","589308","0.0-2.0-8.0","56ac1289f209e0000cdabbe6","E1","batch5","","5586","<p class = block-text>This concludes the 4-in-a-row detection game.Thank you for your responses!<br>
            You responded correctly on 95% of the trials.<br>
            When you are ready, press ""Continue"" button to continue </p>","0","","","","","","","","","","","","","","","","","","","","","","","","","",""
"true","","","","","fullscreen","179","593290","0.0-3.0-0.0","56ac1289f209e0000cdabbe6","E1","batch5","","","","","","","","","","","","","","","","","","","","","","","","","","","","","",""
"","","","","","instructions","180","672532","0.0-3.0-1.0-0.0-0.0","56ac1289f209e0000cdabbe6","E1","batch5","[{""page_index"":0,""viewing_time"":24213.200000047684},{""page_index"":1,""viewing_time"":10563.799999952316},{""page_index"":2,""viewing_time"":10910},{""page_index"":3,""viewing_time"":9386.100000143051},{""page_index"":4,""viewing_time"":9725.899999856949},{""page_index"":5,""viewing_time"":11090},{""page_index"":6,""viewing_time"":3351.9000000953674}]","79241.29999995232","","","tol-instructions","","","","","","","","","","","","","","","","","","","","","","","","",""
"","","","","","html-button-response","181","674524","0.0-3.0-1.0-1.0-0.0","56ac1289f209e0000cdabbe6","E1","batch5","","1991.2999999523163","<p class=block-text> Let's answer a few questions <br>","0","tol_enter_quiz","","","","","","","","","","","","","","","","","","","","","","","","",""
"","","","","","html-button-response","182","679413","0.0-3.0-1.0-1.0-1.0","56ac1289f209e0000cdabbe6","E1","batch5","","4889.200000047684","<p class = block-text>True or False: You can only move the ball on top of a peg. <br></p>","0","tol_quiz","true","","","","","","","","","","","","","","","","","","","","","","","",""
"","","","","","html-button-response","183","681521","0.0-3.0-1.0-1.0-2.0","56ac1289f209e0000cdabbe6","E1","batch5","","2107.100000143051","<p class = block-text>Correct! You can only move the ball on top of a peg.</p>","0","tol_quiz_feedback","","","","","","","","","","","","","","","","","","","","","","","","",""
"","","","","","html-button-response","184","684795","0.0-3.0-1.0-1.0-3.0","56ac1289f209e0000cdabbe6","E1","batch5","","3273.300000190735","<p class = block-text>True or False: You should try to match your board with the target board with fewest moves possible. <br></p>","0","tol_quiz","true","","","","","","","","","","","","","","","","","","","","","","","",""
"","","","","","html-button-response","185","686439","0.0-3.0-1.0-1.0-4.0","56ac1289f209e0000cdabbe6","E1","batch5","","1642.8999998569489","<p class = block-text>Correct! </p>","0","tol_quiz_feedback","","","","","","","","","","","","","","","","","","","","","","","","",""
"","","","","","html-button-response","186","688501","0.0-3.0-2.0","56ac1289f209e0000cdabbe6","E1","batch5","","2061.2999999523163","<p class=block-text> Now that you've understood the game, let's practice a few easier examples before we start!<br> <br>","0","","","","","","","","","","","","","","","","","","","","","","","","","",""
"","","","","","single-stim-button","187","691489","0.0-3.0-3.0-0.0","56ac1289f209e0000cdabbe6","E1","batch5","","2986","","","tol_practice","","","","","","","","","tol_peg_2","2986","2986","0","[[1,2,0],[0,0],[0]]","1","[[1,2,0],[0,0],[3]]","practice","2986","","","","","","","",""
"","","","","","single-stim-button","188","693124","0.0-3.0-3.0-1.0","56ac1289f209e0000cdabbe6","E1","batch5","","1634","","","tol_practice","","","","","","","","","tol_peg_3","1634","1634","0","[[1,2,0],[0,0],[3]]","1","[[1,2,0],[0,0],[3]]","practice","1634","","","","","","","",""
"","","","","","poldrack-single-stim","189","694138","0.0-3.0-4.0","56ac1289f209e0000cdabbe6","E1","batch5","","-1","","","tol_feedback","true","","","","","","","","","1000","1000","500","","","","","","-1","none","true","","0","","",""
"","","","","","single-stim-button","190","699565","0.0-3.0-5.0-0.0","56ac1289f209e0000cdabbe6","E1","batch5","","5427","","","tol_practice","","","","","","","","","tol_peg_1","5427","5427","0","[[1,0,0],[3,0],[0]]","2","[[0,0,0],[3,1],[2]]","practice","5427","","","","","","","",""
"","","","","","single-stim-button","191","701312","0.0-3.0-5.0-1.0","56ac1289f209e0000cdabbe6","E1","batch5","","1745","","","tol_practice","","","","","","","","","tol_peg_3","1745","1745","0","[[1,0,0],[3,0],[2]]","2","[[0,0,0],[3,1],[2]]","practice","1745","","","","","","","",""
"","","","","","single-stim-button","192","702471","0.0-3.0-5.1-0.1","56ac1289f209e0000cdabbe6","E1","batch5","","1159","","","tol_practice","","","","","","","","","tol_peg_1","1159","1159","0","[[0,0,0],[3,0],[2]]","3","[[0,0,0],[3,1],[2]]","practice","1159","","","","","","","",""
"","","","","","single-stim-button","193","703643","0.0-3.0-5.1-1.1","56ac1289f209e0000cdabbe6","E1","batch5","","1171","","","tol_practice","","","","","","","","","tol_peg_2","1171","1171","0","[[0,0,0],[3,1],[2]]","3","[[0,0,0],[3,1],[2]]","practice","1171","","","","","","","",""
"","","","","","poldrack-single-stim","194","704656","0.0-3.0-6.0","56ac1289f209e0000cdabbe6","E1","batch5","","-1","","","tol_feedback","true","","","","","","","","","1000","1000","500","","","","","","-1","none","true","","0","","",""
"","","","","","single-stim-button","195","709347","0.0-3.0-7.0-0.0","56ac1289f209e0000cdabbe6","E1","batch5","","4691","","","tol_practice","","","","","","","","","tol_peg_2","4691","4691","0","[[1,2,0],[0,0],[0]]","4","[[1,0,0],[2,0],[3]]","practice","4691","","","","","","","",""
"","","","","","single-stim-button","196","710240","0.0-3.0-7.0-1.0","56ac1289f209e0000cdabbe6","E1","batch5","","891","","","tol_practice","","","","","","","","","tol_peg_3","891","891","0","[[1,2,0],[0,0],[3]]","4","[[1,0,0],[2,0],[3]]","practice","891","","","","","","","",""
"","","","","","single-stim-button","197","711177","0.0-3.0-7.1-0.1","56ac1289f209e0000cdabbe6","E1","batch5","","937","","","tol_practice","","","","","","","","","tol_peg_1","937","937","0","[[1,0,0],[0,0],[3]]","5","[[1,0,0],[2,0],[3]]","practice","937","","","","","","","",""
"","","","","","single-stim-button","198","711934","0.0-3.0-7.1-1.1","56ac1289f209e0000cdabbe6","E1","batch5","","755","","","tol_practice","","","","","","","","","tol_peg_2","755","755","0","[[1,0,0],[2,0],[3]]","5","[[1,0,0],[2,0],[3]]","practice","755","","","","","","","",""
"","","","","","poldrack-single-stim","199","712950","0.0-3.0-8.0","56ac1289f209e0000cdabbe6","E1","batch5","","-1","","","tol_feedback","true","","","","","","","","","1000","1000","500","","","","","","-1","none","true","","0","","",""
"","","","","","html-button-response","200","716121","0.0-3.0-9.0","56ac1289f209e0000cdabbe6","E1","batch5","","3170.600000143051","<div class = centerbox><p class = center-block-text>Great job! You are done with practice trials<br>You are about to start official trials.<br> <br> Problem <strong>1</strong> out of 25 problems</p></div>","0","tol_instruction","","","","","","","","","","","","","","","","","","","","","","","","",""
"","","","","","single-stim-button","201","726182","0.0-3.0-10.0-0.0","56ac1289f209e0000cdabbe6","E1","batch5","","9056","","","tol_tohand","","","","","","","","","tol_peg_2","9056","9056","0","[[1,2,0],[0,0],[0]]","1","[[1,3,0],[2,0],[0]]","0","0","","","","","","3","",""
"","","","","","single-stim-button","202","731396","0.0-3.0-10.0-1.0","56ac1289f209e0000cdabbe6","E1","batch5","","5212","","","tol_toboard","","","","","","","","","tol_peg_3","5212","5212","0","[[1,2,0],[0,0],[3]]","1","[[1,3,0],[2,0],[0]]","0","0","","","","","","3","",""
"","","","","","single-stim-button","203","732335","0.0-3.0-10.1-0.1","56ac1289f209e0000cdabbe6","E1","batch5","","939","","","tol_tohand","","","","","","","","","tol_peg_1","939","939","0","[[1,0,0],[0,0],[3]]","2","[[1,3,0],[2,0],[0]]","0","0","","","","","","3","",""
"","","","","","single-stim-button","204","733297","0.0-3.0-10.1-1.1","56ac1289f209e0000cdabbe6","E1","batch5","","961","","","tol_toboard","","","","","","","","","tol_peg_2","961","961","0","[[1,0,0],[2,0],[3]]","2","[[1,3,0],[2,0],[0]]","0","0","","","","","","3","",""
"","","","","","single-stim-button","205","734381","0.0-3.0-10.2-0.2","56ac1289f209e0000cdabbe6","E1","batch5","","1083","","","tol_tohand","","","","","","","","","tol_peg_3","1083","1083","0","[[1,0,0],[2,0],[0]]","3","[[1,3,0],[2,0],[0]]","0","0","","","","","","3","",""
"","","","","","single-stim-button","206","735449","0.0-3.0-10.2-1.2","56ac1289f209e0000cdabbe6","E1","batch5","","1067","","","tol_toboard","","","","","","","","","tol_peg_1","1067","1067","0","[[1,3,0],[2,0],[0]]","3","[[1,3,0],[2,0],[0]]","0","0","","","","","","3","",""
"","","","","","poldrack-single-stim","207","736450","0.0-3.0-11.0","56ac1289f209e0000cdabbe6","E1","batch5","","-1","","","tol_feedback","true","","","","","","","","","1000","1000","500","","","","","","-1","none","true","9056","11078","","",""
"","","","","","html-button-response","208","737759","0.0-3.0-12.0","56ac1289f209e0000cdabbe6","E1","batch5","","1308.1000001430511","<div class = centerbox><p class = center-block-text>problem <strong>2</strong> out of 25 problems</p></div>","0","tol_trial_num","","","","","","","","","","","","","","","","","","","","","","","","",""
"","","","","","single-stim-button","209","741238","0.0-3.0-13.0-0.0","56ac1289f209e0000cdabbe6","E1","batch5","","3477","","","tol_tohand","","","","","","","","","tol_peg_1","3477","3477","0","[[1,0,0],[3,0],[0]]","1","[[2,1,3],[0,0],[0]]","1","0","","","","","","5","",""
"","","","","","single-stim-button","210","750722","0.0-3.0-13.0-1.0","56ac1289f209e0000cdabbe6","E1","batch5","","9483","","","tol_toboard","","","","","","","","","tol_peg_3","9483","9483","0","[[1,0,0],[3,0],[2]]","1","[[2,1,3],[0,0],[0]]","1","0","","","","","","5","",""
"","","","","","single-stim-button","211","752598","0.0-3.0-13.1-0.1","56ac1289f209e0000cdabbe6","E1","batch5","","1876","","","tol_tohand","","","","","","","","","tol_peg_1","1876","1876","0","[[0,0,0],[3,0],[2]]","2","[[2,1,3],[0,0],[0]]","1","0","","","","","","5","",""
"","","","","","single-stim-button","212","753492","0.0-3.0-13.1-1.1","56ac1289f209e0000cdabbe6","E1","batch5","","893","","","tol_toboard","","","","","","","","","tol_peg_2","893","893","0","[[0,0,0],[3,1],[2]]","2","[[2,1,3],[0,0],[0]]","1","0","","","","","","5","",""
"","","","","","single-stim-button","213","754218","0.0-3.0-13.2-0.2","56ac1289f209e0000cdabbe6","E1","batch5","","725","","","tol_tohand","","","","","","","","","tol_peg_3","725","725","0","[[0,0,0],[3,1],[0]]","3","[[2,1,3],[0,0],[0]]","1","0","","","","","","5","",""
"","","","","","single-stim-button","214","755382","0.0-3.0-13.2-1.2","56ac1289f209e0000cdabbe6","E1","batch5","","1163","","","tol_toboard","","","","","","","","","tol_peg_1","1163","1163","0","[[2,0,0],[3,1],[0]]","3","[[2,1,3],[0,0],[0]]","1","0","","","","","","5","",""
"","","","","","single-stim-button","215","756332","0.0-3.0-13.3-0.3","56ac1289f209e0000cdabbe6","E1","batch5","","949","","","tol_tohand","","","","","","","","","tol_peg_2","949","949","0","[[2,0,0],[3,0],[0]]","4","[[2,1,3],[0,0],[0]]","1","0","","","","","","5","",""
"","","","","","single-stim-button","216","757226","0.0-3.0-13.3-1.3","56ac1289f209e0000cdabbe6","E1","batch5","","893","","","tol_toboard","","","","","","","","","tol_peg_1","893","893","0","[[2,1,0],[3,0],[0]]","4","[[2,1,3],[0,0],[0]]","1","0","","","","","","5","",""
"","","","","","single-stim-button","217","758026","0.0-3.0-13.4-0.4","56ac1289f209e0000cdabbe6","E1","batch5","","799","","","tol_tohand","","","","","","","","","tol_peg_2","799","799","0","[[2,1,0],[0,0],[0]]","5","[[2,1,3],[0,0],[0]]","1","0","","","","","","5","",""
"","","","","","single-stim-button","218","759262","0.0-3.0-13.4-1.4","56ac1289f209e0000cdabbe6","E1","batch5","","1235","","","tol_toboard","","","","","","","","","tol_peg_1","1235","1235","0","[[2,1,3],[0,0],[0]]","5","[[2,1,3],[0,0],[0]]","1","0","","","","","","5","",""
"","","","","","poldrack-single-stim","219","760264","0.0-3.0-14.0","56ac1289f209e0000cdabbe6","E1","batch5","","-1","","","tol_feedback","true","","","","","","","","","1000","1000","500","","","","","","-1","none","true","3477","7826","","",""
"","","","","","html-button-response","220","761373","0.0-3.0-15.0","56ac1289f209e0000cdabbe6","E1","batch5","","1109.2000000476837","<div class = centerbox><p class = center-block-text>problem <strong>3</strong> out of 25 problems</p></div>","0","tol_trial_num","","","","","","","","","","","","","","","","","","","","","","","","",""
"","","","","","single-stim-button","221","764170","0.0-3.0-16.0-0.0","56ac1289f209e0000cdabbe6","E1","batch5","","2795","","","tol_tohand","","","","","","","","","tol_peg_1","2795","2795","0","[[2,0,0],[0,0],[1]]","1","[[1,2,0],[3,0],[0]]","2","0","","","","","","4","",""
"","","","","","single-stim-button","222","767368","0.0-3.0-16.0-1.0","56ac1289f209e0000cdabbe6","E1","batch5","","3197","","","tol_toboard","","","","","","","","","tol_peg_2","3197","3197","0","[[2,0,0],[3,0],[1]]","1","[[1,2,0],[3,0],[0]]","2","0","","","","","","4","",""
"","","","","","single-stim-button","223","769142","0.0-3.0-16.1-0.1","56ac1289f209e0000cdabbe6","E1","batch5","","1773","","","tol_tohand","","","","","","","","","tol_peg_1","1773","1773","0","[[0,0,0],[3,0],[1]]","2","[[1,2,0],[3,0],[0]]","2","0","","","","","","4","",""
"","","","","","single-stim-button","224","770464","0.0-3.0-16.1-1.1","56ac1289f209e0000cdabbe6","E1","batch5","","1321","","","tol_toboard","","","","","","","","","tol_peg_2","1321","1321","0","[[0,0,0],[3,2],[1]]","2","[[1,2,0],[3,0],[0]]","2","0","","","","","","4","",""
"","","","","","single-stim-button","225","771388","0.0-3.0-16.2-0.2","56ac1289f209e0000cdabbe6","E1","batch5","","923","","","tol_tohand","","","","","","","","","tol_peg_3","923","923","0","[[0,0,0],[3,2],[0]]","3","[[1,2,0],[3,0],[0]]","2","0","","","","","","4","",""
"","","","","","single-stim-button","226","772434","0.0-3.0-16.2-1.2","56ac1289f209e0000cdabbe6","E1","batch5","","1045","","","tol_toboard","","","","","","","","","tol_peg_1","1045","1045","0","[[1,0,0],[3,2],[0]]","3","[[1,2,0],[3,0],[0]]","2","0","","","","","","4","",""
"","","","","","single-stim-button","227","773284","0.0-3.0-16.3-0.3","56ac1289f209e0000cdabbe6","E1","batch5","","849","","","tol_tohand","","","","","","","","","tol_peg_2","849","849","0","[[1,0,0],[3,0],[0]]","4","[[1,2,0],[3,0],[0]]","2","0","","","","","","4","",""
"","","","","","single-stim-button","228","774091","0.0-3.0-16.3-1.3","56ac1289f209e0000cdabbe6","E1","batch5","","807","","","tol_toboard","","","","","","","","","tol_peg_1","807","807","0","[[1,2,0],[3,0],[0]]","4","[[1,2,0],[3,0],[0]]","2","0","","","","","","4","",""
"","","","","","poldrack-single-stim","229","775105","0.0-3.0-17.0","56ac1289f209e0000cdabbe6","E1","batch5","","-1","","","tol_feedback","true","","","","","","","","","1000","1000","500","","","","","","-1","none","true","2795","6340","","",""
"","","","","","html-button-response","230","776281","0.0-3.0-18.0","56ac1289f209e0000cdabbe6","E1","batch5","","1175.2999999523163","<div class = centerbox><p class = center-block-text>problem <strong>4</strong> out of 25 problems</p></div>","0","tol_trial_num","","","","","","","","","","","","","","","","","","","","","","","","",""
"","","","","","single-stim-button","231","782554","0.0-3.0-19.0-0.0","56ac1289f209e0000cdabbe6","E1","batch5","","6271","","","tol_tohand","","","","","","","","","tol_peg_2","6271","6271","0","[[3,0,0],[2,0],[0]]","1","[[3,0,0],[1,0],[2]]","3","0","","","","","","3","",""
"","","","","","single-stim-button","232","783652","0.0-3.0-19.0-1.0","56ac1289f209e0000cdabbe6","E1","batch5","","1097","","","tol_toboard","","","","","","","","","tol_peg_1","1097","1097","0","[[3,1,0],[2,0],[0]]","1","[[3,0,0],[1,0],[2]]","3","0","","","","","","3","",""
"","","","","","single-stim-button","233","784420","0.0-3.0-19.1-0.1","56ac1289f209e0000cdabbe6","E1","batch5","","767","","","tol_tohand","","","","","","","","","tol_peg_2","767","767","0","[[3,1,0],[0,0],[0]]","2","[[3,0,0],[1,0],[2]]","3","0","","","","","","3","",""
"","","","","","single-stim-button","234","785452","0.0-3.0-19.1-1.1","56ac1289f209e0000cdabbe6","E1","batch5","","1031","","","tol_toboard","","","","","","","","","tol_peg_3","1031","1031","0","[[3,1,0],[0,0],[2]]","2","[[3,0,0],[1,0],[2]]","3","0","","","","","","3","",""
"","","","","","single-stim-button","235","786280","0.0-3.0-19.2-0.2","56ac1289f209e0000cdabbe6","E1","batch5","","827","","","tol_tohand","","","","","","","","","tol_peg_1","827","827","0","[[3,0,0],[0,0],[2]]","3","[[3,0,0],[1,0],[2]]","3","0","","","","","","3","",""
"","","","","","single-stim-button","236","787126","0.0-3.0-19.2-1.2","56ac1289f209e0000cdabbe6","E1","batch5","","845","","","tol_toboard","","","","","","","","","tol_peg_2","845","845","0","[[3,0,0],[1,0],[2]]","3","[[3,0,0],[1,0],[2]]","3","0","","","","","","3","",""
"","","","","","poldrack-single-stim","237","788135","0.0-3.0-20.0","56ac1289f209e0000cdabbe6","E1","batch5","","-1","","","tol_feedback","true","","","","","","","","","1000","1000","500","","","","","","-1","none","true","6271","7865","","",""
"","","","","","html-button-response","238","789173","0.0-3.0-21.0","56ac1289f209e0000cdabbe6","E1","batch5","","1037.5","<div class = centerbox><p class = center-block-text>problem <strong>5</strong> out of 25 problems</p></div>","0","tol_trial_num","","","","","","","","","","","","","","","","","","","","","","","","",""
"","","","","","single-stim-button","239","812068","0.0-3.0-22.0-0.0","56ac1289f209e0000cdabbe6","E1","batch5","","22893","","","tol_tohand","","","","","","","","","tol_peg_3","22893","22893","0","[[1,0,0],[2,0],[0]]","1","[[0,0,0],[1,2],[3]]","4","0","","","","","","7","",""
"","","","","","single-stim-button","240","813318","0.0-3.0-22.0-1.0","56ac1289f209e0000cdabbe6","E1","batch5","","1249","","","tol_toboard","","","","","","","","","tol_peg_1","1249","1249","0","[[1,3,0],[2,0],[0]]","1","[[0,0,0],[1,2],[3]]","4","0","","","","","","7","",""
"","","","","","single-stim-button","241","814188","0.0-3.0-22.1-0.1","56ac1289f209e0000cdabbe6","E1","batch5","","869","","","tol_tohand","","","","","","","","","tol_peg_2","869","869","0","[[1,3,0],[0,0],[0]]","2","[[0,0,0],[1,2],[3]]","4","0","","","","","","7","",""
"","","","","","single-stim-button","242","815182","0.0-3.0-22.1-1.1","56ac1289f209e0000cdabbe6","E1","batch5","","993","","","tol_toboard","","","","","","","","","tol_peg_3","993","993","0","[[1,3,0],[0,0],[2]]","2","[[0,0,0],[1,2],[3]]","4","0","","","","","","7","",""
"","","","","","single-stim-button","243","819342","0.0-3.0-22.2-0.2","56ac1289f209e0000cdabbe6","E1","batch5","","4159","","","tol_tohand","","","","","","","","","tol_peg_1","4159","4159","0","[[1,0,0],[0,0],[2]]","3","[[0,0,0],[1,2],[3]]","4","0","","","","","","7","",""
"","","","","","single-stim-button","244","822488","0.0-3.0-22.2-1.2","56ac1289f209e0000cdabbe6","E1","batch5","","3145","","","tol_toboard","","","","","","","","","tol_peg_1","3145","3145","0","[[1,3,0],[0,0],[2]]","3","[[0,0,0],[1,2],[3]]","4","0","","","","","","7","",""
"","","","","","single-stim-button","245","850200","0.0-3.0-22.3-0.3","56ac1289f209e0000cdabbe6","E1","batch5","","27711","","","tol_tohand","","","","","","","","","tol_peg_3","27711","27711","0","[[1,3,0],[0,0],[0]]","4","[[0,0,0],[1,2],[3]]","4","0","","","","","","7","",""
"","","","","","single-stim-button","246","851076","0.0-3.0-22.3-1.3","56ac1289f209e0000cdabbe6","E1","batch5","","875","","","tol_toboard","","","","","","","","","tol_peg_2","875","875","0","[[1,3,0],[2,0],[0]]","4","[[0,0,0],[1,2],[3]]","4","0","","","","","","7","",""
"","","","","","single-stim-button","247","852600","0.0-3.0-22.4-0.4","56ac1289f209e0000cdabbe6","E1","batch5","","1523","","","tol_tohand","","","","","","","","","tol_peg_1","1523","1523","0","[[1,0,0],[2,0],[0]]","5","[[0,0,0],[1,2],[3]]","4","0","","","","","","7","",""
"","","","","","single-stim-button","248","853514","0.0-3.0-22.4-1.4","56ac1289f209e0000cdabbe6","E1","batch5","","913","","","tol_toboard","","","","","","","","","tol_peg_3","913","913","0","[[1,0,0],[2,0],[3]]","5","[[0,0,0],[1,2],[3]]","4","0","","","","","","7","",""
"","","","","","single-stim-button","249","854360","0.0-3.0-22.5-0.5","56ac1289f209e0000cdabbe6","E1","batch5","","845","","","tol_tohand","","","","","","","","","tol_peg_1","845","845","0","[[0,0,0],[2,0],[3]]","6","[[0,0,0],[1,2],[3]]","4","0","","","","","","7","",""
"","","","","","single-stim-button","250","855548","0.0-3.0-22.5-1.5","56ac1289f209e0000cdabbe6","E1","batch5","","1188","","","tol_toboard","","","","","","","","","tol_peg_2","1188","1188","0","[[0,0,0],[2,1],[3]]","6","[[0,0,0],[1,2],[3]]","4","0","","","","","","7","",""
"","","","","","single-stim-button","251","857482","0.0-3.0-22.6-0.6","56ac1289f209e0000cdabbe6","E1","batch5","","1932","","","tol_tohand","","","","","","","","","tol_peg_3","1932","1932","0","[[0,0,0],[2,1],[0]]","7","[[0,0,0],[1,2],[3]]","4","0","","","","","","7","",""
"","","","","","single-stim-button","252","858814","0.0-3.0-22.6-1.6","56ac1289f209e0000cdabbe6","E1","batch5","","1331","","","tol_toboard","","","","","","","","","tol_peg_1","1331","1331","0","[[3,0,0],[2,1],[0]]","7","[[0,0,0],[1,2],[3]]","4","0","","","","","","7","",""
"","","","","","single-stim-button","253","862967","0.0-3.0-22.7-0.7","56ac1289f209e0000cdabbe6","E1","batch5","","4153","","","tol_tohand","","","","","","","","","tol_peg_2","4153","4153","0","[[3,0,0],[2,0],[0]]","8","[[0,0,0],[1,2],[3]]","4","0","","","","","","7","",""
"","","","","","single-stim-button","254","864517","0.0-3.0-22.7-1.7","56ac1289f209e0000cdabbe6","E1","batch5","","1549","","","tol_toboard","","","","","","","","","tol_peg_3","1549","1549","0","[[3,0,0],[2,0],[1]]","8","[[0,0,0],[1,2],[3]]","4","0","","","","","","7","",""
"","","","","","single-stim-button","255","865367","0.0-3.0-22.8-0.8","56ac1289f209e0000cdabbe6","E1","batch5","","849","","","tol_tohand","","","","","","","","","tol_peg_2","849","849","0","[[3,0,0],[0,0],[1]]","9","[[0,0,0],[1,2],[3]]","4","0","","","","","","7","",""
"","","","","","single-stim-button","256","866172","0.0-3.0-22.8-1.8","56ac1289f209e0000cdabbe6","E1","batch5","","803","","","tol_toboard","","","","","","","","","tol_peg_1","803","803","0","[[3,2,0],[0,0],[1]]","9","[[0,0,0],[1,2],[3]]","4","0","","","","","","7","",""
"","","","","","single-stim-button","257","867128","0.0-3.0-22.9-0.9","56ac1289f209e0000cdabbe6","E1","batch5","","956","","","tol_tohand","","","","","","","","","tol_peg_3","956","956","0","[[3,2,0],[0,0],[0]]","10","[[0,0,0],[1,2],[3]]","4","0","","","","","","7","",""
"","","","","","single-stim-button","258","868018","0.0-3.0-22.9-1.9","56ac1289f209e0000cdabbe6","E1","batch5","","889","","","tol_toboard","","","","","","","","","tol_peg_2","889","889","0","[[3,2,0],[1,0],[0]]","10","[[0,0,0],[1,2],[3]]","4","0","","","","","","7","",""
"","","","","","single-stim-button","259","869109","0.0-3.0-22.10-0.10","56ac1289f209e0000cdabbe6","E1","batch5","","1091","","","tol_tohand","","","","","","","","","tol_peg_1","1091","1091","0","[[3,0,0],[1,0],[0]]","11","[[0,0,0],[1,2],[3]]","4","0","","","","","","7","",""
"","","","","","single-stim-button","260","869874","0.0-3.0-22.10-1.10","56ac1289f209e0000cdabbe6","E1","batch5","","763","","","tol_toboard","","","","","","","","","tol_peg_2","763","763","0","[[3,0,0],[1,2],[0]]","11","[[0,0,0],[1,2],[3]]","4","0","","","","","","7","",""
"","","","","","single-stim-button","261","870679","0.0-3.0-22.11-0.11","56ac1289f209e0000cdabbe6","E1","batch5","","805","","","tol_tohand","","","","","","","","","tol_peg_1","805","805","0","[[0,0,0],[1,2],[0]]","12","[[0,0,0],[1,2],[3]]","4","0","","","","","","7","",""
"","","","","","single-stim-button","262","871419","0.0-3.0-22.11-1.11","56ac1289f209e0000cdabbe6","E1","batch5","","739","","","tol_toboard","","","","","","","","","tol_peg_3","739","739","0","[[0,0,0],[1,2],[3]]","12","[[0,0,0],[1,2],[3]]","4","0","","","","","","7","",""
"","","","","","poldrack-single-stim","263","872421","0.0-3.0-23.0","56ac1289f209e0000cdabbe6","E1","batch5","","-1","","","tol_feedback","true","","","","","","","","","1000","1000","500","","","","","","-1","none","true","22893","67786","","",""
"","","","","","html-button-response","264","873637","0.0-3.0-24.0","56ac1289f209e0000cdabbe6","E1","batch5","","1215.9000000953674","<div class = centerbox><p class = center-block-text>problem <strong>6</strong> out of 25 problems</p></div>","0","tol_trial_num","","","","","","","","","","","","","","","","","","","","","","","","",""
"","","","","","single-stim-button","265","924955","0.0-3.0-25.0-0.0","56ac1289f209e0000cdabbe6","E1","batch5","","51317","","","tol_tohand","","","","","","","","","tol_peg_2","51317","51317","0","[[0,0,0],[1,0],[3]]","1","[[1,0,0],[2,3],[0]]","5","0","","","","","","6","",""
"","","","","","single-stim-button","266","925870","0.0-3.0-25.0-1.0","56ac1289f209e0000cdabbe6","E1","batch5","","913","","","tol_toboard","","","","","","","","","tol_peg_1","913","913","0","[[2,0,0],[1,0],[3]]","1","[[1,0,0],[2,3],[0]]","5","0","","","","","","6","",""
"","","","","","single-stim-button","267","927209","0.0-3.0-25.1-0.1","56ac1289f209e0000cdabbe6","E1","batch5","","1339","","","tol_tohand","","","","","","","","","tol_peg_3","1339","1339","0","[[2,0,0],[1,0],[0]]","2","[[1,0,0],[2,3],[0]]","5","0","","","","","","6","",""
"","","","","","single-stim-button","268","928741","0.0-3.0-25.1-1.1","56ac1289f209e0000cdabbe6","E1","batch5","","1531","","","tol_toboard","","","","","","","","","tol_peg_2","1531","1531","0","[[2,0,0],[1,3],[0]]","2","[[1,0,0],[2,3],[0]]","5","0","","","","","","6","",""
"","","","","","single-stim-button","269","939661","0.0-3.0-25.2-0.2","56ac1289f209e0000cdabbe6","E1","batch5","","10919","","","tol_tohand","","","","","","","","","tol_peg_2","10919","10919","0","[[2,0,0],[1,0],[0]]","3","[[1,0,0],[2,3],[0]]","5","0","","","","","","6","",""
"","","","","","single-stim-button","270","940527","0.0-3.0-25.2-1.2","56ac1289f209e0000cdabbe6","E1","batch5","","865","","","tol_toboard","","","","","","","","","tol_peg_1","865","865","0","[[2,3,0],[1,0],[0]]","3","[[1,0,0],[2,3],[0]]","5","0","","","","","","6","",""
"","","","","","single-stim-button","271","941391","0.0-3.0-25.3-0.3","56ac1289f209e0000cdabbe6","E1","batch5","","863","","","tol_tohand","","","","","","","","","tol_peg_2","863","863","0","[[2,3,0],[0,0],[0]]","4","[[1,0,0],[2,3],[0]]","5","0","","","","","","6","",""
"","","","","","single-stim-button","272","942343","0.0-3.0-25.3-1.3","56ac1289f209e0000cdabbe6","E1","batch5","","951","","","tol_toboard","","","","","","","","","tol_peg_3","951","951","0","[[2,3,0],[0,0],[1]]","4","[[1,0,0],[2,3],[0]]","5","0","","","","","","6","",""
"","","","","","single-stim-button","273","944853","0.0-3.0-25.4-0.4","56ac1289f209e0000cdabbe6","E1","batch5","","2509","","","tol_tohand","","","","","","","","","tol_peg_1","2509","2509","0","[[2,0,0],[0,0],[1]]","5","[[1,0,0],[2,3],[0]]","5","0","","","","","","6","",""
"","","","","","single-stim-button","274","949389","0.0-3.0-25.4-1.4","56ac1289f209e0000cdabbe6","E1","batch5","","4536","","","tol_toboard","","","","","","","","","tol_peg_2","4536","4536","0","[[2,0,0],[3,0],[1]]","5","[[1,0,0],[2,3],[0]]","5","0","","","","","","6","",""
"","","","","","single-stim-button","275","950665","0.0-3.0-25.5-0.5","56ac1289f209e0000cdabbe6","E1","batch5","","1275","","","tol_tohand","","","","","","","","","tol_peg_1","1275","1275","0","[[0,0,0],[3,0],[1]]","6","[[1,0,0],[2,3],[0]]","5","0","","","","","","6","",""
"","","","","","single-stim-button","276","951513","0.0-3.0-25.5-1.5","56ac1289f209e0000cdabbe6","E1","batch5","","847","","","tol_toboard","","","","","","","","","tol_peg_2","847","847","0","[[0,0,0],[3,2],[1]]","6","[[1,0,0],[2,3],[0]]","5","0","","","","","","6","",""
"","","","","","single-stim-button","277","952327","0.0-3.0-25.6-0.6","56ac1289f209e0000cdabbe6","E1","batch5","","813","","","tol_tohand","","","","","","","","","tol_peg_3","813","813","0","[[0,0,0],[3,2],[0]]","7","[[1,0,0],[2,3],[0]]","5","0","","","","","","6","",""
"","","","","","single-stim-button","278","953367","0.0-3.0-25.6-1.6","56ac1289f209e0000cdabbe6","E1","batch5","","1039","","","tol_toboard","","","","","","","","","tol_peg_1","1039","1039","0","[[1,0,0],[3,2],[0]]","7","[[1,0,0],[2,3],[0]]","5","0","","","","","","6","",""
"","","","","","single-stim-button","279","955878","0.0-3.0-25.7-0.7","56ac1289f209e0000cdabbe6","E1","batch5","","2509","","","tol_tohand","","","","","","","","","tol_peg_2","2509","2509","0","[[1,0,0],[3,0],[0]]","8","[[1,0,0],[2,3],[0]]","5","0","","","","","","6","",""
"","","","","","single-stim-button","280","957207","0.0-3.0-25.7-1.7","56ac1289f209e0000cdabbe6","E1","batch5","","1329","","","tol_toboard","","","","","","","","","tol_peg_3","1329","1329","0","[[1,0,0],[3,0],[2]]","8","[[1,0,0],[2,3],[0]]","5","0","","","","","","6","",""
"","","","","","single-stim-button","281","957950","0.0-3.0-25.8-0.8","56ac1289f209e0000cdabbe6","E1","batch5","","741","","","tol_tohand","","","","","","","","","tol_peg_2","741","741","0","[[1,0,0],[0,0],[2]]","9","[[1,0,0],[2,3],[0]]","5","0","","","","","","6","",""
"","","","","","single-stim-button","282","958857","0.0-3.0-25.8-1.8","56ac1289f209e0000cdabbe6","E1","batch5","","907","","","tol_toboard","","","","","","","","","tol_peg_1","907","907","0","[[1,3,0],[0,0],[2]]","9","[[1,0,0],[2,3],[0]]","5","0","","","","","","6","",""
"","","","","","single-stim-button","283","959603","0.0-3.0-25.9-0.9","56ac1289f209e0000cdabbe6","E1","batch5","","745","","","tol_tohand","","","","","","","","","tol_peg_3","745","745","0","[[1,3,0],[0,0],[0]]","10","[[1,0,0],[2,3],[0]]","5","0","","","","","","6","",""
"","","","","","single-stim-button","284","960745","0.0-3.0-25.9-1.9","56ac1289f209e0000cdabbe6","E1","batch5","","1141","","","tol_toboard","","","","","","","","","tol_peg_2","1141","1141","0","[[1,3,0],[2,0],[0]]","10","[[1,0,0],[2,3],[0]]","5","0","","","","","","6","",""
"","","","","","single-stim-button","285","961541","0.0-3.0-25.10-0.10","56ac1289f209e0000cdabbe6","E1","batch5","","795","","","tol_tohand","","","","","","","","","tol_peg_1","795","795","0","[[1,0,0],[2,0],[0]]","11","[[1,0,0],[2,3],[0]]","5","0","","","","","","6","",""
"","","","","","single-stim-button","286","962731","0.0-3.0-25.10-1.10","56ac1289f209e0000cdabbe6","E1","batch5","","1189","","","tol_toboard","","","","","","","","","tol_peg_2","1189","1189","0","[[1,0,0],[2,3],[0]]","11","[[1,0,0],[2,3],[0]]","5","0","","","","","","6","",""
"","","","","","poldrack-single-stim","287","963732","0.0-3.0-26.0","56ac1289f209e0000cdabbe6","E1","batch5","","-1","","","tol_feedback","true","","","","","","","","","1000","1000","500","","","","","","-1","none","true","51317","73825","","",""
"","","","","","html-button-response","288","964753","0.0-3.0-27.0","56ac1289f209e0000cdabbe6","E1","batch5","","1020","<div class = centerbox><p class = center-block-text>problem <strong>7</strong> out of 25 problems</p></div>","0","tol_trial_num","","","","","","","","","","","","","","","","","","","","","","","","",""
"","","","","","single-stim-button","289","971454","0.0-3.0-28.0-0.0","56ac1289f209e0000cdabbe6","E1","batch5","","6699","","","tol_tohand","","","","","","","","","tol_peg_3","6699","6699","0","[[2,1,0],[0,0],[0]]","1","[[1,2,0],[3,0],[0]]","6","0","","","","","","5","",""
"","","","","","single-stim-button","290","972666","0.0-3.0-28.0-1.0","56ac1289f209e0000cdabbe6","E1","batch5","","1211","","","tol_toboard","","","","","","","","","tol_peg_2","1211","1211","0","[[2,1,0],[3,0],[0]]","1","[[1,2,0],[3,0],[0]]","6","0","","","","","","5","",""
"","","","","","single-stim-button","291","973881","0.0-3.0-28.1-0.1","56ac1289f209e0000cdabbe6","E1","batch5","","1215","","","tol_tohand","","","","","","","","","tol_peg_1","1215","1215","0","[[2,0,0],[3,0],[0]]","2","[[1,2,0],[3,0],[0]]","6","0","","","","","","5","",""
"","","","","","single-stim-button","292","976715","0.0-3.0-28.1-1.1","56ac1289f209e0000cdabbe6","E1","batch5","","2833","","","tol_toboard","","","","","","","","","tol_peg_2","2833","2833","0","[[2,0,0],[3,1],[0]]","2","[[1,2,0],[3,0],[0]]","6","0","","","","","","5","",""
"","","","","","single-stim-button","293","977427","0.0-3.0-28.2-0.2","56ac1289f209e0000cdabbe6","E1","batch5","","711","","","tol_tohand","","","","","","","","","tol_peg_1","711","711","0","[[0,0,0],[3,1],[0]]","3","[[1,2,0],[3,0],[0]]","6","0","","","","","","5","",""
"","","","","","single-stim-button","294","978385","0.0-3.0-28.2-1.2","56ac1289f209e0000cdabbe6","E1","batch5","","957","","","tol_toboard","","","","","","","","","tol_peg_3","957","957","0","[[0,0,0],[3,1],[2]]","3","[[1,2,0],[3,0],[0]]","6","0","","","","","","5","",""
"","","","","","single-stim-button","295","979455","0.0-3.0-28.3-0.3","56ac1289f209e0000cdabbe6","E1","batch5","","1069","","","tol_tohand","","","","","","","","","tol_peg_2","1069","1069","0","[[0,0,0],[3,0],[2]]","4","[[1,2,0],[3,0],[0]]","6","0","","","","","","5","",""
"","","","","","single-stim-button","296","980271","0.0-3.0-28.3-1.3","56ac1289f209e0000cdabbe6","E1","batch5","","815","","","tol_toboard","","","","","","","","","tol_peg_1","815","815","0","[[1,0,0],[3,0],[2]]","4","[[1,2,0],[3,0],[0]]","6","0","","","","","","5","",""
"","","","","","single-stim-button","297","981213","0.0-3.0-28.4-0.4","56ac1289f209e0000cdabbe6","E1","batch5","","941","","","tol_tohand","","","","","","","","","tol_peg_3","941","941","0","[[1,0,0],[3,0],[0]]","5","[[1,2,0],[3,0],[0]]","6","0","","","","","","5","",""
"","","","","","single-stim-button","298","982026","0.0-3.0-28.4-1.4","56ac1289f209e0000cdabbe6","E1","batch5","","811","","","tol_toboard","","","","","","","","","tol_peg_1","811","811","0","[[1,2,0],[3,0],[0]]","5","[[1,2,0],[3,0],[0]]","6","0","","","","","","5","",""
"","","","","","poldrack-single-stim","299","983030","0.0-3.0-29.0","56ac1289f209e0000cdabbe6","E1","batch5","","-1","","","tol_feedback","true","","","","","","","","","1000","1000","500","","","","","","-1","none","true","6699","10635","","",""
"","","","","","html-button-response","300","984284","0.0-3.0-30.0","56ac1289f209e0000cdabbe6","E1","batch5","","1253","<div class = centerbox><p class = center-block-text>problem <strong>8</strong> out of 25 problems</p></div>","0","tol_trial_num","","","","","","","","","","","","","","","","","","","","","","","","",""
"","","","","","single-stim-button","301","988034","0.0-3.0-31.0-0.0","56ac1289f209e0000cdabbe6","E1","batch5","","3749","","","tol_tohand","","","","","","","","","tol_peg_3","3749","3749","0","[[0,0,0],[2,3],[0]]","1","[[1,2,0],[3,0],[0]]","7","0","","","","","","4","",""
"","","","","","single-stim-button","302","989304","0.0-3.0-31.0-1.0","56ac1289f209e0000cdabbe6","E1","batch5","","1269","","","tol_toboard","","","","","","","","","tol_peg_1","1269","1269","0","[[1,0,0],[2,3],[0]]","1","[[1,2,0],[3,0],[0]]","7","0","","","","","","4","",""
"","","","","","single-stim-button","303","990008","0.0-3.0-31.1-0.1","56ac1289f209e0000cdabbe6","E1","batch5","","703","","","tol_tohand","","","","","","","","","tol_peg_2","703","703","0","[[1,0,0],[2,0],[0]]","2","[[1,2,0],[3,0],[0]]","7","0","","","","","","4","",""
"","","","","","single-stim-button","304","990966","0.0-3.0-31.1-1.1","56ac1289f209e0000cdabbe6","E1","batch5","","957","","","tol_toboard","","","","","","","","","tol_peg_3","957","957","0","[[1,0,0],[2,0],[3]]","2","[[1,2,0],[3,0],[0]]","7","0","","","","","","4","",""
"","","","","","single-stim-button","305","991658","0.0-3.0-31.2-0.2","56ac1289f209e0000cdabbe6","E1","batch5","","691","","","tol_tohand","","","","","","","","","tol_peg_2","691","691","0","[[1,0,0],[0,0],[3]]","3","[[1,2,0],[3,0],[0]]","7","0","","","","","","4","",""
"","","","","","single-stim-button","306","992796","0.0-3.0-31.2-1.2","56ac1289f209e0000cdabbe6","E1","batch5","","1137","","","tol_toboard","","","","","","","","","tol_peg_1","1137","1137","0","[[1,2,0],[0,0],[3]]","3","[[1,2,0],[3,0],[0]]","7","0","","","","","","4","",""
"","","","","","single-stim-button","307","993490","0.0-3.0-31.3-0.3","56ac1289f209e0000cdabbe6","E1","batch5","","694","","","tol_tohand","","","","","","","","","tol_peg_3","694","694","0","[[1,2,0],[0,0],[0]]","4","[[1,2,0],[3,0],[0]]","7","0","","","","","","4","",""
"","","","","","single-stim-button","308","994274","0.0-3.0-31.3-1.3","56ac1289f209e0000cdabbe6","E1","batch5","","783","","","tol_toboard","","","","","","","","","tol_peg_2","783","783","0","[[1,2,0],[3,0],[0]]","4","[[1,2,0],[3,0],[0]]","7","0","","","","","","4","",""
"","","","","","poldrack-single-stim","309","995278","0.0-3.0-32.0","56ac1289f209e0000cdabbe6","E1","batch5","","-1","","","tol_feedback","true","","","","","","","","","1000","1000","500","","","","","","-1","none","true","3749","5837","","",""
"","","","","","html-button-response","310","996665","0.0-3.0-33.0","56ac1289f209e0000cdabbe6","E1","batch5","","1386.7999999523163","<div class = centerbox><p class = center-block-text>problem <strong>9</strong> out of 25 problems</p></div>","0","tol_trial_num","","","","","","","","","","","","","","","","","","","","","","","","",""
"","","","","","single-stim-button","311","1016028","0.0-3.0-34.0-0.0","56ac1289f209e0000cdabbe6","E1","batch5","","19361","","","tol_tohand","","","","","","","","","tol_peg_3","19361","19361","0","[[3,2,0],[0,0],[0]]","1","[[2,1,0],[3,0],[0]]","8","0","","","","","","6","",""
"","","","","","single-stim-button","312","1016800","0.0-3.0-34.0-1.0","56ac1289f209e0000cdabbe6","E1","batch5","","771","","","tol_toboard","","","","","","","","","tol_peg_2","771","771","0","[[3,2,0],[1,0],[0]]","1","[[2,1,0],[3,0],[0]]","8","0","","","","","","6","",""
"","","","","","single-stim-button","313","1017520","0.0-3.0-34.1-0.1","56ac1289f209e0000cdabbe6","E1","batch5","","719","","","tol_tohand","","","","","","","","","tol_peg_1","719","719","0","[[3,0,0],[1,0],[0]]","2","[[2,1,0],[3,0],[0]]","8","0","","","","","","6","",""
"","","","","","single-stim-button","314","1020154","0.0-3.0-34.1-1.1","56ac1289f209e0000cdabbe6","E1","batch5","","2633","","","tol_toboard","","","","","","","","","tol_peg_3","2633","2633","0","[[3,0,0],[1,0],[2]]","2","[[2,1,0],[3,0],[0]]","8","0","","","","","","6","",""
"","","","","","single-stim-button","315","1022034","0.0-3.0-34.2-0.2","56ac1289f209e0000cdabbe6","E1","batch5","","1879","","","tol_tohand","","","","","","","","","tol_peg_1","1879","1879","0","[[0,0,0],[1,0],[2]]","3","[[2,1,0],[3,0],[0]]","8","0","","","","","","6","",""
"","","","","","single-stim-button","316","1022870","0.0-3.0-34.2-1.2","56ac1289f209e0000cdabbe6","E1","batch5","","835","","","tol_toboard","","","","","","","","","tol_peg_2","835","835","0","[[0,0,0],[1,3],[2]]","3","[[2,1,0],[3,0],[0]]","8","0","","","","","","6","",""
"","","","","","single-stim-button","317","1023496","0.0-3.0-34.3-0.3","56ac1289f209e0000cdabbe6","E1","batch5","","625","","","tol_tohand","","","","","","","","","tol_peg_3","625","625","0","[[0,0,0],[1,3],[0]]","4","[[2,1,0],[3,0],[0]]","8","0","","","","","","6","",""
"","","","","","single-stim-button","318","1024460","0.0-3.0-34.3-1.3","56ac1289f209e0000cdabbe6","E1","batch5","","963","","","tol_toboard","","","","","","","","","tol_peg_1","963","963","0","[[2,0,0],[1,3],[0]]","4","[[2,1,0],[3,0],[0]]","8","0","","","","","","6","",""
"","","","","","single-stim-button","319","1025550","0.0-3.0-34.4-0.4","56ac1289f209e0000cdabbe6","E1","batch5","","1089","","","tol_tohand","","","","","","","","","tol_peg_2","1089","1089","0","[[2,0,0],[1,0],[0]]","5","[[2,1,0],[3,0],[0]]","8","0","","","","","","6","",""
"","","","","","single-stim-button","320","1026606","0.0-3.0-34.4-1.4","56ac1289f209e0000cdabbe6","E1","batch5","","1055","","","tol_toboard","","","","","","","","","tol_peg_3","1055","1055","0","[[2,0,0],[1,0],[3]]","5","[[2,1,0],[3,0],[0]]","8","0","","","","","","6","",""
"","","","","","single-stim-button","321","1027175","0.0-3.0-34.5-0.5","56ac1289f209e0000cdabbe6","E1","batch5","","569","","","tol_tohand","","","","","","","","","tol_peg_2","569","569","0","[[2,0,0],[0,0],[3]]","6","[[2,1,0],[3,0],[0]]","8","0","","","","","","6","",""
"","","","","","single-stim-button","322","1027984","0.0-3.0-34.5-1.5","56ac1289f209e0000cdabbe6","E1","batch5","","807","","","tol_toboard","","","","","","","","","tol_peg_1","807","807","0","[[2,1,0],[0,0],[3]]","6","[[2,1,0],[3,0],[0]]","8","0","","","","","","6","",""
"","","","","","single-stim-button","323","1028679","0.0-3.0-34.6-0.6","56ac1289f209e0000cdabbe6","E1","batch5","","695","","","tol_tohand","","","","","","","","","tol_peg_3","695","695","0","[[2,1,0],[0,0],[0]]","7","[[2,1,0],[3,0],[0]]","8","0","","","","","","6","",""
"","","","","","single-stim-button","324","1029204","0.0-3.0-34.6-1.6","56ac1289f209e0000cdabbe6","E1","batch5","","523","","","tol_toboard","","","","","","","","","tol_peg_2","523","523","0","[[2,1,0],[3,0],[0]]","7","[[2,1,0],[3,0],[0]]","8","0","","","","","","6","",""
"","","","","","poldrack-single-stim","325","1030205","0.0-3.0-35.0","56ac1289f209e0000cdabbe6","E1","batch5","","-1","","","tol_feedback","true","","","","","","","","","1000","1000","500","","","","","","-1","none","true","19361","24937","","",""
"","","","","","html-button-response","326","1031217","0.0-3.0-36.0","56ac1289f209e0000cdabbe6","E1","batch5","","1011.7999999523163","<div class = centerbox><p class = center-block-text>problem <strong>10</strong> out of 25 problems</p></div>","0","tol_trial_num","","","","","","","","","","","","","","","","","","","","","","","","",""
"","","","","","single-stim-button","327","1039594","0.0-3.0-37.0-0.0","56ac1289f209e0000cdabbe6","E1","batch5","","8376","","","tol_tohand","","","","","","","","","tol_peg_2","8376","8376","0","[[3,0,0],[0,0],[2]]","1","[[3,0,0],[2,1],[0]]","9","0","","","","","","3","",""
"","","","","","single-stim-button","328","1040488","0.0-3.0-37.0-1.0","56ac1289f209e0000cdabbe6","E1","batch5","","893","","","tol_toboard","","","","","","","","","tol_peg_1","893","893","0","[[3,1,0],[0,0],[2]]","1","[[3,0,0],[2,1],[0]]","9","0","","","","","","3","",""
"","","","","","single-stim-button","329","1041207","0.0-3.0-37.1-0.1","56ac1289f209e0000cdabbe6","E1","batch5","","719","","","tol_tohand","","","","","","","","","tol_peg_3","719","719","0","[[3,1,0],[0,0],[0]]","2","[[3,0,0],[2,1],[0]]","9","0","","","","","","3","",""
"","","","","","single-stim-button","330","1041764","0.0-3.0-37.1-1.1","56ac1289f209e0000cdabbe6","E1","batch5","","555","","","tol_toboard","","","","","","","","","tol_peg_2","555","555","0","[[3,1,0],[2,0],[0]]","2","[[3,0,0],[2,1],[0]]","9","0","","","","","","3","",""
"","","","","","single-stim-button","331","1042680","0.0-3.0-37.2-0.2","56ac1289f209e0000cdabbe6","E1","batch5","","915","","","tol_tohand","","","","","","","","","tol_peg_1","915","915","0","[[3,0,0],[2,0],[0]]","3","[[3,0,0],[2,1],[0]]","9","0","","","","","","3","",""
"","","","","","single-stim-button","332","1043702","0.0-3.0-37.2-1.2","56ac1289f209e0000cdabbe6","E1","batch5","","1021","","","tol_toboard","","","","","","","","","tol_peg_2","1021","1021","0","[[3,0,0],[2,1],[0]]","3","[[3,0,0],[2,1],[0]]","9","0","","","","","","3","",""
"","","","","","poldrack-single-stim","333","1044703","0.0-3.0-38.0","56ac1289f209e0000cdabbe6","E1","batch5","","-1","","","tol_feedback","true","","","","","","","","","1000","1000","500","","","","","","-1","none","true","8376","10010","","",""
"","","","","","html-button-response","334","1045539","0.0-3.0-39.0","56ac1289f209e0000cdabbe6","E1","batch5","","836.2999999523163","<div class = centerbox><p class = center-block-text>problem <strong>11</strong> out of 25 problems</p></div>","0","tol_trial_num","","","","","","","","","","","","","","","","","","","","","","","","",""
"","","","","","single-stim-button","335","1065500","0.0-3.0-40.0-0.0","56ac1289f209e0000cdabbe6","E1","batch5","","19960","","","tol_tohand","","","","","","","","","tol_peg_1","19960","19960","0","[[1,0,0],[3,0],[0]]","1","[[2,0,0],[1,3],[0]]","10","0","","","","","","6","",""
"","","","","","single-stim-button","336","1066760","0.0-3.0-40.0-1.0","56ac1289f209e0000cdabbe6","E1","batch5","","1259","","","tol_toboard","","","","","","","","","tol_peg_2","1259","1259","0","[[1,0,0],[3,2],[0]]","1","[[2,0,0],[1,3],[0]]","10","0","","","","","","6","",""
"","","","","","single-stim-button","337","1067670","0.0-3.0-40.1-0.1","56ac1289f209e0000cdabbe6","E1","batch5","","909","","","tol_tohand","","","","","","","","","tol_peg_1","909","909","0","[[0,0,0],[3,2],[0]]","2","[[2,0,0],[1,3],[0]]","10","0","","","","","","6","",""
"","","","","","single-stim-button","338","1068814","0.0-3.0-40.1-1.1","56ac1289f209e0000cdabbe6","E1","batch5","","1143","","","tol_toboard","","","","","","","","","tol_peg_3","1143","1143","0","[[0,0,0],[3,2],[1]]","2","[[2,0,0],[1,3],[0]]","10","0","","","","","","6","",""
"","","","","","single-stim-button","339","1069920","0.0-3.0-40.2-0.2","56ac1289f209e0000cdabbe6","E1","batch5","","1105","","","tol_tohand","","","","","","","","","tol_peg_2","1105","1105","0","[[0,0,0],[3,0],[1]]","3","[[2,0,0],[1,3],[0]]","10","0","","","","","","6","",""
"","","","","","single-stim-button","340","1070900","0.0-3.0-40.2-1.2","56ac1289f209e0000cdabbe6","E1","batch5","","979","","","tol_toboard","","","","","","","","","tol_peg_1","979","979","0","[[2,0,0],[3,0],[1]]","3","[[2,0,0],[1,3],[0]]","10","0","","","","","","6","",""
"","","","","","single-stim-button","341","1072514","0.0-3.0-40.3-0.3","56ac1289f209e0000cdabbe6","E1","batch5","","1614","","","tol_tohand","","","","","","","","","tol_peg_2","1614","1614","0","[[2,0,0],[0,0],[1]]","4","[[2,0,0],[1,3],[0]]","10","0","","","","","","6","",""
"","","","","","single-stim-button","342","1073142","0.0-3.0-40.3-1.3","56ac1289f209e0000cdabbe6","E1","batch5","","627","","","tol_toboard","","","","","","","","","tol_peg_1","627","627","0","[[2,3,0],[0,0],[1]]","4","[[2,0,0],[1,3],[0]]","10","0","","","","","","6","",""
"","","","","","single-stim-button","343","1073942","0.0-3.0-40.4-0.4","56ac1289f209e0000cdabbe6","E1","batch5","","799","","","tol_tohand","","","","","","","","","tol_peg_3","799","799","0","[[2,3,0],[0,0],[0]]","5","[[2,0,0],[1,3],[0]]","10","0","","","","","","6","",""
"","","","","","single-stim-button","344","1074582","0.0-3.0-40.4-1.4","56ac1289f209e0000cdabbe6","E1","batch5","","639","","","tol_toboard","","","","","","","","","tol_peg_2","639","639","0","[[2,3,0],[1,0],[0]]","5","[[2,0,0],[1,3],[0]]","10","0","","","","","","6","",""
"","","","","","single-stim-button","345","1076122","0.0-3.0-40.5-0.5","56ac1289f209e0000cdabbe6","E1","batch5","","1539","","","tol_tohand","","","","","","","","","tol_peg_1","1539","1539","0","[[2,0,0],[1,0],[0]]","6","[[2,0,0],[1,3],[0]]","10","0","","","","","","6","",""
"","","","","","single-stim-button","346","1077048","0.0-3.0-40.5-1.5","56ac1289f209e0000cdabbe6","E1","batch5","","925","","","tol_toboard","","","","","","","","","tol_peg_2","925","925","0","[[2,0,0],[1,3],[0]]","6","[[2,0,0],[1,3],[0]]","10","0","","","","","","6","",""
"","","","","","poldrack-single-stim","347","1078049","0.0-3.0-41.0","56ac1289f209e0000cdabbe6","E1","batch5","","-1","","","tol_feedback","true","","","","","","","","","1000","1000","500","","","","","","-1","none","true","19960","25926","","",""
"","","","","","html-button-response","348","1079136","0.0-3.0-42.0","56ac1289f209e0000cdabbe6","E1","batch5","","1086.0999999046326","<div class = centerbox><p class = center-block-text>problem <strong>12</strong> out of 25 problems</p></div>","0","tol_trial_num","","","","","","","","","","","","","","","","","","","","","","","","",""
