"success","timeout","failed_images","failed_audio","failed_video","trial_type","trial_index","time_elapsed","internal_node_id","subject_id","study_id","session_id","view_history","rt","task","stimulus","response","correct","mouse_click","stim_duration","block_duration","timing_post_trial","current_position","tol_num_moves_made","tol_target","tol_problem_id","tol_rt","key_press","possible_responses","tol_correct","preplanning","tol_rt_per_trial","tol_min_moves","item","answer","spm_correct","spm_rt","fiar_detect_rt","fiar_detect_correct","total_correct_fiar_detect","post_trial_gap","choices"
"true","false","[]","[]","[]","preload","0","8141","0.0-0.0","56c8915edfea6c000cb29c98","B2","batch2","","","","","","","","","","","","","","","","","","","","","","","","","","","","","",""
"true","","","","","fullscreen","1","17689","0.0-1.0-0.0","56c8915edfea6c000cb29c98","B2","batch2","","","","","","","","","","","","","","","","","","","","","","","","","","","","","",""
"true","","","","","fullscreen","2","20942","0.0-2.0-0.0","56c8915edfea6c000cb29c98","B2","batch2","","","","","","","","","","","","","","","","","","","","","","","","","","","","","",""
"","","","","","instructions","3","111164","0.0-2.0-1.0-0.0-0.0","56c8915edfea6c000cb29c98","B2","batch2","[{""page_index"":0,""viewing_time"":15451.699999928474},{""page_index"":1,""viewing_time"":9433.400000095367},{""page_index"":2,""viewing_time"":6795.899999976158},{""page_index"":3,""viewing_time"":9696.5},{""page_index"":4,""viewing_time"":18695},{""page_index"":5,""viewing_time"":23536.600000023842},{""page_index"":6,""viewing_time"":6611.399999976158}]","90220.89999997616","tol-instructions","","","","","","","","","","","","","","","","","","","","","","","","","","",""
"","","","","","html-button-response","4","113531","0.0-2.0-1.0-1.0-0.0","56c8915edfea6c000cb29c98","B2","batch2","","2366","tol_enter_quiz","<p class=block-text> Let's answer a few questions <br>","0","","","","","","","","","","","","","","","","","","","","","","","","",""
"","","","","","html-button-response","5","119771","0.0-2.0-1.0-1.0-1.0","56c8915edfea6c000cb29c98","B2","batch2","","6238.600000023842","tol_quiz","<p class = block-text>True or False: You can only move the ball on top of a peg. <br></p>","0","true","","","","","","","","","","","","","","","","","","","","","","","",""
"","","","","","html-button-response","6","121676","0.0-2.0-1.0-1.0-2.0","56c8915edfea6c000cb29c98","B2","batch2","","1903.2000000476837","tol_quiz_feedback","<p class = block-text>Correct! You can only move the ball on top of a peg.</p>","0","","","","","","","","","","","","","","","","","","","","","","","","",""
"","","","","","html-button-response","7","125094","0.0-2.0-1.0-1.0-3.0","56c8915edfea6c000cb29c98","B2","batch2","","3416.399999976158","tol_quiz","<p class = block-text>True or False: You should try to match your board with the target board with fewest moves possible. <br></p>","0","true","","","","","","","","","","","","","","","","","","","","","","","",""
"","","","","","html-button-response","8","125266","0.0-2.0-1.0-1.0-4.0","56c8915edfea6c000cb29c98","B2","batch2","","171.59999990463257","tol_quiz_feedback","<p class = block-text>Correct! </p>","0","","","","","","","","","","","","","","","","","","","","","","","","",""
"","","","","","html-button-response","9","127295","0.0-2.0-2.0","56c8915edfea6c000cb29c98","B2","batch2","","2026.6999999284744","","<p class=block-text> Now that you've understood the game, let's practice a few easier examples before we start!<br> <br>","0","","","","","","","","","","","","","","","","","","","","","","","","",""
"","","","","","single-stim-button","10","137120","0.0-2.0-3.0-0.0","56c8915edfea6c000cb29c98","B2","batch2","","9823","tol_practice","","","","tol_peg_2","9823","9823","0","[[1,2,0],[0,0],[0]]","1","[[1,2,0],[0,0],[3]]","practice","9823","","","","","","","","","","","","","","",""
"","","","","","single-stim-button","11","139519","0.0-2.0-3.0-1.0","56c8915edfea6c000cb29c98","B2","batch2","","2398","tol_practice","","","","tol_peg_3","2398","2398","0","[[1,2,0],[0,0],[3]]","1","[[1,2,0],[0,0],[3]]","practice","2398","","","","","","","","","","","","","","",""
"","","","","","poldrack-single-stim","12","140521","0.0-2.0-4.0","56c8915edfea6c000cb29c98","B2","batch2","","-1","tol_feedback","","","true","","1000","1000","500","","","","","","-1","none","true","","0","","","","","","","","","",""
"","","","","","single-stim-button","13","148666","0.0-2.0-5.0-0.0","56c8915edfea6c000cb29c98","B2","batch2","","8144","tol_practice","","","","tol_peg_1","8144","8144","0","[[1,0,0],[3,0],[0]]","2","[[0,0,0],[3,1],[2]]","practice","8144","","","","","","","","","","","","","","",""
"","","","","","single-stim-button","14","150743","0.0-2.0-5.0-1.0","56c8915edfea6c000cb29c98","B2","batch2","","2076","tol_practice","","","","tol_peg_3","2076","2076","0","[[1,0,0],[3,0],[2]]","2","[[0,0,0],[3,1],[2]]","practice","2076","","","","","","","","","","","","","","",""
"","","","","","single-stim-button","15","157225","0.0-2.0-5.1-0.1","56c8915edfea6c000cb29c98","B2","batch2","","6479","tol_practice","","","","tol_peg_1","6479","6479","0","[[0,0,0],[3,0],[2]]","3","[[0,0,0],[3,1],[2]]","practice","6479","","","","","","","","","","","","","","",""
"","","","","","single-stim-button","16","159539","0.0-2.0-5.1-1.1","56c8915edfea6c000cb29c98","B2","batch2","","2314","tol_practice","","","","tol_peg_2","2314","2314","0","[[0,0,0],[3,1],[2]]","3","[[0,0,0],[3,1],[2]]","practice","2314","","","","","","","","","","","","","","",""
"","","","","","poldrack-single-stim","17","160541","0.0-2.0-6.0","56c8915edfea6c000cb29c98","B2","batch2","","-1","tol_feedback","","","true","","1000","1000","500","","","","","","-1","none","true","","0","","","","","","","","","",""
"","","","","","single-stim-button","18","165396","0.0-2.0-7.0-0.0","56c8915edfea6c000cb29c98","B2","batch2","","4854","tol_practice","","","","tol_peg_2","4854","4854","0","[[1,2,0],[0,0],[0]]","4","[[1,0,0],[2,0],[3]]","practice","4854","","","","","","","","","","","","","","",""
"","","","","","single-stim-button","19","167035","0.0-2.0-7.0-1.0","56c8915edfea6c000cb29c98","B2","batch2","","1638","tol_practice","","","","tol_peg_3","1638","1638","0","[[1,2,0],[0,0],[3]]","4","[[1,0,0],[2,0],[3]]","practice","1638","","","","","","","","","","","","","","",""
"","","","","","single-stim-button","20","168849","0.0-2.0-7.1-0.1","56c8915edfea6c000cb29c98","B2","batch2","","1813","tol_practice","","","","tol_peg_1","1813","1813","0","[[1,0,0],[0,0],[3]]","5","[[1,0,0],[2,0],[3]]","practice","1813","","","","","","","","","","","","","","",""
"","","","","","single-stim-button","21","170338","0.0-2.0-7.1-1.1","56c8915edfea6c000cb29c98","B2","batch2","","1489","tol_practice","","","","tol_peg_2","1489","1489","0","[[1,0,0],[2,0],[3]]","5","[[1,0,0],[2,0],[3]]","practice","1489","","","","","","","","","","","","","","",""
"","","","","","poldrack-single-stim","22","171344","0.0-2.0-8.0","56c8915edfea6c000cb29c98","B2","batch2","","-1","tol_feedback","","","true","","1000","1000","500","","","","","","-1","none","true","","0","","","","","","","","","",""
"","","","","","html-button-response","23","175385","0.0-2.0-9.0","56c8915edfea6c000cb29c98","B2","batch2","","4040.7000000476837","tol_instruction","<div class = centerbox><p class = center-block-text>Great job! You are done with practice trials<br>You are about to start official trials.<br> <br> Problem <strong>1</strong> out of 25 problems</p></div>","0","","","","","","","","","","","","","","","","","","","","","","","","",""
"","","","","","single-stim-button","24","194639","0.0-2.0-10.0-0.0","56c8915edfea6c000cb29c98","B2","batch2","","18252","tol_tohand","","","","tol_peg_2","18252","18252","0","[[1,2,0],[0,0],[0]]","1","[[1,3,0],[2,0],[0]]","0","0","","","","","","3","","","","","","","","",""
"","","","","","single-stim-button","25","196354","0.0-2.0-10.0-1.0","56c8915edfea6c000cb29c98","B2","batch2","","1714","tol_toboard","","","","tol_peg_3","1714","1714","0","[[1,2,0],[0,0],[3]]","1","[[1,3,0],[2,0],[0]]","0","0","","","","","","3","","","","","","","","",""
"","","","","","single-stim-button","26","198441","0.0-2.0-10.1-0.1","56c8915edfea6c000cb29c98","B2","batch2","","2087","tol_tohand","","","","tol_peg_1","2087","2087","0","[[1,0,0],[0,0],[3]]","2","[[1,3,0],[2,0],[0]]","0","0","","","","","","3","","","","","","","","",""
"","","","","","single-stim-button","27","200157","0.0-2.0-10.1-1.1","56c8915edfea6c000cb29c98","B2","batch2","","1714","tol_toboard","","","","tol_peg_2","1714","1714","0","[[1,0,0],[2,0],[3]]","2","[[1,3,0],[2,0],[0]]","0","0","","","","","","3","","","","","","","","",""
"","","","","","single-stim-button","28","202169","0.0-2.0-10.2-0.2","56c8915edfea6c000cb29c98","B2","batch2","","2012","tol_tohand","","","","tol_peg_3","2012","2012","0","[[1,0,0],[2,0],[0]]","3","[[1,3,0],[2,0],[0]]","0","0","","","","","","3","","","","","","","","",""
"","","","","","single-stim-button","29","203473","0.0-2.0-10.2-1.2","56c8915edfea6c000cb29c98","B2","batch2","","1303","tol_toboard","","","","tol_peg_1","1303","1303","0","[[1,3,0],[2,0],[0]]","3","[[1,3,0],[2,0],[0]]","0","0","","","","","","3","","","","","","","","",""
"","","","","","poldrack-single-stim","30","204475","0.0-2.0-11.0","56c8915edfea6c000cb29c98","B2","batch2","","-1","tol_feedback","","","true","","1000","1000","500","","","","","","-1","none","true","18252","22351","","","","","","","","","",""
"","","","","","html-button-response","31","206224","0.0-2.0-12.0","56c8915edfea6c000cb29c98","B2","batch2","","1748.3999999761581","tol_trial_num","<div class = centerbox><p class = center-block-text>problem <strong>2</strong> out of 25 problems</p></div>","0","","","","","","","","","","","","","","","","","","","","","","","","",""
"","","","","","single-stim-button","32","211667","0.0-2.0-13.0-0.0","56c8915edfea6c000cb29c98","B2","batch2","","5441","tol_tohand","","","","tol_peg_1","5441","5441","0","[[1,0,0],[3,0],[0]]","1","[[2,1,3],[0,0],[0]]","1","0","","","","","","5","","","","","","","","",""
"","","","","","single-stim-button","33","223627","0.0-2.0-13.0-1.0","56c8915edfea6c000cb29c98","B2","batch2","","11960","tol_toboard","","","","tol_peg_2","11960","11960","0","[[1,0,0],[3,2],[0]]","1","[[2,1,3],[0,0],[0]]","1","0","","","","","","5","","","","","","","","",""
"","","","","","single-stim-button","34","225066","0.0-2.0-13.1-0.1","56c8915edfea6c000cb29c98","B2","batch2","","1438","tol_tohand","","","","tol_peg_1","1438","1438","0","[[0,0,0],[3,2],[0]]","2","[[2,1,3],[0,0],[0]]","1","0","","","","","","5","","","","","","","","",""
"","","","","","single-stim-button","35","226843","0.0-2.0-13.1-1.1","56c8915edfea6c000cb29c98","B2","batch2","","1776","tol_toboard","","","","tol_peg_3","1776","1776","0","[[0,0,0],[3,2],[1]]","2","[[2,1,3],[0,0],[0]]","1","0","","","","","","5","","","","","","","","",""
"","","","","","single-stim-button","36","229484","0.0-2.0-13.2-0.2","56c8915edfea6c000cb29c98","B2","batch2","","2641","tol_tohand","","","","tol_peg_2","2641","2641","0","[[0,0,0],[3,0],[1]]","3","[[2,1,3],[0,0],[0]]","1","0","","","","","","5","","","","","","","","",""
"","","","","","single-stim-button","37","230834","0.0-2.0-13.2-1.2","56c8915edfea6c000cb29c98","B2","batch2","","1349","tol_toboard","","","","tol_peg_1","1349","1349","0","[[2,0,0],[3,0],[1]]","3","[[2,1,3],[0,0],[0]]","1","0","","","","","","5","","","","","","","","",""
"","","","","","single-stim-button","38","232436","0.0-2.0-13.3-0.3","56c8915edfea6c000cb29c98","B2","batch2","","1602","tol_tohand","","","","tol_peg_3","1602","1602","0","[[2,0,0],[3,0],[0]]","4","[[2,1,3],[0,0],[0]]","1","0","","","","","","5","","","","","","","","",""
"","","","","","single-stim-button","39","233824","0.0-2.0-13.3-1.3","56c8915edfea6c000cb29c98","B2","batch2","","1388","tol_toboard","","","","tol_peg_1","1388","1388","0","[[2,1,0],[3,0],[0]]","4","[[2,1,3],[0,0],[0]]","1","0","","","","","","5","","","","","","","","",""
"","","","","","single-stim-button","40","235051","0.0-2.0-13.4-0.4","56c8915edfea6c000cb29c98","B2","batch2","","1227","tol_tohand","","","","tol_peg_2","1227","1227","0","[[2,1,0],[0,0],[0]]","5","[[2,1,3],[0,0],[0]]","1","0","","","","","","5","","","","","","","","",""
"","","","","","single-stim-button","41","236427","0.0-2.0-13.4-1.4","56c8915edfea6c000cb29c98","B2","batch2","","1375","tol_toboard","","","","tol_peg_1","1375","1375","0","[[2,1,3],[0,0],[0]]","5","[[2,1,3],[0,0],[0]]","1","0","","","","","","5","","","","","","","","",""
"","","","","","poldrack-single-stim","42","237430","0.0-2.0-14.0","56c8915edfea6c000cb29c98","B2","batch2","","-1","tol_feedback","","","true","","1000","1000","500","","","","","","-1","none","true","5441","12349","","","","","","","","","",""
"","","","","","html-button-response","43","238744","0.0-2.0-15.0","56c8915edfea6c000cb29c98","B2","batch2","","1313.6000000238419","tol_trial_num","<div class = centerbox><p class = center-block-text>problem <strong>3</strong> out of 25 problems</p></div>","0","","","","","","","","","","","","","","","","","","","","","","","","",""
"","","","","","single-stim-button","44","242635","0.0-2.0-16.0-0.0","56c8915edfea6c000cb29c98","B2","batch2","","3889","tol_tohand","","","","tol_peg_1","3889","3889","0","[[2,0,0],[0,0],[1]]","1","[[1,2,0],[3,0],[0]]","2","0","","","","","","4","","","","","","","","",""
"","","","","","single-stim-button","45","245431","0.0-2.0-16.0-1.0","56c8915edfea6c000cb29c98","B2","batch2","","2796","tol_toboard","","","","tol_peg_2","2796","2796","0","[[2,0,0],[3,0],[1]]","1","[[1,2,0],[3,0],[0]]","2","0","","","","","","4","","","","","","","","",""
"","","","","","single-stim-button","46","253268","0.0-2.0-16.1-0.1","56c8915edfea6c000cb29c98","B2","batch2","","7836","tol_tohand","","","","tol_peg_1","7836","7836","0","[[0,0,0],[3,0],[1]]","2","[[1,2,0],[3,0],[0]]","2","0","","","","","","4","","","","","","","","",""
"","","","","","single-stim-button","47","254936","0.0-2.0-16.1-1.1","56c8915edfea6c000cb29c98","B2","batch2","","1667","tol_toboard","","","","tol_peg_2","1667","1667","0","[[0,0,0],[3,2],[1]]","2","[[1,2,0],[3,0],[0]]","2","0","","","","","","4","","","","","","","","",""
"","","","","","single-stim-button","48","256262","0.0-2.0-16.2-0.2","56c8915edfea6c000cb29c98","B2","batch2","","1326","tol_tohand","","","","tol_peg_3","1326","1326","0","[[0,0,0],[3,2],[0]]","3","[[1,2,0],[3,0],[0]]","2","0","","","","","","4","","","","","","","","",""
"","","","","","single-stim-button","49","257627","0.0-2.0-16.2-1.2","56c8915edfea6c000cb29c98","B2","batch2","","1364","tol_toboard","","","","tol_peg_1","1364","1364","0","[[1,0,0],[3,2],[0]]","3","[[1,2,0],[3,0],[0]]","2","0","","","","","","4","","","","","","","","",""
"","","","","","single-stim-button","50","258778","0.0-2.0-16.3-0.3","56c8915edfea6c000cb29c98","B2","batch2","","1151","tol_tohand","","","","tol_peg_2","1151","1151","0","[[1,0,0],[3,0],[0]]","4","[[1,2,0],[3,0],[0]]","2","0","","","","","","4","","","","","","","","",""
"","","","","","single-stim-button","51","260202","0.0-2.0-16.3-1.3","56c8915edfea6c000cb29c98","B2","batch2","","1424","tol_toboard","","","","tol_peg_1","1424","1424","0","[[1,2,0],[3,0],[0]]","4","[[1,2,0],[3,0],[0]]","2","0","","","","","","4","","","","","","","","",""
"","","","","","poldrack-single-stim","52","261204","0.0-2.0-17.0","56c8915edfea6c000cb29c98","B2","batch2","","-1","tol_feedback","","","true","","1000","1000","500","","","","","","-1","none","true","3889","14202","","","","","","","","","",""
"","","","","","html-button-response","53","264171","0.0-2.0-18.0","56c8915edfea6c000cb29c98","B2","batch2","","2959.8000000715256","tol_trial_num","<div class = centerbox><p class = center-block-text>problem <strong>4</strong> out of 25 problems</p></div>","0","","","","","","","","","","","","","","","","","","","","","","","","",""
"","","","","","single-stim-button","54","278189","0.0-2.0-19.0-0.0","56c8915edfea6c000cb29c98","B2","batch2","","14017","tol_tohand","","","","tol_peg_2","14017","14017","0","[[3,0,0],[2,0],[0]]","1","[[3,0,0],[1,0],[2]]","3","0","","","","","","3","","","","","","","","",""
"","","","","","single-stim-button","55","280028","0.0-2.0-19.0-1.0","56c8915edfea6c000cb29c98","B2","batch2","","1838","tol_toboard","","","","tol_peg_1","1838","1838","0","[[3,1,0],[2,0],[0]]","1","[[3,0,0],[1,0],[2]]","3","0","","","","","","3","","","","","","","","",""
"","","","","","single-stim-button","56","281290","0.0-2.0-19.1-0.1","56c8915edfea6c000cb29c98","B2","batch2","","1261","tol_tohand","","","","tol_peg_2","1261","1261","0","[[3,1,0],[0,0],[0]]","2","[[3,0,0],[1,0],[2]]","3","0","","","","","","3","","","","","","","","",""
"","","","","","single-stim-button","57","282555","0.0-2.0-19.1-1.1","56c8915edfea6c000cb29c98","B2","batch2","","1263","tol_toboard","","","","tol_peg_3","1263","1263","0","[[3,1,0],[0,0],[2]]","2","[[3,0,0],[1,0],[2]]","3","0","","","","","","3","","","","","","","","",""
"","","","","","single-stim-button","58","284806","0.0-2.0-19.2-0.2","56c8915edfea6c000cb29c98","B2","batch2","","2251","tol_tohand","","","","tol_peg_1","2251","2251","0","[[3,0,0],[0,0],[2]]","3","[[3,0,0],[1,0],[2]]","3","0","","","","","","3","","","","","","","","",""
"","","","","","single-stim-button","59","286283","0.0-2.0-19.2-1.2","56c8915edfea6c000cb29c98","B2","batch2","","1476","tol_toboard","","","","tol_peg_2","1476","1476","0","[[3,0,0],[1,0],[2]]","3","[[3,0,0],[1,0],[2]]","3","0","","","","","","3","","","","","","","","",""
"","","","","","poldrack-single-stim","60","287284","0.0-2.0-20.0","56c8915edfea6c000cb29c98","B2","batch2","","-1","tol_feedback","","","true","","1000","1000","500","","","","","","-1","none","true","14017","17529","","","","","","","","","",""
"","","","","","html-button-response","61","288736","0.0-2.0-21.0","56c8915edfea6c000cb29c98","B2","batch2","","1451.1000000238419","tol_trial_num","<div class = centerbox><p class = center-block-text>problem <strong>5</strong> out of 25 problems</p></div>","0","","","","","","","","","","","","","","","","","","","","","","","","",""
"","","","","","single-stim-button","62","323024","0.0-2.0-22.0-0.0","56c8915edfea6c000cb29c98","B2","batch2","","34287","tol_tohand","","","","tol_peg_3","34287","34287","0","[[1,0,0],[2,0],[0]]","1","[[0,0,0],[1,2],[3]]","4","0","","","","","","7","","","","","","","","",""
"","","","","","single-stim-button","63","324825","0.0-2.0-22.0-1.0","56c8915edfea6c000cb29c98","B2","batch2","","1800","tol_toboard","","","","tol_peg_2","1800","1800","0","[[1,0,0],[2,3],[0]]","1","[[0,0,0],[1,2],[3]]","4","0","","","","","","7","","","","","","","","",""
"","","","","","single-stim-button","64","326315","0.0-2.0-22.1-0.1","56c8915edfea6c000cb29c98","B2","batch2","","1488","tol_tohand","","","","tol_peg_1","1488","1488","0","[[0,0,0],[2,3],[0]]","2","[[0,0,0],[1,2],[3]]","4","0","","","","","","7","","","","","","","","",""
"","","","","","single-stim-button","65","358467","0.0-2.0-22.1-1.1","56c8915edfea6c000cb29c98","B2","batch2","","32152","tol_toboard","","","","tol_peg_3","32152","32152","0","[[0,0,0],[2,3],[1]]","2","[[0,0,0],[1,2],[3]]","4","0","","","","","","7","","","","","","","","",""
"","","","","","single-stim-button","66","361035","0.0-2.0-22.2-0.2","56c8915edfea6c000cb29c98","B2","batch2","","2567","tol_tohand","","","","tol_peg_2","2567","2567","0","[[0,0,0],[2,0],[1]]","3","[[0,0,0],[1,2],[3]]","4","0","","","","","","7","","","","","","","","",""
"","","","","","single-stim-button","67","363096","0.0-2.0-22.2-1.2","56c8915edfea6c000cb29c98","B2","batch2","","2061","tol_toboard","","","","tol_peg_1","2061","2061","0","[[3,0,0],[2,0],[1]]","3","[[0,0,0],[1,2],[3]]","4","0","","","","","","7","","","","","","","","",""
"","","","","","single-stim-button","68","364485","0.0-2.0-22.3-0.3","56c8915edfea6c000cb29c98","B2","batch2","","1388","tol_tohand","","","","tol_peg_2","1388","1388","0","[[3,0,0],[0,0],[1]]","4","[[0,0,0],[1,2],[3]]","4","0","","","","","","7","","","","","","","","",""
"","","","","","single-stim-button","69","366163","0.0-2.0-22.3-1.3","56c8915edfea6c000cb29c98","B2","batch2","","1678","tol_toboard","","","","tol_peg_1","1678","1678","0","[[3,2,0],[0,0],[1]]","4","[[0,0,0],[1,2],[3]]","4","0","","","","","","7","","","","","","","","",""
"","","","","","single-stim-button","70","368377","0.0-2.0-22.4-0.4","56c8915edfea6c000cb29c98","B2","batch2","","2213","tol_tohand","","","","tol_peg_3","2213","2213","0","[[3,2,0],[0,0],[0]]","5","[[0,0,0],[1,2],[3]]","4","0","","","","","","7","","","","","","","","",""
"","","","","","single-stim-button","71","369678","0.0-2.0-22.4-1.4","56c8915edfea6c000cb29c98","B2","batch2","","1301","tol_toboard","","","","tol_peg_2","1301","1301","0","[[3,2,0],[1,0],[0]]","5","[[0,0,0],[1,2],[3]]","4","0","","","","","","7","","","","","","","","",""
"","","","","","single-stim-button","72","371118","0.0-2.0-22.5-0.5","56c8915edfea6c000cb29c98","B2","batch2","","1439","tol_tohand","","","","tol_peg_1","1439","1439","0","[[3,0,0],[1,0],[0]]","6","[[0,0,0],[1,2],[3]]","4","0","","","","","","7","","","","","","","","",""
"","","","","","single-stim-button","73","372443","0.0-2.0-22.5-1.5","56c8915edfea6c000cb29c98","B2","batch2","","1325","tol_toboard","","","","tol_peg_2","1325","1325","0","[[3,0,0],[1,2],[0]]","6","[[0,0,0],[1,2],[3]]","4","0","","","","","","7","","","","","","","","",""
"","","","","","single-stim-button","74","374034","0.0-2.0-22.6-0.6","56c8915edfea6c000cb29c98","B2","batch2","","1590","tol_tohand","","","","tol_peg_1","1590","1590","0","[[0,0,0],[1,2],[0]]","7","[[0,0,0],[1,2],[3]]","4","0","","","","","","7","","","","","","","","",""
"","","","","","single-stim-button","75","375260","0.0-2.0-22.6-1.6","56c8915edfea6c000cb29c98","B2","batch2","","1226","tol_toboard","","","","tol_peg_3","1226","1226","0","[[0,0,0],[1,2],[3]]","7","[[0,0,0],[1,2],[3]]","4","0","","","","","","7","","","","","","","","",""
"","","","","","poldrack-single-stim","76","376262","0.0-2.0-23.0","56c8915edfea6c000cb29c98","B2","batch2","","-1","tol_feedback","","","true","","1000","1000","500","","","","","","-1","none","true","34287","44972","","","","","","","","","",""
"","","","","","html-button-response","77","377786","0.0-2.0-24.0","56c8915edfea6c000cb29c98","B2","batch2","","1523.3000000715256","tol_trial_num","<div class = centerbox><p class = center-block-text>problem <strong>6</strong> out of 25 problems</p></div>","0","","","","","","","","","","","","","","","","","","","","","","","","",""
"","","","","","single-stim-button","78","435619","0.0-2.0-25.0-0.0","56c8915edfea6c000cb29c98","B2","batch2","","57833","tol_tohand","","","","tol_peg_2","57833","57833","0","[[0,0,0],[1,0],[3]]","1","[[1,0,0],[2,3],[0]]","5","0","","","","","","6","","","","","","","","",""
"","","","","","single-stim-button","79","437372","0.0-2.0-25.0-1.0","56c8915edfea6c000cb29c98","B2","batch2","","1751","tol_toboard","","","","tol_peg_1","1751","1751","0","[[2,0,0],[1,0],[3]]","1","[[1,0,0],[2,3],[0]]","5","0","","","","","","6","","","","","","","","",""
"","","","","","single-stim-button","80","438887","0.0-2.0-25.1-0.1","56c8915edfea6c000cb29c98","B2","batch2","","1515","tol_tohand","","","","tol_peg_2","1515","1515","0","[[2,0,0],[0,0],[3]]","2","[[1,0,0],[2,3],[0]]","5","0","","","","","","6","","","","","","","","",""
"","","","","","single-stim-button","81","440901","0.0-2.0-25.1-1.1","56c8915edfea6c000cb29c98","B2","batch2","","2014","tol_toboard","","","","tol_peg_1","2014","2014","0","[[2,1,0],[0,0],[3]]","2","[[1,0,0],[2,3],[0]]","5","0","","","","","","6","","","","","","","","",""
"","","","","","single-stim-button","82","461057","0.0-2.0-25.2-0.2","56c8915edfea6c000cb29c98","B2","batch2","","20156","tol_tohand","","","","tol_peg_1","20156","20156","0","[[2,0,0],[0,0],[3]]","3","[[1,0,0],[2,3],[0]]","5","0","","","","","","6","","","","","","","","",""
"","","","","","single-stim-button","83","463616","0.0-2.0-25.2-1.2","56c8915edfea6c000cb29c98","B2","batch2","","2558","tol_toboard","","","","tol_peg_2","2558","2558","0","[[2,0,0],[1,0],[3]]","3","[[1,0,0],[2,3],[0]]","5","0","","","","","","6","","","","","","","","",""
"","","","","","single-stim-button","84","465820","0.0-2.0-25.3-0.3","56c8915edfea6c000cb29c98","B2","batch2","","2203","tol_tohand","","","","tol_peg_1","2203","2203","0","[[0,0,0],[1,0],[3]]","4","[[1,0,0],[2,3],[0]]","5","0","","","","","","6","","","","","","","","",""
"","","","","","single-stim-button","85","467790","0.0-2.0-25.3-1.3","56c8915edfea6c000cb29c98","B2","batch2","","1970","tol_toboard","","","","tol_peg_2","1970","1970","0","[[0,0,0],[1,2],[3]]","4","[[1,0,0],[2,3],[0]]","5","0","","","","","","6","","","","","","","","",""
"","","","","","single-stim-button","86","469518","0.0-2.0-25.4-0.4","56c8915edfea6c000cb29c98","B2","batch2","","1727","tol_tohand","","","","tol_peg_3","1727","1727","0","[[0,0,0],[1,2],[0]]","5","[[1,0,0],[2,3],[0]]","5","0","","","","","","6","","","","","","","","",""
"","","","","","single-stim-button","87","474494","0.0-2.0-25.4-1.4","56c8915edfea6c000cb29c98","B2","batch2","","4976","tol_toboard","","","","tol_peg_1","4976","4976","0","[[3,0,0],[1,2],[0]]","5","[[1,0,0],[2,3],[0]]","5","0","","","","","","6","","","","","","","","",""
"","","","","","single-stim-button","88","479357","0.0-2.0-25.5-0.5","56c8915edfea6c000cb29c98","B2","batch2","","4862","tol_tohand","","","","tol_peg_2","4862","4862","0","[[3,0,0],[1,0],[0]]","6","[[1,0,0],[2,3],[0]]","5","0","","","","","","6","","","","","","","","",""
"","","","","","single-stim-button","89","480868","0.0-2.0-25.5-1.5","56c8915edfea6c000cb29c98","B2","batch2","","1509","tol_toboard","","","","tol_peg_3","1509","1509","0","[[3,0,0],[1,0],[2]]","6","[[1,0,0],[2,3],[0]]","5","0","","","","","","6","","","","","","","","",""
"","","","","","single-stim-button","90","482631","0.0-2.0-25.6-0.6","56c8915edfea6c000cb29c98","B2","batch2","","1763","tol_tohand","","","","tol_peg_2","1763","1763","0","[[3,0,0],[0,0],[2]]","7","[[1,0,0],[2,3],[0]]","5","0","","","","","","6","","","","","","","","",""
"","","","","","single-stim-button","91","485240","0.0-2.0-25.6-1.6","56c8915edfea6c000cb29c98","B2","batch2","","2608","tol_toboard","","","","tol_peg_1","2608","2608","0","[[3,1,0],[0,0],[2]]","7","[[1,0,0],[2,3],[0]]","5","0","","","","","","6","","","","","","","","",""
"","","","","","single-stim-button","92","487849","0.0-2.0-25.7-0.7","56c8915edfea6c000cb29c98","B2","batch2","","2609","tol_tohand","","","","tol_peg_3","2609","2609","0","[[3,1,0],[0,0],[0]]","8","[[1,0,0],[2,3],[0]]","5","0","","","","","","6","","","","","","","","",""
"","","","","","single-stim-button","93","489176","0.0-2.0-25.7-1.7","56c8915edfea6c000cb29c98","B2","batch2","","1326","tol_toboard","","","","tol_peg_2","1326","1326","0","[[3,1,0],[2,0],[0]]","8","[[1,0,0],[2,3],[0]]","5","0","","","","","","6","","","","","","","","",""
"","","","","","single-stim-button","94","493839","0.0-2.0-25.8-0.8","56c8915edfea6c000cb29c98","B2","batch2","","4663","tol_tohand","","","","tol_peg_1","4663","4663","0","[[3,0,0],[2,0],[0]]","9","[[1,0,0],[2,3],[0]]","5","0","","","","","","6","","","","","","","","",""
"","","","","","single-stim-button","95","496009","0.0-2.0-25.8-1.8","56c8915edfea6c000cb29c98","B2","batch2","","2170","tol_toboard","","","","tol_peg_3","2170","2170","0","[[3,0,0],[2,0],[1]]","9","[[1,0,0],[2,3],[0]]","5","0","","","","","","6","","","","","","","","",""
"","","","","","single-stim-button","96","497284","0.0-2.0-25.9-0.9","56c8915edfea6c000cb29c98","B2","batch2","","1274","tol_tohand","","","","tol_peg_1","1274","1274","0","[[0,0,0],[2,0],[1]]","10","[[1,0,0],[2,3],[0]]","5","0","","","","","","6","","","","","","","","",""
"","","","","","single-stim-button","97","499211","0.0-2.0-25.9-1.9","56c8915edfea6c000cb29c98","B2","batch2","","1925","tol_toboard","","","","tol_peg_2","1925","1925","0","[[0,0,0],[2,3],[1]]","10","[[1,0,0],[2,3],[0]]","5","0","","","","","","6","","","","","","","","",""
"","","","","","single-stim-button","98","500249","0.0-2.0-25.10-0.10","56c8915edfea6c000cb29c98","B2","batch2","","1037","tol_tohand","","","","tol_peg_3","1037","1037","0","[[0,0,0],[2,3],[0]]","11","[[1,0,0],[2,3],[0]]","5","0","","","","","","6","","","","","","","","",""
"","","","","","single-stim-button","99","502040","0.0-2.0-25.10-1.10","56c8915edfea6c000cb29c98","B2","batch2","","1791","tol_toboard","","","","tol_peg_1","1791","1791","0","[[1,0,0],[2,3],[0]]","11","[[1,0,0],[2,3],[0]]","5","0","","","","","","6","","","","","","","","",""
"","","","","","poldrack-single-stim","100","503041","0.0-2.0-26.0","56c8915edfea6c000cb29c98","B2","batch2","","-1","tol_feedback","","","true","","1000","1000","500","","","","","","-1","none","true","57833","99642","","","","","","","","","",""
"","","","","","html-button-response","101","504954","0.0-2.0-27.0","56c8915edfea6c000cb29c98","B2","batch2","","1912.3000000715256","tol_trial_num","<div class = centerbox><p class = center-block-text>problem <strong>7</strong> out of 25 problems</p></div>","0","","","","","","","","","","","","","","","","","","","","","","","","",""
"","","","","","single-stim-button","102","521634","0.0-2.0-28.0-0.0","56c8915edfea6c000cb29c98","B2","batch2","","16679","tol_tohand","","","","tol_peg_3","16679","16679","0","[[2,1,0],[0,0],[0]]","1","[[1,2,0],[3,0],[0]]","6","0","","","","","","5","","","","","","","","",""
"","","","","","single-stim-button","103","523524","0.0-2.0-28.0-1.0","56c8915edfea6c000cb29c98","B2","batch2","","1888","tol_toboard","","","","tol_peg_2","1888","1888","0","[[2,1,0],[3,0],[0]]","1","[[1,2,0],[3,0],[0]]","6","0","","","","","","5","","","","","","","","",""
"","","","","","single-stim-button","104","525326","0.0-2.0-28.1-0.1","56c8915edfea6c000cb29c98","B2","batch2","","1802","tol_tohand","","","","tol_peg_1","1802","1802","0","[[2,0,0],[3,0],[0]]","2","[[1,2,0],[3,0],[0]]","6","0","","","","","","5","","","","","","","","",""
"","","","","","single-stim-button","105","529504","0.0-2.0-28.1-1.1","56c8915edfea6c000cb29c98","B2","batch2","","4177","tol_toboard","","","","tol_peg_3","4177","4177","0","[[2,0,0],[3,0],[1]]","2","[[1,2,0],[3,0],[0]]","6","0","","","","","","5","","","","","","","","",""
"","","","","","single-stim-button","106","530943","0.0-2.0-28.2-0.2","56c8915edfea6c000cb29c98","B2","batch2","","1439","tol_tohand","","","","tol_peg_1","1439","1439","0","[[0,0,0],[3,0],[1]]","3","[[1,2,0],[3,0],[0]]","6","0","","","","","","5","","","","","","","","",""
"","","","","","single-stim-button","107","532444","0.0-2.0-28.2-1.2","56c8915edfea6c000cb29c98","B2","batch2","","1500","tol_toboard","","","","tol_peg_2","1500","1500","0","[[0,0,0],[3,2],[1]]","3","[[1,2,0],[3,0],[0]]","6","0","","","","","","5","","","","","","","","",""
"","","","","","single-stim-button","108","533757","0.0-2.0-28.3-0.3","56c8915edfea6c000cb29c98","B2","batch2","","1313","tol_tohand","","","","tol_peg_3","1313","1313","0","[[0,0,0],[3,2],[0]]","4","[[1,2,0],[3,0],[0]]","6","0","","","","","","5","","","","","","","","",""
"","","","","","single-stim-button","109","535133","0.0-2.0-28.3-1.3","56c8915edfea6c000cb29c98","B2","batch2","","1376","tol_toboard","","","","tol_peg_1","1376","1376","0","[[1,0,0],[3,2],[0]]","4","[[1,2,0],[3,0],[0]]","6","0","","","","","","5","","","","","","","","",""
"","","","","","single-stim-button","110","536422","0.0-2.0-28.4-0.4","56c8915edfea6c000cb29c98","B2","batch2","","1288","tol_tohand","","","","tol_peg_2","1288","1288","0","[[1,0,0],[3,0],[0]]","5","[[1,2,0],[3,0],[0]]","6","0","","","","","","5","","","","","","","","",""
"","","","","","single-stim-button","111","537722","0.0-2.0-28.4-1.4","56c8915edfea6c000cb29c98","B2","batch2","","1299","tol_toboard","","","","tol_peg_1","1299","1299","0","[[1,2,0],[3,0],[0]]","5","[[1,2,0],[3,0],[0]]","6","0","","","","","","5","","","","","","","","",""
"","","","","","poldrack-single-stim","112","538724","0.0-2.0-29.0","56c8915edfea6c000cb29c98","B2","batch2","","-1","tol_feedback","","","true","","1000","1000","500","","","","","","-1","none","true","16679","22521","","","","","","","","","",""
"","","","","","html-button-response","113","540312","0.0-2.0-30.0","56c8915edfea6c000cb29c98","B2","batch2","","1587.5999999046326","tol_trial_num","<div class = centerbox><p class = center-block-text>problem <strong>8</strong> out of 25 problems</p></div>","0","","","","","","","","","","","","","","","","","","","","","","","","",""
"","","","","","single-stim-button","114","544215","0.0-2.0-31.0-0.0","56c8915edfea6c000cb29c98","B2","batch2","","3901","tol_tohand","","","","tol_peg_3","3901","3901","0","[[0,0,0],[2,3],[0]]","1","[[1,2,0],[3,0],[0]]","7","0","","","","","","4","","","","","","","","",""
"","","","","","single-stim-button","115","546156","0.0-2.0-31.0-1.0","56c8915edfea6c000cb29c98","B2","batch2","","1941","tol_toboard","","","","tol_peg_1","1941","1941","0","[[1,0,0],[2,3],[0]]","1","[[1,2,0],[3,0],[0]]","7","0","","","","","","4","","","","","","","","",""
"","","","","","single-stim-button","116","548600","0.0-2.0-31.1-0.1","56c8915edfea6c000cb29c98","B2","batch2","","2443","tol_tohand","","","","tol_peg_2","2443","2443","0","[[1,0,0],[2,0],[0]]","2","[[1,2,0],[3,0],[0]]","7","0","","","","","","4","","","","","","","","",""
"","","","","","single-stim-button","117","550408","0.0-2.0-31.1-1.1","56c8915edfea6c000cb29c98","B2","batch2","","1808","tol_toboard","","","","tol_peg_3","1808","1808","0","[[1,0,0],[2,0],[3]]","2","[[1,2,0],[3,0],[0]]","7","0","","","","","","4","","","","","","","","",""
"","","","","","single-stim-button","118","551608","0.0-2.0-31.2-0.2","56c8915edfea6c000cb29c98","B2","batch2","","1199","tol_tohand","","","","tol_peg_2","1199","1199","0","[[1,0,0],[0,0],[3]]","3","[[1,2,0],[3,0],[0]]","7","0","","","","","","4","","","","","","","","",""
"","","","","","single-stim-button","119","553010","0.0-2.0-31.2-1.2","56c8915edfea6c000cb29c98","B2","batch2","","1401","tol_toboard","","","","tol_peg_1","1401","1401","0","[[1,2,0],[0,0],[3]]","3","[[1,2,0],[3,0],[0]]","7","0","","","","","","4","","","","","","","","",""
"","","","","","single-stim-button","120","554789","0.0-2.0-31.3-0.3","56c8915edfea6c000cb29c98","B2","batch2","","1777","tol_tohand","","","","tol_peg_3","1777","1777","0","[[1,2,0],[0,0],[0]]","4","[[1,2,0],[3,0],[0]]","7","0","","","","","","4","","","","","","","","",""
"","","","","","single-stim-button","121","556064","0.0-2.0-31.3-1.3","56c8915edfea6c000cb29c98","B2","batch2","","1275","tol_toboard","","","","tol_peg_2","1275","1275","0","[[1,2,0],[3,0],[0]]","4","[[1,2,0],[3,0],[0]]","7","0","","","","","","4","","","","","","","","",""
"","","","","","poldrack-single-stim","122","557066","0.0-2.0-32.0","56c8915edfea6c000cb29c98","B2","batch2","","-1","tol_feedback","","","true","","1000","1000","500","","","","","","-1","none","true","3901","9320","","","","","","","","","",""
"","","","","","html-button-response","123","558552","0.0-2.0-33.0","56c8915edfea6c000cb29c98","B2","batch2","","1485.3999999761581","tol_trial_num","<div class = centerbox><p class = center-block-text>problem <strong>9</strong> out of 25 problems</p></div>","0","","","","","","","","","","","","","","","","","","","","","","","","",""
"","","","","","single-stim-button","124","615317","0.0-2.0-34.0-0.0","56c8915edfea6c000cb29c98","B2","batch2","","56765","tol_tohand","","","","tol_peg_3","56765","56765","0","[[3,2,0],[0,0],[0]]","1","[[2,1,0],[3,0],[0]]","8","0","","","","","","6","","","","","","","","",""
"","","","","","single-stim-button","125","617744","0.0-2.0-34.0-1.0","56c8915edfea6c000cb29c98","B2","batch2","","2427","tol_toboard","","","","tol_peg_2","2427","2427","0","[[3,2,0],[1,0],[0]]","1","[[2,1,0],[3,0],[0]]","8","0","","","","","","6","","","","","","","","",""
"","","","","","single-stim-button","126","619471","0.0-2.0-34.1-0.1","56c8915edfea6c000cb29c98","B2","batch2","","1726","tol_tohand","","","","tol_peg_1","1726","1726","0","[[3,0,0],[1,0],[0]]","2","[[2,1,0],[3,0],[0]]","8","0","","","","","","6","","","","","","","","",""
"","","","","","single-stim-button","127","623187","0.0-2.0-34.1-1.1","56c8915edfea6c000cb29c98","B2","batch2","","3716","tol_toboard","","","","tol_peg_3","3716","3716","0","[[3,0,0],[1,0],[2]]","2","[[2,1,0],[3,0],[0]]","8","0","","","","","","6","","","","","","","","",""
"","","","","","single-stim-button","128","638677","0.0-2.0-34.2-0.2","56c8915edfea6c000cb29c98","B2","batch2","","15490","tol_tohand","","","","tol_peg_1","15490","15490","0","[[0,0,0],[1,0],[2]]","3","[[2,1,0],[3,0],[0]]","8","0","","","","","","6","","","","","","","","",""
"","","","","","single-stim-button","129","640166","0.0-2.0-34.2-1.2","56c8915edfea6c000cb29c98","B2","batch2","","1488","tol_toboard","","","","tol_peg_2","1488","1488","0","[[0,0,0],[1,3],[2]]","3","[[2,1,0],[3,0],[0]]","8","0","","","","","","6","","","","","","","","",""
"","","","","","single-stim-button","130","641268","0.0-2.0-34.3-0.3","56c8915edfea6c000cb29c98","B2","batch2","","1102","tol_tohand","","","","tol_peg_3","1102","1102","0","[[0,0,0],[1,3],[0]]","4","[[2,1,0],[3,0],[0]]","8","0","","","","","","6","","","","","","","","",""
"","","","","","single-stim-button","131","642932","0.0-2.0-34.3-1.3","56c8915edfea6c000cb29c98","B2","batch2","","1664","tol_toboard","","","","tol_peg_1","1664","1664","0","[[2,0,0],[1,3],[0]]","4","[[2,1,0],[3,0],[0]]","8","0","","","","","","6","","","","","","","","",""
"","","","","","single-stim-button","132","644447","0.0-2.0-34.4-0.4","56c8915edfea6c000cb29c98","B2","batch2","","1514","tol_tohand","","","","tol_peg_2","1514","1514","0","[[2,0,0],[1,0],[0]]","5","[[2,1,0],[3,0],[0]]","8","0","","","","","","6","","","","","","","","",""
"","","","","","single-stim-button","133","645885","0.0-2.0-34.4-1.4","56c8915edfea6c000cb29c98","B2","batch2","","1436","tol_toboard","","","","tol_peg_3","1436","1436","0","[[2,0,0],[1,0],[3]]","5","[[2,1,0],[3,0],[0]]","8","0","","","","","","6","","","","","","","","",""
"","","","","","single-stim-button","134","646937","0.0-2.0-34.5-0.5","56c8915edfea6c000cb29c98","B2","batch2","","1052","tol_tohand","","","","tol_peg_2","1052","1052","0","[[2,0,0],[0,0],[3]]","6","[[2,1,0],[3,0],[0]]","8","0","","","","","","6","","","","","","","","",""
"","","","","","single-stim-button","135","648036","0.0-2.0-34.5-1.5","56c8915edfea6c000cb29c98","B2","batch2","","1099","tol_toboard","","","","tol_peg_1","1099","1099","0","[[2,1,0],[0,0],[3]]","6","[[2,1,0],[3,0],[0]]","8","0","","","","","","6","","","","","","","","",""
"","","","","","single-stim-button","136","649612","0.0-2.0-34.6-0.6","56c8915edfea6c000cb29c98","B2","batch2","","1576","tol_tohand","","","","tol_peg_3","1576","1576","0","[[2,1,0],[0,0],[0]]","7","[[2,1,0],[3,0],[0]]","8","0","","","","","","6","","","","","","","","",""
"","","","","","single-stim-button","137","650877","0.0-2.0-34.6-1.6","56c8915edfea6c000cb29c98","B2","batch2","","1263","tol_toboard","","","","tol_peg_2","1263","1263","0","[[2,1,0],[3,0],[0]]","7","[[2,1,0],[3,0],[0]]","8","0","","","","","","6","","","","","","","","",""
"","","","","","poldrack-single-stim","138","651879","0.0-2.0-35.0","56c8915edfea6c000cb29c98","B2","batch2","","-1","tol_feedback","","","true","","1000","1000","500","","","","","","-1","none","true","56765","79225","","","","","","","","","",""
"","","","","","html-button-response","139","653279","0.0-2.0-36.0","56c8915edfea6c000cb29c98","B2","batch2","","1399.5","tol_trial_num","<div class = centerbox><p class = center-block-text>problem <strong>10</strong> out of 25 problems</p></div>","0","","","","","","","","","","","","","","","","","","","","","","","","",""
"","","","","","single-stim-button","140","661745","0.0-2.0-37.0-0.0","56c8915edfea6c000cb29c98","B2","batch2","","8464","tol_tohand","","","","tol_peg_3","8464","8464","0","[[3,0,0],[1,0],[0]]","1","[[3,0,0],[2,1],[0]]","9","0","","","","","","3","","","","","","","","",""
"","","","","","single-stim-button","141","663600","0.0-2.0-37.0-1.0","56c8915edfea6c000cb29c98","B2","batch2","","1854","tol_toboard","","","","tol_peg_1","1854","1854","0","[[3,2,0],[1,0],[0]]","1","[[3,0,0],[2,1],[0]]","9","0","","","","","","3","","","","","","","","",""
"","","","","","single-stim-button","142","665779","0.0-2.0-37.1-0.1","56c8915edfea6c000cb29c98","B2","batch2","","2179","tol_tohand","","","","tol_peg_2","2179","2179","0","[[3,2,0],[0,0],[0]]","2","[[3,0,0],[2,1],[0]]","9","0","","","","","","3","","","","","","","","",""
"","","","","","single-stim-button","143","667354","0.0-2.0-37.1-1.1","56c8915edfea6c000cb29c98","B2","batch2","","1573","tol_toboard","","","","tol_peg_3","1573","1573","0","[[3,2,0],[0,0],[1]]","2","[[3,0,0],[2,1],[0]]","9","0","","","","","","3","","","","","","","","",""
"","","","","","single-stim-button","144","668743","0.0-2.0-37.2-0.2","56c8915edfea6c000cb29c98","B2","batch2","","1389","tol_tohand","","","","tol_peg_1","1389","1389","0","[[3,0,0],[0,0],[1]]","3","[[3,0,0],[2,1],[0]]","9","0","","","","","","3","","","","","","","","",""
"","","","","","single-stim-button","145","669981","0.0-2.0-37.2-1.2","56c8915edfea6c000cb29c98","B2","batch2","","1237","tol_toboard","","","","tol_peg_2","1237","1237","0","[[3,0,0],[2,0],[1]]","3","[[3,0,0],[2,1],[0]]","9","0","","","","","","3","","","","","","","","",""
"","","","","","single-stim-button","146","671083","0.0-2.0-37.3-0.3","56c8915edfea6c000cb29c98","B2","batch2","","1101","tol_tohand","","","","tol_peg_3","1101","1101","0","[[3,0,0],[2,0],[0]]","4","[[3,0,0],[2,1],[0]]","9","0","","","","","","3","","","","","","","","",""
"","","","","","single-stim-button","147","672559","0.0-2.0-37.3-1.3","56c8915edfea6c000cb29c98","B2","batch2","","1475","tol_toboard","","","","tol_peg_2","1475","1475","0","[[3,0,0],[2,1],[0]]","4","[[3,0,0],[2,1],[0]]","9","0","","","","","","3","","","","","","","","",""
"","","","","","poldrack-single-stim","148","673560","0.0-2.0-38.0","56c8915edfea6c000cb29c98","B2","batch2","","-1","tol_feedback","","","true","","1000","1000","500","","","","","","-1","none","true","8464","13133","","","","","","","","","",""
"","","","","","html-button-response","149","675112","0.0-2.0-39.0","56c8915edfea6c000cb29c98","B2","batch2","","1550.6000000238419","tol_trial_num","<div class = centerbox><p class = center-block-text>problem <strong>11</strong> out of 25 problems</p></div>","0","","","","","","","","","","","","","","","","","","","","","","","","",""
"","","","","","single-stim-button","150","684134","0.0-2.0-40.0-0.0","56c8915edfea6c000cb29c98","B2","batch2","","9020","tol_tohand","","","","tol_peg_1","9020","9020","0","[[1,0,0],[3,0],[0]]","1","[[2,0,0],[1,3],[0]]","10","0","","","","","","6","","","","","","","","",""
"","","","","","single-stim-button","151","692680","0.0-2.0-40.0-1.0","56c8915edfea6c000cb29c98","B2","batch2","","8546","tol_toboard","","","","tol_peg_1","8546","8546","0","[[1,2,0],[3,0],[0]]","1","[[2,0,0],[1,3],[0]]","10","0","","","","","","6","","","","","","","","",""
"","","","","","single-stim-button","152","694179","0.0-2.0-40.1-0.1","56c8915edfea6c000cb29c98","B2","batch2","","1498","tol_tohand","","","","tol_peg_2","1498","1498","0","[[1,2,0],[0,0],[0]]","2","[[2,0,0],[1,3],[0]]","10","0","","","","","","6","","","","","","","","",""
"","","","","","single-stim-button","153","708123","0.0-2.0-40.1-1.1","56c8915edfea6c000cb29c98","B2","batch2","","13943","tol_toboard","","","","tol_peg_2","13943","13943","0","[[1,2,0],[3,0],[0]]","2","[[2,0,0],[1,3],[0]]","10","0","","","","","","6","","","","","","","","",""
"","","","","","single-stim-button","154","709396","0.0-2.0-40.2-0.2","56c8915edfea6c000cb29c98","B2","batch2","","1271","tol_tohand","","","","tol_peg_1","1271","1271","0","[[1,0,0],[3,0],[0]]","3","[[2,0,0],[1,3],[0]]","10","0","","","","","","6","","","","","","","","",""
"","","","","","single-stim-button","155","710721","0.0-2.0-40.2-1.2","56c8915edfea6c000cb29c98","B2","batch2","","1325","tol_toboard","","","","tol_peg_3","1325","1325","0","[[1,0,0],[3,0],[2]]","3","[[2,0,0],[1,3],[0]]","10","0","","","","","","6","","","","","","","","",""
"","","","","","single-stim-button","156","712073","0.0-2.0-40.3-0.3","56c8915edfea6c000cb29c98","B2","batch2","","1350","tol_tohand","","","","tol_peg_1","1350","1350","0","[[0,0,0],[3,0],[2]]","4","[[2,0,0],[1,3],[0]]","10","0","","","","","","6","","","","","","","","",""
"","","","","","single-stim-button","157","714088","0.0-2.0-40.3-1.3","56c8915edfea6c000cb29c98","B2","batch2","","2015","tol_toboard","","","","tol_peg_2","2015","2015","0","[[0,0,0],[3,1],[2]]","4","[[2,0,0],[1,3],[0]]","10","0","","","","","","6","","","","","","","","",""
"","","","","","single-stim-button","158","715176","0.0-2.0-40.4-0.4","56c8915edfea6c000cb29c98","B2","batch2","","1087","tol_tohand","","","","tol_peg_3","1087","1087","0","[[0,0,0],[3,1],[0]]","5","[[2,0,0],[1,3],[0]]","10","0","","","","","","6","","","","","","","","",""
"","","","","","single-stim-button","159","716827","0.0-2.0-40.4-1.4","56c8915edfea6c000cb29c98","B2","batch2","","1651","tol_toboard","","","","tol_peg_1","1651","1651","0","[[2,0,0],[3,1],[0]]","5","[[2,0,0],[1,3],[0]]","10","0","","","","","","6","","","","","","","","",""
"","","","","","single-stim-button","160","718505","0.0-2.0-40.5-0.5","56c8915edfea6c000cb29c98","B2","batch2","","1676","tol_tohand","","","","tol_peg_2","1676","1676","0","[[2,0,0],[3,0],[0]]","6","[[2,0,0],[1,3],[0]]","10","0","","","","","","6","","","","","","","","",""
"","","","","","single-stim-button","161","721143","0.0-2.0-40.5-1.5","56c8915edfea6c000cb29c98","B2","batch2","","2638","tol_toboard","","","","tol_peg_3","2638","2638","0","[[2,0,0],[3,0],[1]]","6","[[2,0,0],[1,3],[0]]","10","0","","","","","","6","","","","","","","","",""
"","","","","","single-stim-button","162","722157","0.0-2.0-40.6-0.6","56c8915edfea6c000cb29c98","B2","batch2","","1013","tol_tohand","","","","tol_peg_2","1013","1013","0","[[2,0,0],[0,0],[1]]","7","[[2,0,0],[1,3],[0]]","10","0","","","","","","6","","","","","","","","",""
"","","","","","single-stim-button","163","723509","0.0-2.0-40.6-1.6","56c8915edfea6c000cb29c98","B2","batch2","","1350","tol_toboard","","","","tol_peg_1","1350","1350","0","[[2,3,0],[0,0],[1]]","7","[[2,0,0],[1,3],[0]]","10","0","","","","","","6","","","","","","","","",""
"","","","","","single-stim-button","164","724973","0.0-2.0-40.7-0.7","56c8915edfea6c000cb29c98","B2","batch2","","1464","tol_tohand","","","","tol_peg_3","1464","1464","0","[[2,3,0],[0,0],[0]]","8","[[2,0,0],[1,3],[0]]","10","0","","","","","","6","","","","","","","","",""
"","","","","","single-stim-button","165","726449","0.0-2.0-40.7-1.7","56c8915edfea6c000cb29c98","B2","batch2","","1476","tol_toboard","","","","tol_peg_2","1476","1476","0","[[2,3,0],[1,0],[0]]","8","[[2,0,0],[1,3],[0]]","10","0","","","","","","6","","","","","","","","",""
"","","","","","single-stim-button","166","727651","0.0-2.0-40.8-0.8","56c8915edfea6c000cb29c98","B2","batch2","","1202","tol_tohand","","","","tol_peg_1","1202","1202","0","[[2,0,0],[1,0],[0]]","9","[[2,0,0],[1,3],[0]]","10","0","","","","","","6","","","","","","","","",""
"","","","","","single-stim-button","167","729001","0.0-2.0-40.8-1.8","56c8915edfea6c000cb29c98","B2","batch2","","1350","tol_toboard","","","","tol_peg_2","1350","1350","0","[[2,0,0],[1,3],[0]]","9","[[2,0,0],[1,3],[0]]","10","0","","","","","","6","","","","","","","","",""
"","","","","","poldrack-single-stim","168","730003","0.0-2.0-41.0","56c8915edfea6c000cb29c98","B2","batch2","","-1","tol_feedback","","","true","","1000","1000","500","","","","","","-1","none","true","9020","19581","","","","","","","","","",""
"","","","","","html-button-response","169","731466","0.0-2.0-42.0","56c8915edfea6c000cb29c98","B2","batch2","","1462.2999999523163","tol_trial_num","<div class = centerbox><p class = center-block-text>problem <strong>12</strong> out of 25 problems</p></div>","0","","","","","","","","","","","","","","","","","","","","","","","","",""
"","","","","","single-stim-button","170","744543","0.0-2.0-43.0-0.0","56c8915edfea6c000cb29c98","B2","batch2","","13075","tol_tohand","","","","tol_peg_1","13075","13075","0","[[1,0,0],[3,0],[0]]","1","[[2,3,0],[0,0],[1]]","11","0","","","","","","4","","","","","","","","",""
"","","","","","single-stim-button","171","745993","0.0-2.0-43.0-1.0","56c8915edfea6c000cb29c98","B2","batch2","","1450","tol_toboard","","","","tol_peg_2","1450","1450","0","[[1,0,0],[3,2],[0]]","1","[[2,3,0],[0,0],[1]]","11","0","","","","","","4","","","","","","","","",""
"","","","","","single-stim-button","172","747294","0.0-2.0-43.1-0.1","56c8915edfea6c000cb29c98","B2","batch2","","1299","tol_tohand","","","","tol_peg_1","1299","1299","0","[[0,0,0],[3,2],[0]]","2","[[2,3,0],[0,0],[1]]","11","0","","","","","","4","","","","","","","","",""
"","","","","","single-stim-button","173","748846","0.0-2.0-43.1-1.1","56c8915edfea6c000cb29c98","B2","batch2","","1551","tol_toboard","","","","tol_peg_3","1551","1551","0","[[0,0,0],[3,2],[1]]","2","[[2,3,0],[0,0],[1]]","11","0","","","","","","4","","","","","","","","",""
"","","","","","single-stim-button","174","750009","0.0-2.0-43.2-0.2","56c8915edfea6c000cb29c98","B2","batch2","","1163","tol_tohand","","","","tol_peg_2","1163","1163","0","[[0,0,0],[3,0],[1]]","3","[[2,3,0],[0,0],[1]]","11","0","","","","","","4","","","","","","","","",""
"","","","","","single-stim-button","175","751260","0.0-2.0-43.2-1.2","56c8915edfea6c000cb29c98","B2","batch2","","1249","tol_toboard","","","","tol_peg_1","1249","1249","0","[[2,0,0],[3,0],[1]]","3","[[2,3,0],[0,0],[1]]","11","0","","","","","","4","","","","","","","","",""
"","","","","","single-stim-button","176","752301","0.0-2.0-43.3-0.3","56c8915edfea6c000cb29c98","B2","batch2","","1041","tol_tohand","","","","tol_peg_2","1041","1041","0","[[2,0,0],[0,0],[1]]","4","[[2,3,0],[0,0],[1]]","11","0","","","","","","4","","","","","","","","",""
"","","","","","single-stim-button","177","752436","0.0-2.0-43.3-1.3","56c8915edfea6c000cb29c98","B2","batch2","","134","tol_toboard","","","","tol_peg_2","134","134","0","[[2,0,0],[3,0],[1]]","4","[[2,3,0],[0,0],[1]]","11","0","","","","","","4","","","","","","","","",""
"","","","","","single-stim-button","178","753800","0.0-2.0-43.4-0.4","56c8915edfea6c000cb29c98","B2","batch2","","1364","tol_tohand","","","","tol_peg_2","1364","1364","0","[[2,0,0],[0,0],[1]]","5","[[2,3,0],[0,0],[1]]","11","0","","","","","","4","","","","","","","","",""
"","","","","","single-stim-button","179","755039","0.0-2.0-43.4-1.4","56c8915edfea6c000cb29c98","B2","batch2","","1239","tol_toboard","","","","tol_peg_1","1239","1239","0","[[2,3,0],[0,0],[1]]","5","[[2,3,0],[0,0],[1]]","11","0","","","","","","4","","","","","","","","",""
"","","","","","poldrack-single-stim","180","756041","0.0-2.0-44.0","56c8915edfea6c000cb29c98","B2","batch2","","-1","tol_feedback","","","true","","1000","1000","500","","","","","","-1","none","true","13075","17942","","","","","","","","","",""
"","","","","","html-button-response","181","758193","0.0-2.0-45.0","56c8915edfea6c000cb29c98","B2","batch2","","2151.2999999523163","tol_trial_num","<div class = centerbox><p class = center-block-text>problem <strong>13</strong> out of 25 problems</p></div>","0","","","","","","","","","","","","","","","","","","","","","","","","",""
"","","","","","single-stim-button","182","765462","0.0-2.0-46.0-0.0","56c8915edfea6c000cb29c98","B2","batch2","","7268","tol_tohand","","","","tol_peg_1","7268","7268","0","[[1,0,0],[3,0],[0]]","1","[[0,0,0],[2,3],[1]]","12","0","","","","","","4","","","","","","","","",""
"","","","","","single-stim-button","183","767947","0.0-2.0-46.0-1.0","56c8915edfea6c000cb29c98","B2","batch2","","2485","tol_toboard","","","","tol_peg_2","2485","2485","0","[[1,0,0],[3,2],[0]]","1","[[0,0,0],[2,3],[1]]","12","0","","","","","","4","","","","","","","","",""
"","","","","","single-stim-button","184","769442","0.0-2.0-46.1-0.1","56c8915edfea6c000cb29c98","B2","batch2","","1493","tol_tohand","","","","tol_peg_1","1493","1493","0","[[0,0,0],[3,2],[0]]","2","[[0,0,0],[2,3],[1]]","12","0","","","","","","4","","","","","","","","",""
"","","","","","single-stim-button","185","769577","0.0-2.0-46.1-1.1","56c8915edfea6c000cb29c98","B2","batch2","","135","tol_toboard","","","","tol_peg_1","135","135","0","[[1,0,0],[3,2],[0]]","2","[[0,0,0],[2,3],[1]]","12","0","","","","","","4","","","","","","","","",""
"","","","","","single-stim-button","186","771115","0.0-2.0-46.2-0.2","56c8915edfea6c000cb29c98","B2","batch2","","1537","tol_tohand","","","","tol_peg_1","1537","1537","0","[[0,0,0],[3,2],[0]]","3","[[0,0,0],[2,3],[1]]","12","0","","","","","","4","","","","","","","","",""
"","","","","","single-stim-button","187","772317","0.0-2.0-46.2-1.2","56c8915edfea6c000cb29c98","B2","batch2","","1200","tol_toboard","","","","tol_peg_3","1200","1200","0","[[0,0,0],[3,2],[1]]","3","[[0,0,0],[2,3],[1]]","12","0","","","","","","4","","","","","","","","",""
"","","","","","single-stim-button","188","773617","0.0-2.0-46.3-0.3","56c8915edfea6c000cb29c98","B2","batch2","","1300","tol_tohand","","","","tol_peg_2","1300","1300","0","[[0,0,0],[3,0],[1]]","4","[[0,0,0],[2,3],[1]]","12","0","","","","","","4","","","","","","","","",""
"","","","","","single-stim-button","189","775082","0.0-2.0-46.3-1.3","56c8915edfea6c000cb29c98","B2","batch2","","1464","tol_toboard","","","","tol_peg_1","1464","1464","0","[[2,0,0],[3,0],[1]]","4","[[0,0,0],[2,3],[1]]","12","0","","","","","","4","","","","","","","","",""
"","","","","","single-stim-button","190","776345","0.0-2.0-46.4-0.4","56c8915edfea6c000cb29c98","B2","batch2","","1262","tol_tohand","","","","tol_peg_2","1262","1262","0","[[2,0,0],[0,0],[1]]","5","[[0,0,0],[2,3],[1]]","12","0","","","","","","4","","","","","","","","",""
"","","","","","single-stim-button","191","777461","0.0-2.0-46.4-1.4","56c8915edfea6c000cb29c98","B2","batch2","","1115","tol_toboard","","","","tol_peg_1","1115","1115","0","[[2,3,0],[0,0],[1]]","5","[[0,0,0],[2,3],[1]]","12","0","","","","","","4","","","","","","","","",""
"","","","","","single-stim-button","192","777585","0.0-2.0-46.5-0.5","56c8915edfea6c000cb29c98","B2","batch2","","124","tol_tohand","","","","tol_peg_1","124","124","0","[[2,0,0],[0,0],[1]]","6","[[0,0,0],[2,3],[1]]","12","0","","","","","","4","","","","","","","","",""
"","","","","","single-stim-button","193","778898","0.0-2.0-46.5-1.5","56c8915edfea6c000cb29c98","B2","batch2","","1312","tol_toboard","","","","tol_peg_1","1312","1312","0","[[2,3,0],[0,0],[1]]","6","[[0,0,0],[2,3],[1]]","12","0","","","","","","4","","","","","","","","",""
"","","","","","single-stim-button","194","788545","0.0-2.0-46.6-0.6","56c8915edfea6c000cb29c98","B2","batch2","","9646","tol_tohand","","","","tol_peg_1","9646","9646","0","[[2,0,0],[0,0],[1]]","7","[[0,0,0],[2,3],[1]]","12","0","","","","","","4","","","","","","","","",""
"","","","","","single-stim-button","195","790409","0.0-2.0-46.6-1.6","56c8915edfea6c000cb29c98","B2","batch2","","1863","tol_toboard","","","","tol_peg_2","1863","1863","0","[[2,0,0],[3,0],[1]]","7","[[0,0,0],[2,3],[1]]","12","0","","","","","","4","","","","","","","","",""
"","","","","","single-stim-button","196","791559","0.0-2.0-46.7-0.7","56c8915edfea6c000cb29c98","B2","batch2","","1150","tol_tohand","","","","tol_peg_3","1150","1150","0","[[2,0,0],[3,0],[0]]","8","[[0,0,0],[2,3],[1]]","12","0","","","","","","4","","","","","","","","",""
"","","","","","single-stim-button","197","793674","0.0-2.0-46.7-1.7","56c8915edfea6c000cb29c98","B2","batch2","","2114","tol_toboard","","","","tol_peg_2","2114","2114","0","[[2,0,0],[3,1],[0]]","8","[[0,0,0],[2,3],[1]]","12","0","","","","","","4","","","","","","","","",""
"","","","","","single-stim-button","198","795626","0.0-2.0-46.8-0.8","56c8915edfea6c000cb29c98","B2","batch2","","1952","tol_tohand","","","","tol_peg_1","1952","1952","0","[[0,0,0],[3,1],[0]]","9","[[0,0,0],[2,3],[1]]","12","0","","","","","","4","","","","","","","","",""
"","","","","","single-stim-button","199","798269","0.0-2.0-46.8-1.8","56c8915edfea6c000cb29c98","B2","batch2","","2643","tol_toboard","","","","tol_peg_3","2643","2643","0","[[0,0,0],[3,1],[2]]","9","[[0,0,0],[2,3],[1]]","12","0","","","","","","4","","","","","","","","",""
"","","","","","single-stim-button","200","800529","0.0-2.0-46.9-0.9","56c8915edfea6c000cb29c98","B2","batch2","","2259","tol_tohand","","","","tol_peg_2","2259","2259","0","[[0,0,0],[3,0],[2]]","10","[[0,0,0],[2,3],[1]]","12","0","","","","","","4","","","","","","","","",""
"","","","","","single-stim-button","201","802105","0.0-2.0-46.9-1.9","56c8915edfea6c000cb29c98","B2","batch2","","1575","tol_toboard","","","","tol_peg_1","1575","1575","0","[[1,0,0],[3,0],[2]]","10","[[0,0,0],[2,3],[1]]","12","0","","","","","","4","","","","","","","","",""
"","","","","","single-stim-button","202","803182","0.0-2.0-46.10-0.10","56c8915edfea6c000cb29c98","B2","batch2","","1076","tol_tohand","","","","tol_peg_2","1076","1076","0","[[1,0,0],[0,0],[2]]","11","[[0,0,0],[2,3],[1]]","12","0","","","","","","4","","","","","","","","",""
"","","","","","single-stim-button","203","804109","0.0-2.0-46.10-1.10","56c8915edfea6c000cb29c98","B2","batch2","","927","tol_toboard","","","","tol_peg_1","927","927","0","[[1,3,0],[0,0],[2]]","11","[[0,0,0],[2,3],[1]]","12","0","","","","","","4","","","","","","","","",""
"","","","","","single-stim-button","204","804208","0.0-2.0-46.11-0.11","56c8915edfea6c000cb29c98","B2","batch2","","98","tol_tohand","","","","tol_peg_1","98","98","0","[[1,0,0],[0,0],[2]]","12","[[0,0,0],[2,3],[1]]","12","0","","","","","","4","","","","","","","","",""
"","","","","","single-stim-button","205","805758","0.0-2.0-46.11-1.11","56c8915edfea6c000cb29c98","B2","batch2","","1550","tol_toboard","","","","tol_peg_1","1550","1550","0","[[1,3,0],[0,0],[2]]","12","[[0,0,0],[2,3],[1]]","12","0","","","","","","4","","","","","","","","",""
"","","","","","single-stim-button","206","807147","0.0-2.0-46.12-0.12","56c8915edfea6c000cb29c98","B2","batch2","","1388","tol_tohand","","","","tol_peg_3","1388","1388","0","[[1,3,0],[0,0],[0]]","13","[[0,0,0],[2,3],[1]]","12","0","","","","","","4","","","","","","","","",""
"","","","","","single-stim-button","207","808310","0.0-2.0-46.12-1.12","56c8915edfea6c000cb29c98","B2","batch2","","1163","tol_toboard","","","","tol_peg_2","1163","1163","0","[[1,3,0],[2,0],[0]]","13","[[0,0,0],[2,3],[1]]","12","0","","","","","","4","","","","","","","","",""
"","","","","","single-stim-button","208","809511","0.0-2.0-46.13-0.13","56c8915edfea6c000cb29c98","B2","batch2","","1201","tol_tohand","","","","tol_peg_1","1201","1201","0","[[1,0,0],[2,0],[0]]","14","[[0,0,0],[2,3],[1]]","12","0","","","","","","4","","","","","","","","",""
"","","","","","single-stim-button","209","810564","0.0-2.0-46.13-1.13","56c8915edfea6c000cb29c98","B2","batch2","","1052","tol_toboard","","","","tol_peg_2","1052","1052","0","[[1,0,0],[2,3],[0]]","14","[[0,0,0],[2,3],[1]]","12","0","","","","","","4","","","","","","","","",""
"","","","","","single-stim-button","210","811600","0.0-2.0-46.14-0.14","56c8915edfea6c000cb29c98","B2","batch2","","1036","tol_tohand","","","","tol_peg_1","1036","1036","0","[[0,0,0],[2,3],[0]]","15","[[0,0,0],[2,3],[1]]","12","0","","","","","","4","","","","","","","","",""
"","","","","","single-stim-button","211","812802","0.0-2.0-46.14-1.14","56c8915edfea6c000cb29c98","B2","batch2","","1202","tol_toboard","","","","tol_peg_3","1202","1202","0","[[0,0,0],[2,3],[1]]","15","[[0,0,0],[2,3],[1]]","12","0","","","","","","4","","","","","","","","",""
"","","","","","poldrack-single-stim","212","813804","0.0-2.0-47.0","56c8915edfea6c000cb29c98","B2","batch2","","-1","tol_feedback","","","true","","1000","1000","500","","","","","","-1","none","true","7268","32790","","","","","","","","","",""
"","","","","","html-button-response","213","821300","0.0-2.0-48.0","56c8915edfea6c000cb29c98","B2","batch2","","7495.200000047684","attention_check","<p class = block-text>How many balls are in your board<br></p>","1","true","","","","","","","","","","","","","","","","","","","","","","","",""
"","","","","","html-button-response","214","822966","0.0-2.0-49.0","56c8915edfea6c000cb29c98","B2","batch2","","1664.5","tol_trial_num","<div class = centerbox><p class = center-block-text>problem <strong>14</strong> out of 25 problems</p></div>","0","","","","","","","","","","","","","","","","","","","","","","","","",""
"","","","","","single-stim-button","215","845393","0.0-2.0-50.0-0.0","56c8915edfea6c000cb29c98","B2","batch2","","22425","tol_tohand","","","","tol_peg_1","22425","22425","0","[[2,0,0],[3,0],[0]]","1","[[1,2,0],[3,0],[0]]","13","0","","","","","","4","","","","","","","","",""
"","","","","","single-stim-button","216","846843","0.0-2.0-50.0-1.0","56c8915edfea6c000cb29c98","B2","batch2","","1448","tol_toboard","","","","tol_peg_3","1448","1448","0","[[2,0,0],[3,0],[1]]","1","[[1,2,0],[3,0],[0]]","13","0","","","","","","4","","","","","","","","",""
"","","","","","single-stim-button","217","851457","0.0-2.0-50.1-0.1","56c8915edfea6c000cb29c98","B2","batch2","","4614","tol_tohand","","","","tol_peg_1","4614","4614","0","[[0,0,0],[3,0],[1]]","2","[[1,2,0],[3,0],[0]]","13","0","","","","","","4","","","","","","","","",""
"","","","","","single-stim-button","218","852874","0.0-2.0-50.1-1.1","56c8915edfea6c000cb29c98","B2","batch2","","1415","tol_toboard","","","","tol_peg_2","1415","1415","0","[[0,0,0],[3,2],[1]]","2","[[1,2,0],[3,0],[0]]","13","0","","","","","","4","","","","","","","","",""
"","","","","","single-stim-button","219","854025","0.0-2.0-50.2-0.2","56c8915edfea6c000cb29c98","B2","batch2","","1151","tol_tohand","","","","tol_peg_3","1151","1151","0","[[0,0,0],[3,2],[0]]","3","[[1,2,0],[3,0],[0]]","13","0","","","","","","4","","","","","","","","",""
"","","","","","single-stim-button","220","855376","0.0-2.0-50.2-1.2","56c8915edfea6c000cb29c98","B2","batch2","","1350","tol_toboard","","","","tol_peg_1","1350","1350","0","[[1,0,0],[3,2],[0]]","3","[[1,2,0],[3,0],[0]]","13","0","","","","","","4","","","","","","","","",""
"","","","","","single-stim-button","221","856765","0.0-2.0-50.3-0.3","56c8915edfea6c000cb29c98","B2","batch2","","1389","tol_tohand","","","","tol_peg_2","1389","1389","0","[[1,0,0],[3,0],[0]]","4","[[1,2,0],[3,0],[0]]","13","0","","","","","","4","","","","","","","","",""
"","","","","","single-stim-button","222","858069","0.0-2.0-50.3-1.3","56c8915edfea6c000cb29c98","B2","batch2","","1303","tol_toboard","","","","tol_peg_1","1303","1303","0","[[1,2,0],[3,0],[0]]","4","[[1,2,0],[3,0],[0]]","13","0","","","","","","4","","","","","","","","",""
"","","","","","poldrack-single-stim","223","859070","0.0-2.0-51.0","56c8915edfea6c000cb29c98","B2","batch2","","-1","tol_feedback","","","true","","1000","1000","500","","","","","","-1","none","true","22425","29579","","","","","","","","","",""
"","","","","","html-button-response","224","860483","0.0-2.0-52.0","56c8915edfea6c000cb29c98","B2","batch2","","1411.2999999523163","tol_trial_num","<div class = centerbox><p class = center-block-text>problem <strong>15</strong> out of 25 problems</p></div>","0","","","","","","","","","","","","","","","","","","","","","","","","",""
"","","","","","single-stim-button","225","870711","0.0-2.0-53.0-0.0","56c8915edfea6c000cb29c98","B2","batch2","","10227","tol_tohand","","","","tol_peg_1","10227","10227","0","[[1,0,0],[3,0],[0]]","1","[[2,0,0],[3,0],[1]]","14","0","","","","","","3","","","","","","","","",""
"","","","","","single-stim-button","226","872229","0.0-2.0-53.0-1.0","56c8915edfea6c000cb29c98","B2","batch2","","1517","tol_toboard","","","","tol_peg_2","1517","1517","0","[[1,0,0],[3,2],[0]]","1","[[2,0,0],[3,0],[1]]","14","0","","","","","","3","","","","","","","","",""
"","","","","","single-stim-button","227","873380","0.0-2.0-53.1-0.1","56c8915edfea6c000cb29c98","B2","batch2","","1150","tol_tohand","","","","tol_peg_1","1150","1150","0","[[0,0,0],[3,2],[0]]","2","[[2,0,0],[3,0],[1]]","14","0","","","","","","3","","","","","","","","",""
"","","","","","single-stim-button","228","874618","0.0-2.0-53.1-1.1","56c8915edfea6c000cb29c98","B2","batch2","","1237","tol_toboard","","","","tol_peg_3","1237","1237","0","[[0,0,0],[3,2],[1]]","2","[[2,0,0],[3,0],[1]]","14","0","","","","","","3","","","","","","","","",""
"","","","","","single-stim-button","229","875757","0.0-2.0-53.2-0.2","56c8915edfea6c000cb29c98","B2","batch2","","1137","tol_tohand","","","","tol_peg_2","1137","1137","0","[[0,0,0],[3,0],[1]]","3","[[2,0,0],[3,0],[1]]","14","0","","","","","","3","","","","","","","","",""
"","","","","","single-stim-button","230","876882","0.0-2.0-53.2-1.2","56c8915edfea6c000cb29c98","B2","batch2","","1125","tol_toboard","","","","tol_peg_1","1125","1125","0","[[2,0,0],[3,0],[1]]","3","[[2,0,0],[3,0],[1]]","14","0","","","","","","3","","","","","","","","",""
"","","","","","poldrack-single-stim","231","877884","0.0-2.0-54.0","56c8915edfea6c000cb29c98","B2","batch2","","-1","tol_feedback","","","true","","1000","1000","500","","","","","","-1","none","true","10227","12514","","","","","","","","","",""
"","","","","","html-button-response","232","879398","0.0-2.0-55.0","56c8915edfea6c000cb29c98","B2","batch2","","1512.8000000715256","tol_trial_num","<div class = centerbox><p class = center-block-text>problem <strong>16</strong> out of 25 problems</p></div>","0","","","","","","","","","","","","","","","","","","","","","","","","",""
"","","","","","single-stim-button","233","891597","0.0-2.0-56.0-0.0","56c8915edfea6c000cb29c98","B2","batch2","","12199","tol_tohand","","","","tol_peg_2","12199","12199","0","[[0,0,0],[2,0],[1]]","1","[[2,3,0],[1,0],[0]]","15","0","","","","","","7","","","","","","","","",""
"","","","","","single-stim-button","234","909575","0.0-2.0-56.0-1.0","56c8915edfea6c000cb29c98","B2","batch2","","17977","tol_toboard","","","","tol_peg_1","17977","17977","0","[[3,0,0],[2,0],[1]]","1","[[2,3,0],[1,0],[0]]","15","0","","","","","","7","","","","","","","","",""
"","","","","","single-stim-button","235","916104","0.0-2.0-56.1-0.1","56c8915edfea6c000cb29c98","B2","batch2","","6528","tol_tohand","","","","tol_peg_2","6528","6528","0","[[3,0,0],[0,0],[1]]","2","[[2,3,0],[1,0],[0]]","15","0","","","","","","7","","","","","","","","",""
"","","","","","single-stim-button","236","917620","0.0-2.0-56.1-1.1","56c8915edfea6c000cb29c98","B2","batch2","","1515","tol_toboard","","","","tol_peg_1","1515","1515","0","[[3,2,0],[0,0],[1]]","2","[[2,3,0],[1,0],[0]]","15","0","","","","","","7","","","","","","","","",""
"","","","","","single-stim-button","237","919482","0.0-2.0-56.2-0.2","56c8915edfea6c000cb29c98","B2","batch2","","1862","tol_tohand","","","","tol_peg_3","1862","1862","0","[[3,2,0],[0,0],[0]]","3","[[2,3,0],[1,0],[0]]","15","0","","","","","","7","","","","","","","","",""
"","","","","","single-stim-button","238","921259","0.0-2.0-56.2-1.2","56c8915edfea6c000cb29c98","B2","batch2","","1777","tol_toboard","","","","tol_peg_2","1777","1777","0","[[3,2,0],[1,0],[0]]","3","[[2,3,0],[1,0],[0]]","15","0","","","","","","7","","","","","","","","",""
"","","","","","single-stim-button","239","925822","0.0-2.0-56.3-0.3","56c8915edfea6c000cb29c98","B2","batch2","","4562","tol_tohand","","","","tol_peg_1","4562","4562","0","[[3,0,0],[1,0],[0]]","4","[[2,3,0],[1,0],[0]]","15","0","","","","","","7","","","","","","","","",""
"","","","","","single-stim-button","240","930668","0.0-2.0-56.3-1.3","56c8915edfea6c000cb29c98","B2","batch2","","4845","tol_toboard","","","","tol_peg_3","4845","4845","0","[[3,0,0],[1,0],[2]]","4","[[2,3,0],[1,0],[0]]","15","0","","","","","","7","","","","","","","","",""
"","","","","","single-stim-button","241","931806","0.0-2.0-56.4-0.4","56c8915edfea6c000cb29c98","B2","batch2","","1137","tol_tohand","","","","tol_peg_1","1137","1137","0","[[0,0,0],[1,0],[2]]","5","[[2,3,0],[1,0],[0]]","15","0","","","","","","7","","","","","","","","",""
"","","","","","single-stim-button","242","933106","0.0-2.0-56.4-1.4","56c8915edfea6c000cb29c98","B2","batch2","","1298","tol_toboard","","","","tol_peg_2","1298","1298","0","[[0,0,0],[1,3],[2]]","5","[[2,3,0],[1,0],[0]]","15","0","","","","","","7","","","","","","","","",""
"","","","","","single-stim-button","243","934745","0.0-2.0-56.5-0.5","56c8915edfea6c000cb29c98","B2","batch2","","1639","tol_tohand","","","","tol_peg_3","1639","1639","0","[[0,0,0],[1,3],[0]]","6","[[2,3,0],[1,0],[0]]","15","0","","","","","","7","","","","","","","","",""
"","","","","","single-stim-button","244","936371","0.0-2.0-56.5-1.5","56c8915edfea6c000cb29c98","B2","batch2","","1625","tol_toboard","","","","tol_peg_1","1625","1625","0","[[2,0,0],[1,3],[0]]","6","[[2,3,0],[1,0],[0]]","15","0","","","","","","7","","","","","","","","",""
"","","","","","single-stim-button","245","937397","0.0-2.0-56.6-0.6","56c8915edfea6c000cb29c98","B2","batch2","","1025","tol_tohand","","","","tol_peg_2","1025","1025","0","[[2,0,0],[1,0],[0]]","7","[[2,3,0],[1,0],[0]]","15","0","","","","","","7","","","","","","","","",""
"","","","","","single-stim-button","246","938698","0.0-2.0-56.6-1.6","56c8915edfea6c000cb29c98","B2","batch2","","1300","tol_toboard","","","","tol_peg_1","1300","1300","0","[[2,3,0],[1,0],[0]]","7","[[2,3,0],[1,0],[0]]","15","0","","","","","","7","","","","","","","","",""
"","","","","","poldrack-single-stim","247","939700","0.0-2.0-57.0","56c8915edfea6c000cb29c98","B2","batch2","","-1","tol_feedback","","","true","","1000","1000","500","","","","","","-1","none","true","12199","28952","","","","","","","","","",""
"","","","","","html-button-response","248","941150","0.0-2.0-58.0","56c8915edfea6c000cb29c98","B2","batch2","","1449.8000000715256","tol_trial_num","<div class = centerbox><p class = center-block-text>problem <strong>17</strong> out of 25 problems</p></div>","0","","","","","","","","","","","","","","","","","","","","","","","","",""
"","","","","","single-stim-button","249","955490","0.0-2.0-59.0-0.0","56c8915edfea6c000cb29c98","B2","batch2","","14339","tol_tohand","","","","tol_peg_2","14339","14339","0","[[1,2,0],[0,0],[0]]","1","[[3,1,0],[2,0],[0]]","16","0","","","","","","5","","","","","","","","",""
"","","","","","single-stim-button","250","956874","0.0-2.0-59.0-1.0","56c8915edfea6c000cb29c98","B2","batch2","","1384","tol_toboard","","","","tol_peg_3","1384","1384","0","[[1,2,0],[0,0],[3]]","1","[[3,1,0],[2,0],[0]]","16","0","","","","","","5","","","","","","","","",""
"","","","","","single-stim-button","251","958188","0.0-2.0-59.1-0.1","56c8915edfea6c000cb29c98","B2","batch2","","1313","tol_tohand","","","","tol_peg_1","1313","1313","0","[[1,0,0],[0,0],[3]]","2","[[3,1,0],[2,0],[0]]","16","0","","","","","","5","","","","","","","","",""
"","","","","","single-stim-button","252","959442","0.0-2.0-59.1-1.1","56c8915edfea6c000cb29c98","B2","batch2","","1252","tol_toboard","","","","tol_peg_2","1252","1252","0","[[1,0,0],[2,0],[3]]","2","[[3,1,0],[2,0],[0]]","16","0","","","","","","5","","","","","","","","",""
"","","","","","single-stim-button","253","960953","0.0-2.0-59.2-0.2","56c8915edfea6c000cb29c98","B2","batch2","","1510","tol_tohand","","","","tol_peg_1","1510","1510","0","[[0,0,0],[2,0],[3]]","3","[[3,1,0],[2,0],[0]]","16","0","","","","","","5","","","","","","","","",""
"","","","","","single-stim-button","254","964371","0.0-2.0-59.2-1.2","56c8915edfea6c000cb29c98","B2","batch2","","3417","tol_toboard","","","","tol_peg_2","3417","3417","0","[[0,0,0],[2,1],[3]]","3","[[3,1,0],[2,0],[0]]","16","0","","","","","","5","","","","","","","","",""
"","","","","","single-stim-button","255","965431","0.0-2.0-59.3-0.3","56c8915edfea6c000cb29c98","B2","batch2","","1058","tol_tohand","","","","tol_peg_3","1058","1058","0","[[0,0,0],[2,1],[0]]","4","[[3,1,0],[2,0],[0]]","16","0","","","","","","5","","","","","","","","",""
"","","","","","single-stim-button","256","966669","0.0-2.0-59.3-1.3","56c8915edfea6c000cb29c98","B2","batch2","","1238","tol_toboard","","","","tol_peg_1","1238","1238","0","[[3,0,0],[2,1],[0]]","4","[[3,1,0],[2,0],[0]]","16","0","","","","","","5","","","","","","","","",""
"","","","","","single-stim-button","257","968296","0.0-2.0-59.4-0.4","56c8915edfea6c000cb29c98","B2","batch2","","1625","tol_tohand","","","","tol_peg_2","1625","1625","0","[[3,0,0],[2,0],[0]]","5","[[3,1,0],[2,0],[0]]","16","0","","","","","","5","","","","","","","","",""
"","","","","","single-stim-button","258","969535","0.0-2.0-59.4-1.4","56c8915edfea6c000cb29c98","B2","batch2","","1239","tol_toboard","","","","tol_peg_1","1239","1239","0","[[3,1,0],[2,0],[0]]","5","[[3,1,0],[2,0],[0]]","16","0","","","","","","5","","","","","","","","",""
"","","","","","poldrack-single-stim","259","970536","0.0-2.0-60.0","56c8915edfea6c000cb29c98","B2","batch2","","-1","tol_feedback","","","true","","1000","1000","500","","","","","","-1","none","true","14339","19845","","","","","","","","","",""
"","","","","","html-button-response","260","972674","0.0-2.0-61.0","56c8915edfea6c000cb29c98","B2","batch2","","2137.1999999284744","tol_trial_num","<div class = centerbox><p class = center-block-text>problem <strong>18</strong> out of 25 problems</p></div>","0","","","","","","","","","","","","","","","","","","","","","","","","",""
"","","","","","single-stim-button","261","1005199","0.0-2.0-62.0-0.0","56c8915edfea6c000cb29c98","B2","batch2","","32523","tol_tohand","","","","tol_peg_2","32523","32523","0","[[1,2,0],[0,0],[0]]","1","[[3,0,0],[2,0],[1]]","17","0","","","","","","5","","","","","","","","",""
"","","","","","single-stim-button","262","1007413","0.0-2.0-62.0-1.0","56c8915edfea6c000cb29c98","B2","batch2","","2214","tol_toboard","","","","tol_peg_3","2214","2214","0","[[1,2,0],[0,0],[3]]","1","[[3,0,0],[2,0],[1]]","17","0","","","","","","5","","","","","","","","",""
"","","","","","single-stim-button","263","1009076","0.0-2.0-62.1-0.1","56c8915edfea6c000cb29c98","B2","batch2","","1662","tol_tohand","","","","tol_peg_1","1662","1662","0","[[1,0,0],[0,0],[3]]","2","[[3,0,0],[2,0],[1]]","17","0","","","","","","5","","","","","","","","",""
"","","","","","single-stim-button","264","1010577","0.0-2.0-62.1-1.1","56c8915edfea6c000cb29c98","B2","batch2","","1500","tol_toboard","","","","tol_peg_2","1500","1500","0","[[1,0,0],[2,0],[3]]","2","[[3,0,0],[2,0],[1]]","17","0","","","","","","5","","","","","","","","",""
"","","","","","single-stim-button","265","1011778","0.0-2.0-62.2-0.2","56c8915edfea6c000cb29c98","B2","batch2","","1201","tol_tohand","","","","tol_peg_1","1201","1201","0","[[0,0,0],[2,0],[3]]","3","[[3,0,0],[2,0],[1]]","17","0","","","","","","5","","","","","","","","",""
"","","","","","single-stim-button","266","1013017","0.0-2.0-62.2-1.2","56c8915edfea6c000cb29c98","B2","batch2","","1238","tol_toboard","","","","tol_peg_2","1238","1238","0","[[0,0,0],[2,1],[3]]","3","[[3,0,0],[2,0],[1]]","17","0","","","","","","5","","","","","","","","",""
"","","","","","single-stim-button","267","1014204","0.0-2.0-62.3-0.3","56c8915edfea6c000cb29c98","B2","batch2","","1187","tol_tohand","","","","tol_peg_3","1187","1187","0","[[0,0,0],[2,1],[0]]","4","[[3,0,0],[2,0],[1]]","17","0","","","","","","5","","","","","","","","",""
"","","","","","single-stim-button","268","1015605","0.0-2.0-62.3-1.3","56c8915edfea6c000cb29c98","B2","batch2","","1401","tol_toboard","","","","tol_peg_1","1401","1401","0","[[3,0,0],[2,1],[0]]","4","[[3,0,0],[2,0],[1]]","17","0","","","","","","5","","","","","","","","",""
"","","","","","single-stim-button","269","1016819","0.0-2.0-62.4-0.4","56c8915edfea6c000cb29c98","B2","batch2","","1214","tol_tohand","","","","tol_peg_2","1214","1214","0","[[3,0,0],[2,0],[0]]","5","[[3,0,0],[2,0],[1]]","17","0","","","","","","5","","","","","","","","",""
"","","","","","single-stim-button","270","1018595","0.0-2.0-62.4-1.4","56c8915edfea6c000cb29c98","B2","batch2","","1776","tol_toboard","","","","tol_peg_3","1776","1776","0","[[3,0,0],[2,0],[1]]","5","[[3,0,0],[2,0],[1]]","17","0","","","","","","5","","","","","","","","",""
"","","","","","poldrack-single-stim","271","1019597","0.0-2.0-63.0","56c8915edfea6c000cb29c98","B2","batch2","","-1","tol_feedback","","","true","","1000","1000","500","","","","","","-1","none","true","32523","37787","","","","","","","","","",""
"","","","","","html-button-response","272","1020996","0.0-2.0-64.0","56c8915edfea6c000cb29c98","B2","batch2","","1398.3000000715256","tol_trial_num","<div class = centerbox><p class = center-block-text>problem <strong>19</strong> out of 25 problems</p></div>","0","","","","","","","","","","","","","","","","","","","","","","","","",""
"","","","","","single-stim-button","273","1038694","0.0-2.0-65.0-0.0","56c8915edfea6c000cb29c98","B2","batch2","","17698","tol_tohand","","","","tol_peg_1","17698","17698","0","[[1,0,0],[3,0],[0]]","1","[[0,0,0],[1,2],[3]]","18","0","","","","","","7","","","","","","","","",""
"","","","","","single-stim-button","274","1058644","0.0-2.0-65.0-1.0","56c8915edfea6c000cb29c98","B2","batch2","","19949","tol_toboard","","","","tol_peg_1","19949","19949","0","[[1,2,0],[3,0],[0]]","1","[[0,0,0],[1,2],[3]]","18","0","","","","","","7","","","","","","","","",""
"","","","","","single-stim-button","275","1059920","0.0-2.0-65.1-0.1","56c8915edfea6c000cb29c98","B2","batch2","","1276","tol_tohand","","","","tol_peg_2","1276","1276","0","[[1,2,0],[0,0],[0]]","2","[[0,0,0],[1,2],[3]]","18","0","","","","","","7","","","","","","","","",""
"","","","","","single-stim-button","276","1061520","0.0-2.0-65.1-1.1","56c8915edfea6c000cb29c98","B2","batch2","","1599","tol_toboard","","","","tol_peg_3","1599","1599","0","[[1,2,0],[0,0],[3]]","2","[[0,0,0],[1,2],[3]]","18","0","","","","","","7","","","","","","","","",""
"","","","","","single-stim-button","277","1063110","0.0-2.0-65.2-0.2","56c8915edfea6c000cb29c98","B2","batch2","","1590","tol_tohand","","","","tol_peg_1","1590","1590","0","[[1,0,0],[0,0],[3]]","3","[[0,0,0],[1,2],[3]]","18","0","","","","","","7","","","","","","","","",""
"","","","","","single-stim-button","278","1082871","0.0-2.0-65.2-1.2","56c8915edfea6c000cb29c98","B2","batch2","","19760","tol_toboard","","","","tol_peg_1","19760","19760","0","[[1,2,0],[0,0],[3]]","3","[[0,0,0],[1,2],[3]]","18","0","","","","","","7","","","","","","","","",""
"","","","","","single-stim-button","279","1087011","0.0-2.0-65.3-0.3","56c8915edfea6c000cb29c98","B2","batch2","","4140","tol_tohand","","","","tol_peg_3","4140","4140","0","[[1,2,0],[0,0],[0]]","4","[[0,0,0],[1,2],[3]]","18","0","","","","","","7","","","","","","","","",""
"","","","","","single-stim-button","280","1088474","0.0-2.0-65.3-1.3","56c8915edfea6c000cb29c98","B2","batch2","","1462","tol_toboard","","","","tol_peg_2","1462","1462","0","[[1,2,0],[3,0],[0]]","4","[[0,0,0],[1,2],[3]]","18","0","","","","","","7","","","","","","","","",""
"","","","","","single-stim-button","281","1089538","0.0-2.0-65.4-0.4","56c8915edfea6c000cb29c98","B2","batch2","","1063","tol_tohand","","","","tol_peg_1","1063","1063","0","[[1,0,0],[3,0],[0]]","5","[[0,0,0],[1,2],[3]]","18","0","","","","","","7","","","","","","","","",""
"","","","","","single-stim-button","282","1112603","0.0-2.0-65.4-1.4","56c8915edfea6c000cb29c98","B2","batch2","","23065","tol_toboard","","","","tol_peg_3","23065","23065","0","[[1,0,0],[3,0],[2]]","5","[[0,0,0],[1,2],[3]]","18","0","","","","","","7","","","","","","","","",""
"","","","","","single-stim-button","283","1114417","0.0-2.0-65.5-0.5","56c8915edfea6c000cb29c98","B2","batch2","","1813","tol_tohand","","","","tol_peg_1","1813","1813","0","[[0,0,0],[3,0],[2]]","6","[[0,0,0],[1,2],[3]]","18","0","","","","","","7","","","","","","","","",""
"","","","","","single-stim-button","284","1116531","0.0-2.0-65.5-1.5","56c8915edfea6c000cb29c98","B2","batch2","","2113","tol_toboard","","","","tol_peg_2","2113","2113","0","[[0,0,0],[3,1],[2]]","6","[[0,0,0],[1,2],[3]]","18","0","","","","","","7","","","","","","","","",""
"","","","","","single-stim-button","285","1117695","0.0-2.0-65.6-0.6","56c8915edfea6c000cb29c98","B2","batch2","","1164","tol_tohand","","","","tol_peg_3","1164","1164","0","[[0,0,0],[3,1],[0]]","7","[[0,0,0],[1,2],[3]]","18","0","","","","","","7","","","","","","","","",""
"","","","","","single-stim-button","286","1124029","0.0-2.0-65.6-1.6","56c8915edfea6c000cb29c98","B2","batch2","","6332","tol_toboard","","","","tol_peg_1","6332","6332","0","[[2,0,0],[3,1],[0]]","7","[[0,0,0],[1,2],[3]]","18","0","","","","","","7","","","","","","","","",""
"","","","","","single-stim-button","287","1125463","0.0-2.0-65.7-0.7","56c8915edfea6c000cb29c98","B2","batch2","","1434","tol_tohand","","","","tol_peg_2","1434","1434","0","[[2,0,0],[3,0],[0]]","8","[[0,0,0],[1,2],[3]]","18","0","","","","","","7","","","","","","","","",""
"","","","","","single-stim-button","288","1127491","0.0-2.0-65.7-1.7","56c8915edfea6c000cb29c98","B2","batch2","","2028","tol_toboard","","","","tol_peg_1","2028","2028","0","[[2,1,0],[3,0],[0]]","8","[[0,0,0],[1,2],[3]]","18","0","","","","","","7","","","","","","","","",""
"","","","","","single-stim-button","289","1128593","0.0-2.0-65.8-0.8","56c8915edfea6c000cb29c98","B2","batch2","","1101","tol_tohand","","","","tol_peg_2","1101","1101","0","[[2,1,0],[0,0],[0]]","9","[[0,0,0],[1,2],[3]]","18","0","","","","","","7","","","","","","","","",""
"","","","","","single-stim-button","290","1129804","0.0-2.0-65.8-1.8","56c8915edfea6c000cb29c98","B2","batch2","","1210","tol_toboard","","","","tol_peg_3","1210","1210","0","[[2,1,0],[0,0],[3]]","9","[[0,0,0],[1,2],[3]]","18","0","","","","","","7","","","","","","","","",""
"","","","","","single-stim-button","291","1131044","0.0-2.0-65.9-0.9","56c8915edfea6c000cb29c98","B2","batch2","","1239","tol_tohand","","","","tol_peg_1","1239","1239","0","[[2,0,0],[0,0],[3]]","10","[[0,0,0],[1,2],[3]]","18","0","","","","","","7","","","","","","","","",""
"","","","","","single-stim-button","292","1132093","0.0-2.0-65.9-1.9","56c8915edfea6c000cb29c98","B2","batch2","","1049","tol_toboard","","","","tol_peg_2","1049","1049","0","[[2,0,0],[1,0],[3]]","10","[[0,0,0],[1,2],[3]]","18","0","","","","","","7","","","","","","","","",""
"","","","","","single-stim-button","293","1133182","0.0-2.0-65.10-0.10","56c8915edfea6c000cb29c98","B2","batch2","","1088","tol_tohand","","","","tol_peg_1","1088","1088","0","[[0,0,0],[1,0],[3]]","11","[[0,0,0],[1,2],[3]]","18","0","","","","","","7","","","","","","","","",""
"","","","","","single-stim-button","294","1134608","0.0-2.0-65.10-1.10","56c8915edfea6c000cb29c98","B2","batch2","","1426","tol_toboard","","","","tol_peg_2","1426","1426","0","[[0,0,0],[1,2],[3]]","11","[[0,0,0],[1,2],[3]]","18","0","","","","","","7","","","","","","","","",""
"","","","","","poldrack-single-stim","295","1135611","0.0-2.0-66.0","56c8915edfea6c000cb29c98","B2","batch2","","-1","tol_feedback","","","true","","1000","1000","500","","","","","","-1","none","true","17698","33606","","","","","","","","","",""
"","","","","","html-button-response","296","1137635","0.0-2.0-67.0","56c8915edfea6c000cb29c98","B2","batch2","","2023","tol_trial_num","<div class = centerbox><p class = center-block-text>problem <strong>20</strong> out of 25 problems</p></div>","0","","","","","","","","","","","","","","","","","","","","","","","","",""
"","","","","","single-stim-button","297","1142545","0.0-2.0-68.0-0.0","56c8915edfea6c000cb29c98","B2","batch2","","4909","tol_tohand","","","","tol_peg_2","4909","4909","0","[[1,2,0],[0,0],[0]]","1","[[2,1,0],[0,0],[3]]","19","0","","","","","","5","","","","","","","","",""
"","","","","","single-stim-button","298","1144715","0.0-2.0-68.0-1.0","56c8915edfea6c000cb29c98","B2","batch2","","2170","tol_toboard","","","","tol_peg_3","2170","2170","0","[[1,2,0],[0,0],[3]]","1","[[2,1,0],[0,0],[3]]","19","0","","","","","","5","","","","","","","","",""
"","","","","","single-stim-button","299","1145791","0.0-2.0-68.1-0.1","56c8915edfea6c000cb29c98","B2","batch2","","1075","tol_tohand","","","","tol_peg_1","1075","1075","0","[[1,0,0],[0,0],[3]]","2","[[2,1,0],[0,0],[3]]","19","0","","","","","","5","","","","","","","","",""
"","","","","","single-stim-button","300","1147093","0.0-2.0-68.1-1.1","56c8915edfea6c000cb29c98","B2","batch2","","1302","tol_toboard","","","","tol_peg_2","1302","1302","0","[[1,0,0],[2,0],[3]]","2","[[2,1,0],[0,0],[3]]","19","0","","","","","","5","","","","","","","","",""
"","","","","","single-stim-button","301","1148006","0.0-2.0-68.2-0.2","56c8915edfea6c000cb29c98","B2","batch2","","913","tol_tohand","","","","tol_peg_1","913","913","0","[[0,0,0],[2,0],[3]]","3","[[2,1,0],[0,0],[3]]","19","0","","","","","","5","","","","","","","","",""
"","","","","","single-stim-button","302","1153970","0.0-2.0-68.2-1.2","56c8915edfea6c000cb29c98","B2","batch2","","5963","tol_toboard","","","","tol_peg_2","5963","5963","0","[[0,0,0],[2,1],[3]]","3","[[2,1,0],[0,0],[3]]","19","0","","","","","","5","","","","","","","","",""
"","","","","","single-stim-button","303","1161434","0.0-2.0-68.3-0.3","56c8915edfea6c000cb29c98","B2","batch2","","7464","tol_tohand","","","","tol_peg_3","7464","7464","0","[[0,0,0],[2,1],[0]]","4","[[2,1,0],[0,0],[3]]","19","0","","","","","","5","","","","","","","","",""
"","","","","","single-stim-button","304","1162853","0.0-2.0-68.3-1.3","56c8915edfea6c000cb29c98","B2","batch2","","1418","tol_toboard","","","","tol_peg_1","1418","1418","0","[[3,0,0],[2,1],[0]]","4","[[2,1,0],[0,0],[3]]","19","0","","","","","","5","","","","","","","","",""
"","","","","","single-stim-button","305","1166580","0.0-2.0-68.4-0.4","56c8915edfea6c000cb29c98","B2","batch2","","3726","tol_tohand","","","","tol_peg_1","3726","3726","0","[[0,0,0],[2,1],[0]]","5","[[2,1,0],[0,0],[3]]","19","0","","","","","","5","","","","","","","","",""
"","","","","","single-stim-button","306","1167968","0.0-2.0-68.4-1.4","56c8915edfea6c000cb29c98","B2","batch2","","1387","tol_toboard","","","","tol_peg_3","1387","1387","0","[[0,0,0],[2,1],[3]]","5","[[2,1,0],[0,0],[3]]","19","0","","","","","","5","","","","","","","","",""
"","","","","","single-stim-button","307","1168994","0.0-2.0-68.5-0.5","56c8915edfea6c000cb29c98","B2","batch2","","1025","tol_tohand","","","","tol_peg_2","1025","1025","0","[[0,0,0],[2,0],[3]]","6","[[2,1,0],[0,0],[3]]","19","0","","","","","","5","","","","","","","","",""
"","","","","","single-stim-button","308","1170609","0.0-2.0-68.5-1.5","56c8915edfea6c000cb29c98","B2","batch2","","1613","tol_toboard","","","","tol_peg_1","1613","1613","0","[[1,0,0],[2,0],[3]]","6","[[2,1,0],[0,0],[3]]","19","0","","","","","","5","","","","","","","","",""
"","","","","","single-stim-button","309","1171871","0.0-2.0-68.6-0.6","56c8915edfea6c000cb29c98","B2","batch2","","1262","tol_tohand","","","","tol_peg_2","1262","1262","0","[[1,0,0],[0,0],[3]]","7","[[2,1,0],[0,0],[3]]","19","0","","","","","","5","","","","","","","","",""
"","","","","","single-stim-button","310","1173797","0.0-2.0-68.6-1.6","56c8915edfea6c000cb29c98","B2","batch2","","1925","tol_toboard","","","","tol_peg_1","1925","1925","0","[[1,2,0],[0,0],[3]]","7","[[2,1,0],[0,0],[3]]","19","0","","","","","","5","","","","","","","","",""
"","","","","","single-stim-button","311","1175350","0.0-2.0-68.7-0.7","56c8915edfea6c000cb29c98","B2","batch2","","1551","tol_tohand","","","","tol_peg_3","1551","1551","0","[[1,2,0],[0,0],[0]]","8","[[2,1,0],[0,0],[3]]","19","0","","","","","","5","","","","","","","","",""
"","","","","","single-stim-button","312","1176724","0.0-2.0-68.7-1.7","56c8915edfea6c000cb29c98","B2","batch2","","1374","tol_toboard","","","","tol_peg_2","1374","1374","0","[[1,2,0],[3,0],[0]]","8","[[2,1,0],[0,0],[3]]","19","0","","","","","","5","","","","","","","","",""
"","","","","","single-stim-button","313","1177839","0.0-2.0-68.8-0.8","56c8915edfea6c000cb29c98","B2","batch2","","1114","tol_tohand","","","","tol_peg_1","1114","1114","0","[[1,0,0],[3,0],[0]]","9","[[2,1,0],[0,0],[3]]","19","0","","","","","","5","","","","","","","","",""
"","","","","","single-stim-button","314","1179089","0.0-2.0-68.8-1.8","56c8915edfea6c000cb29c98","B2","batch2","","1250","tol_toboard","","","","tol_peg_3","1250","1250","0","[[1,0,0],[3,0],[2]]","9","[[2,1,0],[0,0],[3]]","19","0","","","","","","5","","","","","","","","",""
"","","","","","single-stim-button","315","1180489","0.0-2.0-68.9-0.9","56c8915edfea6c000cb29c98","B2","batch2","","1400","tol_tohand","","","","tol_peg_1","1400","1400","0","[[0,0,0],[3,0],[2]]","10","[[2,1,0],[0,0],[3]]","19","0","","","","","","5","","","","","","","","",""
"","","","","","single-stim-button","316","1181764","0.0-2.0-68.9-1.9","56c8915edfea6c000cb29c98","B2","batch2","","1275","tol_toboard","","","","tol_peg_2","1275","1275","0","[[0,0,0],[3,1],[2]]","10","[[2,1,0],[0,0],[3]]","19","0","","","","","","5","","","","","","","","",""
"","","","","","single-stim-button","317","1182728","0.0-2.0-68.10-0.10","56c8915edfea6c000cb29c98","B2","batch2","","963","tol_tohand","","","","tol_peg_3","963","963","0","[[0,0,0],[3,1],[0]]","11","[[2,1,0],[0,0],[3]]","19","0","","","","","","5","","","","","","","","",""
"","","","","","single-stim-button","318","1184041","0.0-2.0-68.10-1.10","56c8915edfea6c000cb29c98","B2","batch2","","1313","tol_toboard","","","","tol_peg_1","1313","1313","0","[[2,0,0],[3,1],[0]]","11","[[2,1,0],[0,0],[3]]","19","0","","","","","","5","","","","","","","","",""
"","","","","","single-stim-button","319","1185617","0.0-2.0-68.11-0.11","56c8915edfea6c000cb29c98","B2","batch2","","1574","tol_tohand","","","","tol_peg_2","1574","1574","0","[[2,0,0],[3,0],[0]]","12","[[2,1,0],[0,0],[3]]","19","0","","","","","","5","","","","","","","","",""
"","","","","","single-stim-button","320","1186795","0.0-2.0-68.11-1.11","56c8915edfea6c000cb29c98","B2","batch2","","1177","tol_toboard","","","","tol_peg_1","1177","1177","0","[[2,1,0],[3,0],[0]]","12","[[2,1,0],[0,0],[3]]","19","0","","","","","","5","","","","","","","","",""
"","","","","","single-stim-button","321","1187944","0.0-2.0-68.12-0.12","56c8915edfea6c000cb29c98","B2","batch2","","1149","tol_tohand","","","","tol_peg_2","1149","1149","0","[[2,1,0],[0,0],[0]]","13","[[2,1,0],[0,0],[3]]","19","0","","","","","","5","","","","","","","","",""
"","","","","","single-stim-button","322","1189019","0.0-2.0-68.12-1.12","56c8915edfea6c000cb29c98","B2","batch2","","1075","tol_toboard","","","","tol_peg_3","1075","1075","0","[[2,1,0],[0,0],[3]]","13","[[2,1,0],[0,0],[3]]","19","0","","","","","","5","","","","","","","","",""
"","","","","","poldrack-single-stim","323","1190022","0.0-2.0-69.0","56c8915edfea6c000cb29c98","B2","batch2","","-1","tol_feedback","","","true","","1000","1000","500","","","","","","-1","none","true","4909","28125","","","","","","","","","",""
"","","","","","html-button-response","324","1191384","0.0-2.0-70.0","56c8915edfea6c000cb29c98","B2","batch2","","1361.5","tol_trial_num","<div class = centerbox><p class = center-block-text>problem <strong>21</strong> out of 25 problems</p></div>","0","","","","","","","","","","","","","","","","","","","","","","","","",""
"","","","","","single-stim-button","325","1200829","0.0-2.0-71.0-0.0","56c8915edfea6c000cb29c98","B2","batch2","","9444","tol_tohand","","","","tol_peg_1","9444","9444","0","[[1,0,0],[3,0],[0]]","1","[[3,2,0],[0,0],[1]]","20","0","","","","","","6","","","","","","","","",""
"","","","","","single-stim-button","326","1204425","0.0-2.0-71.0-1.0","56c8915edfea6c000cb29c98","B2","batch2","","3595","tol_toboard","","","","tol_peg_2","3595","3595","0","[[1,0,0],[3,2],[0]]","1","[[3,2,0],[0,0],[1]]","20","0","","","","","","6","","","","","","","","",""
"","","","","","single-stim-button","327","1205843","0.0-2.0-71.1-0.1","56c8915edfea6c000cb29c98","B2","batch2","","1417","tol_tohand","","","","tol_peg_1","1417","1417","0","[[0,0,0],[3,2],[0]]","2","[[3,2,0],[0,0],[1]]","20","0","","","","","","6","","","","","","","","",""
"","","","","","single-stim-button","328","1210648","0.0-2.0-71.1-1.1","56c8915edfea6c000cb29c98","B2","batch2","","4803","tol_toboard","","","","tol_peg_1","4803","4803","0","[[1,0,0],[3,2],[0]]","2","[[3,2,0],[0,0],[1]]","20","0","","","","","","6","","","","","","","","",""
"","","","","","single-stim-button","329","1212311","0.0-2.0-71.2-0.2","56c8915edfea6c000cb29c98","B2","batch2","","1662","tol_tohand","","","","tol_peg_2","1662","1662","0","[[1,0,0],[3,0],[0]]","3","[[3,2,0],[0,0],[1]]","20","0","","","","","","6","","","","","","","","",""
"","","","","","single-stim-button","330","1213636","0.0-2.0-71.2-1.2","56c8915edfea6c000cb29c98","B2","batch2","","1324","tol_toboard","","","","tol_peg_1","1324","1324","0","[[1,2,0],[3,0],[0]]","3","[[3,2,0],[0,0],[1]]","20","0","","","","","","6","","","","","","","","",""
"","","","","","single-stim-button","331","1214912","0.0-2.0-71.3-0.3","56c8915edfea6c000cb29c98","B2","batch2","","1275","tol_tohand","","","","tol_peg_2","1275","1275","0","[[1,2,0],[0,0],[0]]","4","[[3,2,0],[0,0],[1]]","20","0","","","","","","6","","","","","","","","",""
"","","","","","single-stim-button","332","1216313","0.0-2.0-71.3-1.3","56c8915edfea6c000cb29c98","B2","batch2","","1401","tol_toboard","","","","tol_peg_3","1401","1401","0","[[1,2,0],[0,0],[3]]","4","[[3,2,0],[0,0],[1]]","20","0","","","","","","6","","","","","","","","",""
"","","","","","single-stim-button","333","1217965","0.0-2.0-71.4-0.4","56c8915edfea6c000cb29c98","B2","batch2","","1651","tol_tohand","","","","tol_peg_1","1651","1651","0","[[1,0,0],[0,0],[3]]","5","[[3,2,0],[0,0],[1]]","20","0","","","","","","6","","","","","","","","",""
"","","","","","single-stim-button","334","1219253","0.0-2.0-71.4-1.4","56c8915edfea6c000cb29c98","B2","batch2","","1288","tol_toboard","","","","tol_peg_2","1288","1288","0","[[1,0,0],[2,0],[3]]","5","[[3,2,0],[0,0],[1]]","20","0","","","","","","6","","","","","","","","",""
"","","","","","single-stim-button","335","1220453","0.0-2.0-71.5-0.5","56c8915edfea6c000cb29c98","B2","batch2","","1199","tol_tohand","","","","tol_peg_1","1199","1199","0","[[0,0,0],[2,0],[3]]","6","[[3,2,0],[0,0],[1]]","20","0","","","","","","6","","","","","","","","",""
"","","","","","single-stim-button","336","1221729","0.0-2.0-71.5-1.5","56c8915edfea6c000cb29c98","B2","batch2","","1276","tol_toboard","","","","tol_peg_2","1276","1276","0","[[0,0,0],[2,1],[3]]","6","[[3,2,0],[0,0],[1]]","20","0","","","","","","6","","","","","","","","",""
"","","","","","single-stim-button","337","1223771","0.0-2.0-71.6-0.6","56c8915edfea6c000cb29c98","B2","batch2","","2041","tol_tohand","","","","tol_peg_3","2041","2041","0","[[0,0,0],[2,1],[0]]","7","[[3,2,0],[0,0],[1]]","20","0","","","","","","6","","","","","","","","",""
"","","","","","single-stim-button","338","1225071","0.0-2.0-71.6-1.6","56c8915edfea6c000cb29c98","B2","batch2","","1299","tol_toboard","","","","tol_peg_1","1299","1299","0","[[3,0,0],[2,1],[0]]","7","[[3,2,0],[0,0],[1]]","20","0","","","","","","6","","","","","","","","",""
"","","","","","single-stim-button","339","1226558","0.0-2.0-71.7-0.7","56c8915edfea6c000cb29c98","B2","batch2","","1487","tol_tohand","","","","tol_peg_2","1487","1487","0","[[3,0,0],[2,0],[0]]","8","[[3,2,0],[0,0],[1]]","20","0","","","","","","6","","","","","","","","",""
"","","","","","single-stim-button","340","1228008","0.0-2.0-71.7-1.7","56c8915edfea6c000cb29c98","B2","batch2","","1449","tol_toboard","","","","tol_peg_3","1449","1449","0","[[3,0,0],[2,0],[1]]","8","[[3,2,0],[0,0],[1]]","20","0","","","","","","6","","","","","","","","",""
"","","","","","single-stim-button","341","1229160","0.0-2.0-71.8-0.8","56c8915edfea6c000cb29c98","B2","batch2","","1151","tol_tohand","","","","tol_peg_2","1151","1151","0","[[3,0,0],[0,0],[1]]","9","[[3,2,0],[0,0],[1]]","20","0","","","","","","6","","","","","","","","",""
"","","","","","single-stim-button","342","1230572","0.0-2.0-71.8-1.8","56c8915edfea6c000cb29c98","B2","batch2","","1412","tol_toboard","","","","tol_peg_1","1412","1412","0","[[3,2,0],[0,0],[1]]","9","[[3,2,0],[0,0],[1]]","20","0","","","","","","6","","","","","","","","",""
"","","","","","poldrack-single-stim","343","1231574","0.0-2.0-72.0","56c8915edfea6c000cb29c98","B2","batch2","","-1","tol_feedback","","","true","","1000","1000","500","","","","","","-1","none","true","9444","21327","","","","","","","","","",""
"","","","","","html-button-response","344","1232787","0.0-2.0-73.0","56c8915edfea6c000cb29c98","B2","batch2","","1212.0999999046326","tol_trial_num","<div class = centerbox><p class = center-block-text>problem <strong>22</strong> out of 25 problems</p></div>","0","","","","","","","","","","","","","","","","","","","","","","","","",""
"","","","","","single-stim-button","345","1248799","0.0-2.0-74.0-0.0","56c8915edfea6c000cb29c98","B2","batch2","","16010","tol_tohand","","","","tol_peg_2","16010","16010","0","[[1,0,0],[2,0],[0]]","1","[[0,0,0],[1,2],[3]]","21","0","","","","","","6","","","","","","","","",""
"","","","","","single-stim-button","346","1250564","0.0-2.0-74.0-1.0","56c8915edfea6c000cb29c98","B2","batch2","","1764","tol_toboard","","","","tol_peg_1","1764","1764","0","[[1,3,0],[2,0],[0]]","1","[[0,0,0],[1,2],[3]]","21","0","","","","","","6","","","","","","","","",""
"","","","","","single-stim-button","347","1251750","0.0-2.0-74.1-0.1","56c8915edfea6c000cb29c98","B2","batch2","","1186","tol_tohand","","","","tol_peg_2","1186","1186","0","[[1,3,0],[0,0],[0]]","2","[[0,0,0],[1,2],[3]]","21","0","","","","","","6","","","","","","","","",""
"","","","","","single-stim-button","348","1260431","0.0-2.0-74.1-1.1","56c8915edfea6c000cb29c98","B2","batch2","","8681","tol_toboard","","","","tol_peg_3","8681","8681","0","[[1,3,0],[0,0],[2]]","2","[[0,0,0],[1,2],[3]]","21","0","","","","","","6","","","","","","","","",""
"","","","","","single-stim-button","349","1261905","0.0-2.0-74.2-0.2","56c8915edfea6c000cb29c98","B2","batch2","","1473","tol_tohand","","","","tol_peg_1","1473","1473","0","[[1,0,0],[0,0],[2]]","3","[[0,0,0],[1,2],[3]]","21","0","","","","","","6","","","","","","","","",""
"","","","","","single-stim-button","350","1276860","0.0-2.0-74.2-1.2","56c8915edfea6c000cb29c98","B2","batch2","","14954","tol_toboard","","","","tol_peg_2","14954","14954","0","[[1,0,0],[3,0],[2]]","3","[[0,0,0],[1,2],[3]]","21","0","","","","","","6","","","","","","","","",""
"","","","","","single-stim-button","351","1278541","0.0-2.0-74.3-0.3","56c8915edfea6c000cb29c98","B2","batch2","","1680","tol_tohand","","","","tol_peg_1","1680","1680","0","[[0,0,0],[3,0],[2]]","4","[[0,0,0],[1,2],[3]]","21","0","","","","","","6","","","","","","","","",""
"","","","","","single-stim-button","352","1282006","0.0-2.0-74.3-1.3","56c8915edfea6c000cb29c98","B2","batch2","","3464","tol_toboard","","","","tol_peg_2","3464","3464","0","[[0,0,0],[3,1],[2]]","4","[[0,0,0],[1,2],[3]]","21","0","","","","","","6","","","","","","","","",""
"","","","","","single-stim-button","353","1283420","0.0-2.0-74.4-0.4","56c8915edfea6c000cb29c98","B2","batch2","","1413","tol_tohand","","","","tol_peg_3","1413","1413","0","[[0,0,0],[3,1],[0]]","5","[[0,0,0],[1,2],[3]]","21","0","","","","","","6","","","","","","","","",""
