"success","timeout","failed_images","failed_audio","failed_video","trial_type","trial_index","time_elapsed","internal_node_id","subject_id","study_id","session_id","view_history","rt","task","stimulus","response","correct","mouse_click","stim_duration","block_duration","timing_post_trial","current_position","tol_num_moves_made","tol_target","tol_problem_id","tol_rt","key_press","possible_responses","tol_correct","preplanning","tol_rt_per_trial","tol_min_moves","answer","item","fiar_detect_rt","fiar_detect_correct","total_correct_fiar_detect","post_trial_gap","choices","spm_correct","spm_rt"
"true","false","[]","[]","[]","preload","0","930","0.0-0.0","56d0f57421cd29000a9737e4","F1","batch6","","","","","","","","","","","","","","","","","","","","","","","","","","","","","",""
"true","","","","","fullscreen","1","10527","0.0-1.0-0.0","56d0f57421cd29000a9737e4","F1","batch6","","","","","","","","","","","","","","","","","","","","","","","","","","","","","",""
"true","","","","","fullscreen","2","13776","0.0-2.0-0.0","56d0f57421cd29000a9737e4","F1","batch6","","","","","","","","","","","","","","","","","","","","","","","","","","","","","",""
"","","","","","instructions","3","66265","0.0-2.0-1.0-0.0-0.0","56d0f57421cd29000a9737e4","F1","batch6","[{""page_index"":0,""viewing_time"":7918.900000095367},{""page_index"":1,""viewing_time"":6317.799999952316},{""page_index"":2,""viewing_time"":3172.100000023842},{""page_index"":3,""viewing_time"":8440.100000023842},{""page_index"":4,""viewing_time"":5659.799999952316},{""page_index"":5,""viewing_time"":15328},{""page_index"":6,""viewing_time"":5652}]","52488.800000071526","tol-instructions","","","","","","","","","","","","","","","","","","","","","","","","","","",""
"","","","","","html-button-response","4","67628","0.0-2.0-1.0-1.0-0.0","56d0f57421cd29000a9737e4","F1","batch6","","1361.2000000476837","tol_enter_quiz","<p class=block-text> Let's answer a few questions <br>","0","","","","","","","","","","","","","","","","","","","","","","","","",""
"","","","","","html-button-response","5","74207","0.0-2.0-1.0-1.0-1.0","56d0f57421cd29000a9737e4","F1","batch6","","6578.899999976158","tol_quiz","<p class = block-text>True or False: You can only move the ball on top of a peg. <br></p>","0","true","","","","","","","","","","","","","","","","","","","","","","","",""
"","","","","","html-button-response","6","76445","0.0-2.0-1.0-1.0-2.0","56d0f57421cd29000a9737e4","F1","batch6","","2236.6999999284744","tol_quiz_feedback","<p class = block-text>Correct! You can only move the ball on top of a peg.</p>","0","","","","","","","","","","","","","","","","","","","","","","","","",""
"","","","","","html-button-response","7","79897","0.0-2.0-1.0-1.0-3.0","56d0f57421cd29000a9737e4","F1","batch6","","3451.1999999284744","tol_quiz","<p class = block-text>True or False: You should try to match your board with the target board with fewest moves possible. <br></p>","0","true","","","","","","","","","","","","","","","","","","","","","","","",""
"","","","","","html-button-response","8","80517","0.0-2.0-1.0-1.0-4.0","56d0f57421cd29000a9737e4","F1","batch6","","619.3999999761581","tol_quiz_feedback","<p class = block-text>Correct! </p>","0","","","","","","","","","","","","","","","","","","","","","","","","",""
"","","","","","html-button-response","9","83807","0.0-2.0-2.0","56d0f57421cd29000a9737e4","F1","batch6","","3289.100000023842","","<p class=block-text> Now that you've understood the game, let's practice a few easier examples before we start!<br> <br>","0","","","","","","","","","","","","","","","","","","","","","","","","",""
"","","","","","single-stim-button","10","86060","0.0-2.0-3.0-0.0","56d0f57421cd29000a9737e4","F1","batch6","","2251","tol_practice","","","","tol_peg_2","2251","2251","0","[[1,2,0],[0,0],[0]]","1","[[1,2,0],[0,0],[3]]","practice","2251","","","","","","","","","","","","","","",""
"","","","","","single-stim-button","11","88149","0.0-2.0-3.0-1.0","56d0f57421cd29000a9737e4","F1","batch6","","2088","tol_practice","","","","tol_peg_3","2088","2088","0","[[1,2,0],[0,0],[3]]","1","[[1,2,0],[0,0],[3]]","practice","2088","","","","","","","","","","","","","","",""
"","","","","","poldrack-single-stim","12","89151","0.0-2.0-4.0","56d0f57421cd29000a9737e4","F1","batch6","","-1","tol_feedback","","","true","","1000","1000","500","","","","","","-1","none","true","","0","","","","","","","","","",""
"","","","","","single-stim-button","13","92731","0.0-2.0-5.0-0.0","56d0f57421cd29000a9737e4","F1","batch6","","3580","tol_practice","","","","tol_peg_1","3580","3580","0","[[1,0,0],[3,0],[0]]","2","[[0,0,0],[3,1],[2]]","practice","3580","","","","","","","","","","","","","","",""
"","","","","","single-stim-button","14","94149","0.0-2.0-5.0-1.0","56d0f57421cd29000a9737e4","F1","batch6","","1417","tol_practice","","","","tol_peg_3","1417","1417","0","[[1,0,0],[3,0],[2]]","2","[[0,0,0],[3,1],[2]]","practice","1417","","","","","","","","","","","","","","",""
"","","","","","single-stim-button","15","95457","0.0-2.0-5.1-0.1","56d0f57421cd29000a9737e4","F1","batch6","","1307","tol_practice","","","","tol_peg_1","1307","1307","0","[[0,0,0],[3,0],[2]]","3","[[0,0,0],[3,1],[2]]","practice","1307","","","","","","","","","","","","","","",""
"","","","","","single-stim-button","16","96145","0.0-2.0-5.1-1.1","56d0f57421cd29000a9737e4","F1","batch6","","688","tol_practice","","","","tol_peg_2","688","688","0","[[0,0,0],[3,1],[2]]","3","[[0,0,0],[3,1],[2]]","practice","688","","","","","","","","","","","","","","",""
"","","","","","poldrack-single-stim","17","97146","0.0-2.0-6.0","56d0f57421cd29000a9737e4","F1","batch6","","-1","tol_feedback","","","true","","1000","1000","500","","","","","","-1","none","true","","0","","","","","","","","","",""
"","","","","","single-stim-button","18","99249","0.0-2.0-7.0-0.0","56d0f57421cd29000a9737e4","F1","batch6","","2103","tol_practice","","","","tol_peg_2","2103","2103","0","[[1,2,0],[0,0],[0]]","4","[[1,0,0],[2,0],[3]]","practice","2103","","","","","","","","","","","","","","",""
"","","","","","single-stim-button","19","99699","0.0-2.0-7.0-1.0","56d0f57421cd29000a9737e4","F1","batch6","","450","tol_practice","","","","tol_peg_3","450","450","0","[[1,2,0],[0,0],[3]]","4","[[1,0,0],[2,0],[3]]","practice","450","","","","","","","","","","","","","","",""
"","","","","","single-stim-button","20","100859","0.0-2.0-7.1-0.1","56d0f57421cd29000a9737e4","F1","batch6","","1160","tol_practice","","","","tol_peg_1","1160","1160","0","[[1,0,0],[0,0],[3]]","5","[[1,0,0],[2,0],[3]]","practice","1160","","","","","","","","","","","","","","",""
"","","","","","single-stim-button","21","101417","0.0-2.0-7.1-1.1","56d0f57421cd29000a9737e4","F1","batch6","","558","tol_practice","","","","tol_peg_2","558","558","0","[[1,0,0],[2,0],[3]]","5","[[1,0,0],[2,0],[3]]","practice","558","","","","","","","","","","","","","","",""
"","","","","","poldrack-single-stim","22","102419","0.0-2.0-8.0","56d0f57421cd29000a9737e4","F1","batch6","","-1","tol_feedback","","","true","","1000","1000","500","","","","","","-1","none","true","","0","","","","","","","","","",""
"","","","","","html-button-response","23","106465","0.0-2.0-9.0","56d0f57421cd29000a9737e4","F1","batch6","","4045.100000023842","tol_instruction","<div class = centerbox><p class = center-block-text>Great job! You are done with practice trials<br>You are about to start official trials.<br> <br> Problem <strong>1</strong> out of 25 problems</p></div>","0","","","","","","","","","","","","","","","","","","","","","","","","",""
"","","","","","single-stim-button","24","110923","0.0-2.0-10.0-0.0","56d0f57421cd29000a9737e4","F1","batch6","","3457","tol_tohand","","","","tol_peg_2","3457","3457","0","[[1,2,0],[0,0],[0]]","1","[[1,3,0],[2,0],[0]]","0","0","","","","","","3","","","","","","","","",""
"","","","","","single-stim-button","25","111619","0.0-2.0-10.0-1.0","56d0f57421cd29000a9737e4","F1","batch6","","695","tol_toboard","","","","tol_peg_3","695","695","0","[[1,2,0],[0,0],[3]]","1","[[1,3,0],[2,0],[0]]","0","0","","","","","","3","","","","","","","","",""
"","","","","","single-stim-button","26","112517","0.0-2.0-10.1-0.1","56d0f57421cd29000a9737e4","F1","batch6","","897","tol_tohand","","","","tol_peg_1","897","897","0","[[1,0,0],[0,0],[3]]","2","[[1,3,0],[2,0],[0]]","0","0","","","","","","3","","","","","","","","",""
"","","","","","single-stim-button","27","113407","0.0-2.0-10.1-1.1","56d0f57421cd29000a9737e4","F1","batch6","","889","tol_toboard","","","","tol_peg_2","889","889","0","[[1,0,0],[2,0],[3]]","2","[[1,3,0],[2,0],[0]]","0","0","","","","","","3","","","","","","","","",""
"","","","","","single-stim-button","28","114305","0.0-2.0-10.2-0.2","56d0f57421cd29000a9737e4","F1","batch6","","898","tol_tohand","","","","tol_peg_3","898","898","0","[[1,0,0],[2,0],[0]]","3","[[1,3,0],[2,0],[0]]","0","0","","","","","","3","","","","","","","","",""
"","","","","","single-stim-button","29","115025","0.0-2.0-10.2-1.2","56d0f57421cd29000a9737e4","F1","batch6","","720","tol_toboard","","","","tol_peg_1","720","720","0","[[1,3,0],[2,0],[0]]","3","[[1,3,0],[2,0],[0]]","0","0","","","","","","3","","","","","","","","",""
"","","","","","poldrack-single-stim","30","116026","0.0-2.0-11.0","56d0f57421cd29000a9737e4","F1","batch6","","-1","tol_feedback","","","true","","1000","1000","500","","","","","","-1","none","true","3457","5252","","","","","","","","","",""
"","","","","","html-button-response","31","117055","0.0-2.0-12.0","56d0f57421cd29000a9737e4","F1","batch6","","1028.5999999046326","tol_trial_num","<div class = centerbox><p class = center-block-text>problem <strong>2</strong> out of 25 problems</p></div>","0","","","","","","","","","","","","","","","","","","","","","","","","",""
"","","","","","single-stim-button","32","130361","0.0-2.0-13.0-0.0","56d0f57421cd29000a9737e4","F1","batch6","","13306","tol_tohand","","","","tol_peg_1","13306","13306","0","[[1,0,0],[3,0],[0]]","1","[[2,1,3],[0,0],[0]]","1","0","","","","","","5","","","","","","","","",""
"","","","","","single-stim-button","33","131141","0.0-2.0-13.0-1.0","56d0f57421cd29000a9737e4","F1","batch6","","780","tol_toboard","","","","tol_peg_3","780","780","0","[[1,0,0],[3,0],[2]]","1","[[2,1,3],[0,0],[0]]","1","0","","","","","","5","","","","","","","","",""
"","","","","","single-stim-button","34","131909","0.0-2.0-13.1-0.1","56d0f57421cd29000a9737e4","F1","batch6","","768","tol_tohand","","","","tol_peg_1","768","768","0","[[0,0,0],[3,0],[2]]","2","[[2,1,3],[0,0],[0]]","1","0","","","","","","5","","","","","","","","",""
"","","","","","single-stim-button","35","133217","0.0-2.0-13.1-1.1","56d0f57421cd29000a9737e4","F1","batch6","","1307","tol_toboard","","","","tol_peg_2","1307","1307","0","[[0,0,0],[3,1],[2]]","2","[[2,1,3],[0,0],[0]]","1","0","","","","","","5","","","","","","","","",""
"","","","","","single-stim-button","36","134199","0.0-2.0-13.2-0.2","56d0f57421cd29000a9737e4","F1","batch6","","982","tol_tohand","","","","tol_peg_3","982","982","0","[[0,0,0],[3,1],[0]]","3","[[2,1,3],[0,0],[0]]","1","0","","","","","","5","","","","","","","","",""
"","","","","","single-stim-button","37","135067","0.0-2.0-13.2-1.2","56d0f57421cd29000a9737e4","F1","batch6","","868","tol_toboard","","","","tol_peg_1","868","868","0","[[2,0,0],[3,1],[0]]","3","[[2,1,3],[0,0],[0]]","1","0","","","","","","5","","","","","","","","",""
"","","","","","single-stim-button","38","135817","0.0-2.0-13.3-0.3","56d0f57421cd29000a9737e4","F1","batch6","","750","tol_tohand","","","","tol_peg_2","750","750","0","[[2,0,0],[3,0],[0]]","4","[[2,1,3],[0,0],[0]]","1","0","","","","","","5","","","","","","","","",""
"","","","","","single-stim-button","39","137017","0.0-2.0-13.3-1.3","56d0f57421cd29000a9737e4","F1","batch6","","1200","tol_toboard","","","","tol_peg_1","1200","1200","0","[[2,1,0],[3,0],[0]]","4","[[2,1,3],[0,0],[0]]","1","0","","","","","","5","","","","","","","","",""
"","","","","","single-stim-button","40","137543","0.0-2.0-13.4-0.4","56d0f57421cd29000a9737e4","F1","batch6","","526","tol_tohand","","","","tol_peg_2","526","526","0","[[2,1,0],[0,0],[0]]","5","[[2,1,3],[0,0],[0]]","1","0","","","","","","5","","","","","","","","",""
"","","","","","single-stim-button","41","138053","0.0-2.0-13.4-1.4","56d0f57421cd29000a9737e4","F1","batch6","","510","tol_toboard","","","","tol_peg_1","510","510","0","[[2,1,3],[0,0],[0]]","5","[[2,1,3],[0,0],[0]]","1","0","","","","","","5","","","","","","","","",""
"","","","","","poldrack-single-stim","42","139054","0.0-2.0-14.0","56d0f57421cd29000a9737e4","F1","batch6","","-1","tol_feedback","","","true","","1000","1000","500","","","","","","-1","none","true","13306","16332","","","","","","","","","",""
"","","","","","html-button-response","43","140345","0.0-2.0-15.0","56d0f57421cd29000a9737e4","F1","batch6","","1290.2999999523163","tol_trial_num","<div class = centerbox><p class = center-block-text>problem <strong>3</strong> out of 25 problems</p></div>","0","","","","","","","","","","","","","","","","","","","","","","","","",""
"","","","","","single-stim-button","44","158196","0.0-2.0-16.0-0.0","56d0f57421cd29000a9737e4","F1","batch6","","17850","tol_tohand","","","","tol_peg_1","17850","17850","0","[[2,0,0],[0,0],[1]]","1","[[1,2,0],[3,0],[0]]","2","0","","","","","","4","","","","","","","","",""
"","","","","","single-stim-button","45","160156","0.0-2.0-16.0-1.0","56d0f57421cd29000a9737e4","F1","batch6","","1959","tol_toboard","","","","tol_peg_2","1959","1959","0","[[2,0,0],[3,0],[1]]","1","[[1,2,0],[3,0],[0]]","2","0","","","","","","4","","","","","","","","",""
"","","","","","single-stim-button","46","160711","0.0-2.0-16.1-0.1","56d0f57421cd29000a9737e4","F1","batch6","","555","tol_tohand","","","","tol_peg_1","555","555","0","[[0,0,0],[3,0],[1]]","2","[[1,2,0],[3,0],[0]]","2","0","","","","","","4","","","","","","","","",""
"","","","","","single-stim-button","47","161122","0.0-2.0-16.1-1.1","56d0f57421cd29000a9737e4","F1","batch6","","410","tol_toboard","","","","tol_peg_2","410","410","0","[[0,0,0],[3,2],[1]]","2","[[1,2,0],[3,0],[0]]","2","0","","","","","","4","","","","","","","","",""
"","","","","","single-stim-button","48","161588","0.0-2.0-16.2-0.2","56d0f57421cd29000a9737e4","F1","batch6","","465","tol_tohand","","","","tol_peg_3","465","465","0","[[0,0,0],[3,2],[0]]","3","[[1,2,0],[3,0],[0]]","2","0","","","","","","4","","","","","","","","",""
"","","","","","single-stim-button","49","162377","0.0-2.0-16.2-1.2","56d0f57421cd29000a9737e4","F1","batch6","","789","tol_toboard","","","","tol_peg_1","789","789","0","[[1,0,0],[3,2],[0]]","3","[[1,2,0],[3,0],[0]]","2","0","","","","","","4","","","","","","","","",""
"","","","","","single-stim-button","50","162879","0.0-2.0-16.3-0.3","56d0f57421cd29000a9737e4","F1","batch6","","501","tol_tohand","","","","tol_peg_2","501","501","0","[[1,0,0],[3,0],[0]]","4","[[1,2,0],[3,0],[0]]","2","0","","","","","","4","","","","","","","","",""
"","","","","","single-stim-button","51","163273","0.0-2.0-16.3-1.3","56d0f57421cd29000a9737e4","F1","batch6","","393","tol_toboard","","","","tol_peg_1","393","393","0","[[1,2,0],[3,0],[0]]","4","[[1,2,0],[3,0],[0]]","2","0","","","","","","4","","","","","","","","",""
"","","","","","poldrack-single-stim","52","164275","0.0-2.0-17.0","56d0f57421cd29000a9737e4","F1","batch6","","-1","tol_feedback","","","true","","1000","1000","500","","","","","","-1","none","true","17850","19371","","","","","","","","","",""
"","","","","","html-button-response","53","165286","0.0-2.0-18.0","56d0f57421cd29000a9737e4","F1","batch6","","1009.8999999761581","tol_trial_num","<div class = centerbox><p class = center-block-text>problem <strong>4</strong> out of 25 problems</p></div>","0","","","","","","","","","","","","","","","","","","","","","","","","",""
"","","","","","single-stim-button","54","171841","0.0-2.0-19.0-0.0","56d0f57421cd29000a9737e4","F1","batch6","","6555","tol_tohand","","","","tol_peg_2","6555","6555","0","[[3,0,0],[2,0],[0]]","1","[[3,0,0],[1,0],[2]]","3","0","","","","","","3","","","","","","","","",""
"","","","","","single-stim-button","55","172407","0.0-2.0-19.0-1.0","56d0f57421cd29000a9737e4","F1","batch6","","565","tol_toboard","","","","tol_peg_1","565","565","0","[[3,1,0],[2,0],[0]]","1","[[3,0,0],[1,0],[2]]","3","0","","","","","","3","","","","","","","","",""
"","","","","","single-stim-button","56","173282","0.0-2.0-19.1-0.1","56d0f57421cd29000a9737e4","F1","batch6","","874","tol_tohand","","","","tol_peg_2","874","874","0","[[3,1,0],[0,0],[0]]","2","[[3,0,0],[1,0],[2]]","3","0","","","","","","3","","","","","","","","",""
"","","","","","single-stim-button","57","174125","0.0-2.0-19.1-1.1","56d0f57421cd29000a9737e4","F1","batch6","","843","tol_toboard","","","","tol_peg_3","843","843","0","[[3,1,0],[0,0],[2]]","2","[[3,0,0],[1,0],[2]]","3","0","","","","","","3","","","","","","","","",""
"","","","","","single-stim-button","58","174859","0.0-2.0-19.2-0.2","56d0f57421cd29000a9737e4","F1","batch6","","733","tol_tohand","","","","tol_peg_1","733","733","0","[[3,0,0],[0,0],[2]]","3","[[3,0,0],[1,0],[2]]","3","0","","","","","","3","","","","","","","","",""
"","","","","","single-stim-button","59","175301","0.0-2.0-19.2-1.2","56d0f57421cd29000a9737e4","F1","batch6","","441","tol_toboard","","","","tol_peg_2","441","441","0","[[3,0,0],[1,0],[2]]","3","[[3,0,0],[1,0],[2]]","3","0","","","","","","3","","","","","","","","",""
"","","","","","poldrack-single-stim","60","176303","0.0-2.0-20.0","56d0f57421cd29000a9737e4","F1","batch6","","-1","tol_feedback","","","true","","1000","1000","500","","","","","","-1","none","true","6555","8162","","","","","","","","","",""
"","","","","","html-button-response","61","177113","0.0-2.0-21.0","56d0f57421cd29000a9737e4","F1","batch6","","809.5","tol_trial_num","<div class = centerbox><p class = center-block-text>problem <strong>5</strong> out of 25 problems</p></div>","0","","","","","","","","","","","","","","","","","","","","","","","","",""
"","","","","","single-stim-button","62","184497","0.0-2.0-22.0-0.0","56d0f57421cd29000a9737e4","F1","batch6","","7383","tol_tohand","","","","tol_peg_3","7383","7383","0","[[1,0,0],[2,0],[0]]","1","[[0,0,0],[1,2],[3]]","4","0","","","","","","7","","","","","","","","",""
"","","","","","single-stim-button","63","187121","0.0-2.0-22.0-1.0","56d0f57421cd29000a9737e4","F1","batch6","","2623","tol_toboard","","","","tol_peg_1","2623","2623","0","[[1,3,0],[2,0],[0]]","1","[[0,0,0],[1,2],[3]]","4","0","","","","","","7","","","","","","","","",""
"","","","","","single-stim-button","64","187661","0.0-2.0-22.1-0.1","56d0f57421cd29000a9737e4","F1","batch6","","539","tol_tohand","","","","tol_peg_2","539","539","0","[[1,3,0],[0,0],[0]]","2","[[0,0,0],[1,2],[3]]","4","0","","","","","","7","","","","","","","","",""
"","","","","","single-stim-button","65","188065","0.0-2.0-22.1-1.1","56d0f57421cd29000a9737e4","F1","batch6","","403","tol_toboard","","","","tol_peg_3","403","403","0","[[1,3,0],[0,0],[2]]","2","[[0,0,0],[1,2],[3]]","4","0","","","","","","7","","","","","","","","",""
"","","","","","single-stim-button","66","190936","0.0-2.0-22.2-0.2","56d0f57421cd29000a9737e4","F1","batch6","","2870","tol_tohand","","","","tol_peg_1","2870","2870","0","[[1,0,0],[0,0],[2]]","3","[[0,0,0],[1,2],[3]]","4","0","","","","","","7","","","","","","","","",""
"","","","","","single-stim-button","67","191539","0.0-2.0-22.2-1.2","56d0f57421cd29000a9737e4","F1","batch6","","603","tol_toboard","","","","tol_peg_2","603","603","0","[[1,0,0],[3,0],[2]]","3","[[0,0,0],[1,2],[3]]","4","0","","","","","","7","","","","","","","","",""
"","","","","","single-stim-button","68","192011","0.0-2.0-22.3-0.3","56d0f57421cd29000a9737e4","F1","batch6","","472","tol_tohand","","","","tol_peg_3","472","472","0","[[1,0,0],[3,0],[0]]","4","[[0,0,0],[1,2],[3]]","4","0","","","","","","7","","","","","","","","",""
"","","","","","single-stim-button","69","192677","0.0-2.0-22.3-1.3","56d0f57421cd29000a9737e4","F1","batch6","","665","tol_toboard","","","","tol_peg_1","665","665","0","[[1,2,0],[3,0],[0]]","4","[[0,0,0],[1,2],[3]]","4","0","","","","","","7","","","","","","","","",""
"","","","","","single-stim-button","70","193071","0.0-2.0-22.4-0.4","56d0f57421cd29000a9737e4","F1","batch6","","394","tol_tohand","","","","tol_peg_2","394","394","0","[[1,2,0],[0,0],[0]]","5","[[0,0,0],[1,2],[3]]","4","0","","","","","","7","","","","","","","","",""
"","","","","","single-stim-button","71","193521","0.0-2.0-22.4-1.4","56d0f57421cd29000a9737e4","F1","batch6","","449","tol_toboard","","","","tol_peg_3","449","449","0","[[1,2,0],[0,0],[3]]","5","[[0,0,0],[1,2],[3]]","4","0","","","","","","7","","","","","","","","",""
"","","","","","single-stim-button","72","197699","0.0-2.0-22.5-0.5","56d0f57421cd29000a9737e4","F1","batch6","","4177","tol_tohand","","","","tol_peg_1","4177","4177","0","[[1,0,0],[0,0],[3]]","6","[[0,0,0],[1,2],[3]]","4","0","","","","","","7","","","","","","","","",""
"","","","","","single-stim-button","73","199727","0.0-2.0-22.5-1.5","56d0f57421cd29000a9737e4","F1","batch6","","2027","tol_toboard","","","","tol_peg_1","2027","2027","0","[[1,2,0],[0,0],[3]]","6","[[0,0,0],[1,2],[3]]","4","0","","","","","","7","","","","","","","","",""
"","","","","","single-stim-button","74","200455","0.0-2.0-22.6-0.6","56d0f57421cd29000a9737e4","F1","batch6","","727","tol_tohand","","","","tol_peg_3","727","727","0","[[1,2,0],[0,0],[0]]","7","[[0,0,0],[1,2],[3]]","4","0","","","","","","7","","","","","","","","",""
"","","","","","single-stim-button","75","202136","0.0-2.0-22.6-1.6","56d0f57421cd29000a9737e4","F1","batch6","","1679","tol_toboard","","","","tol_peg_1","1679","1679","0","[[1,2,3],[0,0],[0]]","7","[[0,0,0],[1,2],[3]]","4","0","","","","","","7","","","","","","","","",""
"","","","","","single-stim-button","76","203474","0.0-2.0-22.7-0.7","56d0f57421cd29000a9737e4","F1","batch6","","1337","tol_tohand","","","","tol_peg_1","1337","1337","0","[[1,2,0],[0,0],[0]]","8","[[0,0,0],[1,2],[3]]","4","0","","","","","","7","","","","","","","","",""
"","","","","","single-stim-button","77","204093","0.0-2.0-22.7-1.7","56d0f57421cd29000a9737e4","F1","batch6","","618","tol_toboard","","","","tol_peg_2","618","618","0","[[1,2,0],[3,0],[0]]","8","[[0,0,0],[1,2],[3]]","4","0","","","","","","7","","","","","","","","",""
"","","","","","single-stim-button","78","207468","0.0-2.0-22.8-0.8","56d0f57421cd29000a9737e4","F1","batch6","","3374","tol_tohand","","","","tol_peg_1","3374","3374","0","[[1,0,0],[3,0],[0]]","9","[[0,0,0],[1,2],[3]]","4","0","","","","","","7","","","","","","","","",""
"","","","","","single-stim-button","79","208387","0.0-2.0-22.8-1.8","56d0f57421cd29000a9737e4","F1","batch6","","918","tol_toboard","","","","tol_peg_3","918","918","0","[[1,0,0],[3,0],[2]]","9","[[0,0,0],[1,2],[3]]","4","0","","","","","","7","","","","","","","","",""
"","","","","","single-stim-button","80","210129","0.0-2.0-22.9-0.9","56d0f57421cd29000a9737e4","F1","batch6","","1741","tol_tohand","","","","tol_peg_2","1741","1741","0","[[1,0,0],[0,0],[2]]","10","[[0,0,0],[1,2],[3]]","4","0","","","","","","7","","","","","","","","",""
"","","","","","single-stim-button","81","210641","0.0-2.0-22.9-1.9","56d0f57421cd29000a9737e4","F1","batch6","","511","tol_toboard","","","","tol_peg_1","511","511","0","[[1,3,0],[0,0],[2]]","10","[[0,0,0],[1,2],[3]]","4","0","","","","","","7","","","","","","","","",""
"","","","","","single-stim-button","82","213374","0.0-2.0-22.10-0.10","56d0f57421cd29000a9737e4","F1","batch6","","2731","tol_tohand","","","","tol_peg_1","2731","2731","0","[[1,0,0],[0,0],[2]]","11","[[0,0,0],[1,2],[3]]","4","0","","","","","","7","","","","","","","","",""
"","","","","","single-stim-button","83","214285","0.0-2.0-22.10-1.10","56d0f57421cd29000a9737e4","F1","batch6","","911","tol_toboard","","","","tol_peg_2","911","911","0","[[1,0,0],[3,0],[2]]","11","[[0,0,0],[1,2],[3]]","4","0","","","","","","7","","","","","","","","",""
"","","","","","single-stim-button","84","216700","0.0-2.0-22.11-0.11","56d0f57421cd29000a9737e4","F1","batch6","","2414","tol_tohand","","","","tol_peg_1","2414","2414","0","[[0,0,0],[3,0],[2]]","12","[[0,0,0],[1,2],[3]]","4","0","","","","","","7","","","","","","","","",""
"","","","","","single-stim-button","85","217025","0.0-2.0-22.11-1.11","56d0f57421cd29000a9737e4","F1","batch6","","325","tol_toboard","","","","tol_peg_2","325","325","0","[[0,0,0],[3,1],[2]]","12","[[0,0,0],[1,2],[3]]","4","0","","","","","","7","","","","","","","","",""
"","","","","","single-stim-button","86","217668","0.0-2.0-22.12-0.12","56d0f57421cd29000a9737e4","F1","batch6","","641","tol_tohand","","","","tol_peg_3","641","641","0","[[0,0,0],[3,1],[0]]","13","[[0,0,0],[1,2],[3]]","4","0","","","","","","7","","","","","","","","",""
"","","","","","single-stim-button","87","218325","0.0-2.0-22.12-1.12","56d0f57421cd29000a9737e4","F1","batch6","","657","tol_toboard","","","","tol_peg_1","657","657","0","[[2,0,0],[3,1],[0]]","13","[[0,0,0],[1,2],[3]]","4","0","","","","","","7","","","","","","","","",""
"","","","","","single-stim-button","88","222373","0.0-2.0-22.13-0.13","56d0f57421cd29000a9737e4","F1","batch6","","4047","tol_tohand","","","","tol_peg_2","4047","4047","0","[[2,0,0],[3,0],[0]]","14","[[0,0,0],[1,2],[3]]","4","0","","","","","","7","","","","","","","","",""
"","","","","","single-stim-button","89","222978","0.0-2.0-22.13-1.13","56d0f57421cd29000a9737e4","F1","batch6","","604","tol_toboard","","","","tol_peg_1","604","604","0","[[2,1,0],[3,0],[0]]","14","[[0,0,0],[1,2],[3]]","4","0","","","","","","7","","","","","","","","",""
"","","","","","single-stim-button","90","223387","0.0-2.0-22.14-0.14","56d0f57421cd29000a9737e4","F1","batch6","","409","tol_tohand","","","","tol_peg_2","409","409","0","[[2,1,0],[0,0],[0]]","15","[[0,0,0],[1,2],[3]]","4","0","","","","","","7","","","","","","","","",""
"","","","","","single-stim-button","91","223913","0.0-2.0-22.14-1.14","56d0f57421cd29000a9737e4","F1","batch6","","525","tol_toboard","","","","tol_peg_3","525","525","0","[[2,1,0],[0,0],[3]]","15","[[0,0,0],[1,2],[3]]","4","0","","","","","","7","","","","","","","","",""
"","","","","","single-stim-button","92","224394","0.0-2.0-22.15-0.15","56d0f57421cd29000a9737e4","F1","batch6","","480","tol_tohand","","","","tol_peg_1","480","480","0","[[2,0,0],[0,0],[3]]","16","[[0,0,0],[1,2],[3]]","4","0","","","","","","7","","","","","","","","",""
"","","","","","single-stim-button","93","224765","0.0-2.0-22.15-1.15","56d0f57421cd29000a9737e4","F1","batch6","","371","tol_toboard","","","","tol_peg_2","371","371","0","[[2,0,0],[1,0],[3]]","16","[[0,0,0],[1,2],[3]]","4","0","","","","","","7","","","","","","","","",""
"","","","","","single-stim-button","94","225437","0.0-2.0-22.16-0.16","56d0f57421cd29000a9737e4","F1","batch6","","671","tol_tohand","","","","tol_peg_1","671","671","0","[[0,0,0],[1,0],[3]]","17","[[0,0,0],[1,2],[3]]","4","0","","","","","","7","","","","","","","","",""
"","","","","","single-stim-button","95","225825","0.0-2.0-22.16-1.16","56d0f57421cd29000a9737e4","F1","batch6","","387","tol_toboard","","","","tol_peg_2","387","387","0","[[0,0,0],[1,2],[3]]","17","[[0,0,0],[1,2],[3]]","4","0","","","","","","7","","","","","","","","",""
"","","","","","poldrack-single-stim","96","226826","0.0-2.0-23.0","56d0f57421cd29000a9737e4","F1","batch6","","-1","tol_feedback","","","true","","1000","1000","500","","","","","","-1","none","true","7383","34407","","","","","","","","","",""
"","","","","","html-button-response","97","228913","0.0-2.0-24.0","56d0f57421cd29000a9737e4","F1","batch6","","2086.5","tol_trial_num","<div class = centerbox><p class = center-block-text>problem <strong>6</strong> out of 25 problems</p></div>","0","","","","","","","","","","","","","","","","","","","","","","","","",""
"","","","","","single-stim-button","98","238076","0.0-2.0-25.0-0.0","56d0f57421cd29000a9737e4","F1","batch6","","9161","tol_tohand","","","","tol_peg_3","9161","9161","0","[[0,0,0],[1,2],[0]]","1","[[1,0,0],[2,3],[0]]","5","0","","","","","","6","","","","","","","","",""
"","","","","","single-stim-button","99","238873","0.0-2.0-25.0-1.0","56d0f57421cd29000a9737e4","F1","batch6","","797","tol_toboard","","","","tol_peg_1","797","797","0","[[3,0,0],[1,2],[0]]","1","[[1,0,0],[2,3],[0]]","5","0","","","","","","6","","","","","","","","",""
"","","","","","single-stim-button","100","243641","0.0-2.0-25.1-0.1","56d0f57421cd29000a9737e4","F1","batch6","","4767","tol_tohand","","","","tol_peg_2","4767","4767","0","[[3,0,0],[1,0],[0]]","2","[[1,0,0],[2,3],[0]]","5","0","","","","","","6","","","","","","","","",""
"","","","","","single-stim-button","101","250283","0.0-2.0-25.1-1.1","56d0f57421cd29000a9737e4","F1","batch6","","6641","tol_toboard","","","","tol_peg_1","6641","6641","0","[[3,2,0],[1,0],[0]]","2","[[1,0,0],[2,3],[0]]","5","0","","","","","","6","","","","","","","","",""
"","","","","","single-stim-button","102","250777","0.0-2.0-25.2-0.2","56d0f57421cd29000a9737e4","F1","batch6","","493","tol_tohand","","","","tol_peg_2","493","493","0","[[3,2,0],[0,0],[0]]","3","[[1,0,0],[2,3],[0]]","5","0","","","","","","6","","","","","","","","",""
"","","","","","single-stim-button","103","251343","0.0-2.0-25.2-1.2","56d0f57421cd29000a9737e4","F1","batch6","","565","tol_toboard","","","","tol_peg_3","565","565","0","[[3,2,0],[0,0],[1]]","3","[[1,0,0],[2,3],[0]]","5","0","","","","","","6","","","","","","","","",""
"","","","","","single-stim-button","104","251885","0.0-2.0-25.3-0.3","56d0f57421cd29000a9737e4","F1","batch6","","541","tol_tohand","","","","tol_peg_1","541","541","0","[[3,0,0],[0,0],[1]]","4","[[1,0,0],[2,3],[0]]","5","0","","","","","","6","","","","","","","","",""
"","","","","","single-stim-button","105","252844","0.0-2.0-25.3-1.3","56d0f57421cd29000a9737e4","F1","batch6","","958","tol_toboard","","","","tol_peg_2","958","958","0","[[3,0,0],[2,0],[1]]","4","[[1,0,0],[2,3],[0]]","5","0","","","","","","6","","","","","","","","",""
"","","","","","single-stim-button","106","253240","0.0-2.0-25.4-0.4","56d0f57421cd29000a9737e4","F1","batch6","","396","tol_tohand","","","","tol_peg_1","396","396","0","[[0,0,0],[2,0],[1]]","5","[[1,0,0],[2,3],[0]]","5","0","","","","","","6","","","","","","","","",""
"","","","","","single-stim-button","107","253673","0.0-2.0-25.4-1.4","56d0f57421cd29000a9737e4","F1","batch6","","433","tol_toboard","","","","tol_peg_2","433","433","0","[[0,0,0],[2,3],[1]]","5","[[1,0,0],[2,3],[0]]","5","0","","","","","","6","","","","","","","","",""
"","","","","","single-stim-button","108","254122","0.0-2.0-25.5-0.5","56d0f57421cd29000a9737e4","F1","batch6","","448","tol_tohand","","","","tol_peg_3","448","448","0","[[0,0,0],[2,3],[0]]","6","[[1,0,0],[2,3],[0]]","5","0","","","","","","6","","","","","","","","",""
"","","","","","single-stim-button","109","254809","0.0-2.0-25.5-1.5","56d0f57421cd29000a9737e4","F1","batch6","","687","tol_toboard","","","","tol_peg_1","687","687","0","[[1,0,0],[2,3],[0]]","6","[[1,0,0],[2,3],[0]]","5","0","","","","","","6","","","","","","","","",""
"","","","","","poldrack-single-stim","110","255811","0.0-2.0-26.0","56d0f57421cd29000a9737e4","F1","batch6","","-1","tol_feedback","","","true","","1000","1000","500","","","","","","-1","none","true","9161","15806","","","","","","","","","",""
"","","","","","html-button-response","111","256699","0.0-2.0-27.0","56d0f57421cd29000a9737e4","F1","batch6","","888.1000000238419","tol_trial_num","<div class = centerbox><p class = center-block-text>problem <strong>7</strong> out of 25 problems</p></div>","0","","","","","","","","","","","","","","","","","","","","","","","","",""
"","","","","","single-stim-button","112","270014","0.0-2.0-28.0-0.0","56d0f57421cd29000a9737e4","F1","batch6","","13313","tol_tohand","","","","tol_peg_1","13313","13313","0","[[2,0,0],[0,0],[3]]","1","[[1,2,0],[3,0],[0]]","6","0","","","","","","5","","","","","","","","",""
"","","","","","single-stim-button","113","271422","0.0-2.0-28.0-1.0","56d0f57421cd29000a9737e4","F1","batch6","","1408","tol_toboard","","","","tol_peg_2","1408","1408","0","[[2,0,0],[1,0],[3]]","1","[[1,2,0],[3,0],[0]]","6","0","","","","","","5","","","","","","","","",""
"","","","","","single-stim-button","114","272366","0.0-2.0-28.1-0.1","56d0f57421cd29000a9737e4","F1","batch6","","943","tol_tohand","","","","tol_peg_3","943","943","0","[[2,0,0],[1,0],[0]]","2","[[1,2,0],[3,0],[0]]","6","0","","","","","","5","","","","","","","","",""
"","","","","","single-stim-button","115","272978","0.0-2.0-28.1-1.1","56d0f57421cd29000a9737e4","F1","batch6","","611","tol_toboard","","","","tol_peg_2","611","611","0","[[2,0,0],[1,3],[0]]","2","[[1,2,0],[3,0],[0]]","6","0","","","","","","5","","","","","","","","",""
"","","","","","single-stim-button","116","273598","0.0-2.0-28.2-0.2","56d0f57421cd29000a9737e4","F1","batch6","","619","tol_tohand","","","","tol_peg_1","619","619","0","[[0,0,0],[1,3],[0]]","3","[[1,2,0],[3,0],[0]]","6","0","","","","","","5","","","","","","","","",""
"","","","","","single-stim-button","117","274626","0.0-2.0-28.2-1.2","56d0f57421cd29000a9737e4","F1","batch6","","1027","tol_toboard","","","","tol_peg_3","1027","1027","0","[[0,0,0],[1,3],[2]]","3","[[1,2,0],[3,0],[0]]","6","0","","","","","","5","","","","","","","","",""
"","","","","","single-stim-button","118","282036","0.0-2.0-28.3-0.3","56d0f57421cd29000a9737e4","F1","batch6","","7409","tol_tohand","","","","tol_peg_2","7409","7409","0","[[0,0,0],[1,0],[2]]","4","[[1,2,0],[3,0],[0]]","6","0","","","","","","5","","","","","","","","",""
"","","","","","single-stim-button","119","284420","0.0-2.0-28.3-1.3","56d0f57421cd29000a9737e4","F1","batch6","","2383","tol_toboard","","","","tol_peg_1","2383","2383","0","[[3,0,0],[1,0],[2]]","4","[[1,2,0],[3,0],[0]]","6","0","","","","","","5","","","","","","","","",""
"","","","","","single-stim-button","120","288878","0.0-2.0-28.4-0.4","56d0f57421cd29000a9737e4","F1","batch6","","4457","tol_tohand","","","","tol_peg_3","4457","4457","0","[[3,0,0],[1,0],[0]]","5","[[1,2,0],[3,0],[0]]","6","0","","","","","","5","","","","","","","","",""
"","","","","","single-stim-button","121","289304","0.0-2.0-28.4-1.4","56d0f57421cd29000a9737e4","F1","batch6","","425","tol_toboard","","","","tol_peg_2","425","425","0","[[3,0,0],[1,2],[0]]","5","[[1,2,0],[3,0],[0]]","6","0","","","","","","5","","","","","","","","",""
"","","","","","single-stim-button","122","300520","0.0-2.0-28.5-0.5","56d0f57421cd29000a9737e4","F1","batch6","","11215","tol_tohand","","","","tol_peg_2","11215","11215","0","[[3,0,0],[1,0],[0]]","6","[[1,2,0],[3,0],[0]]","6","0","","","","","","5","","","","","","","","",""
"","","","","","single-stim-button","123","301015","0.0-2.0-28.5-1.5","56d0f57421cd29000a9737e4","F1","batch6","","495","tol_toboard","","","","tol_peg_3","495","495","0","[[3,0,0],[1,0],[2]]","6","[[1,2,0],[3,0],[0]]","6","0","","","","","","5","","","","","","","","",""
"","","","","","single-stim-button","124","304700","0.0-2.0-28.6-0.6","56d0f57421cd29000a9737e4","F1","batch6","","3684","tol_tohand","","","","tol_peg_2","3684","3684","0","[[3,0,0],[0,0],[2]]","7","[[1,2,0],[3,0],[0]]","6","0","","","","","","5","","","","","","","","",""
"","","","","","single-stim-button","125","305134","0.0-2.0-28.6-1.6","56d0f57421cd29000a9737e4","F1","batch6","","433","tol_toboard","","","","tol_peg_1","433","433","0","[[3,1,0],[0,0],[2]]","7","[[1,2,0],[3,0],[0]]","6","0","","","","","","5","","","","","","","","",""
"","","","","","single-stim-button","126","306812","0.0-2.0-28.7-0.7","56d0f57421cd29000a9737e4","F1","batch6","","1677","tol_tohand","","","","tol_peg_3","1677","1677","0","[[3,1,0],[0,0],[0]]","8","[[1,2,0],[3,0],[0]]","6","0","","","","","","5","","","","","","","","",""
"","","","","","single-stim-button","127","307331","0.0-2.0-28.7-1.7","56d0f57421cd29000a9737e4","F1","batch6","","519","tol_toboard","","","","tol_peg_2","519","519","0","[[3,1,0],[2,0],[0]]","8","[[1,2,0],[3,0],[0]]","6","0","","","","","","5","","","","","","","","",""
"","","","","","single-stim-button","128","307811","0.0-2.0-28.8-0.8","56d0f57421cd29000a9737e4","F1","batch6","","479","tol_tohand","","","","tol_peg_1","479","479","0","[[3,0,0],[2,0],[0]]","9","[[1,2,0],[3,0],[0]]","6","0","","","","","","5","","","","","","","","",""
"","","","","","single-stim-button","129","308723","0.0-2.0-28.8-1.8","56d0f57421cd29000a9737e4","F1","batch6","","911","tol_toboard","","","","tol_peg_3","911","911","0","[[3,0,0],[2,0],[1]]","9","[[1,2,0],[3,0],[0]]","6","0","","","","","","5","","","","","","","","",""
"","","","","","single-stim-button","130","309414","0.0-2.0-28.9-0.9","56d0f57421cd29000a9737e4","F1","batch6","","689","tol_tohand","","","","tol_peg_1","689","689","0","[[0,0,0],[2,0],[1]]","10","[[1,2,0],[3,0],[0]]","6","0","","","","","","5","","","","","","","","",""
"","","","","","single-stim-button","131","310511","0.0-2.0-28.9-1.9","56d0f57421cd29000a9737e4","F1","batch6","","1097","tol_toboard","","","","tol_peg_2","1097","1097","0","[[0,0,0],[2,3],[1]]","10","[[1,2,0],[3,0],[0]]","6","0","","","","","","5","","","","","","","","",""
"","","","","","single-stim-button","132","311086","0.0-2.0-28.10-0.10","56d0f57421cd29000a9737e4","F1","batch6","","573","tol_tohand","","","","tol_peg_3","573","573","0","[[0,0,0],[2,3],[0]]","11","[[1,2,0],[3,0],[0]]","6","0","","","","","","5","","","","","","","","",""
"","","","","","single-stim-button","133","311820","0.0-2.0-28.10-1.10","56d0f57421cd29000a9737e4","F1","batch6","","733","tol_toboard","","","","tol_peg_1","733","733","0","[[1,0,0],[2,3],[0]]","11","[[1,2,0],[3,0],[0]]","6","0","","","","","","5","","","","","","","","",""
"","","","","","single-stim-button","134","312423","0.0-2.0-28.11-0.11","56d0f57421cd29000a9737e4","F1","batch6","","603","tol_tohand","","","","tol_peg_2","603","603","0","[[1,0,0],[2,0],[0]]","12","[[1,2,0],[3,0],[0]]","6","0","","","","","","5","","","","","","","","",""
"","","","","","single-stim-button","135","313004","0.0-2.0-28.11-1.11","56d0f57421cd29000a9737e4","F1","batch6","","579","tol_toboard","","","","tol_peg_3","579","579","0","[[1,0,0],[2,0],[3]]","12","[[1,2,0],[3,0],[0]]","6","0","","","","","","5","","","","","","","","",""
"","","","","","single-stim-button","136","313554","0.0-2.0-28.12-0.12","56d0f57421cd29000a9737e4","F1","batch6","","549","tol_tohand","","","","tol_peg_2","549","549","0","[[1,0,0],[0,0],[3]]","13","[[1,2,0],[3,0],[0]]","6","0","","","","","","5","","","","","","","","",""
"","","","","","single-stim-button","137","314027","0.0-2.0-28.12-1.12","56d0f57421cd29000a9737e4","F1","batch6","","472","tol_toboard","","","","tol_peg_1","472","472","0","[[1,2,0],[0,0],[3]]","13","[[1,2,0],[3,0],[0]]","6","0","","","","","","5","","","","","","","","",""
"","","","","","single-stim-button","138","315063","0.0-2.0-28.13-0.13","56d0f57421cd29000a9737e4","F1","batch6","","1036","tol_tohand","","","","tol_peg_3","1036","1036","0","[[1,2,0],[0,0],[0]]","14","[[1,2,0],[3,0],[0]]","6","0","","","","","","5","","","","","","","","",""
"","","","","","single-stim-button","139","315420","0.0-2.0-28.13-1.13","56d0f57421cd29000a9737e4","F1","batch6","","356","tol_toboard","","","","tol_peg_2","356","356","0","[[1,2,0],[3,0],[0]]","14","[[1,2,0],[3,0],[0]]","6","0","","","","","","5","","","","","","","","",""
"","","","","","poldrack-single-stim","140","316423","0.0-2.0-29.0","56d0f57421cd29000a9737e4","F1","batch6","","-1","tol_feedback","","","true","","1000","1000","500","","","","","","-1","none","true","13313","47246","","","","","","","","","",""
"","","","","","html-button-response","141","317409","0.0-2.0-30.0","56d0f57421cd29000a9737e4","F1","batch6","","985.3999999761581","tol_trial_num","<div class = centerbox><p class = center-block-text>problem <strong>8</strong> out of 25 problems</p></div>","0","","","","","","","","","","","","","","","","","","","","","","","","",""
"","","","","","single-stim-button","142","324159","0.0-2.0-31.0-0.0","56d0f57421cd29000a9737e4","F1","batch6","","6749","tol_tohand","","","","tol_peg_3","6749","6749","0","[[0,0,0],[2,3],[0]]","1","[[1,2,0],[3,0],[0]]","7","0","","","","","","4","","","","","","","","",""
"","","","","","single-stim-button","143","326845","0.0-2.0-31.0-1.0","56d0f57421cd29000a9737e4","F1","batch6","","2685","tol_toboard","","","","tol_peg_1","2685","2685","0","[[1,0,0],[2,3],[0]]","1","[[1,2,0],[3,0],[0]]","7","0","","","","","","4","","","","","","","","",""
"","","","","","single-stim-button","144","327395","0.0-2.0-31.1-0.1","56d0f57421cd29000a9737e4","F1","batch6","","549","tol_tohand","","","","tol_peg_2","549","549","0","[[1,0,0],[2,0],[0]]","2","[[1,2,0],[3,0],[0]]","7","0","","","","","","4","","","","","","","","",""
"","","","","","single-stim-button","145","327883","0.0-2.0-31.1-1.1","56d0f57421cd29000a9737e4","F1","batch6","","487","tol_toboard","","","","tol_peg_3","487","487","0","[[1,0,0],[2,0],[3]]","2","[[1,2,0],[3,0],[0]]","7","0","","","","","","4","","","","","","","","",""
"","","","","","single-stim-button","146","328277","0.0-2.0-31.2-0.2","56d0f57421cd29000a9737e4","F1","batch6","","393","tol_tohand","","","","tol_peg_2","393","393","0","[[1,0,0],[0,0],[3]]","3","[[1,2,0],[3,0],[0]]","7","0","","","","","","4","","","","","","","","",""
"","","","","","single-stim-button","147","328711","0.0-2.0-31.2-1.2","56d0f57421cd29000a9737e4","F1","batch6","","433","tol_toboard","","","","tol_peg_1","433","433","0","[[1,2,0],[0,0],[3]]","3","[[1,2,0],[3,0],[0]]","7","0","","","","","","4","","","","","","","","",""
"","","","","","single-stim-button","148","329259","0.0-2.0-31.3-0.3","56d0f57421cd29000a9737e4","F1","batch6","","547","tol_tohand","","","","tol_peg_3","547","547","0","[[1,2,0],[0,0],[0]]","4","[[1,2,0],[3,0],[0]]","7","0","","","","","","4","","","","","","","","",""
"","","","","","single-stim-button","149","329648","0.0-2.0-31.3-1.3","56d0f57421cd29000a9737e4","F1","batch6","","387","tol_toboard","","","","tol_peg_2","387","387","0","[[1,2,0],[3,0],[0]]","4","[[1,2,0],[3,0],[0]]","7","0","","","","","","4","","","","","","","","",""
"","","","","","poldrack-single-stim","150","330649","0.0-2.0-32.0","56d0f57421cd29000a9737e4","F1","batch6","","-1","tol_feedback","","","true","","1000","1000","500","","","","","","-1","none","true","6749","8238","","","","","","","","","",""
"","","","","","html-button-response","151","331535","0.0-2.0-33.0","56d0f57421cd29000a9737e4","F1","batch6","","885.8999999761581","tol_trial_num","<div class = centerbox><p class = center-block-text>problem <strong>9</strong> out of 25 problems</p></div>","0","","","","","","","","","","","","","","","","","","","","","","","","",""
"","","","","","single-stim-button","152","342242","0.0-2.0-34.0-0.0","56d0f57421cd29000a9737e4","F1","batch6","","10705","tol_tohand","","","","tol_peg_3","10705","10705","0","[[3,2,0],[0,0],[0]]","1","[[2,1,0],[3,0],[0]]","8","0","","","","","","6","","","","","","","","",""
"","","","","","single-stim-button","153","342883","0.0-2.0-34.0-1.0","56d0f57421cd29000a9737e4","F1","batch6","","641","tol_toboard","","","","tol_peg_2","641","641","0","[[3,2,0],[1,0],[0]]","1","[[2,1,0],[3,0],[0]]","8","0","","","","","","6","","","","","","","","",""
"","","","","","single-stim-button","154","344075","0.0-2.0-34.1-0.1","56d0f57421cd29000a9737e4","F1","batch6","","1191","tol_tohand","","","","tol_peg_1","1191","1191","0","[[3,0,0],[1,0],[0]]","2","[[2,1,0],[3,0],[0]]","8","0","","","","","","6","","","","","","","","",""
"","","","","","single-stim-button","155","346597","0.0-2.0-34.1-1.1","56d0f57421cd29000a9737e4","F1","batch6","","2521","tol_toboard","","","","tol_peg_3","2521","2521","0","[[3,0,0],[1,0],[2]]","2","[[2,1,0],[3,0],[0]]","8","0","","","","","","6","","","","","","","","",""
"","","","","","single-stim-button","156","347209","0.0-2.0-34.2-0.2","56d0f57421cd29000a9737e4","F1","batch6","","611","tol_tohand","","","","tol_peg_1","611","611","0","[[0,0,0],[1,0],[2]]","3","[[2,1,0],[3,0],[0]]","8","0","","","","","","6","","","","","","","","",""
"","","","","","single-stim-button","157","347657","0.0-2.0-34.2-1.2","56d0f57421cd29000a9737e4","F1","batch6","","447","tol_toboard","","","","tol_peg_2","447","447","0","[[0,0,0],[1,3],[2]]","3","[[2,1,0],[3,0],[0]]","8","0","","","","","","6","","","","","","","","",""
"","","","","","single-stim-button","158","348270","0.0-2.0-34.3-0.3","56d0f57421cd29000a9737e4","F1","batch6","","611","tol_tohand","","","","tol_peg_3","611","611","0","[[0,0,0],[1,3],[0]]","4","[[2,1,0],[3,0],[0]]","8","0","","","","","","6","","","","","","","","",""
"","","","","","single-stim-button","159","348903","0.0-2.0-34.3-1.3","56d0f57421cd29000a9737e4","F1","batch6","","633","tol_toboard","","","","tol_peg_1","633","633","0","[[2,0,0],[1,3],[0]]","4","[[2,1,0],[3,0],[0]]","8","0","","","","","","6","","","","","","","","",""
"","","","","","single-stim-button","160","349392","0.0-2.0-34.4-0.4","56d0f57421cd29000a9737e4","F1","batch6","","488","tol_tohand","","","","tol_peg_2","488","488","0","[[2,0,0],[1,0],[0]]","5","[[2,1,0],[3,0],[0]]","8","0","","","","","","6","","","","","","","","",""
"","","","","","single-stim-button","161","350095","0.0-2.0-34.4-1.4","56d0f57421cd29000a9737e4","F1","batch6","","703","tol_toboard","","","","tol_peg_3","703","703","0","[[2,0,0],[1,0],[3]]","5","[[2,1,0],[3,0],[0]]","8","0","","","","","","6","","","","","","","","",""
"","","","","","single-stim-button","162","350446","0.0-2.0-34.5-0.5","56d0f57421cd29000a9737e4","F1","batch6","","350","tol_tohand","","","","tol_peg_2","350","350","0","[[2,0,0],[0,0],[3]]","6","[[2,1,0],[3,0],[0]]","8","0","","","","","","6","","","","","","","","",""
"","","","","","single-stim-button","163","350863","0.0-2.0-34.5-1.5","56d0f57421cd29000a9737e4","F1","batch6","","417","tol_toboard","","","","tol_peg_1","417","417","0","[[2,1,0],[0,0],[3]]","6","[[2,1,0],[3,0],[0]]","8","0","","","","","","6","","","","","","","","",""
"","","","","","single-stim-button","164","351357","0.0-2.0-34.6-0.6","56d0f57421cd29000a9737e4","F1","batch6","","493","tol_tohand","","","","tol_peg_3","493","493","0","[[2,1,0],[0,0],[0]]","7","[[2,1,0],[3,0],[0]]","8","0","","","","","","6","","","","","","","","",""
"","","","","","single-stim-button","165","351814","0.0-2.0-34.6-1.6","56d0f57421cd29000a9737e4","F1","batch6","","455","tol_toboard","","","","tol_peg_2","455","455","0","[[2,1,0],[3,0],[0]]","7","[[2,1,0],[3,0],[0]]","8","0","","","","","","6","","","","","","","","",""
"","","","","","poldrack-single-stim","166","352816","0.0-2.0-35.0","56d0f57421cd29000a9737e4","F1","batch6","","-1","tol_feedback","","","true","","1000","1000","500","","","","","","-1","none","true","10705","14449","","","","","","","","","",""
"","","","","","html-button-response","167","353633","0.0-2.0-36.0","56d0f57421cd29000a9737e4","F1","batch6","","816.8999999761581","tol_trial_num","<div class = centerbox><p class = center-block-text>problem <strong>10</strong> out of 25 problems</p></div>","0","","","","","","","","","","","","","","","","","","","","","","","","",""
"","","","","","single-stim-button","168","359453","0.0-2.0-37.0-0.0","56d0f57421cd29000a9737e4","F1","batch6","","5819","tol_tohand","","","","tol_peg_2","5819","5819","0","[[3,0,0],[0,0],[2]]","1","[[3,0,0],[2,1],[0]]","9","0","","","","","","3","","","","","","","","",""
"","","","","","single-stim-button","169","359809","0.0-2.0-37.0-1.0","56d0f57421cd29000a9737e4","F1","batch6","","355","tol_toboard","","","","tol_peg_1","355","355","0","[[3,1,0],[0,0],[2]]","1","[[3,0,0],[2,1],[0]]","9","0","","","","","","3","","","","","","","","",""
"","","","","","single-stim-button","170","360227","0.0-2.0-37.1-0.1","56d0f57421cd29000a9737e4","F1","batch6","","417","tol_tohand","","","","tol_peg_3","417","417","0","[[3,1,0],[0,0],[0]]","2","[[3,0,0],[2,1],[0]]","9","0","","","","","","3","","","","","","","","",""
"","","","","","single-stim-button","171","360559","0.0-2.0-37.1-1.1","56d0f57421cd29000a9737e4","F1","batch6","","331","tol_toboard","","","","tol_peg_2","331","331","0","[[3,1,0],[2,0],[0]]","2","[[3,0,0],[2,1],[0]]","9","0","","","","","","3","","","","","","","","",""
"","","","","","single-stim-button","172","361614","0.0-2.0-37.2-0.2","56d0f57421cd29000a9737e4","F1","batch6","","1054","tol_tohand","","","","tol_peg_1","1054","1054","0","[[3,0,0],[2,0],[0]]","3","[[3,0,0],[2,1],[0]]","9","0","","","","","","3","","","","","","","","",""
"","","","","","single-stim-button","173","362099","0.0-2.0-37.2-1.2","56d0f57421cd29000a9737e4","F1","batch6","","485","tol_toboard","","","","tol_peg_2","485","485","0","[[3,0,0],[2,1],[0]]","3","[[3,0,0],[2,1],[0]]","9","0","","","","","","3","","","","","","","","",""
"","","","","","poldrack-single-stim","174","363101","0.0-2.0-38.0","56d0f57421cd29000a9737e4","F1","batch6","","-1","tol_feedback","","","true","","1000","1000","500","","","","","","-1","none","true","5819","7290","","","","","","","","","",""
"","","","","","html-button-response","175","363873","0.0-2.0-39.0","56d0f57421cd29000a9737e4","F1","batch6","","772.3000000715256","tol_trial_num","<div class = centerbox><p class = center-block-text>problem <strong>11</strong> out of 25 problems</p></div>","0","","","","","","","","","","","","","","","","","","","","","","","","",""
"","","","","","single-stim-button","176","370483","0.0-2.0-40.0-0.0","56d0f57421cd29000a9737e4","F1","batch6","","6609","tol_tohand","","","","tol_peg_1","6609","6609","0","[[1,0,0],[3,0],[0]]","1","[[2,0,0],[1,3],[0]]","10","0","","","","","","6","","","","","","","","",""
"","","","","","single-stim-button","177","370877","0.0-2.0-40.0-1.0","56d0f57421cd29000a9737e4","F1","batch6","","393","tol_toboard","","","","tol_peg_2","393","393","0","[[1,0,0],[3,2],[0]]","1","[[2,0,0],[1,3],[0]]","10","0","","","","","","6","","","","","","","","",""
"","","","","","single-stim-button","178","372247","0.0-2.0-40.1-0.1","56d0f57421cd29000a9737e4","F1","batch6","","1369","tol_tohand","","","","tol_peg_1","1369","1369","0","[[0,0,0],[3,2],[0]]","2","[[2,0,0],[1,3],[0]]","10","0","","","","","","6","","","","","","","","",""
"","","","","","single-stim-button","179","372790","0.0-2.0-40.1-1.1","56d0f57421cd29000a9737e4","F1","batch6","","542","tol_toboard","","","","tol_peg_3","542","542","0","[[0,0,0],[3,2],[1]]","2","[[2,0,0],[1,3],[0]]","10","0","","","","","","6","","","","","","","","",""
"","","","","","single-stim-button","180","373224","0.0-2.0-40.2-0.2","56d0f57421cd29000a9737e4","F1","batch6","","433","tol_tohand","","","","tol_peg_2","433","433","0","[[0,0,0],[3,0],[1]]","3","[[2,0,0],[1,3],[0]]","10","0","","","","","","6","","","","","","","","",""
"","","","","","single-stim-button","181","374685","0.0-2.0-40.2-1.2","56d0f57421cd29000a9737e4","F1","batch6","","1461","tol_toboard","","","","tol_peg_1","1461","1461","0","[[2,0,0],[3,0],[1]]","3","[[2,0,0],[1,3],[0]]","10","0","","","","","","6","","","","","","","","",""
"","","","","","single-stim-button","182","375305","0.0-2.0-40.3-0.3","56d0f57421cd29000a9737e4","F1","batch6","","619","tol_tohand","","","","tol_peg_2","619","619","0","[[2,0,0],[0,0],[1]]","4","[[2,0,0],[1,3],[0]]","10","0","","","","","","6","","","","","","","","",""
"","","","","","single-stim-button","183","375770","0.0-2.0-40.3-1.3","56d0f57421cd29000a9737e4","F1","batch6","","463","tol_toboard","","","","tol_peg_1","463","463","0","[[2,3,0],[0,0],[1]]","4","[[2,0,0],[1,3],[0]]","10","0","","","","","","6","","","","","","","","",""
"","","","","","single-stim-button","184","376171","0.0-2.0-40.4-0.4","56d0f57421cd29000a9737e4","F1","batch6","","401","tol_tohand","","","","tol_peg_3","401","401","0","[[2,3,0],[0,0],[0]]","5","[[2,0,0],[1,3],[0]]","10","0","","","","","","6","","","","","","","","",""
"","","","","","single-stim-button","185","376543","0.0-2.0-40.4-1.4","56d0f57421cd29000a9737e4","F1","batch6","","372","tol_toboard","","","","tol_peg_2","372","372","0","[[2,3,0],[1,0],[0]]","5","[[2,0,0],[1,3],[0]]","10","0","","","","","","6","","","","","","","","",""
"","","","","","single-stim-button","186","377161","0.0-2.0-40.5-0.5","56d0f57421cd29000a9737e4","F1","batch6","","617","tol_tohand","","","","tol_peg_1","617","617","0","[[2,0,0],[1,0],[0]]","6","[[2,0,0],[1,3],[0]]","10","0","","","","","","6","","","","","","","","",""
"","","","","","single-stim-button","187","377673","0.0-2.0-40.5-1.5","56d0f57421cd29000a9737e4","F1","batch6","","511","tol_toboard","","","","tol_peg_2","511","511","0","[[2,0,0],[1,3],[0]]","6","[[2,0,0],[1,3],[0]]","10","0","","","","","","6","","","","","","","","",""
"","","","","","poldrack-single-stim","188","378675","0.0-2.0-41.0","56d0f57421cd29000a9737e4","F1","batch6","","-1","tol_feedback","","","true","","1000","1000","500","","","","","","-1","none","true","6609","10048","","","","","","","","","",""
"","","","","","html-button-response","189","379631","0.0-2.0-42.0","56d0f57421cd29000a9737e4","F1","batch6","","955.5","tol_trial_num","<div class = centerbox><p class = center-block-text>problem <strong>12</strong> out of 25 problems</p></div>","0","","","","","","","","","","","","","","","","","","","","","","","","",""
"","","","","","single-stim-button","190","392682","0.0-2.0-43.0-0.0","56d0f57421cd29000a9737e4","F1","batch6","","13050","tol_tohand","","","","tol_peg_2","13050","13050","0","[[1,2,0],[0,0],[0]]","1","[[2,3,0],[0,0],[1]]","11","0","","","","","","4","","","","","","","","",""
"","","","","","single-stim-button","191","393269","0.0-2.0-43.0-1.0","56d0f57421cd29000a9737e4","F1","batch6","","587","tol_toboard","","","","tol_peg_3","587","587","0","[[1,2,0],[0,0],[3]]","1","[[2,3,0],[0,0],[1]]","11","0","","","","","","4","","","","","","","","",""
"","","","","","single-stim-button","192","394337","0.0-2.0-43.1-0.1","56d0f57421cd29000a9737e4","F1","batch6","","1068","tol_tohand","","","","tol_peg_1","1068","1068","0","[[1,0,0],[0,0],[3]]","2","[[2,3,0],[0,0],[1]]","11","0","","","","","","4","","","","","","","","",""
"","","","","","single-stim-button","193","394855","0.0-2.0-43.1-1.1","56d0f57421cd29000a9737e4","F1","batch6","","518","tol_toboard","","","","tol_peg_2","518","518","0","[[1,0,0],[2,0],[3]]","2","[[2,3,0],[0,0],[1]]","11","0","","","","","","4","","","","","","","","",""
"","","","","","single-stim-button","194","401311","0.0-2.0-43.2-0.2","56d0f57421cd29000a9737e4","F1","batch6","","6456","tol_tohand","","","","tol_peg_3","6456","6456","0","[[1,0,0],[2,0],[0]]","3","[[2,3,0],[0,0],[1]]","11","0","","","","","","4","","","","","","","","",""
"","","","","","single-stim-button","195","401643","0.0-2.0-43.2-1.2","56d0f57421cd29000a9737e4","F1","batch6","","332","tol_toboard","","","","tol_peg_2","332","332","0","[[1,0,0],[2,3],[0]]","3","[[2,3,0],[0,0],[1]]","11","0","","","","","","4","","","","","","","","",""
"","","","","","single-stim-button","196","402069","0.0-2.0-43.3-0.3","56d0f57421cd29000a9737e4","F1","batch6","","426","tol_tohand","","","","tol_peg_1","426","426","0","[[0,0,0],[2,3],[0]]","4","[[2,3,0],[0,0],[1]]","11","0","","","","","","4","","","","","","","","",""
"","","","","","single-stim-button","197","403161","0.0-2.0-43.3-1.3","56d0f57421cd29000a9737e4","F1","batch6","","1092","tol_toboard","","","","tol_peg_3","1092","1092","0","[[0,0,0],[2,3],[1]]","4","[[2,3,0],[0,0],[1]]","11","0","","","","","","4","","","","","","","","",""
"","","","","","single-stim-button","198","408741","0.0-2.0-43.4-0.4","56d0f57421cd29000a9737e4","F1","batch6","","5580","tol_tohand","","","","tol_peg_3","5580","5580","0","[[0,0,0],[2,3],[0]]","5","[[2,3,0],[0,0],[1]]","11","0","","","","","","4","","","","","","","","",""
"","","","","","single-stim-button","199","415841","0.0-2.0-43.4-1.4","56d0f57421cd29000a9737e4","F1","batch6","","7100","tol_toboard","","","","tol_peg_1","7100","7100","0","[[1,0,0],[2,3],[0]]","5","[[2,3,0],[0,0],[1]]","11","0","","","","","","4","","","","","","","","",""
"","","","","","single-stim-button","200","418225","0.0-2.0-43.5-0.5","56d0f57421cd29000a9737e4","F1","batch6","","2384","tol_tohand","","","","tol_peg_2","2384","2384","0","[[1,0,0],[2,0],[0]]","6","[[2,3,0],[0,0],[1]]","11","0","","","","","","4","","","","","","","","",""
"","","","","","single-stim-button","201","426895","0.0-2.0-43.5-1.5","56d0f57421cd29000a9737e4","F1","batch6","","8670","tol_toboard","","","","tol_peg_1","8670","8670","0","[[1,3,0],[2,0],[0]]","6","[[2,3,0],[0,0],[1]]","11","0","","","","","","4","","","","","","","","",""
"","","","","","single-stim-button","202","427275","0.0-2.0-43.6-0.6","56d0f57421cd29000a9737e4","F1","batch6","","380","tol_tohand","","","","tol_peg_2","380","380","0","[[1,3,0],[0,0],[0]]","7","[[2,3,0],[0,0],[1]]","11","0","","","","","","4","","","","","","","","",""
"","","","","","single-stim-button","203","427632","0.0-2.0-43.6-1.6","56d0f57421cd29000a9737e4","F1","batch6","","355","tol_toboard","","","","tol_peg_3","355","355","0","[[1,3,0],[0,0],[2]]","7","[[2,3,0],[0,0],[1]]","11","0","","","","","","4","","","","","","","","",""
"","","","","","single-stim-button","204","428366","0.0-2.0-43.7-0.7","56d0f57421cd29000a9737e4","F1","batch6","","733","tol_tohand","","","","tol_peg_1","733","733","0","[[1,0,0],[0,0],[2]]","8","[[2,3,0],[0,0],[1]]","11","0","","","","","","4","","","","","","","","",""
"","","","","","single-stim-button","205","428715","0.0-2.0-43.7-1.7","56d0f57421cd29000a9737e4","F1","batch6","","349","tol_toboard","","","","tol_peg_2","349","349","0","[[1,0,0],[3,0],[2]]","8","[[2,3,0],[0,0],[1]]","11","0","","","","","","4","","","","","","","","",""
"","","","","","single-stim-button","206","430913","0.0-2.0-43.8-0.8","56d0f57421cd29000a9737e4","F1","batch6","","2198","tol_tohand","","","","tol_peg_1","2198","2198","0","[[0,0,0],[3,0],[2]]","9","[[2,3,0],[0,0],[1]]","11","0","","","","","","4","","","","","","","","",""
"","","","","","single-stim-button","207","431393","0.0-2.0-43.8-1.8","56d0f57421cd29000a9737e4","F1","batch6","","480","tol_toboard","","","","tol_peg_2","480","480","0","[[0,0,0],[3,1],[2]]","9","[[2,3,0],[0,0],[1]]","11","0","","","","","","4","","","","","","","","",""
"","","","","","single-stim-button","208","431819","0.0-2.0-43.9-0.9","56d0f57421cd29000a9737e4","F1","batch6","","426","tol_tohand","","","","tol_peg_3","426","426","0","[[0,0,0],[3,1],[0]]","10","[[2,3,0],[0,0],[1]]","11","0","","","","","","4","","","","","","","","",""
"","","","","","single-stim-button","209","432437","0.0-2.0-43.9-1.9","56d0f57421cd29000a9737e4","F1","batch6","","617","tol_toboard","","","","tol_peg_1","617","617","0","[[2,0,0],[3,1],[0]]","10","[[2,3,0],[0,0],[1]]","11","0","","","","","","4","","","","","","","","",""
"","","","","","single-stim-button","210","433537","0.0-2.0-43.10-0.10","56d0f57421cd29000a9737e4","F1","batch6","","1100","tol_tohand","","","","tol_peg_2","1100","1100","0","[[2,0,0],[3,0],[0]]","11","[[2,3,0],[0,0],[1]]","11","0","","","","","","4","","","","","","","","",""
"","","","","","single-stim-button","211","434342","0.0-2.0-43.10-1.10","56d0f57421cd29000a9737e4","F1","batch6","","804","tol_toboard","","","","tol_peg_1","804","804","0","[[2,1,0],[3,0],[0]]","11","[[2,3,0],[0,0],[1]]","11","0","","","","","","4","","","","","","","","",""
"","","","","","single-stim-button","212","434813","0.0-2.0-43.11-0.11","56d0f57421cd29000a9737e4","F1","batch6","","471","tol_tohand","","","","tol_peg_2","471","471","0","[[2,1,0],[0,0],[0]]","12","[[2,3,0],[0,0],[1]]","11","0","","","","","","4","","","","","","","","",""
"","","","","","single-stim-button","213","435185","0.0-2.0-43.11-1.11","56d0f57421cd29000a9737e4","F1","batch6","","372","tol_toboard","","","","tol_peg_3","372","372","0","[[2,1,0],[0,0],[3]]","12","[[2,3,0],[0,0],[1]]","11","0","","","","","","4","","","","","","","","",""
"","","","","","single-stim-button","214","435719","0.0-2.0-43.12-0.12","56d0f57421cd29000a9737e4","F1","batch6","","534","tol_tohand","","","","tol_peg_1","534","534","0","[[2,0,0],[0,0],[3]]","13","[[2,3,0],[0,0],[1]]","11","0","","","","","","4","","","","","","","","",""
"","","","","","single-stim-button","215","436083","0.0-2.0-43.12-1.12","56d0f57421cd29000a9737e4","F1","batch6","","364","tol_toboard","","","","tol_peg_2","364","364","0","[[2,0,0],[1,0],[3]]","13","[[2,3,0],[0,0],[1]]","11","0","","","","","","4","","","","","","","","",""
"","","","","","single-stim-button","216","437507","0.0-2.0-43.13-0.13","56d0f57421cd29000a9737e4","F1","batch6","","1424","tol_tohand","","","","tol_peg_3","1424","1424","0","[[2,0,0],[1,0],[0]]","14","[[2,3,0],[0,0],[1]]","11","0","","","","","","4","","","","","","","","",""
"","","","","","single-stim-button","217","437971","0.0-2.0-43.13-1.13","56d0f57421cd29000a9737e4","F1","batch6","","464","tol_toboard","","","","tol_peg_1","464","464","0","[[2,3,0],[1,0],[0]]","14","[[2,3,0],[0,0],[1]]","11","0","","","","","","4","","","","","","","","",""
"","","","","","single-stim-button","218","438367","0.0-2.0-43.14-0.14","56d0f57421cd29000a9737e4","F1","batch6","","396","tol_tohand","","","","tol_peg_2","396","396","0","[[2,3,0],[0,0],[0]]","15","[[2,3,0],[0,0],[1]]","11","0","","","","","","4","","","","","","","","",""
"","","","","","single-stim-button","219","438737","0.0-2.0-43.14-1.14","56d0f57421cd29000a9737e4","F1","batch6","","370","tol_toboard","","","","tol_peg_3","370","370","0","[[2,3,0],[0,0],[1]]","15","[[2,3,0],[0,0],[1]]","11","0","","","","","","4","","","","","","","","",""
"","","","","","poldrack-single-stim","220","439738","0.0-2.0-44.0","56d0f57421cd29000a9737e4","F1","batch6","","-1","tol_feedback","","","true","","1000","1000","500","","","","","","-1","none","true","13050","36626","","","","","","","","","",""
"","","","","","html-button-response","221","440633","0.0-2.0-45.0","56d0f57421cd29000a9737e4","F1","batch6","","894.6999999284744","tol_trial_num","<div class = centerbox><p class = center-block-text>problem <strong>13</strong> out of 25 problems</p></div>","0","","","","","","","","","","","","","","","","","","","","","","","","",""
"","","","","","single-stim-button","222","455211","0.0-2.0-46.0-0.0","56d0f57421cd29000a9737e4","F1","batch6","","14578","tol_tohand","","","","tol_peg_1","14578","14578","0","[[1,0,0],[3,0],[0]]","1","[[0,0,0],[2,3],[1]]","12","0","","","","","","4","","","","","","","","",""
"","","","","","single-stim-button","223","458014","0.0-2.0-46.0-1.0","56d0f57421cd29000a9737e4","F1","batch6","","2802","tol_toboard","","","","tol_peg_3","2802","2802","0","[[1,0,0],[3,0],[2]]","1","[[0,0,0],[2,3],[1]]","12","0","","","","","","4","","","","","","","","",""
"","","","","","single-stim-button","224","458477","0.0-2.0-46.1-0.1","56d0f57421cd29000a9737e4","F1","batch6","","463","tol_tohand","","","","tol_peg_1","463","463","0","[[0,0,0],[3,0],[2]]","2","[[0,0,0],[2,3],[1]]","12","0","","","","","","4","","","","","","","","",""
"","","","","","single-stim-button","225","459105","0.0-2.0-46.1-1.1","56d0f57421cd29000a9737e4","F1","batch6","","628","tol_toboard","","","","tol_peg_2","628","628","0","[[0,0,0],[3,1],[2]]","2","[[0,0,0],[2,3],[1]]","12","0","","","","","","4","","","","","","","","",""
"","","","","","single-stim-button","226","459715","0.0-2.0-46.2-0.2","56d0f57421cd29000a9737e4","F1","batch6","","610","tol_tohand","","","","tol_peg_3","610","610","0","[[0,0,0],[3,1],[0]]","3","[[0,0,0],[2,3],[1]]","12","0","","","","","","4","","","","","","","","",""
"","","","","","single-stim-button","227","462101","0.0-2.0-46.2-1.2","56d0f57421cd29000a9737e4","F1","batch6","","2386","tol_toboard","","","","tol_peg_1","2386","2386","0","[[2,0,0],[3,1],[0]]","3","[[0,0,0],[2,3],[1]]","12","0","","","","","","4","","","","","","","","",""
"","","","","","single-stim-button","228","462704","0.0-2.0-46.3-0.3","56d0f57421cd29000a9737e4","F1","batch6","","603","tol_tohand","","","","tol_peg_2","603","603","0","[[2,0,0],[3,0],[0]]","4","[[0,0,0],[2,3],[1]]","12","0","","","","","","4","","","","","","","","",""
"","","","","","single-stim-button","229","470235","0.0-2.0-46.3-1.3","56d0f57421cd29000a9737e4","F1","batch6","","7531","tol_toboard","","","","tol_peg_1","7531","7531","0","[[2,1,0],[3,0],[0]]","4","[[0,0,0],[2,3],[1]]","12","0","","","","","","4","","","","","","","","",""
"","","","","","single-stim-button","230","471155","0.0-2.0-46.4-0.4","56d0f57421cd29000a9737e4","F1","batch6","","920","tol_tohand","","","","tol_peg_2","920","920","0","[[2,1,0],[0,0],[0]]","5","[[0,0,0],[2,3],[1]]","12","0","","","","","","4","","","","","","","","",""
"","","","","","single-stim-button","231","471705","0.0-2.0-46.4-1.4","56d0f57421cd29000a9737e4","F1","batch6","","550","tol_toboard","","","","tol_peg_3","550","550","0","[[2,1,0],[0,0],[3]]","5","[[0,0,0],[2,3],[1]]","12","0","","","","","","4","","","","","","","","",""
"","","","","","single-stim-button","232","475071","0.0-2.0-46.5-0.5","56d0f57421cd29000a9737e4","F1","batch6","","3366","tol_tohand","","","","tol_peg_1","3366","3366","0","[[2,0,0],[0,0],[3]]","6","[[0,0,0],[2,3],[1]]","12","0","","","","","","4","","","","","","","","",""
"","","","","","single-stim-button","233","476265","0.0-2.0-46.5-1.5","56d0f57421cd29000a9737e4","F1","batch6","","1194","tol_toboard","","","","tol_peg_2","1194","1194","0","[[2,0,0],[1,0],[3]]","6","[[0,0,0],[2,3],[1]]","12","0","","","","","","4","","","","","","","","",""
"","","","","","single-stim-button","234","476721","0.0-2.0-46.6-0.6","56d0f57421cd29000a9737e4","F1","batch6","","456","tol_tohand","","","","tol_peg_1","456","456","0","[[0,0,0],[1,0],[3]]","7","[[0,0,0],[2,3],[1]]","12","0","","","","","","4","","","","","","","","",""
"","","","","","single-stim-button","235","480777","0.0-2.0-46.6-1.6","56d0f57421cd29000a9737e4","F1","batch6","","4056","tol_toboard","","","","tol_peg_1","4056","4056","0","[[2,0,0],[1,0],[3]]","7","[[0,0,0],[2,3],[1]]","12","0","","","","","","4","","","","","","","","",""
"","","","","","single-stim-button","236","481179","0.0-2.0-46.7-0.7","56d0f57421cd29000a9737e4","F1","batch6","","402","tol_tohand","","","","tol_peg_3","402","402","0","[[2,0,0],[1,0],[0]]","8","[[0,0,0],[2,3],[1]]","12","0","","","","","","4","","","","","","","","",""
"","","","","","single-stim-button","237","496381","0.0-2.0-46.7-1.7","56d0f57421cd29000a9737e4","F1","batch6","","15202","tol_toboard","","","","tol_peg_2","15202","15202","0","[[2,0,0],[1,3],[0]]","8","[[0,0,0],[2,3],[1]]","12","0","","","","","","4","","","","","","","","",""
"","","","","","single-stim-button","238","497520","0.0-2.0-46.8-0.8","56d0f57421cd29000a9737e4","F1","batch6","","1138","tol_tohand","","","","tol_peg_1","1138","1138","0","[[0,0,0],[1,3],[0]]","9","[[0,0,0],[2,3],[1]]","12","0","","","","","","4","","","","","","","","",""
"","","","","","single-stim-button","239","498077","0.0-2.0-46.8-1.8","56d0f57421cd29000a9737e4","F1","batch6","","557","tol_toboard","","","","tol_peg_3","557","557","0","[[0,0,0],[1,3],[2]]","9","[[0,0,0],[2,3],[1]]","12","0","","","","","","4","","","","","","","","",""
"","","","","","single-stim-button","240","498463","0.0-2.0-46.9-0.9","56d0f57421cd29000a9737e4","F1","batch6","","386","tol_tohand","","","","tol_peg_2","386","386","0","[[0,0,0],[1,0],[2]]","10","[[0,0,0],[2,3],[1]]","12","0","","","","","","4","","","","","","","","",""
"","","","","","single-stim-button","241","506965","0.0-2.0-46.9-1.9","56d0f57421cd29000a9737e4","F1","batch6","","8501","tol_toboard","","","","tol_peg_1","8501","8501","0","[[3,0,0],[1,0],[2]]","10","[[0,0,0],[2,3],[1]]","12","0","","","","","","4","","","","","","","","",""
"","","","","","single-stim-button","242","508529","0.0-2.0-46.10-0.10","56d0f57421cd29000a9737e4","F1","batch6","","1563","tol_tohand","","","","tol_peg_3","1563","1563","0","[[3,0,0],[1,0],[0]]","11","[[0,0,0],[2,3],[1]]","12","0","","","","","","4","","","","","","","","",""
"","","","","","single-stim-button","243","509117","0.0-2.0-46.10-1.10","56d0f57421cd29000a9737e4","F1","batch6","","587","tol_toboard","","","","tol_peg_1","587","587","0","[[3,2,0],[1,0],[0]]","11","[[0,0,0],[2,3],[1]]","12","0","","","","","","4","","","","","","","","",""
"","","","","","single-stim-button","244","509487","0.0-2.0-46.11-0.11","56d0f57421cd29000a9737e4","F1","batch6","","369","tol_tohand","","","","tol_peg_2","369","369","0","[[3,2,0],[0,0],[0]]","12","[[0,0,0],[2,3],[1]]","12","0","","","","","","4","","","","","","","","",""
"","","","","","single-stim-button","245","509961","0.0-2.0-46.11-1.11","56d0f57421cd29000a9737e4","F1","batch6","","473","tol_toboard","","","","tol_peg_3","473","473","0","[[3,2,0],[0,0],[1]]","12","[[0,0,0],[2,3],[1]]","12","0","","","","","","4","","","","","","","","",""
"","","","","","single-stim-button","246","510439","0.0-2.0-46.12-0.12","56d0f57421cd29000a9737e4","F1","batch6","","478","tol_tohand","","","","tol_peg_1","478","478","0","[[3,0,0],[0,0],[1]]","13","[[0,0,0],[2,3],[1]]","12","0","","","","","","4","","","","","","","","",""
"","","","","","single-stim-button","247","510997","0.0-2.0-46.12-1.12","56d0f57421cd29000a9737e4","F1","batch6","","557","tol_toboard","","","","tol_peg_2","557","557","0","[[3,0,0],[2,0],[1]]","13","[[0,0,0],[2,3],[1]]","12","0","","","","","","4","","","","","","","","",""
"","","","","","single-stim-button","248","511337","0.0-2.0-46.13-0.13","56d0f57421cd29000a9737e4","F1","batch6","","339","tol_tohand","","","","tol_peg_1","339","339","0","[[0,0,0],[2,0],[1]]","14","[[0,0,0],[2,3],[1]]","12","0","","","","","","4","","","","","","","","",""
"","","","","","single-stim-button","249","511671","0.0-2.0-46.13-1.13","56d0f57421cd29000a9737e4","F1","batch6","","333","tol_toboard","","","","tol_peg_2","333","333","0","[[0,0,0],[2,3],[1]]","14","[[0,0,0],[2,3],[1]]","12","0","","","","","","4","","","","","","","","",""
"","","","","","poldrack-single-stim","250","512679","0.0-2.0-47.0","56d0f57421cd29000a9737e4","F1","batch6","","-1","tol_feedback","","","true","","1000","1000","500","","","","","","-1","none","true","14578","25671","","","","","","","","","",""
"","","","","","html-button-response","251","518189","0.0-2.0-48.0","56d0f57421cd29000a9737e4","F1","batch6","","5509.800000071526","attention_check","<p class = block-text>How many balls are in your board<br></p>","1","true","","","","","","","","","","","","","","","","","","","","","","","",""
"","","","","","html-button-response","252","519248","0.0-2.0-49.0","56d0f57421cd29000a9737e4","F1","batch6","","1058.2000000476837","tol_trial_num","<div class = centerbox><p class = center-block-text>problem <strong>14</strong> out of 25 problems</p></div>","0","","","","","","","","","","","","","","","","","","","","","","","","",""
"","","","","","single-stim-button","253","528167","0.0-2.0-50.0-0.0","56d0f57421cd29000a9737e4","F1","batch6","","8917","tol_tohand","","","","tol_peg_1","8917","8917","0","[[2,0,0],[3,0],[0]]","1","[[1,2,0],[3,0],[0]]","13","0","","","","","","4","","","","","","","","",""
"","","","","","single-stim-button","254","528739","0.0-2.0-50.0-1.0","56d0f57421cd29000a9737e4","F1","batch6","","572","tol_toboard","","","","tol_peg_2","572","572","0","[[2,0,0],[3,1],[0]]","1","[[1,2,0],[3,0],[0]]","13","0","","","","","","4","","","","","","","","",""
"","","","","","single-stim-button","255","530481","0.0-2.0-50.1-0.1","56d0f57421cd29000a9737e4","F1","batch6","","1741","tol_tohand","","","","tol_peg_1","1741","1741","0","[[0,0,0],[3,1],[0]]","2","[[1,2,0],[3,0],[0]]","13","0","","","","","","4","","","","","","","","",""
"","","","","","single-stim-button","256","531109","0.0-2.0-50.1-1.1","56d0f57421cd29000a9737e4","F1","batch6","","627","tol_toboard","","","","tol_peg_3","627","627","0","[[0,0,0],[3,1],[2]]","2","[[1,2,0],[3,0],[0]]","13","0","","","","","","4","","","","","","","","",""
"","","","","","single-stim-button","257","531619","0.0-2.0-50.2-0.2","56d0f57421cd29000a9737e4","F1","batch6","","509","tol_tohand","","","","tol_peg_2","509","509","0","[[0,0,0],[3,0],[2]]","3","[[1,2,0],[3,0],[0]]","13","0","","","","","","4","","","","","","","","",""
"","","","","","single-stim-button","258","532053","0.0-2.0-50.2-1.2","56d0f57421cd29000a9737e4","F1","batch6","","433","tol_toboard","","","","tol_peg_1","433","433","0","[[1,0,0],[3,0],[2]]","3","[[1,2,0],[3,0],[0]]","13","0","","","","","","4","","","","","","","","",""
"","","","","","single-stim-button","259","532633","0.0-2.0-50.3-0.3","56d0f57421cd29000a9737e4","F1","batch6","","579","tol_tohand","","","","tol_peg_3","579","579","0","[[1,0,0],[3,0],[0]]","4","[[1,2,0],[3,0],[0]]","13","0","","","","","","4","","","","","","","","",""
"","","","","","single-stim-button","260","533081","0.0-2.0-50.3-1.3","56d0f57421cd29000a9737e4","F1","batch6","","447","tol_toboard","","","","tol_peg_1","447","447","0","[[1,2,0],[3,0],[0]]","4","[[1,2,0],[3,0],[0]]","13","0","","","","","","4","","","","","","","","",""
"","","","","","poldrack-single-stim","261","534082","0.0-2.0-51.0","56d0f57421cd29000a9737e4","F1","batch6","","-1","tol_feedback","","","true","","1000","1000","500","","","","","","-1","none","true","8917","11746","","","","","","","","","",""
"","","","","","html-button-response","262","535759","0.0-2.0-52.0","56d0f57421cd29000a9737e4","F1","batch6","","1675.6000000238419","tol_trial_num","<div class = centerbox><p class = center-block-text>problem <strong>15</strong> out of 25 problems</p></div>","0","","","","","","","","","","","","","","","","","","","","","","","","",""
"","","","","","single-stim-button","263","544653","0.0-2.0-53.0-0.0","56d0f57421cd29000a9737e4","F1","batch6","","8894","tol_tohand","","","","tol_peg_2","8894","8894","0","[[1,2,0],[0,0],[0]]","1","[[2,0,0],[3,0],[1]]","14","0","","","","","","3","","","","","","","","",""
"","","","","","single-stim-button","264","545179","0.0-2.0-53.0-1.0","56d0f57421cd29000a9737e4","F1","batch6","","525","tol_toboard","","","","tol_peg_3","525","525","0","[[1,2,0],[0,0],[3]]","1","[[2,0,0],[3,0],[1]]","14","0","","","","","","3","","","","","","","","",""
"","","","","","single-stim-button","265","556753","0.0-2.0-53.1-0.1","56d0f57421cd29000a9737e4","F1","batch6","","11573","tol_tohand","","","","tol_peg_3","11573","11573","0","[[1,2,0],[0,0],[0]]","2","[[2,0,0],[3,0],[1]]","14","0","","","","","","3","","","","","","","","",""
"","","","","","single-stim-button","266","562465","0.0-2.0-53.1-1.1","56d0f57421cd29000a9737e4","F1","batch6","","5711","tol_toboard","","","","tol_peg_2","5711","5711","0","[[1,2,0],[3,0],[0]]","2","[[2,0,0],[3,0],[1]]","14","0","","","","","","3","","","","","","","","",""
"","","","","","single-stim-button","267","562883","0.0-2.0-53.2-0.2","56d0f57421cd29000a9737e4","F1","batch6","","418","tol_tohand","","","","tol_peg_1","418","418","0","[[1,0,0],[3,0],[0]]","3","[[2,0,0],[3,0],[1]]","14","0","","","","","","3","","","","","","","","",""
"","","","","","single-stim-button","268","563680","0.0-2.0-53.2-1.2","56d0f57421cd29000a9737e4","F1","batch6","","797","tol_toboard","","","","tol_peg_3","797","797","0","[[1,0,0],[3,0],[2]]","3","[[2,0,0],[3,0],[1]]","14","0","","","","","","3","","","","","","","","",""
"","","","","","single-stim-button","269","564207","0.0-2.0-53.3-0.3","56d0f57421cd29000a9737e4","F1","batch6","","526","tol_tohand","","","","tol_peg_1","526","526","0","[[0,0,0],[3,0],[2]]","4","[[2,0,0],[3,0],[1]]","14","0","","","","","","3","","","","","","","","",""
"","","","","","single-stim-button","270","564555","0.0-2.0-53.3-1.3","56d0f57421cd29000a9737e4","F1","batch6","","346","tol_toboard","","","","tol_peg_2","346","346","0","[[0,0,0],[3,1],[2]]","4","[[2,0,0],[3,0],[1]]","14","0","","","","","","3","","","","","","","","",""
"","","","","","single-stim-button","271","564956","0.0-2.0-53.4-0.4","56d0f57421cd29000a9737e4","F1","batch6","","401","tol_tohand","","","","tol_peg_3","401","401","0","[[0,0,0],[3,1],[0]]","5","[[2,0,0],[3,0],[1]]","14","0","","","","","","3","","","","","","","","",""
"","","","","","single-stim-button","272","565598","0.0-2.0-53.4-1.4","56d0f57421cd29000a9737e4","F1","batch6","","641","tol_toboard","","","","tol_peg_1","641","641","0","[[2,0,0],[3,1],[0]]","5","[[2,0,0],[3,0],[1]]","14","0","","","","","","3","","","","","","","","",""
"","","","","","single-stim-button","273","566799","0.0-2.0-53.5-0.5","56d0f57421cd29000a9737e4","F1","batch6","","1199","tol_tohand","","","","tol_peg_2","1199","1199","0","[[2,0,0],[3,0],[0]]","6","[[2,0,0],[3,0],[1]]","14","0","","","","","","3","","","","","","","","",""
"","","","","","single-stim-button","274","567249","0.0-2.0-53.5-1.5","56d0f57421cd29000a9737e4","F1","batch6","","450","tol_toboard","","","","tol_peg_3","450","450","0","[[2,0,0],[3,0],[1]]","6","[[2,0,0],[3,0],[1]]","14","0","","","","","","3","","","","","","","","",""
"","","","","","poldrack-single-stim","275","568250","0.0-2.0-54.0","56d0f57421cd29000a9737e4","F1","batch6","","-1","tol_feedback","","","true","","1000","1000","500","","","","","","-1","none","true","8894","23011","","","","","","","","","",""
"","","","","","html-button-response","276","569221","0.0-2.0-55.0","56d0f57421cd29000a9737e4","F1","batch6","","970.7000000476837","tol_trial_num","<div class = centerbox><p class = center-block-text>problem <strong>16</strong> out of 25 problems</p></div>","0","","","","","","","","","","","","","","","","","","","","","","","","",""
"","","","","","single-stim-button","277","575251","0.0-2.0-56.0-0.0","56d0f57421cd29000a9737e4","F1","batch6","","6030","tol_tohand","","","","tol_peg_3","6030","6030","0","[[0,0,0],[2,3],[0]]","1","[[2,3,0],[1,0],[0]]","15","0","","","","","","7","","","","","","","","",""
"","","","","","single-stim-button","278","575825","0.0-2.0-56.0-1.0","56d0f57421cd29000a9737e4","F1","batch6","","574","tol_toboard","","","","tol_peg_1","574","574","0","[[1,0,0],[2,3],[0]]","1","[[2,3,0],[1,0],[0]]","15","0","","","","","","7","","","","","","","","",""
"","","","","","single-stim-button","279","580701","0.0-2.0-56.1-0.1","56d0f57421cd29000a9737e4","F1","batch6","","4876","tol_tohand","","","","tol_peg_2","4876","4876","0","[[1,0,0],[2,0],[0]]","2","[[2,3,0],[1,0],[0]]","15","0","","","","","","7","","","","","","","","",""
"","","","","","single-stim-button","280","581397","0.0-2.0-56.1-1.1","56d0f57421cd29000a9737e4","F1","batch6","","696","tol_toboard","","","","tol_peg_1","696","696","0","[[1,3,0],[2,0],[0]]","2","[[2,3,0],[1,0],[0]]","15","0","","","","","","7","","","","","","","","",""
"","","","","","single-stim-button","281","582265","0.0-2.0-56.2-0.2","56d0f57421cd29000a9737e4","F1","batch6","","868","tol_tohand","","","","tol_peg_2","868","868","0","[[1,3,0],[0,0],[0]]","3","[[2,3,0],[1,0],[0]]","15","0","","","","","","7","","","","","","","","",""
"","","","","","single-stim-button","282","582675","0.0-2.0-56.2-1.2","56d0f57421cd29000a9737e4","F1","batch6","","410","tol_toboard","","","","tol_peg_3","410","410","0","[[1,3,0],[0,0],[2]]","3","[[2,3,0],[1,0],[0]]","15","0","","","","","","7","","","","","","","","",""
"","","","","","single-stim-button","283","583279","0.0-2.0-56.3-0.3","56d0f57421cd29000a9737e4","F1","batch6","","604","tol_tohand","","","","tol_peg_1","604","604","0","[[1,0,0],[0,0],[2]]","4","[[2,3,0],[1,0],[0]]","15","0","","","","","","7","","","","","","","","",""
"","","","","","single-stim-button","284","583689","0.0-2.0-56.3-1.3","56d0f57421cd29000a9737e4","F1","batch6","","409","tol_toboard","","","","tol_peg_2","409","409","0","[[1,0,0],[3,0],[2]]","4","[[2,3,0],[1,0],[0]]","15","0","","","","","","7","","","","","","","","",""
"","","","","","single-stim-button","285","584493","0.0-2.0-56.4-0.4","56d0f57421cd29000a9737e4","F1","batch6","","804","tol_tohand","","","","tol_peg_1","804","804","0","[[0,0,0],[3,0],[2]]","5","[[2,3,0],[1,0],[0]]","15","0","","","","","","7","","","","","","","","",""
"","","","","","single-stim-button","286","584865","0.0-2.0-56.4-1.4","56d0f57421cd29000a9737e4","F1","batch6","","372","tol_toboard","","","","tol_peg_2","372","372","0","[[0,0,0],[3,1],[2]]","5","[[2,3,0],[1,0],[0]]","15","0","","","","","","7","","","","","","","","",""
"","","","","","single-stim-button","287","585423","0.0-2.0-56.5-0.5","56d0f57421cd29000a9737e4","F1","batch6","","558","tol_tohand","","","","tol_peg_3","558","558","0","[[0,0,0],[3,1],[0]]","6","[[2,3,0],[1,0],[0]]","15","0","","","","","","7","","","","","","","","",""
"","","","","","single-stim-button","288","585979","0.0-2.0-56.5-1.5","56d0f57421cd29000a9737e4","F1","batch6","","555","tol_toboard","","","","tol_peg_1","555","555","0","[[2,0,0],[3,1],[0]]","6","[[2,3,0],[1,0],[0]]","15","0","","","","","","7","","","","","","","","",""
"","","","","","single-stim-button","289","586384","0.0-2.0-56.6-0.6","56d0f57421cd29000a9737e4","F1","batch6","","404","tol_tohand","","","","tol_peg_2","404","404","0","[[2,0,0],[3,0],[0]]","7","[[2,3,0],[1,0],[0]]","15","0","","","","","","7","","","","","","","","",""
"","","","","","single-stim-button","290","587087","0.0-2.0-56.6-1.6","56d0f57421cd29000a9737e4","F1","batch6","","703","tol_toboard","","","","tol_peg_3","703","703","0","[[2,0,0],[3,0],[1]]","7","[[2,3,0],[1,0],[0]]","15","0","","","","","","7","","","","","","","","",""
"","","","","","single-stim-button","291","587443","0.0-2.0-56.7-0.7","56d0f57421cd29000a9737e4","F1","batch6","","356","tol_tohand","","","","tol_peg_2","356","356","0","[[2,0,0],[0,0],[1]]","8","[[2,3,0],[1,0],[0]]","15","0","","","","","","7","","","","","","","","",""
"","","","","","single-stim-button","292","587837","0.0-2.0-56.7-1.7","56d0f57421cd29000a9737e4","F1","batch6","","394","tol_toboard","","","","tol_peg_1","394","394","0","[[2,3,0],[0,0],[1]]","8","[[2,3,0],[1,0],[0]]","15","0","","","","","","7","","","","","","","","",""
"","","","","","single-stim-button","293","588293","0.0-2.0-56.8-0.8","56d0f57421cd29000a9737e4","F1","batch6","","456","tol_tohand","","","","tol_peg_3","456","456","0","[[2,3,0],[0,0],[0]]","9","[[2,3,0],[1,0],[0]]","15","0","","","","","","7","","","","","","","","",""
"","","","","","single-stim-button","294","588641","0.0-2.0-56.8-1.8","56d0f57421cd29000a9737e4","F1","batch6","","348","tol_toboard","","","","tol_peg_2","348","348","0","[[2,3,0],[1,0],[0]]","9","[[2,3,0],[1,0],[0]]","15","0","","","","","","7","","","","","","","","",""
"","","","","","poldrack-single-stim","295","589642","0.0-2.0-57.0","56d0f57421cd29000a9737e4","F1","batch6","","-1","tol_feedback","","","true","","1000","1000","500","","","","","","-1","none","true","6030","14956","","","","","","","","","",""
"","","","","","html-button-response","296","590445","0.0-2.0-58.0","56d0f57421cd29000a9737e4","F1","batch6","","802.3999999761581","tol_trial_num","<div class = centerbox><p class = center-block-text>problem <strong>17</strong> out of 25 problems</p></div>","0","","","","","","","","","","","","","","","","","","","","","","","","",""
"","","","","","single-stim-button","297","600030","0.0-2.0-59.0-0.0","56d0f57421cd29000a9737e4","F1","batch6","","9584","tol_tohand","","","","tol_peg_2","9584","9584","0","[[1,2,0],[0,0],[0]]","1","[[3,1,0],[2,0],[0]]","16","0","","","","","","5","","","","","","","","",""
"","","","","","single-stim-button","298","603141","0.0-2.0-59.0-1.0","56d0f57421cd29000a9737e4","F1","batch6","","3111","tol_toboard","","","","tol_peg_3","3111","3111","0","[[1,2,0],[0,0],[3]]","1","[[3,1,0],[2,0],[0]]","16","0","","","","","","5","","","","","","","","",""
"","","","","","single-stim-button","299","603557","0.0-2.0-59.1-0.1","56d0f57421cd29000a9737e4","F1","batch6","","416","tol_tohand","","","","tol_peg_1","416","416","0","[[1,0,0],[0,0],[3]]","2","[[3,1,0],[2,0],[0]]","16","0","","","","","","5","","","","","","","","",""
"","","","","","single-stim-button","300","604193","0.0-2.0-59.1-1.1","56d0f57421cd29000a9737e4","F1","batch6","","636","tol_toboard","","","","tol_peg_2","636","636","0","[[1,0,0],[2,0],[3]]","2","[[3,1,0],[2,0],[0]]","16","0","","","","","","5","","","","","","","","",""
"","","","","","single-stim-button","301","610215","0.0-2.0-59.2-0.2","56d0f57421cd29000a9737e4","F1","batch6","","6022","tol_tohand","","","","tol_peg_1","6022","6022","0","[[0,0,0],[2,0],[3]]","3","[[3,1,0],[2,0],[0]]","16","0","","","","","","5","","","","","","","","",""
"","","","","","single-stim-button","302","610625","0.0-2.0-59.2-1.2","56d0f57421cd29000a9737e4","F1","batch6","","410","tol_toboard","","","","tol_peg_2","410","410","0","[[0,0,0],[2,1],[3]]","3","[[3,1,0],[2,0],[0]]","16","0","","","","","","5","","","","","","","","",""
"","","","","","single-stim-button","303","611005","0.0-2.0-59.3-0.3","56d0f57421cd29000a9737e4","F1","batch6","","379","tol_tohand","","","","tol_peg_3","379","379","0","[[0,0,0],[2,1],[0]]","4","[[3,1,0],[2,0],[0]]","16","0","","","","","","5","","","","","","","","",""
"","","","","","single-stim-button","304","611593","0.0-2.0-59.3-1.3","56d0f57421cd29000a9737e4","F1","batch6","","588","tol_toboard","","","","tol_peg_1","588","588","0","[[3,0,0],[2,1],[0]]","4","[[3,1,0],[2,0],[0]]","16","0","","","","","","5","","","","","","","","",""
"","","","","","single-stim-button","305","612128","0.0-2.0-59.4-0.4","56d0f57421cd29000a9737e4","F1","batch6","","534","tol_tohand","","","","tol_peg_2","534","534","0","[[3,0,0],[2,0],[0]]","5","[[3,1,0],[2,0],[0]]","16","0","","","","","","5","","","","","","","","",""
"","","","","","single-stim-button","306","612607","0.0-2.0-59.4-1.4","56d0f57421cd29000a9737e4","F1","batch6","","479","tol_toboard","","","","tol_peg_1","479","479","0","[[3,1,0],[2,0],[0]]","5","[[3,1,0],[2,0],[0]]","16","0","","","","","","5","","","","","","","","",""
"","","","","","poldrack-single-stim","307","613609","0.0-2.0-60.0","56d0f57421cd29000a9737e4","F1","batch6","","-1","tol_feedback","","","true","","1000","1000","500","","","","","","-1","none","true","9584","16935","","","","","","","","","",""
"","","","","","html-button-response","308","614533","0.0-2.0-61.0","56d0f57421cd29000a9737e4","F1","batch6","","923.2000000476837","tol_trial_num","<div class = centerbox><p class = center-block-text>problem <strong>18</strong> out of 25 problems</p></div>","0","","","","","","","","","","","","","","","","","","","","","","","","",""
"","","","","","single-stim-button","309","628707","0.0-2.0-62.0-0.0","56d0f57421cd29000a9737e4","F1","batch6","","14173","tol_tohand","","","","tol_peg_1","14173","14173","0","[[1,0,0],[3,0],[0]]","1","[[3,0,0],[2,0],[1]]","17","0","","","","","","5","","","","","","","","",""
"","","","","","single-stim-button","310","629224","0.0-2.0-62.0-1.0","56d0f57421cd29000a9737e4","F1","batch6","","517","tol_toboard","","","","tol_peg_2","517","517","0","[[1,0,0],[3,2],[0]]","1","[[3,0,0],[2,0],[1]]","17","0","","","","","","5","","","","","","","","",""
"","","","","","single-stim-button","311","630091","0.0-2.0-62.1-0.1","56d0f57421cd29000a9737e4","F1","batch6","","865","tol_tohand","","","","tol_peg_1","865","865","0","[[0,0,0],[3,2],[0]]","2","[[3,0,0],[2,0],[1]]","17","0","","","","","","5","","","","","","","","",""
"","","","","","single-stim-button","312","630719","0.0-2.0-62.1-1.1","56d0f57421cd29000a9737e4","F1","batch6","","627","tol_toboard","","","","tol_peg_3","627","627","0","[[0,0,0],[3,2],[1]]","2","[[3,0,0],[2,0],[1]]","17","0","","","","","","5","","","","","","","","",""
"","","","","","single-stim-button","313","631190","0.0-2.0-62.2-0.2","56d0f57421cd29000a9737e4","F1","batch6","","471","tol_tohand","","","","tol_peg_2","471","471","0","[[0,0,0],[3,0],[1]]","3","[[3,0,0],[2,0],[1]]","17","0","","","","","","5","","","","","","","","",""
"","","","","","single-stim-button","314","635549","0.0-2.0-62.2-1.2","56d0f57421cd29000a9737e4","F1","batch6","","4357","tol_toboard","","","","tol_peg_1","4357","4357","0","[[2,0,0],[3,0],[1]]","3","[[3,0,0],[2,0],[1]]","17","0","","","","","","5","","","","","","","","",""
"","","","","","single-stim-button","315","635859","0.0-2.0-62.3-0.3","56d0f57421cd29000a9737e4","F1","batch6","","309","tol_tohand","","","","tol_peg_2","309","309","0","[[2,0,0],[0,0],[1]]","4","[[3,0,0],[2,0],[1]]","17","0","","","","","","5","","","","","","","","",""
"","","","","","single-stim-button","316","637901","0.0-2.0-62.3-1.3","56d0f57421cd29000a9737e4","F1","batch6","","2041","tol_toboard","","","","tol_peg_1","2041","2041","0","[[2,3,0],[0,0],[1]]","4","[[3,0,0],[2,0],[1]]","17","0","","","","","","5","","","","","","","","",""
"","","","","","single-stim-button","317","638475","0.0-2.0-62.4-0.4","56d0f57421cd29000a9737e4","F1","batch6","","574","tol_tohand","","","","tol_peg_3","574","574","0","[[2,3,0],[0,0],[0]]","5","[[3,0,0],[2,0],[1]]","17","0","","","","","","5","","","","","","","","",""
"","","","","","single-stim-button","318","638860","0.0-2.0-62.4-1.4","56d0f57421cd29000a9737e4","F1","batch6","","385","tol_toboard","","","","tol_peg_2","385","385","0","[[2,3,0],[1,0],[0]]","5","[[3,0,0],[2,0],[1]]","17","0","","","","","","5","","","","","","","","",""
"","","","","","single-stim-button","319","639254","0.0-2.0-62.5-0.5","56d0f57421cd29000a9737e4","F1","batch6","","393","tol_tohand","","","","tol_peg_1","393","393","0","[[2,0,0],[1,0],[0]]","6","[[3,0,0],[2,0],[1]]","17","0","","","","","","5","","","","","","","","",""
"","","","","","single-stim-button","320","640579","0.0-2.0-62.5-1.5","56d0f57421cd29000a9737e4","F1","batch6","","1324","tol_toboard","","","","tol_peg_3","1324","1324","0","[[2,0,0],[1,0],[3]]","6","[[3,0,0],[2,0],[1]]","17","0","","","","","","5","","","","","","","","",""
"","","","","","single-stim-button","321","641314","0.0-2.0-62.6-0.6","56d0f57421cd29000a9737e4","F1","batch6","","735","tol_tohand","","","","tol_peg_1","735","735","0","[[0,0,0],[1,0],[3]]","7","[[3,0,0],[2,0],[1]]","17","0","","","","","","5","","","","","","","","",""
"","","","","","single-stim-button","322","641663","0.0-2.0-62.6-1.6","56d0f57421cd29000a9737e4","F1","batch6","","348","tol_toboard","","","","tol_peg_2","348","348","0","[[0,0,0],[1,2],[3]]","7","[[3,0,0],[2,0],[1]]","17","0","","","","","","5","","","","","","","","",""
"","","","","","single-stim-button","323","642064","0.0-2.0-62.7-0.7","56d0f57421cd29000a9737e4","F1","batch6","","400","tol_tohand","","","","tol_peg_3","400","400","0","[[0,0,0],[1,2],[0]]","8","[[3,0,0],[2,0],[1]]","17","0","","","","","","5","","","","","","","","",""
"","","","","","single-stim-button","324","642677","0.0-2.0-62.7-1.7","56d0f57421cd29000a9737e4","F1","batch6","","611","tol_toboard","","","","tol_peg_1","611","611","0","[[3,0,0],[1,2],[0]]","8","[[3,0,0],[2,0],[1]]","17","0","","","","","","5","","","","","","","","",""
"","","","","","single-stim-button","325","643574","0.0-2.0-62.8-0.8","56d0f57421cd29000a9737e4","F1","batch6","","897","tol_tohand","","","","tol_peg_2","897","897","0","[[3,0,0],[1,0],[0]]","9","[[3,0,0],[2,0],[1]]","17","0","","","","","","5","","","","","","","","",""
"","","","","","single-stim-button","326","644494","0.0-2.0-62.8-1.8","56d0f57421cd29000a9737e4","F1","batch6","","919","tol_toboard","","","","tol_peg_1","919","919","0","[[3,2,0],[1,0],[0]]","9","[[3,0,0],[2,0],[1]]","17","0","","","","","","5","","","","","","","","",""
"","","","","","single-stim-button","327","644884","0.0-2.0-62.9-0.9","56d0f57421cd29000a9737e4","F1","batch6","","388","tol_tohand","","","","tol_peg_2","388","388","0","[[3,2,0],[0,0],[0]]","10","[[3,0,0],[2,0],[1]]","17","0","","","","","","5","","","","","","","","",""
"","","","","","single-stim-button","328","645308","0.0-2.0-62.9-1.9","56d0f57421cd29000a9737e4","F1","batch6","","424","tol_toboard","","","","tol_peg_3","424","424","0","[[3,2,0],[0,0],[1]]","10","[[3,0,0],[2,0],[1]]","17","0","","","","","","5","","","","","","","","",""
"","","","","","single-stim-button","329","645843","0.0-2.0-62.10-0.10","56d0f57421cd29000a9737e4","F1","batch6","","534","tol_tohand","","","","tol_peg_1","534","534","0","[[3,0,0],[0,0],[1]]","11","[[3,0,0],[2,0],[1]]","17","0","","","","","","5","","","","","","","","",""
"","","","","","single-stim-button","330","646190","0.0-2.0-62.10-1.10","56d0f57421cd29000a9737e4","F1","batch6","","347","tol_toboard","","","","tol_peg_2","347","347","0","[[3,0,0],[2,0],[1]]","11","[[3,0,0],[2,0],[1]]","17","0","","","","","","5","","","","","","","","",""
"","","","","","poldrack-single-stim","331","647193","0.0-2.0-63.0","56d0f57421cd29000a9737e4","F1","batch6","","-1","tol_feedback","","","true","","1000","1000","500","","","","","","-1","none","true","14173","19739","","","","","","","","","",""
"","","","","","html-button-response","332","648016","0.0-2.0-64.0","56d0f57421cd29000a9737e4","F1","batch6","","823","tol_trial_num","<div class = centerbox><p class = center-block-text>problem <strong>19</strong> out of 25 problems</p></div>","0","","","","","","","","","","","","","","","","","","","","","","","","",""
"","","","","","single-stim-button","333","656169","0.0-2.0-65.0-0.0","56d0f57421cd29000a9737e4","F1","batch6","","8152","tol_tohand","","","","tol_peg_1","8152","8152","0","[[1,0,0],[3,0],[0]]","1","[[0,0,0],[1,2],[3]]","18","0","","","","","","7","","","","","","","","",""
"","","","","","single-stim-button","334","656609","0.0-2.0-65.0-1.0","56d0f57421cd29000a9737e4","F1","batch6","","440","tol_toboard","","","","tol_peg_2","440","440","0","[[1,0,0],[3,2],[0]]","1","[[0,0,0],[1,2],[3]]","18","0","","","","","","7","","","","","","","","",""
"","","","","","single-stim-button","335","656935","0.0-2.0-65.1-0.1","56d0f57421cd29000a9737e4","F1","batch6","","326","tol_tohand","","","","tol_peg_1","326","326","0","[[0,0,0],[3,2],[0]]","2","[[0,0,0],[1,2],[3]]","18","0","","","","","","7","","","","","","","","",""
"","","","","","single-stim-button","336","657437","0.0-2.0-65.1-1.1","56d0f57421cd29000a9737e4","F1","batch6","","502","tol_toboard","","","","tol_peg_3","502","502","0","[[0,0,0],[3,2],[1]]","2","[[0,0,0],[1,2],[3]]","18","0","","","","","","7","","","","","","","","",""
"","","","","","single-stim-button","337","657825","0.0-2.0-65.2-0.2","56d0f57421cd29000a9737e4","F1","batch6","","386","tol_tohand","","","","tol_peg_2","386","386","0","[[0,0,0],[3,0],[1]]","3","[[0,0,0],[1,2],[3]]","18","0","","","","","","7","","","","","","","","",""
"","","","","","single-stim-button","338","658242","0.0-2.0-65.2-1.2","56d0f57421cd29000a9737e4","F1","batch6","","417","tol_toboard","","","","tol_peg_1","417","417","0","[[2,0,0],[3,0],[1]]","3","[[0,0,0],[1,2],[3]]","18","0","","","","","","7","","","","","","","","",""
"","","","","","single-stim-button","339","659324","0.0-2.0-65.3-0.3","56d0f57421cd29000a9737e4","F1","batch6","","1081","tol_tohand","","","","tol_peg_3","1081","1081","0","[[2,0,0],[3,0],[0]]","4","[[0,0,0],[1,2],[3]]","18","0","","","","","","7","","","","","","","","",""
"","","","","","single-stim-button","340","662390","0.0-2.0-65.3-1.3","56d0f57421cd29000a9737e4","F1","batch6","","3065","tol_toboard","","","","tol_peg_1","3065","3065","0","[[2,1,0],[3,0],[0]]","4","[[0,0,0],[1,2],[3]]","18","0","","","","","","7","","","","","","","","",""
"","","","","","single-stim-button","341","662963","0.0-2.0-65.4-0.4","56d0f57421cd29000a9737e4","F1","batch6","","572","tol_tohand","","","","tol_peg_2","572","572","0","[[2,1,0],[0,0],[0]]","5","[[0,0,0],[1,2],[3]]","18","0","","","","","","7","","","","","","","","",""
"","","","","","single-stim-button","342","663536","0.0-2.0-65.4-1.4","56d0f57421cd29000a9737e4","F1","batch6","","573","tol_toboard","","","","tol_peg_3","573","573","0","[[2,1,0],[0,0],[3]]","5","[[0,0,0],[1,2],[3]]","18","0","","","","","","7","","","","","","","","",""
"","","","","","single-stim-button","343","664079","0.0-2.0-65.5-0.5","56d0f57421cd29000a9737e4","F1","batch6","","542","tol_tohand","","","","tol_peg_1","542","542","0","[[2,0,0],[0,0],[3]]","6","[[0,0,0],[1,2],[3]]","18","0","","","","","","7","","","","","","","","",""
"","","","","","single-stim-button","344","664812","0.0-2.0-65.5-1.5","56d0f57421cd29000a9737e4","F1","batch6","","732","tol_toboard","","","","tol_peg_2","732","732","0","[[2,0,0],[1,0],[3]]","6","[[0,0,0],[1,2],[3]]","18","0","","","","","","7","","","","","","","","",""
"","","","","","single-stim-button","345","665317","0.0-2.0-65.6-0.6","56d0f57421cd29000a9737e4","F1","batch6","","504","tol_tohand","","","","tol_peg_1","504","504","0","[[0,0,0],[1,0],[3]]","7","[[0,0,0],[1,2],[3]]","18","0","","","","","","7","","","","","","","","",""
"","","","","","single-stim-button","346","665702","0.0-2.0-65.6-1.6","56d0f57421cd29000a9737e4","F1","batch6","","385","tol_toboard","","","","tol_peg_2","385","385","0","[[0,0,0],[1,2],[3]]","7","[[0,0,0],[1,2],[3]]","18","0","","","","","","7","","","","","","","","",""
"","","","","","poldrack-single-stim","347","666704","0.0-2.0-66.0","56d0f57421cd29000a9737e4","F1","batch6","","-1","tol_feedback","","","true","","1000","1000","500","","","","","","-1","none","true","8152","11563","","","","","","","","","",""
"","","","","","html-button-response","348","667669","0.0-2.0-67.0","56d0f57421cd29000a9737e4","F1","batch6","","964.0999999046326","tol_trial_num","<div class = centerbox><p class = center-block-text>problem <strong>20</strong> out of 25 problems</p></div>","0","","","","","","","","","","","","","","","","","","","","","","","","",""
"","","","","","single-stim-button","349","673212","0.0-2.0-68.0-0.0","56d0f57421cd29000a9737e4","F1","batch6","","5543","tol_tohand","","","","tol_peg_1","5543","5543","0","[[1,0,0],[3,0],[0]]","1","[[2,1,0],[0,0],[3]]","19","0","","","","","","5","","","","","","","","",""
"","","","","","single-stim-button","350","673761","0.0-2.0-68.0-1.0","56d0f57421cd29000a9737e4","F1","batch6","","548","tol_toboard","","","","tol_peg_3","548","548","0","[[1,0,0],[3,0],[2]]","1","[[2,1,0],[0,0],[3]]","19","0","","","","","","5","","","","","","","","",""
"","","","","","single-stim-button","351","674194","0.0-2.0-68.1-0.1","56d0f57421cd29000a9737e4","F1","batch6","","433","tol_tohand","","","","tol_peg_1","433","433","0","[[0,0,0],[3,0],[2]]","2","[[2,1,0],[0,0],[3]]","19","0","","","","","","5","","","","","","","","",""
"","","","","","single-stim-button","352","675340","0.0-2.0-68.1-1.1","56d0f57421cd29000a9737e4","F1","batch6","","1145","tol_toboard","","","","tol_peg_2","1145","1145","0","[[0,0,0],[3,1],[2]]","2","[[2,1,0],[0,0],[3]]","19","0","","","","","","5","","","","","","","","",""
"","","","","","single-stim-button","353","675750","0.0-2.0-68.2-0.2","56d0f57421cd29000a9737e4","F1","batch6","","409","tol_tohand","","","","tol_peg_3","409","409","0","[[0,0,0],[3,1],[0]]","3","[[2,1,0],[0,0],[3]]","19","0","","","","","","5","","","","","","","","",""
"","","","","","single-stim-button","354","676422","0.0-2.0-68.2-1.2","56d0f57421cd29000a9737e4","F1","batch6","","671","tol_toboard","","","","tol_peg_1","671","671","0","[[2,0,0],[3,1],[0]]","3","[[2,1,0],[0,0],[3]]","19","0","","","","","","5","","","","","","","","",""
"","","","","","single-stim-button","355","677306","0.0-2.0-68.3-0.3","56d0f57421cd29000a9737e4","F1","batch6","","883","tol_tohand","","","","tol_peg_2","883","883","0","[[2,0,0],[3,0],[0]]","4","[[2,1,0],[0,0],[3]]","19","0","","","","","","5","","","","","","","","",""
"","","","","","single-stim-button","356","677840","0.0-2.0-68.3-1.3","56d0f57421cd29000a9737e4","F1","batch6","","533","tol_toboard","","","","tol_peg_1","533","533","0","[[2,1,0],[3,0],[0]]","4","[[2,1,0],[0,0],[3]]","19","0","","","","","","5","","","","","","","","",""
