"success","timeout","failed_images","failed_audio","failed_video","trial_type","trial_index","time_elapsed","internal_node_id","subject_id","study_id","session_id","view_history","rt","task","stimulus","response","correct","mouse_click","stim_duration","block_duration","timing_post_trial","current_position","tol_num_moves_made","tol_target","tol_problem_id","tol_rt","key_press","possible_responses","tol_correct","preplanning","tol_rt_per_trial","tol_min_moves","item","answer","spm_correct","spm_rt","fiar_detect_rt","fiar_detect_correct","total_correct_fiar_detect","post_trial_gap","choices"
"true","false","[]","[]","[]","preload","0","1276","0.0-0.0","5711110152ab8e0008d0dc05","F1","batch6","","","","","","","","","","","","","","","","","","","","","","","","","","","","","",""
"true","","","","","fullscreen","1","16092","0.0-1.0-0.0","5711110152ab8e0008d0dc05","F1","batch6","","","","","","","","","","","","","","","","","","","","","","","","","","","","","",""
"true","","","","","fullscreen","2","18881","0.0-2.0-0.0","5711110152ab8e0008d0dc05","F1","batch6","","","","","","","","","","","","","","","","","","","","","","","","","","","","","",""
"","","","","","instructions","3","75806","0.0-2.0-1.0-0.0-0.0","5711110152ab8e0008d0dc05","F1","batch6","[{""page_index"":0,""viewing_time"":10106.900000095367},{""page_index"":1,""viewing_time"":5279.699999928474},{""page_index"":2,""viewing_time"":5208},{""page_index"":3,""viewing_time"":11871.899999976158},{""page_index"":4,""viewing_time"":5952.100000023842},{""page_index"":5,""viewing_time"":14946.399999976158},{""page_index"":6,""viewing_time"":3557.7000000476837}]","56922.90000009537","tol-instructions","","","","","","","","","","","","","","","","","","","","","","","","","","",""
"","","","","","html-button-response","4","76806","0.0-2.0-1.0-1.0-0.0","5711110152ab8e0008d0dc05","F1","batch6","","999.1000000238419","tol_enter_quiz","<p class=block-text> Let's answer a few questions <br>","0","","","","","","","","","","","","","","","","","","","","","","","","",""
"","","","","","html-button-response","5","82382","0.0-2.0-1.0-1.0-1.0","5711110152ab8e0008d0dc05","F1","batch6","","5574.799999952316","tol_quiz","<p class = block-text>True or False: You can only move the ball on top of a peg. <br></p>","0","true","","","","","","","","","","","","","","","","","","","","","","","",""
"","","","","","html-button-response","6","83534","0.0-2.0-1.0-1.0-2.0","5711110152ab8e0008d0dc05","F1","batch6","","1150.8999999761581","tol_quiz_feedback","<p class = block-text>Correct! You can only move the ball on top of a peg.</p>","0","","","","","","","","","","","","","","","","","","","","","","","","",""
"","","","","","html-button-response","7","86622","0.0-2.0-1.0-1.0-3.0","5711110152ab8e0008d0dc05","F1","batch6","","3087.2999999523163","tol_quiz","<p class = block-text>True or False: You should try to match your board with the target board with fewest moves possible. <br></p>","0","true","","","","","","","","","","","","","","","","","","","","","","","",""
"","","","","","html-button-response","8","87470","0.0-2.0-1.0-1.0-4.0","5711110152ab8e0008d0dc05","F1","batch6","","847.1999999284744","tol_quiz_feedback","<p class = block-text>Correct! </p>","0","","","","","","","","","","","","","","","","","","","","","","","","",""
"","","","","","html-button-response","9","89766","0.0-2.0-2.0","5711110152ab8e0008d0dc05","F1","batch6","","2294.600000023842","","<p class=block-text> Now that you've understood the game, let's practice a few easier examples before we start!<br> <br>","0","","","","","","","","","","","","","","","","","","","","","","","","",""
"","","","","","single-stim-button","10","92895","0.0-2.0-3.0-0.0","5711110152ab8e0008d0dc05","F1","batch6","","3128","tol_practice","","","","tol_peg_2","3128","3128","0","[[1,2,0],[0,0],[0]]","1","[[1,2,0],[0,0],[3]]","practice","3128","","","","","","","","","","","","","","",""
"","","","","","single-stim-button","11","93878","0.0-2.0-3.0-1.0","5711110152ab8e0008d0dc05","F1","batch6","","981","tol_practice","","","","tol_peg_3","981","981","0","[[1,2,0],[0,0],[3]]","1","[[1,2,0],[0,0],[3]]","practice","981","","","","","","","","","","","","","","",""
"","","","","","poldrack-single-stim","12","94895","0.0-2.0-4.0","5711110152ab8e0008d0dc05","F1","batch6","","-1","tol_feedback","","","true","","1000","1000","500","","","","","","-1","none","true","","0","","","","","","","","","",""
"","","","","","single-stim-button","13","98406","0.0-2.0-5.0-0.0","5711110152ab8e0008d0dc05","F1","batch6","","3510","tol_practice","","","","tol_peg_1","3510","3510","0","[[1,0,0],[3,0],[0]]","2","[[0,0,0],[3,1],[2]]","practice","3510","","","","","","","","","","","","","","",""
"","","","","","single-stim-button","14","100006","0.0-2.0-5.0-1.0","5711110152ab8e0008d0dc05","F1","batch6","","1600","tol_practice","","","","tol_peg_3","1600","1600","0","[[1,0,0],[3,0],[2]]","2","[[0,0,0],[3,1],[2]]","practice","1600","","","","","","","","","","","","","","",""
"","","","","","single-stim-button","15","100862","0.0-2.0-5.1-0.1","5711110152ab8e0008d0dc05","F1","batch6","","856","tol_practice","","","","tol_peg_1","856","856","0","[[0,0,0],[3,0],[2]]","3","[[0,0,0],[3,1],[2]]","practice","856","","","","","","","","","","","","","","",""
"","","","","","single-stim-button","16","101575","0.0-2.0-5.1-1.1","5711110152ab8e0008d0dc05","F1","batch6","","713","tol_practice","","","","tol_peg_2","713","713","0","[[0,0,0],[3,1],[2]]","3","[[0,0,0],[3,1],[2]]","practice","713","","","","","","","","","","","","","","",""
"","","","","","poldrack-single-stim","17","102591","0.0-2.0-6.0","5711110152ab8e0008d0dc05","F1","batch6","","-1","tol_feedback","","","true","","1000","1000","500","","","","","","-1","none","true","","0","","","","","","","","","",""
"","","","","","single-stim-button","18","105870","0.0-2.0-7.0-0.0","5711110152ab8e0008d0dc05","F1","batch6","","3278","tol_practice","","","","tol_peg_2","3278","3278","0","[[1,2,0],[0,0],[0]]","4","[[1,0,0],[2,0],[3]]","practice","3278","","","","","","","","","","","","","","",""
"","","","","","single-stim-button","19","106855","0.0-2.0-7.0-1.0","5711110152ab8e0008d0dc05","F1","batch6","","985","tol_practice","","","","tol_peg_3","985","985","0","[[1,2,0],[0,0],[3]]","4","[[1,0,0],[2,0],[3]]","practice","985","","","","","","","","","","","","","","",""
"","","","","","single-stim-button","20","107798","0.0-2.0-7.1-0.1","5711110152ab8e0008d0dc05","F1","batch6","","942","tol_practice","","","","tol_peg_1","942","942","0","[[1,0,0],[0,0],[3]]","5","[[1,0,0],[2,0],[3]]","practice","942","","","","","","","","","","","","","","",""
"","","","","","single-stim-button","21","108398","0.0-2.0-7.1-1.1","5711110152ab8e0008d0dc05","F1","batch6","","600","tol_practice","","","","tol_peg_2","600","600","0","[[1,0,0],[2,0],[3]]","5","[[1,0,0],[2,0],[3]]","practice","600","","","","","","","","","","","","","","",""
"","","","","","poldrack-single-stim","22","109405","0.0-2.0-8.0","5711110152ab8e0008d0dc05","F1","batch6","","-1","tol_feedback","","","true","","1000","1000","500","","","","","","-1","none","true","","0","","","","","","","","","",""
"","","","","","html-button-response","23","112046","0.0-2.0-9.0","5711110152ab8e0008d0dc05","F1","batch6","","2639.2999999523163","tol_instruction","<div class = centerbox><p class = center-block-text>Great job! You are done with practice trials<br>You are about to start official trials.<br> <br> Problem <strong>1</strong> out of 25 problems</p></div>","0","","","","","","","","","","","","","","","","","","","","","","","","",""
"","","","","","single-stim-button","24","118502","0.0-2.0-10.0-0.0","5711110152ab8e0008d0dc05","F1","batch6","","5454","tol_tohand","","","","tol_peg_1","5454","5454","0","[[1,0,0],[3,0],[0]]","1","[[1,3,0],[2,0],[0]]","0","0","","","","","","3","","","","","","","","",""
"","","","","","single-stim-button","25","119230","0.0-2.0-10.0-1.0","5711110152ab8e0008d0dc05","F1","batch6","","727","tol_toboard","","","","tol_peg_3","727","727","0","[[1,0,0],[3,0],[2]]","1","[[1,3,0],[2,0],[0]]","0","0","","","","","","3","","","","","","","","",""
"","","","","","single-stim-button","26","119830","0.0-2.0-10.1-0.1","5711110152ab8e0008d0dc05","F1","batch6","","599","tol_tohand","","","","tol_peg_2","599","599","0","[[1,0,0],[0,0],[2]]","2","[[1,3,0],[2,0],[0]]","0","0","","","","","","3","","","","","","","","",""
"","","","","","single-stim-button","27","120710","0.0-2.0-10.1-1.1","5711110152ab8e0008d0dc05","F1","batch6","","879","tol_toboard","","","","tol_peg_1","879","879","0","[[1,3,0],[0,0],[2]]","2","[[1,3,0],[2,0],[0]]","0","0","","","","","","3","","","","","","","","",""
"","","","","","single-stim-button","28","121558","0.0-2.0-10.2-0.2","5711110152ab8e0008d0dc05","F1","batch6","","848","tol_tohand","","","","tol_peg_3","848","848","0","[[1,3,0],[0,0],[0]]","3","[[1,3,0],[2,0],[0]]","0","0","","","","","","3","","","","","","","","",""
"","","","","","single-stim-button","29","122117","0.0-2.0-10.2-1.2","5711110152ab8e0008d0dc05","F1","batch6","","559","tol_toboard","","","","tol_peg_2","559","559","0","[[1,3,0],[2,0],[0]]","3","[[1,3,0],[2,0],[0]]","0","0","","","","","","3","","","","","","","","",""
"","","","","","poldrack-single-stim","30","123131","0.0-2.0-11.0","5711110152ab8e0008d0dc05","F1","batch6","","-1","tol_feedback","","","true","","1000","1000","500","","","","","","-1","none","true","5454","6901","","","","","","","","","",""
"","","","","","html-button-response","31","123990","0.0-2.0-12.0","5711110152ab8e0008d0dc05","F1","batch6","","857.5","tol_trial_num","<div class = centerbox><p class = center-block-text>problem <strong>2</strong> out of 25 problems</p></div>","0","","","","","","","","","","","","","","","","","","","","","","","","",""
"","","","","","single-stim-button","32","130190","0.0-2.0-13.0-0.0","5711110152ab8e0008d0dc05","F1","batch6","","6199","tol_tohand","","","","tol_peg_1","6199","6199","0","[[1,0,0],[3,0],[0]]","1","[[2,1,3],[0,0],[0]]","1","0","","","","","","5","","","","","","","","",""
"","","","","","single-stim-button","33","131470","0.0-2.0-13.0-1.0","5711110152ab8e0008d0dc05","F1","batch6","","1279","tol_toboard","","","","tol_peg_3","1279","1279","0","[[1,0,0],[3,0],[2]]","1","[[2,1,3],[0,0],[0]]","1","0","","","","","","5","","","","","","","","",""
"","","","","","single-stim-button","34","144350","0.0-2.0-13.1-0.1","5711110152ab8e0008d0dc05","F1","batch6","","12879","tol_tohand","","","","tol_peg_1","12879","12879","0","[[0,0,0],[3,0],[2]]","2","[[2,1,3],[0,0],[0]]","1","0","","","","","","5","","","","","","","","",""
"","","","","","single-stim-button","35","144973","0.0-2.0-13.1-1.1","5711110152ab8e0008d0dc05","F1","batch6","","623","tol_toboard","","","","tol_peg_2","623","623","0","[[0,0,0],[3,1],[2]]","2","[[2,1,3],[0,0],[0]]","1","0","","","","","","5","","","","","","","","",""
"","","","","","single-stim-button","36","145814","0.0-2.0-13.2-0.2","5711110152ab8e0008d0dc05","F1","batch6","","840","tol_tohand","","","","tol_peg_3","840","840","0","[[0,0,0],[3,1],[0]]","3","[[2,1,3],[0,0],[0]]","1","0","","","","","","5","","","","","","","","",""
"","","","","","single-stim-button","37","146886","0.0-2.0-13.2-1.2","5711110152ab8e0008d0dc05","F1","batch6","","1071","tol_toboard","","","","tol_peg_1","1071","1071","0","[[2,0,0],[3,1],[0]]","3","[[2,1,3],[0,0],[0]]","1","0","","","","","","5","","","","","","","","",""
"","","","","","single-stim-button","38","147461","0.0-2.0-13.3-0.3","5711110152ab8e0008d0dc05","F1","batch6","","575","tol_tohand","","","","tol_peg_2","575","575","0","[[2,0,0],[3,0],[0]]","4","[[2,1,3],[0,0],[0]]","1","0","","","","","","5","","","","","","","","",""
"","","","","","single-stim-button","39","148062","0.0-2.0-13.3-1.3","5711110152ab8e0008d0dc05","F1","batch6","","599","tol_toboard","","","","tol_peg_1","599","599","0","[[2,1,0],[3,0],[0]]","4","[[2,1,3],[0,0],[0]]","1","0","","","","","","5","","","","","","","","",""
"","","","","","single-stim-button","40","148614","0.0-2.0-13.4-0.4","5711110152ab8e0008d0dc05","F1","batch6","","552","tol_tohand","","","","tol_peg_2","552","552","0","[[2,1,0],[0,0],[0]]","5","[[2,1,3],[0,0],[0]]","1","0","","","","","","5","","","","","","","","",""
"","","","","","single-stim-button","41","149222","0.0-2.0-13.4-1.4","5711110152ab8e0008d0dc05","F1","batch6","","607","tol_toboard","","","","tol_peg_1","607","607","0","[[2,1,3],[0,0],[0]]","5","[[2,1,3],[0,0],[0]]","1","0","","","","","","5","","","","","","","","",""
"","","","","","poldrack-single-stim","42","150228","0.0-2.0-14.0","5711110152ab8e0008d0dc05","F1","batch6","","-1","tol_feedback","","","true","","1000","1000","500","","","","","","-1","none","true","6199","21045","","","","","","","","","",""
"","","","","","html-button-response","43","151310","0.0-2.0-15.0","5711110152ab8e0008d0dc05","F1","batch6","","1080.3999999761581","tol_trial_num","<div class = centerbox><p class = center-block-text>problem <strong>3</strong> out of 25 problems</p></div>","0","","","","","","","","","","","","","","","","","","","","","","","","",""
"","","","","","single-stim-button","44","156166","0.0-2.0-16.0-0.0","5711110152ab8e0008d0dc05","F1","batch6","","4855","tol_tohand","","","","tol_peg_1","4855","4855","0","[[2,0,0],[0,0],[1]]","1","[[1,2,0],[3,0],[0]]","2","0","","","","","","4","","","","","","","","",""
"","","","","","single-stim-button","45","156823","0.0-2.0-16.0-1.0","5711110152ab8e0008d0dc05","F1","batch6","","656","tol_toboard","","","","tol_peg_2","656","656","0","[[2,0,0],[3,0],[1]]","1","[[1,2,0],[3,0],[0]]","2","0","","","","","","4","","","","","","","","",""
"","","","","","single-stim-button","46","158134","0.0-2.0-16.1-0.1","5711110152ab8e0008d0dc05","F1","batch6","","1310","tol_tohand","","","","tol_peg_1","1310","1310","0","[[0,0,0],[3,0],[1]]","2","[[1,2,0],[3,0],[0]]","2","0","","","","","","4","","","","","","","","",""
"","","","","","single-stim-button","47","158733","0.0-2.0-16.1-1.1","5711110152ab8e0008d0dc05","F1","batch6","","599","tol_toboard","","","","tol_peg_2","599","599","0","[[0,0,0],[3,2],[1]]","2","[[1,2,0],[3,0],[0]]","2","0","","","","","","4","","","","","","","","",""
"","","","","","single-stim-button","48","159542","0.0-2.0-16.2-0.2","5711110152ab8e0008d0dc05","F1","batch6","","807","tol_tohand","","","","tol_peg_3","807","807","0","[[0,0,0],[3,2],[0]]","3","[[1,2,0],[3,0],[0]]","2","0","","","","","","4","","","","","","","","",""
"","","","","","single-stim-button","49","160398","0.0-2.0-16.2-1.2","5711110152ab8e0008d0dc05","F1","batch6","","855","tol_toboard","","","","tol_peg_1","855","855","0","[[1,0,0],[3,2],[0]]","3","[[1,2,0],[3,0],[0]]","2","0","","","","","","4","","","","","","","","",""
"","","","","","single-stim-button","50","161061","0.0-2.0-16.3-0.3","5711110152ab8e0008d0dc05","F1","batch6","","663","tol_tohand","","","","tol_peg_2","663","663","0","[[1,0,0],[3,0],[0]]","4","[[1,2,0],[3,0],[0]]","2","0","","","","","","4","","","","","","","","",""
"","","","","","single-stim-button","51","161718","0.0-2.0-16.3-1.3","5711110152ab8e0008d0dc05","F1","batch6","","655","tol_toboard","","","","tol_peg_1","655","655","0","[[1,2,0],[3,0],[0]]","4","[[1,2,0],[3,0],[0]]","2","0","","","","","","4","","","","","","","","",""
"","","","","","poldrack-single-stim","52","162721","0.0-2.0-17.0","5711110152ab8e0008d0dc05","F1","batch6","","-1","tol_feedback","","","true","","1000","1000","500","","","","","","-1","none","true","4855","7635","","","","","","","","","",""
"","","","","","html-button-response","53","163478","0.0-2.0-18.0","5711110152ab8e0008d0dc05","F1","batch6","","755.6999999284744","tol_trial_num","<div class = centerbox><p class = center-block-text>problem <strong>4</strong> out of 25 problems</p></div>","0","","","","","","","","","","","","","","","","","","","","","","","","",""
"","","","","","single-stim-button","54","170366","0.0-2.0-19.0-0.0","5711110152ab8e0008d0dc05","F1","batch6","","6887","tol_tohand","","","","tol_peg_2","6887","6887","0","[[3,0,0],[2,0],[0]]","1","[[3,0,0],[1,0],[2]]","3","0","","","","","","3","","","","","","","","",""
"","","","","","single-stim-button","55","171141","0.0-2.0-19.0-1.0","5711110152ab8e0008d0dc05","F1","batch6","","775","tol_toboard","","","","tol_peg_1","775","775","0","[[3,1,0],[2,0],[0]]","1","[[3,0,0],[1,0],[2]]","3","0","","","","","","3","","","","","","","","",""
"","","","","","single-stim-button","56","171813","0.0-2.0-19.1-0.1","5711110152ab8e0008d0dc05","F1","batch6","","671","tol_tohand","","","","tol_peg_2","671","671","0","[[3,1,0],[0,0],[0]]","2","[[3,0,0],[1,0],[2]]","3","0","","","","","","3","","","","","","","","",""
"","","","","","single-stim-button","57","173005","0.0-2.0-19.1-1.1","5711110152ab8e0008d0dc05","F1","batch6","","1191","tol_toboard","","","","tol_peg_3","1191","1191","0","[[3,1,0],[0,0],[2]]","2","[[3,0,0],[1,0],[2]]","3","0","","","","","","3","","","","","","","","",""
"","","","","","single-stim-button","58","173613","0.0-2.0-19.2-0.2","5711110152ab8e0008d0dc05","F1","batch6","","607","tol_tohand","","","","tol_peg_1","607","607","0","[[3,0,0],[0,0],[2]]","3","[[3,0,0],[1,0],[2]]","3","0","","","","","","3","","","","","","","","",""
"","","","","","single-stim-button","59","174359","0.0-2.0-19.2-1.2","5711110152ab8e0008d0dc05","F1","batch6","","745","tol_toboard","","","","tol_peg_2","745","745","0","[[3,0,0],[1,0],[2]]","3","[[3,0,0],[1,0],[2]]","3","0","","","","","","3","","","","","","","","",""
"","","","","","poldrack-single-stim","60","175361","0.0-2.0-20.0","5711110152ab8e0008d0dc05","F1","batch6","","-1","tol_feedback","","","true","","1000","1000","500","","","","","","-1","none","true","6887","8165","","","","","","","","","",""
"","","","","","html-button-response","61","176037","0.0-2.0-21.0","5711110152ab8e0008d0dc05","F1","batch6","","674.7000000476837","tol_trial_num","<div class = centerbox><p class = center-block-text>problem <strong>5</strong> out of 25 problems</p></div>","0","","","","","","","","","","","","","","","","","","","","","","","","",""
"","","","","","single-stim-button","62","185397","0.0-2.0-22.0-0.0","5711110152ab8e0008d0dc05","F1","batch6","","9359","tol_tohand","","","","tol_peg_3","9359","9359","0","[[1,0,0],[2,0],[0]]","1","[[0,0,0],[1,2],[3]]","4","0","","","","","","7","","","","","","","","",""
"","","","","","single-stim-button","63","186485","0.0-2.0-22.0-1.0","5711110152ab8e0008d0dc05","F1","batch6","","1087","tol_toboard","","","","tol_peg_1","1087","1087","0","[[1,3,0],[2,0],[0]]","1","[[0,0,0],[1,2],[3]]","4","0","","","","","","7","","","","","","","","",""
"","","","","","single-stim-button","64","187141","0.0-2.0-22.1-0.1","5711110152ab8e0008d0dc05","F1","batch6","","655","tol_tohand","","","","tol_peg_2","655","655","0","[[1,3,0],[0,0],[0]]","2","[[0,0,0],[1,2],[3]]","4","0","","","","","","7","","","","","","","","",""
"","","","","","single-stim-button","65","192445","0.0-2.0-22.1-1.1","5711110152ab8e0008d0dc05","F1","batch6","","5303","tol_toboard","","","","tol_peg_3","5303","5303","0","[[1,3,0],[0,0],[2]]","2","[[0,0,0],[1,2],[3]]","4","0","","","","","","7","","","","","","","","",""
"","","","","","single-stim-button","66","193221","0.0-2.0-22.2-0.2","5711110152ab8e0008d0dc05","F1","batch6","","775","tol_tohand","","","","tol_peg_1","775","775","0","[[1,0,0],[0,0],[2]]","3","[[0,0,0],[1,2],[3]]","4","0","","","","","","7","","","","","","","","",""
"","","","","","single-stim-button","67","197565","0.0-2.0-22.2-1.2","5711110152ab8e0008d0dc05","F1","batch6","","4343","tol_toboard","","","","tol_peg_2","4343","4343","0","[[1,0,0],[3,0],[2]]","3","[[0,0,0],[1,2],[3]]","4","0","","","","","","7","","","","","","","","",""
"","","","","","single-stim-button","68","198301","0.0-2.0-22.3-0.3","5711110152ab8e0008d0dc05","F1","batch6","","735","tol_tohand","","","","tol_peg_1","735","735","0","[[0,0,0],[3,0],[2]]","4","[[0,0,0],[1,2],[3]]","4","0","","","","","","7","","","","","","","","",""
"","","","","","single-stim-button","69","198829","0.0-2.0-22.3-1.3","5711110152ab8e0008d0dc05","F1","batch6","","527","tol_toboard","","","","tol_peg_2","527","527","0","[[0,0,0],[3,1],[2]]","4","[[0,0,0],[1,2],[3]]","4","0","","","","","","7","","","","","","","","",""
"","","","","","single-stim-button","70","201934","0.0-2.0-22.4-0.4","5711110152ab8e0008d0dc05","F1","batch6","","3104","tol_tohand","","","","tol_peg_3","3104","3104","0","[[0,0,0],[3,1],[0]]","5","[[0,0,0],[1,2],[3]]","4","0","","","","","","7","","","","","","","","",""
"","","","","","single-stim-button","71","203486","0.0-2.0-22.4-1.4","5711110152ab8e0008d0dc05","F1","batch6","","1550","tol_toboard","","","","tol_peg_1","1550","1550","0","[[2,0,0],[3,1],[0]]","5","[[0,0,0],[1,2],[3]]","4","0","","","","","","7","","","","","","","","",""
"","","","","","single-stim-button","72","204597","0.0-2.0-22.5-0.5","5711110152ab8e0008d0dc05","F1","batch6","","1111","tol_tohand","","","","tol_peg_2","1111","1111","0","[[2,0,0],[3,0],[0]]","6","[[0,0,0],[1,2],[3]]","4","0","","","","","","7","","","","","","","","",""
"","","","","","single-stim-button","73","206766","0.0-2.0-22.5-1.5","5711110152ab8e0008d0dc05","F1","batch6","","2168","tol_toboard","","","","tol_peg_3","2168","2168","0","[[2,0,0],[3,0],[1]]","6","[[0,0,0],[1,2],[3]]","4","0","","","","","","7","","","","","","","","",""
"","","","","","single-stim-button","74","207278","0.0-2.0-22.6-0.6","5711110152ab8e0008d0dc05","F1","batch6","","511","tol_tohand","","","","tol_peg_2","511","511","0","[[2,0,0],[0,0],[1]]","7","[[0,0,0],[1,2],[3]]","4","0","","","","","","7","","","","","","","","",""
"","","","","","single-stim-button","75","207813","0.0-2.0-22.6-1.6","5711110152ab8e0008d0dc05","F1","batch6","","535","tol_toboard","","","","tol_peg_1","535","535","0","[[2,3,0],[0,0],[1]]","7","[[0,0,0],[1,2],[3]]","4","0","","","","","","7","","","","","","","","",""
"","","","","","single-stim-button","76","209237","0.0-2.0-22.7-0.7","5711110152ab8e0008d0dc05","F1","batch6","","1423","tol_tohand","","","","tol_peg_3","1423","1423","0","[[2,3,0],[0,0],[0]]","8","[[0,0,0],[1,2],[3]]","4","0","","","","","","7","","","","","","","","",""
"","","","","","single-stim-button","77","209717","0.0-2.0-22.7-1.7","5711110152ab8e0008d0dc05","F1","batch6","","479","tol_toboard","","","","tol_peg_2","479","479","0","[[2,3,0],[1,0],[0]]","8","[[0,0,0],[1,2],[3]]","4","0","","","","","","7","","","","","","","","",""
"","","","","","single-stim-button","78","211101","0.0-2.0-22.8-0.8","5711110152ab8e0008d0dc05","F1","batch6","","1383","tol_tohand","","","","tol_peg_1","1383","1383","0","[[2,0,0],[1,0],[0]]","9","[[0,0,0],[1,2],[3]]","4","0","","","","","","7","","","","","","","","",""
"","","","","","single-stim-button","79","211870","0.0-2.0-22.8-1.8","5711110152ab8e0008d0dc05","F1","batch6","","768","tol_toboard","","","","tol_peg_3","768","768","0","[[2,0,0],[1,0],[3]]","9","[[0,0,0],[1,2],[3]]","4","0","","","","","","7","","","","","","","","",""
"","","","","","single-stim-button","80","212374","0.0-2.0-22.9-0.9","5711110152ab8e0008d0dc05","F1","batch6","","504","tol_tohand","","","","tol_peg_1","504","504","0","[[0,0,0],[1,0],[3]]","10","[[0,0,0],[1,2],[3]]","4","0","","","","","","7","","","","","","","","",""
"","","","","","single-stim-button","81","212789","0.0-2.0-22.9-1.9","5711110152ab8e0008d0dc05","F1","batch6","","415","tol_toboard","","","","tol_peg_2","415","415","0","[[0,0,0],[1,2],[3]]","10","[[0,0,0],[1,2],[3]]","4","0","","","","","","7","","","","","","","","",""
"","","","","","poldrack-single-stim","82","213791","0.0-2.0-23.0","5711110152ab8e0008d0dc05","F1","batch6","","-1","tol_feedback","","","true","","1000","1000","500","","","","","","-1","none","true","9359","19560","","","","","","","","","",""
"","","","","","html-button-response","83","214311","0.0-2.0-24.0","5711110152ab8e0008d0dc05","F1","batch6","","518.3999999761581","tol_trial_num","<div class = centerbox><p class = center-block-text>problem <strong>6</strong> out of 25 problems</p></div>","0","","","","","","","","","","","","","","","","","","","","","","","","",""
"","","","","","single-stim-button","84","221925","0.0-2.0-25.0-0.0","5711110152ab8e0008d0dc05","F1","batch6","","7614","tol_tohand","","","","tol_peg_3","7614","7614","0","[[0,0,0],[1,2],[0]]","1","[[1,0,0],[2,3],[0]]","5","0","","","","","","6","","","","","","","","",""
"","","","","","single-stim-button","85","222805","0.0-2.0-25.0-1.0","5711110152ab8e0008d0dc05","F1","batch6","","879","tol_toboard","","","","tol_peg_1","879","879","0","[[3,0,0],[1,2],[0]]","1","[[1,0,0],[2,3],[0]]","5","0","","","","","","6","","","","","","","","",""
"","","","","","single-stim-button","86","224125","0.0-2.0-25.1-0.1","5711110152ab8e0008d0dc05","F1","batch6","","1319","tol_tohand","","","","tol_peg_2","1319","1319","0","[[3,0,0],[1,0],[0]]","2","[[1,0,0],[2,3],[0]]","5","0","","","","","","6","","","","","","","","",""
"","","","","","single-stim-button","87","224909","0.0-2.0-25.1-1.1","5711110152ab8e0008d0dc05","F1","batch6","","783","tol_toboard","","","","tol_peg_3","783","783","0","[[3,0,0],[1,0],[2]]","2","[[1,0,0],[2,3],[0]]","5","0","","","","","","6","","","","","","","","",""
"","","","","","single-stim-button","88","225406","0.0-2.0-25.2-0.2","5711110152ab8e0008d0dc05","F1","batch6","","495","tol_tohand","","","","tol_peg_2","495","495","0","[[3,0,0],[0,0],[2]]","3","[[1,0,0],[2,3],[0]]","5","0","","","","","","6","","","","","","","","",""
"","","","","","single-stim-button","89","225989","0.0-2.0-25.2-1.2","5711110152ab8e0008d0dc05","F1","batch6","","583","tol_toboard","","","","tol_peg_1","583","583","0","[[3,1,0],[0,0],[2]]","3","[[1,0,0],[2,3],[0]]","5","0","","","","","","6","","","","","","","","",""
"","","","","","single-stim-button","90","226614","0.0-2.0-25.3-0.3","5711110152ab8e0008d0dc05","F1","batch6","","624","tol_tohand","","","","tol_peg_3","624","624","0","[[3,1,0],[0,0],[0]]","4","[[1,0,0],[2,3],[0]]","5","0","","","","","","6","","","","","","","","",""
"","","","","","single-stim-button","91","227213","0.0-2.0-25.3-1.3","5711110152ab8e0008d0dc05","F1","batch6","","599","tol_toboard","","","","tol_peg_2","599","599","0","[[3,1,0],[2,0],[0]]","4","[[1,0,0],[2,3],[0]]","5","0","","","","","","6","","","","","","","","",""
"","","","","","single-stim-button","92","229453","0.0-2.0-25.4-0.4","5711110152ab8e0008d0dc05","F1","batch6","","2239","tol_tohand","","","","tol_peg_1","2239","2239","0","[[3,0,0],[2,0],[0]]","5","[[1,0,0],[2,3],[0]]","5","0","","","","","","6","","","","","","","","",""
"","","","","","single-stim-button","93","230957","0.0-2.0-25.4-1.4","5711110152ab8e0008d0dc05","F1","batch6","","1503","tol_toboard","","","","tol_peg_3","1503","1503","0","[[3,0,0],[2,0],[1]]","5","[[1,0,0],[2,3],[0]]","5","0","","","","","","6","","","","","","","","",""
"","","","","","single-stim-button","94","231502","0.0-2.0-25.5-0.5","5711110152ab8e0008d0dc05","F1","batch6","","544","tol_tohand","","","","tol_peg_1","544","544","0","[[0,0,0],[2,0],[1]]","6","[[1,0,0],[2,3],[0]]","5","0","","","","","","6","","","","","","","","",""
"","","","","","single-stim-button","95","231949","0.0-2.0-25.5-1.5","5711110152ab8e0008d0dc05","F1","batch6","","447","tol_toboard","","","","tol_peg_2","447","447","0","[[0,0,0],[2,3],[1]]","6","[[1,0,0],[2,3],[0]]","5","0","","","","","","6","","","","","","","","",""
"","","","","","single-stim-button","96","232639","0.0-2.0-25.6-0.6","5711110152ab8e0008d0dc05","F1","batch6","","688","tol_tohand","","","","tol_peg_3","688","688","0","[[0,0,0],[2,3],[0]]","7","[[1,0,0],[2,3],[0]]","5","0","","","","","","6","","","","","","","","",""
"","","","","","single-stim-button","97","233286","0.0-2.0-25.6-1.6","5711110152ab8e0008d0dc05","F1","batch6","","646","tol_toboard","","","","tol_peg_1","646","646","0","[[1,0,0],[2,3],[0]]","7","[[1,0,0],[2,3],[0]]","5","0","","","","","","6","","","","","","","","",""
"","","","","","poldrack-single-stim","98","234298","0.0-2.0-26.0","5711110152ab8e0008d0dc05","F1","batch6","","-1","tol_feedback","","","true","","1000","1000","500","","","","","","-1","none","true","7614","13523","","","","","","","","","",""
"","","","","","html-button-response","99","234781","0.0-2.0-27.0","5711110152ab8e0008d0dc05","F1","batch6","","482.2000000476837","tol_trial_num","<div class = centerbox><p class = center-block-text>problem <strong>7</strong> out of 25 problems</p></div>","0","","","","","","","","","","","","","","","","","","","","","","","","",""
"","","","","","single-stim-button","100","247398","0.0-2.0-28.0-0.0","5711110152ab8e0008d0dc05","F1","batch6","","12616","tol_tohand","","","","tol_peg_3","12616","12616","0","[[2,1,0],[0,0],[0]]","1","[[1,2,0],[3,0],[0]]","6","0","","","","","","5","","","","","","","","",""
"","","","","","single-stim-button","101","248502","0.0-2.0-28.0-1.0","5711110152ab8e0008d0dc05","F1","batch6","","1104","tol_toboard","","","","tol_peg_2","1104","1104","0","[[2,1,0],[3,0],[0]]","1","[[1,2,0],[3,0],[0]]","6","0","","","","","","5","","","","","","","","",""
"","","","","","single-stim-button","102","249054","0.0-2.0-28.1-0.1","5711110152ab8e0008d0dc05","F1","batch6","","551","tol_tohand","","","","tol_peg_1","551","551","0","[[2,0,0],[3,0],[0]]","2","[[1,2,0],[3,0],[0]]","6","0","","","","","","5","","","","","","","","",""
"","","","","","single-stim-button","103","249934","0.0-2.0-28.1-1.1","5711110152ab8e0008d0dc05","F1","batch6","","879","tol_toboard","","","","tol_peg_3","879","879","0","[[2,0,0],[3,0],[1]]","2","[[1,2,0],[3,0],[0]]","6","0","","","","","","5","","","","","","","","",""
"","","","","","single-stim-button","104","250510","0.0-2.0-28.2-0.2","5711110152ab8e0008d0dc05","F1","batch6","","576","tol_tohand","","","","tol_peg_1","576","576","0","[[0,0,0],[3,0],[1]]","3","[[1,2,0],[3,0],[0]]","6","0","","","","","","5","","","","","","","","",""
"","","","","","single-stim-button","105","251190","0.0-2.0-28.2-1.2","5711110152ab8e0008d0dc05","F1","batch6","","679","tol_toboard","","","","tol_peg_2","679","679","0","[[0,0,0],[3,2],[1]]","3","[[1,2,0],[3,0],[0]]","6","0","","","","","","5","","","","","","","","",""
"","","","","","single-stim-button","106","251799","0.0-2.0-28.3-0.3","5711110152ab8e0008d0dc05","F1","batch6","","609","tol_tohand","","","","tol_peg_3","609","609","0","[[0,0,0],[3,2],[0]]","4","[[1,2,0],[3,0],[0]]","6","0","","","","","","5","","","","","","","","",""
"","","","","","single-stim-button","107","252350","0.0-2.0-28.3-1.3","5711110152ab8e0008d0dc05","F1","batch6","","551","tol_toboard","","","","tol_peg_1","551","551","0","[[1,0,0],[3,2],[0]]","4","[[1,2,0],[3,0],[0]]","6","0","","","","","","5","","","","","","","","",""
"","","","","","single-stim-button","108","252790","0.0-2.0-28.4-0.4","5711110152ab8e0008d0dc05","F1","batch6","","438","tol_tohand","","","","tol_peg_2","438","438","0","[[1,0,0],[3,0],[0]]","5","[[1,2,0],[3,0],[0]]","6","0","","","","","","5","","","","","","","","",""
"","","","","","single-stim-button","109","253334","0.0-2.0-28.4-1.4","5711110152ab8e0008d0dc05","F1","batch6","","544","tol_toboard","","","","tol_peg_1","544","544","0","[[1,2,0],[3,0],[0]]","5","[[1,2,0],[3,0],[0]]","6","0","","","","","","5","","","","","","","","",""
"","","","","","poldrack-single-stim","110","254340","0.0-2.0-29.0","5711110152ab8e0008d0dc05","F1","batch6","","-1","tol_feedback","","","true","","1000","1000","500","","","","","","-1","none","true","12616","14790","","","","","","","","","",""
"","","","","","html-button-response","111","254853","0.0-2.0-30.0","5711110152ab8e0008d0dc05","F1","batch6","","512.5","tol_trial_num","<div class = centerbox><p class = center-block-text>problem <strong>8</strong> out of 25 problems</p></div>","0","","","","","","","","","","","","","","","","","","","","","","","","",""
"","","","","","single-stim-button","112","258470","0.0-2.0-31.0-0.0","5711110152ab8e0008d0dc05","F1","batch6","","3616","tol_tohand","","","","tol_peg_3","3616","3616","0","[[0,0,0],[2,3],[0]]","1","[[1,2,0],[3,0],[0]]","7","0","","","","","","4","","","","","","","","",""
"","","","","","single-stim-button","113","259318","0.0-2.0-31.0-1.0","5711110152ab8e0008d0dc05","F1","batch6","","847","tol_toboard","","","","tol_peg_1","847","847","0","[[1,0,0],[2,3],[0]]","1","[[1,2,0],[3,0],[0]]","7","0","","","","","","4","","","","","","","","",""
"","","","","","single-stim-button","114","260150","0.0-2.0-31.1-0.1","5711110152ab8e0008d0dc05","F1","batch6","","832","tol_tohand","","","","tol_peg_2","832","832","0","[[1,0,0],[2,0],[0]]","2","[[1,2,0],[3,0],[0]]","7","0","","","","","","4","","","","","","","","",""
"","","","","","single-stim-button","115","261534","0.0-2.0-31.1-1.1","5711110152ab8e0008d0dc05","F1","batch6","","1384","tol_toboard","","","","tol_peg_3","1384","1384","0","[[1,0,0],[2,0],[3]]","2","[[1,2,0],[3,0],[0]]","7","0","","","","","","4","","","","","","","","",""
"","","","","","single-stim-button","116","262030","0.0-2.0-31.2-0.2","5711110152ab8e0008d0dc05","F1","batch6","","495","tol_tohand","","","","tol_peg_2","495","495","0","[[1,0,0],[0,0],[3]]","3","[[1,2,0],[3,0],[0]]","7","0","","","","","","4","","","","","","","","",""
"","","","","","single-stim-button","117","262566","0.0-2.0-31.2-1.2","5711110152ab8e0008d0dc05","F1","batch6","","535","tol_toboard","","","","tol_peg_1","535","535","0","[[1,2,0],[0,0],[3]]","3","[[1,2,0],[3,0],[0]]","7","0","","","","","","4","","","","","","","","",""
"","","","","","single-stim-button","118","263590","0.0-2.0-31.3-0.3","5711110152ab8e0008d0dc05","F1","batch6","","1024","tol_tohand","","","","tol_peg_3","1024","1024","0","[[1,2,0],[0,0],[0]]","4","[[1,2,0],[3,0],[0]]","7","0","","","","","","4","","","","","","","","",""
"","","","","","single-stim-button","119","264158","0.0-2.0-31.3-1.3","5711110152ab8e0008d0dc05","F1","batch6","","567","tol_toboard","","","","tol_peg_2","567","567","0","[[1,2,0],[3,0],[0]]","4","[[1,2,0],[3,0],[0]]","7","0","","","","","","4","","","","","","","","",""
"","","","","","poldrack-single-stim","120","265159","0.0-2.0-32.0","5711110152ab8e0008d0dc05","F1","batch6","","-1","tol_feedback","","","true","","1000","1000","500","","","","","","-1","none","true","3616","5967","","","","","","","","","",""
"","","","","","html-button-response","121","265558","0.0-2.0-33.0","5711110152ab8e0008d0dc05","F1","batch6","","397.60000002384186","tol_trial_num","<div class = centerbox><p class = center-block-text>problem <strong>9</strong> out of 25 problems</p></div>","0","","","","","","","","","","","","","","","","","","","","","","","","",""
"","","","","","single-stim-button","122","273366","0.0-2.0-34.0-0.0","5711110152ab8e0008d0dc05","F1","batch6","","7807","tol_tohand","","","","tol_peg_3","7807","7807","0","[[3,2,0],[0,0],[0]]","1","[[2,1,0],[3,0],[0]]","8","0","","","","","","6","","","","","","","","",""
"","","","","","single-stim-button","123","273870","0.0-2.0-34.0-1.0","5711110152ab8e0008d0dc05","F1","batch6","","503","tol_toboard","","","","tol_peg_2","503","503","0","[[3,2,0],[1,0],[0]]","1","[[2,1,0],[3,0],[0]]","8","0","","","","","","6","","","","","","","","",""
"","","","","","single-stim-button","124","274486","0.0-2.0-34.1-0.1","5711110152ab8e0008d0dc05","F1","batch6","","615","tol_tohand","","","","tol_peg_1","615","615","0","[[3,0,0],[1,0],[0]]","2","[[2,1,0],[3,0],[0]]","8","0","","","","","","6","","","","","","","","",""
"","","","","","single-stim-button","125","276038","0.0-2.0-34.1-1.1","5711110152ab8e0008d0dc05","F1","batch6","","1551","tol_toboard","","","","tol_peg_2","1551","1551","0","[[3,0,0],[1,2],[0]]","2","[[2,1,0],[3,0],[0]]","8","0","","","","","","6","","","","","","","","",""
"","","","","","single-stim-button","126","276975","0.0-2.0-34.2-0.2","5711110152ab8e0008d0dc05","F1","batch6","","937","tol_tohand","","","","tol_peg_1","937","937","0","[[0,0,0],[1,2],[0]]","3","[[2,1,0],[3,0],[0]]","8","0","","","","","","6","","","","","","","","",""
"","","","","","single-stim-button","127","277542","0.0-2.0-34.2-1.2","5711110152ab8e0008d0dc05","F1","batch6","","566","tol_toboard","","","","tol_peg_3","566","566","0","[[0,0,0],[1,2],[3]]","3","[[2,1,0],[3,0],[0]]","8","0","","","","","","6","","","","","","","","",""
"","","","","","single-stim-button","128","278238","0.0-2.0-34.3-0.3","5711110152ab8e0008d0dc05","F1","batch6","","696","tol_tohand","","","","tol_peg_2","696","696","0","[[0,0,0],[1,0],[3]]","4","[[2,1,0],[3,0],[0]]","8","0","","","","","","6","","","","","","","","",""
"","","","","","single-stim-button","129","278814","0.0-2.0-34.3-1.3","5711110152ab8e0008d0dc05","F1","batch6","","574","tol_toboard","","","","tol_peg_1","574","574","0","[[2,0,0],[1,0],[3]]","4","[[2,1,0],[3,0],[0]]","8","0","","","","","","6","","","","","","","","",""
"","","","","","single-stim-button","130","279294","0.0-2.0-34.4-0.4","5711110152ab8e0008d0dc05","F1","batch6","","480","tol_tohand","","","","tol_peg_2","480","480","0","[[2,0,0],[0,0],[3]]","5","[[2,1,0],[3,0],[0]]","8","0","","","","","","6","","","","","","","","",""
"","","","","","single-stim-button","131","279966","0.0-2.0-34.4-1.4","5711110152ab8e0008d0dc05","F1","batch6","","672","tol_toboard","","","","tol_peg_1","672","672","0","[[2,1,0],[0,0],[3]]","5","[[2,1,0],[3,0],[0]]","8","0","","","","","","6","","","","","","","","",""
"","","","","","single-stim-button","132","280574","0.0-2.0-34.5-0.5","5711110152ab8e0008d0dc05","F1","batch6","","606","tol_tohand","","","","tol_peg_3","606","606","0","[[2,1,0],[0,0],[0]]","6","[[2,1,0],[3,0],[0]]","8","0","","","","","","6","","","","","","","","",""
"","","","","","single-stim-button","133","281094","0.0-2.0-34.5-1.5","5711110152ab8e0008d0dc05","F1","batch6","","519","tol_toboard","","","","tol_peg_2","519","519","0","[[2,1,0],[3,0],[0]]","6","[[2,1,0],[3,0],[0]]","8","0","","","","","","6","","","","","","","","",""
"","","","","","poldrack-single-stim","134","282104","0.0-2.0-35.0","5711110152ab8e0008d0dc05","F1","batch6","","-1","tol_feedback","","","true","","1000","1000","500","","","","","","-1","none","true","7807","11141","","","","","","","","","",""
"","","","","","html-button-response","135","282670","0.0-2.0-36.0","5711110152ab8e0008d0dc05","F1","batch6","","564","tol_trial_num","<div class = centerbox><p class = center-block-text>problem <strong>10</strong> out of 25 problems</p></div>","0","","","","","","","","","","","","","","","","","","","","","","","","",""
"","","","","","single-stim-button","136","287398","0.0-2.0-37.0-0.0","5711110152ab8e0008d0dc05","F1","batch6","","4727","tol_tohand","","","","tol_peg_2","4727","4727","0","[[3,0,0],[0,0],[2]]","1","[[3,0,0],[2,1],[0]]","9","0","","","","","","3","","","","","","","","",""
"","","","","","single-stim-button","137","289334","0.0-2.0-37.0-1.0","5711110152ab8e0008d0dc05","F1","batch6","","1936","tol_toboard","","","","tol_peg_1","1936","1936","0","[[3,1,0],[0,0],[2]]","1","[[3,0,0],[2,1],[0]]","9","0","","","","","","3","","","","","","","","",""
"","","","","","single-stim-button","138","290502","0.0-2.0-37.1-0.1","5711110152ab8e0008d0dc05","F1","batch6","","1168","tol_tohand","","","","tol_peg_3","1168","1168","0","[[3,1,0],[0,0],[0]]","2","[[3,0,0],[2,1],[0]]","9","0","","","","","","3","","","","","","","","",""
"","","","","","single-stim-button","139","290942","0.0-2.0-37.1-1.1","5711110152ab8e0008d0dc05","F1","batch6","","439","tol_toboard","","","","tol_peg_2","439","439","0","[[3,1,0],[2,0],[0]]","2","[[3,0,0],[2,1],[0]]","9","0","","","","","","3","","","","","","","","",""
"","","","","","single-stim-button","140","291397","0.0-2.0-37.2-0.2","5711110152ab8e0008d0dc05","F1","batch6","","455","tol_tohand","","","","tol_peg_1","455","455","0","[[3,0,0],[2,0],[0]]","3","[[3,0,0],[2,1],[0]]","9","0","","","","","","3","","","","","","","","",""
"","","","","","single-stim-button","141","291950","0.0-2.0-37.2-1.2","5711110152ab8e0008d0dc05","F1","batch6","","551","tol_toboard","","","","tol_peg_2","551","551","0","[[3,0,0],[2,1],[0]]","3","[[3,0,0],[2,1],[0]]","9","0","","","","","","3","","","","","","","","",""
"","","","","","poldrack-single-stim","142","292952","0.0-2.0-38.0","5711110152ab8e0008d0dc05","F1","batch6","","-1","tol_feedback","","","true","","1000","1000","500","","","","","","-1","none","true","4727","6350","","","","","","","","","",""
"","","","","","html-button-response","143","293446","0.0-2.0-39.0","5711110152ab8e0008d0dc05","F1","batch6","","492.8000000715256","tol_trial_num","<div class = centerbox><p class = center-block-text>problem <strong>11</strong> out of 25 problems</p></div>","0","","","","","","","","","","","","","","","","","","","","","","","","",""
"","","","","","single-stim-button","144","302230","0.0-2.0-40.0-0.0","5711110152ab8e0008d0dc05","F1","batch6","","8784","tol_tohand","","","","tol_peg_1","8784","8784","0","[[1,0,0],[3,0],[0]]","1","[[2,0,0],[1,3],[0]]","10","0","","","","","","6","","","","","","","","",""
"","","","","","single-stim-button","145","303750","0.0-2.0-40.0-1.0","5711110152ab8e0008d0dc05","F1","batch6","","1519","tol_toboard","","","","tol_peg_3","1519","1519","0","[[1,0,0],[3,0],[2]]","1","[[2,0,0],[1,3],[0]]","10","0","","","","","","6","","","","","","","","",""
"","","","","","single-stim-button","146","309613","0.0-2.0-40.1-0.1","5711110152ab8e0008d0dc05","F1","batch6","","5863","tol_tohand","","","","tol_peg_1","5863","5863","0","[[0,0,0],[3,0],[2]]","2","[[2,0,0],[1,3],[0]]","10","0","","","","","","6","","","","","","","","",""
"","","","","","single-stim-button","147","310165","0.0-2.0-40.1-1.1","5711110152ab8e0008d0dc05","F1","batch6","","551","tol_toboard","","","","tol_peg_2","551","551","0","[[0,0,0],[3,1],[2]]","2","[[2,0,0],[1,3],[0]]","10","0","","","","","","6","","","","","","","","",""
"","","","","","single-stim-button","148","310789","0.0-2.0-40.2-0.2","5711110152ab8e0008d0dc05","F1","batch6","","624","tol_tohand","","","","tol_peg_3","624","624","0","[[0,0,0],[3,1],[0]]","3","[[2,0,0],[1,3],[0]]","10","0","","","","","","6","","","","","","","","",""
"","","","","","single-stim-button","149","311533","0.0-2.0-40.2-1.2","5711110152ab8e0008d0dc05","F1","batch6","","743","tol_toboard","","","","tol_peg_1","743","743","0","[[2,0,0],[3,1],[0]]","3","[[2,0,0],[1,3],[0]]","10","0","","","","","","6","","","","","","","","",""
"","","","","","single-stim-button","150","312709","0.0-2.0-40.3-0.3","5711110152ab8e0008d0dc05","F1","batch6","","1176","tol_tohand","","","","tol_peg_2","1176","1176","0","[[2,0,0],[3,0],[0]]","4","[[2,0,0],[1,3],[0]]","10","0","","","","","","6","","","","","","","","",""
"","","","","","single-stim-button","151","313357","0.0-2.0-40.3-1.3","5711110152ab8e0008d0dc05","F1","batch6","","648","tol_toboard","","","","tol_peg_3","648","648","0","[[2,0,0],[3,0],[1]]","4","[[2,0,0],[1,3],[0]]","10","0","","","","","","6","","","","","","","","",""
"","","","","","single-stim-button","152","314453","0.0-2.0-40.4-0.4","5711110152ab8e0008d0dc05","F1","batch6","","1095","tol_tohand","","","","tol_peg_2","1095","1095","0","[[2,0,0],[0,0],[1]]","5","[[2,0,0],[1,3],[0]]","10","0","","","","","","6","","","","","","","","",""
"","","","","","single-stim-button","153","315013","0.0-2.0-40.4-1.4","5711110152ab8e0008d0dc05","F1","batch6","","560","tol_toboard","","","","tol_peg_1","560","560","0","[[2,3,0],[0,0],[1]]","5","[[2,0,0],[1,3],[0]]","10","0","","","","","","6","","","","","","","","",""
"","","","","","single-stim-button","154","315597","0.0-2.0-40.5-0.5","5711110152ab8e0008d0dc05","F1","batch6","","584","tol_tohand","","","","tol_peg_3","584","584","0","[[2,3,0],[0,0],[0]]","6","[[2,0,0],[1,3],[0]]","10","0","","","","","","6","","","","","","","","",""
"","","","","","single-stim-button","155","316053","0.0-2.0-40.5-1.5","5711110152ab8e0008d0dc05","F1","batch6","","456","tol_toboard","","","","tol_peg_2","456","456","0","[[2,3,0],[1,0],[0]]","6","[[2,0,0],[1,3],[0]]","10","0","","","","","","6","","","","","","","","",""
"","","","","","single-stim-button","156","316558","0.0-2.0-40.6-0.6","5711110152ab8e0008d0dc05","F1","batch6","","505","tol_tohand","","","","tol_peg_1","505","505","0","[[2,0,0],[1,0],[0]]","7","[[2,0,0],[1,3],[0]]","10","0","","","","","","6","","","","","","","","",""
"","","","","","single-stim-button","157","316973","0.0-2.0-40.6-1.6","5711110152ab8e0008d0dc05","F1","batch6","","415","tol_toboard","","","","tol_peg_2","415","415","0","[[2,0,0],[1,3],[0]]","7","[[2,0,0],[1,3],[0]]","10","0","","","","","","6","","","","","","","","",""
"","","","","","poldrack-single-stim","158","317983","0.0-2.0-41.0","5711110152ab8e0008d0dc05","F1","batch6","","-1","tol_feedback","","","true","","1000","1000","500","","","","","","-1","none","true","8784","18631","","","","","","","","","",""
"","","","","","html-button-response","159","318509","0.0-2.0-42.0","5711110152ab8e0008d0dc05","F1","batch6","","525.4000000953674","tol_trial_num","<div class = centerbox><p class = center-block-text>problem <strong>12</strong> out of 25 problems</p></div>","0","","","","","","","","","","","","","","","","","","","","","","","","",""
"","","","","","single-stim-button","160","323965","0.0-2.0-43.0-0.0","5711110152ab8e0008d0dc05","F1","batch6","","5455","tol_tohand","","","","tol_peg_1","5455","5455","0","[[1,0,0],[3,0],[0]]","1","[[2,3,0],[0,0],[1]]","11","0","","","","","","4","","","","","","","","",""
"","","","","","single-stim-button","161","324629","0.0-2.0-43.0-1.0","5711110152ab8e0008d0dc05","F1","batch6","","663","tol_toboard","","","","tol_peg_2","663","663","0","[[1,0,0],[3,2],[0]]","1","[[2,3,0],[0,0],[1]]","11","0","","","","","","4","","","","","","","","",""
"","","","","","single-stim-button","162","325029","0.0-2.0-43.1-0.1","5711110152ab8e0008d0dc05","F1","batch6","","400","tol_tohand","","","","tol_peg_1","400","400","0","[[0,0,0],[3,2],[0]]","2","[[2,3,0],[0,0],[1]]","11","0","","","","","","4","","","","","","","","",""
"","","","","","single-stim-button","163","325829","0.0-2.0-43.1-1.1","5711110152ab8e0008d0dc05","F1","batch6","","800","tol_toboard","","","","tol_peg_3","800","800","0","[[0,0,0],[3,2],[1]]","2","[[2,3,0],[0,0],[1]]","11","0","","","","","","4","","","","","","","","",""
"","","","","","single-stim-button","164","327238","0.0-2.0-43.2-0.2","5711110152ab8e0008d0dc05","F1","batch6","","1409","tol_tohand","","","","tol_peg_2","1409","1409","0","[[0,0,0],[3,0],[1]]","3","[[2,3,0],[0,0],[1]]","11","0","","","","","","4","","","","","","","","",""
"","","","","","single-stim-button","165","327813","0.0-2.0-43.2-1.2","5711110152ab8e0008d0dc05","F1","batch6","","575","tol_toboard","","","","tol_peg_1","575","575","0","[[2,0,0],[3,0],[1]]","3","[[2,3,0],[0,0],[1]]","11","0","","","","","","4","","","","","","","","",""
"","","","","","single-stim-button","166","328349","0.0-2.0-43.3-0.3","5711110152ab8e0008d0dc05","F1","batch6","","536","tol_tohand","","","","tol_peg_2","536","536","0","[[2,0,0],[0,0],[1]]","4","[[2,3,0],[0,0],[1]]","11","0","","","","","","4","","","","","","","","",""
"","","","","","single-stim-button","167","328805","0.0-2.0-43.3-1.3","5711110152ab8e0008d0dc05","F1","batch6","","456","tol_toboard","","","","tol_peg_1","456","456","0","[[2,3,0],[0,0],[1]]","4","[[2,3,0],[0,0],[1]]","11","0","","","","","","4","","","","","","","","",""
"","","","","","poldrack-single-stim","168","329809","0.0-2.0-44.0","5711110152ab8e0008d0dc05","F1","batch6","","-1","tol_feedback","","","true","","1000","1000","500","","","","","","-1","none","true","5455","7800","","","","","","","","","",""
"","","","","","html-button-response","169","330621","0.0-2.0-45.0","5711110152ab8e0008d0dc05","F1","batch6","","811.5","tol_trial_num","<div class = centerbox><p class = center-block-text>problem <strong>13</strong> out of 25 problems</p></div>","0","","","","","","","","","","","","","","","","","","","","","","","","",""
"","","","","","single-stim-button","170","339462","0.0-2.0-46.0-0.0","5711110152ab8e0008d0dc05","F1","batch6","","8841","tol_tohand","","","","tol_peg_2","8841","8841","0","[[1,2,0],[0,0],[0]]","1","[[0,0,0],[2,3],[1]]","12","0","","","","","","4","","","","","","","","",""
"","","","","","single-stim-button","171","339949","0.0-2.0-46.0-1.0","5711110152ab8e0008d0dc05","F1","batch6","","487","tol_toboard","","","","tol_peg_3","487","487","0","[[1,2,0],[0,0],[3]]","1","[[0,0,0],[2,3],[1]]","12","0","","","","","","4","","","","","","","","",""
"","","","","","single-stim-button","172","340645","0.0-2.0-46.1-0.1","5711110152ab8e0008d0dc05","F1","batch6","","696","tol_tohand","","","","tol_peg_1","696","696","0","[[1,0,0],[0,0],[3]]","2","[[0,0,0],[2,3],[1]]","12","0","","","","","","4","","","","","","","","",""
"","","","","","single-stim-button","173","341469","0.0-2.0-46.1-1.1","5711110152ab8e0008d0dc05","F1","batch6","","824","tol_toboard","","","","tol_peg_2","824","824","0","[[1,0,0],[2,0],[3]]","2","[[0,0,0],[2,3],[1]]","12","0","","","","","","4","","","","","","","","",""
"","","","","","single-stim-button","174","342677","0.0-2.0-46.2-0.2","5711110152ab8e0008d0dc05","F1","batch6","","1208","tol_tohand","","","","tol_peg_3","1208","1208","0","[[1,0,0],[2,0],[0]]","3","[[0,0,0],[2,3],[1]]","12","0","","","","","","4","","","","","","","","",""
"","","","","","single-stim-button","175","343189","0.0-2.0-46.2-1.2","5711110152ab8e0008d0dc05","F1","batch6","","512","tol_toboard","","","","tol_peg_2","512","512","0","[[1,0,0],[2,3],[0]]","3","[[0,0,0],[2,3],[1]]","12","0","","","","","","4","","","","","","","","",""
"","","","","","single-stim-button","176","343750","0.0-2.0-46.3-0.3","5711110152ab8e0008d0dc05","F1","batch6","","560","tol_tohand","","","","tol_peg_1","560","560","0","[[0,0,0],[2,3],[0]]","4","[[0,0,0],[2,3],[1]]","12","0","","","","","","4","","","","","","","","",""
"","","","","","single-stim-button","177","344365","0.0-2.0-46.3-1.3","5711110152ab8e0008d0dc05","F1","batch6","","615","tol_toboard","","","","tol_peg_3","615","615","0","[[0,0,0],[2,3],[1]]","4","[[0,0,0],[2,3],[1]]","12","0","","","","","","4","","","","","","","","",""
"","","","","","poldrack-single-stim","178","345379","0.0-2.0-47.0","5711110152ab8e0008d0dc05","F1","batch6","","-1","tol_feedback","","","true","","1000","1000","500","","","","","","-1","none","true","8841","11305","","","","","","","","","",""
"","","","","","html-button-response","179","354053","0.0-2.0-48.0","5711110152ab8e0008d0dc05","F1","batch6","","8672.899999976158","attention_check","<p class = block-text>How many balls are in your board<br></p>","1","true","","","","","","","","","","","","","","","","","","","","","","","",""
"","","","","","html-button-response","180","354949","0.0-2.0-49.0","5711110152ab8e0008d0dc05","F1","batch6","","895.2000000476837","tol_trial_num","<div class = centerbox><p class = center-block-text>problem <strong>14</strong> out of 25 problems</p></div>","0","","","","","","","","","","","","","","","","","","","","","","","","",""
"","","","","","single-stim-button","181","361533","0.0-2.0-50.0-0.0","5711110152ab8e0008d0dc05","F1","batch6","","6583","tol_tohand","","","","tol_peg_1","6583","6583","0","[[2,0,0],[3,0],[0]]","1","[[1,2,0],[3,0],[0]]","13","0","","","","","","4","","","","","","","","",""
"","","","","","single-stim-button","182","364918","0.0-2.0-50.0-1.0","5711110152ab8e0008d0dc05","F1","batch6","","3384","tol_toboard","","","","tol_peg_3","3384","3384","0","[[2,0,0],[3,0],[1]]","1","[[1,2,0],[3,0],[0]]","13","0","","","","","","4","","","","","","","","",""
"","","","","","single-stim-button","183","365453","0.0-2.0-50.1-0.1","5711110152ab8e0008d0dc05","F1","batch6","","535","tol_tohand","","","","tol_peg_1","535","535","0","[[0,0,0],[3,0],[1]]","2","[[1,2,0],[3,0],[0]]","13","0","","","","","","4","","","","","","","","",""
"","","","","","single-stim-button","184","365893","0.0-2.0-50.1-1.1","5711110152ab8e0008d0dc05","F1","batch6","","440","tol_toboard","","","","tol_peg_2","440","440","0","[[0,0,0],[3,2],[1]]","2","[[1,2,0],[3,0],[0]]","13","0","","","","","","4","","","","","","","","",""
"","","","","","single-stim-button","185","366357","0.0-2.0-50.2-0.2","5711110152ab8e0008d0dc05","F1","batch6","","464","tol_tohand","","","","tol_peg_3","464","464","0","[[0,0,0],[3,2],[0]]","3","[[1,2,0],[3,0],[0]]","13","0","","","","","","4","","","","","","","","",""
"","","","","","single-stim-button","186","367021","0.0-2.0-50.2-1.2","5711110152ab8e0008d0dc05","F1","batch6","","664","tol_toboard","","","","tol_peg_1","664","664","0","[[1,0,0],[3,2],[0]]","3","[[1,2,0],[3,0],[0]]","13","0","","","","","","4","","","","","","","","",""
"","","","","","single-stim-button","187","367517","0.0-2.0-50.3-0.3","5711110152ab8e0008d0dc05","F1","batch6","","496","tol_tohand","","","","tol_peg_2","496","496","0","[[1,0,0],[3,0],[0]]","4","[[1,2,0],[3,0],[0]]","13","0","","","","","","4","","","","","","","","",""
"","","","","","single-stim-button","188","367998","0.0-2.0-50.3-1.3","5711110152ab8e0008d0dc05","F1","batch6","","479","tol_toboard","","","","tol_peg_1","479","479","0","[[1,2,0],[3,0],[0]]","4","[[1,2,0],[3,0],[0]]","13","0","","","","","","4","","","","","","","","",""
"","","","","","poldrack-single-stim","189","368999","0.0-2.0-51.0","5711110152ab8e0008d0dc05","F1","batch6","","-1","tol_feedback","","","true","","1000","1000","500","","","","","","-1","none","true","6583","8078","","","","","","","","","",""
"","","","","","html-button-response","190","369725","0.0-2.0-52.0","5711110152ab8e0008d0dc05","F1","batch6","","724.6000000238419","tol_trial_num","<div class = centerbox><p class = center-block-text>problem <strong>15</strong> out of 25 problems</p></div>","0","","","","","","","","","","","","","","","","","","","","","","","","",""
"","","","","","single-stim-button","191","375485","0.0-2.0-53.0-0.0","5711110152ab8e0008d0dc05","F1","batch6","","5759","tol_tohand","","","","tol_peg_1","5759","5759","0","[[1,0,0],[3,0],[0]]","1","[[2,0,0],[3,0],[1]]","14","0","","","","","","3","","","","","","","","",""
"","","","","","single-stim-button","192","376213","0.0-2.0-53.0-1.0","5711110152ab8e0008d0dc05","F1","batch6","","727","tol_toboard","","","","tol_peg_2","727","727","0","[[1,0,0],[3,2],[0]]","1","[[2,0,0],[3,0],[1]]","14","0","","","","","","3","","","","","","","","",""
"","","","","","single-stim-button","193","376702","0.0-2.0-53.1-0.1","5711110152ab8e0008d0dc05","F1","batch6","","488","tol_tohand","","","","tol_peg_1","488","488","0","[[0,0,0],[3,2],[0]]","2","[[2,0,0],[3,0],[1]]","14","0","","","","","","3","","","","","","","","",""
"","","","","","single-stim-button","194","377413","0.0-2.0-53.1-1.1","5711110152ab8e0008d0dc05","F1","batch6","","711","tol_toboard","","","","tol_peg_3","711","711","0","[[0,0,0],[3,2],[1]]","2","[[2,0,0],[3,0],[1]]","14","0","","","","","","3","","","","","","","","",""
"","","","","","single-stim-button","195","377901","0.0-2.0-53.2-0.2","5711110152ab8e0008d0dc05","F1","batch6","","488","tol_tohand","","","","tol_peg_2","488","488","0","[[0,0,0],[3,0],[1]]","3","[[2,0,0],[3,0],[1]]","14","0","","","","","","3","","","","","","","","",""
"","","","","","single-stim-button","196","378381","0.0-2.0-53.2-1.2","5711110152ab8e0008d0dc05","F1","batch6","","480","tol_toboard","","","","tol_peg_1","480","480","0","[[2,0,0],[3,0],[1]]","3","[[2,0,0],[3,0],[1]]","14","0","","","","","","3","","","","","","","","",""
"","","","","","poldrack-single-stim","197","379383","0.0-2.0-54.0","5711110152ab8e0008d0dc05","F1","batch6","","-1","tol_feedback","","","true","","1000","1000","500","","","","","","-1","none","true","5759","6735","","","","","","","","","",""
"","","","","","html-button-response","198","379917","0.0-2.0-55.0","5711110152ab8e0008d0dc05","F1","batch6","","532.7999999523163","tol_trial_num","<div class = centerbox><p class = center-block-text>problem <strong>16</strong> out of 25 problems</p></div>","0","","","","","","","","","","","","","","","","","","","","","","","","",""
"","","","","","single-stim-button","199","388997","0.0-2.0-56.0-0.0","5711110152ab8e0008d0dc05","F1","batch6","","9079","tol_tohand","","","","tol_peg_3","9079","9079","0","[[0,0,0],[2,3],[0]]","1","[[2,3,0],[1,0],[0]]","15","0","","","","","","7","","","","","","","","",""
"","","","","","single-stim-button","200","389725","0.0-2.0-56.0-1.0","5711110152ab8e0008d0dc05","F1","batch6","","727","tol_toboard","","","","tol_peg_1","727","727","0","[[1,0,0],[2,3],[0]]","1","[[2,3,0],[1,0],[0]]","15","0","","","","","","7","","","","","","","","",""
"","","","","","single-stim-button","201","391261","0.0-2.0-56.1-0.1","5711110152ab8e0008d0dc05","F1","batch6","","1535","tol_tohand","","","","tol_peg_2","1535","1535","0","[[1,0,0],[2,0],[0]]","2","[[2,3,0],[1,0],[0]]","15","0","","","","","","7","","","","","","","","",""
"","","","","","single-stim-button","202","392021","0.0-2.0-56.1-1.1","5711110152ab8e0008d0dc05","F1","batch6","","760","tol_toboard","","","","tol_peg_3","760","760","0","[[1,0,0],[2,0],[3]]","2","[[2,3,0],[1,0],[0]]","15","0","","","","","","7","","","","","","","","",""
"","","","","","single-stim-button","203","392605","0.0-2.0-56.2-0.2","5711110152ab8e0008d0dc05","F1","batch6","","583","tol_tohand","","","","tol_peg_1","583","583","0","[[0,0,0],[2,0],[3]]","3","[[2,3,0],[1,0],[0]]","15","0","","","","","","7","","","","","","","","",""
"","","","","","single-stim-button","204","397141","0.0-2.0-56.2-1.2","5711110152ab8e0008d0dc05","F1","batch6","","4535","tol_toboard","","","","tol_peg_2","4535","4535","0","[[0,0,0],[2,1],[3]]","3","[[2,3,0],[1,0],[0]]","15","0","","","","","","7","","","","","","","","",""
"","","","","","single-stim-button","205","404821","0.0-2.0-56.3-0.3","5711110152ab8e0008d0dc05","F1","batch6","","7679","tol_tohand","","","","tol_peg_3","7679","7679","0","[[0,0,0],[2,1],[0]]","4","[[2,3,0],[1,0],[0]]","15","0","","","","","","7","","","","","","","","",""
"","","","","","single-stim-button","206","406581","0.0-2.0-56.3-1.3","5711110152ab8e0008d0dc05","F1","batch6","","1759","tol_toboard","","","","tol_peg_1","1759","1759","0","[[3,0,0],[2,1],[0]]","4","[[2,3,0],[1,0],[0]]","15","0","","","","","","7","","","","","","","","",""
"","","","","","single-stim-button","207","408110","0.0-2.0-56.4-0.4","5711110152ab8e0008d0dc05","F1","batch6","","1529","tol_tohand","","","","tol_peg_2","1529","1529","0","[[3,0,0],[2,0],[0]]","5","[[2,3,0],[1,0],[0]]","15","0","","","","","","7","","","","","","","","",""
"","","","","","single-stim-button","208","408837","0.0-2.0-56.4-1.4","5711110152ab8e0008d0dc05","F1","batch6","","726","tol_toboard","","","","tol_peg_3","726","726","0","[[3,0,0],[2,0],[1]]","5","[[2,3,0],[1,0],[0]]","15","0","","","","","","7","","","","","","","","",""
"","","","","","single-stim-button","209","409549","0.0-2.0-56.5-0.5","5711110152ab8e0008d0dc05","F1","batch6","","711","tol_tohand","","","","tol_peg_2","711","711","0","[[3,0,0],[0,0],[1]]","6","[[2,3,0],[1,0],[0]]","15","0","","","","","","7","","","","","","","","",""
"","","","","","single-stim-button","210","410638","0.0-2.0-56.5-1.5","5711110152ab8e0008d0dc05","F1","batch6","","1087","tol_toboard","","","","tol_peg_1","1087","1087","0","[[3,2,0],[0,0],[1]]","6","[[2,3,0],[1,0],[0]]","15","0","","","","","","7","","","","","","","","",""
"","","","","","single-stim-button","211","411845","0.0-2.0-56.6-0.6","5711110152ab8e0008d0dc05","F1","batch6","","1207","tol_tohand","","","","tol_peg_3","1207","1207","0","[[3,2,0],[0,0],[0]]","7","[[2,3,0],[1,0],[0]]","15","0","","","","","","7","","","","","","","","",""
"","","","","","single-stim-button","212","412877","0.0-2.0-56.6-1.6","5711110152ab8e0008d0dc05","F1","batch6","","1031","tol_toboard","","","","tol_peg_2","1031","1031","0","[[3,2,0],[1,0],[0]]","7","[[2,3,0],[1,0],[0]]","15","0","","","","","","7","","","","","","","","",""
"","","","","","single-stim-button","213","413605","0.0-2.0-56.7-0.7","5711110152ab8e0008d0dc05","F1","batch6","","727","tol_tohand","","","","tol_peg_1","727","727","0","[[3,0,0],[1,0],[0]]","8","[[2,3,0],[1,0],[0]]","15","0","","","","","","7","","","","","","","","",""
"","","","","","single-stim-button","214","416061","0.0-2.0-56.7-1.7","5711110152ab8e0008d0dc05","F1","batch6","","2456","tol_toboard","","","","tol_peg_3","2456","2456","0","[[3,0,0],[1,0],[2]]","8","[[2,3,0],[1,0],[0]]","15","0","","","","","","7","","","","","","","","",""
"","","","","","single-stim-button","215","417126","0.0-2.0-56.8-0.8","5711110152ab8e0008d0dc05","F1","batch6","","1065","tol_tohand","","","","tol_peg_1","1065","1065","0","[[0,0,0],[1,0],[2]]","9","[[2,3,0],[1,0],[0]]","15","0","","","","","","7","","","","","","","","",""
"","","","","","single-stim-button","216","417629","0.0-2.0-56.8-1.8","5711110152ab8e0008d0dc05","F1","batch6","","503","tol_toboard","","","","tol_peg_2","503","503","0","[[0,0,0],[1,3],[2]]","9","[[2,3,0],[1,0],[0]]","15","0","","","","","","7","","","","","","","","",""
"","","","","","single-stim-button","217","418069","0.0-2.0-56.9-0.9","5711110152ab8e0008d0dc05","F1","batch6","","439","tol_tohand","","","","tol_peg_3","439","439","0","[[0,0,0],[1,3],[0]]","10","[[2,3,0],[1,0],[0]]","15","0","","","","","","7","","","","","","","","",""
"","","","","","single-stim-button","218","418565","0.0-2.0-56.9-1.9","5711110152ab8e0008d0dc05","F1","batch6","","496","tol_toboard","","","","tol_peg_1","496","496","0","[[2,0,0],[1,3],[0]]","10","[[2,3,0],[1,0],[0]]","15","0","","","","","","7","","","","","","","","",""
"","","","","","single-stim-button","219","419053","0.0-2.0-56.10-0.10","5711110152ab8e0008d0dc05","F1","batch6","","487","tol_tohand","","","","tol_peg_2","487","487","0","[[2,0,0],[1,0],[0]]","11","[[2,3,0],[1,0],[0]]","15","0","","","","","","7","","","","","","","","",""
"","","","","","single-stim-button","220","419477","0.0-2.0-56.10-1.10","5711110152ab8e0008d0dc05","F1","batch6","","424","tol_toboard","","","","tol_peg_1","424","424","0","[[2,3,0],[1,0],[0]]","11","[[2,3,0],[1,0],[0]]","15","0","","","","","","7","","","","","","","","",""
"","","","","","poldrack-single-stim","221","420479","0.0-2.0-57.0","5711110152ab8e0008d0dc05","F1","batch6","","-1","tol_feedback","","","true","","1000","1000","500","","","","","","-1","none","true","9079","25041","","","","","","","","","",""
"","","","","","html-button-response","222","421125","0.0-2.0-58.0","5711110152ab8e0008d0dc05","F1","batch6","","645.2000000476837","tol_trial_num","<div class = centerbox><p class = center-block-text>problem <strong>17</strong> out of 25 problems</p></div>","0","","","","","","","","","","","","","","","","","","","","","","","","",""
"","","","","","single-stim-button","223","428198","0.0-2.0-59.0-0.0","5711110152ab8e0008d0dc05","F1","batch6","","7072","tol_tohand","","","","tol_peg_2","7072","7072","0","[[1,2,0],[0,0],[0]]","1","[[3,1,0],[2,0],[0]]","16","0","","","","","","5","","","","","","","","",""
"","","","","","single-stim-button","224","429014","0.0-2.0-59.0-1.0","5711110152ab8e0008d0dc05","F1","batch6","","815","tol_toboard","","","","tol_peg_3","815","815","0","[[1,2,0],[0,0],[3]]","1","[[3,1,0],[2,0],[0]]","16","0","","","","","","5","","","","","","","","",""
"","","","","","single-stim-button","225","429629","0.0-2.0-59.1-0.1","5711110152ab8e0008d0dc05","F1","batch6","","615","tol_tohand","","","","tol_peg_1","615","615","0","[[1,0,0],[0,0],[3]]","2","[[3,1,0],[2,0],[0]]","16","0","","","","","","5","","","","","","","","",""
"","","","","","single-stim-button","226","430733","0.0-2.0-59.1-1.1","5711110152ab8e0008d0dc05","F1","batch6","","1103","tol_toboard","","","","tol_peg_2","1103","1103","0","[[1,0,0],[2,0],[3]]","2","[[3,1,0],[2,0],[0]]","16","0","","","","","","5","","","","","","","","",""
"","","","","","single-stim-button","227","432221","0.0-2.0-59.2-0.2","5711110152ab8e0008d0dc05","F1","batch6","","1487","tol_tohand","","","","tol_peg_1","1487","1487","0","[[0,0,0],[2,0],[3]]","3","[[3,1,0],[2,0],[0]]","16","0","","","","","","5","","","","","","","","",""
"","","","","","single-stim-button","228","432701","0.0-2.0-59.2-1.2","5711110152ab8e0008d0dc05","F1","batch6","","480","tol_toboard","","","","tol_peg_2","480","480","0","[[0,0,0],[2,1],[3]]","3","[[3,1,0],[2,0],[0]]","16","0","","","","","","5","","","","","","","","",""
"","","","","","single-stim-button","229","433102","0.0-2.0-59.3-0.3","5711110152ab8e0008d0dc05","F1","batch6","","400","tol_tohand","","","","tol_peg_3","400","400","0","[[0,0,0],[2,1],[0]]","4","[[3,1,0],[2,0],[0]]","16","0","","","","","","5","","","","","","","","",""
"","","","","","single-stim-button","230","433590","0.0-2.0-59.3-1.3","5711110152ab8e0008d0dc05","F1","batch6","","488","tol_toboard","","","","tol_peg_1","488","488","0","[[3,0,0],[2,1],[0]]","4","[[3,1,0],[2,0],[0]]","16","0","","","","","","5","","","","","","","","",""
"","","","","","single-stim-button","231","434005","0.0-2.0-59.4-0.4","5711110152ab8e0008d0dc05","F1","batch6","","415","tol_tohand","","","","tol_peg_2","415","415","0","[[3,0,0],[2,0],[0]]","5","[[3,1,0],[2,0],[0]]","16","0","","","","","","5","","","","","","","","",""
"","","","","","single-stim-button","232","434469","0.0-2.0-59.4-1.4","5711110152ab8e0008d0dc05","F1","batch6","","463","tol_toboard","","","","tol_peg_1","463","463","0","[[3,1,0],[2,0],[0]]","5","[[3,1,0],[2,0],[0]]","16","0","","","","","","5","","","","","","","","",""
"","","","","","poldrack-single-stim","233","435472","0.0-2.0-60.0","5711110152ab8e0008d0dc05","F1","batch6","","-1","tol_feedback","","","true","","1000","1000","500","","","","","","-1","none","true","7072","9989","","","","","","","","","",""
"","","","","","html-button-response","234","436061","0.0-2.0-61.0","5711110152ab8e0008d0dc05","F1","batch6","","588","tol_trial_num","<div class = centerbox><p class = center-block-text>problem <strong>18</strong> out of 25 problems</p></div>","0","","","","","","","","","","","","","","","","","","","","","","","","",""
"","","","","","single-stim-button","235","441774","0.0-2.0-62.0-0.0","5711110152ab8e0008d0dc05","F1","batch6","","5712","tol_tohand","","","","tol_peg_2","5712","5712","0","[[1,2,0],[0,0],[0]]","1","[[3,0,0],[2,0],[1]]","17","0","","","","","","5","","","","","","","","",""
"","","","","","single-stim-button","236","442437","0.0-2.0-62.0-1.0","5711110152ab8e0008d0dc05","F1","batch6","","663","tol_toboard","","","","tol_peg_3","663","663","0","[[1,2,0],[0,0],[3]]","1","[[3,0,0],[2,0],[1]]","17","0","","","","","","5","","","","","","","","",""
"","","","","","single-stim-button","237","443142","0.0-2.0-62.1-0.1","5711110152ab8e0008d0dc05","F1","batch6","","704","tol_tohand","","","","tol_peg_1","704","704","0","[[1,0,0],[0,0],[3]]","2","[[3,0,0],[2,0],[1]]","17","0","","","","","","5","","","","","","","","",""
"","","","","","single-stim-button","238","443773","0.0-2.0-62.1-1.1","5711110152ab8e0008d0dc05","F1","batch6","","630","tol_toboard","","","","tol_peg_2","630","630","0","[[1,0,0],[2,0],[3]]","2","[[3,0,0],[2,0],[1]]","17","0","","","","","","5","","","","","","","","",""
"","","","","","single-stim-button","239","446102","0.0-2.0-62.2-0.2","5711110152ab8e0008d0dc05","F1","batch6","","2328","tol_tohand","","","","tol_peg_1","2328","2328","0","[[0,0,0],[2,0],[3]]","3","[[3,0,0],[2,0],[1]]","17","0","","","","","","5","","","","","","","","",""
"","","","","","single-stim-button","240","446526","0.0-2.0-62.2-1.2","5711110152ab8e0008d0dc05","F1","batch6","","424","tol_toboard","","","","tol_peg_2","424","424","0","[[0,0,0],[2,1],[3]]","3","[[3,0,0],[2,0],[1]]","17","0","","","","","","5","","","","","","","","",""
"","","","","","single-stim-button","241","447101","0.0-2.0-62.3-0.3","5711110152ab8e0008d0dc05","F1","batch6","","574","tol_tohand","","","","tol_peg_3","574","574","0","[[0,0,0],[2,1],[0]]","4","[[3,0,0],[2,0],[1]]","17","0","","","","","","5","","","","","","","","",""
"","","","","","single-stim-button","242","447926","0.0-2.0-62.3-1.3","5711110152ab8e0008d0dc05","F1","batch6","","824","tol_toboard","","","","tol_peg_1","824","824","0","[[3,0,0],[2,1],[0]]","4","[[3,0,0],[2,0],[1]]","17","0","","","","","","5","","","","","","","","",""
"","","","","","single-stim-button","243","448334","0.0-2.0-62.4-0.4","5711110152ab8e0008d0dc05","F1","batch6","","407","tol_tohand","","","","tol_peg_2","407","407","0","[[3,0,0],[2,0],[0]]","5","[[3,0,0],[2,0],[1]]","17","0","","","","","","5","","","","","","","","",""
"","","","","","single-stim-button","244","448797","0.0-2.0-62.4-1.4","5711110152ab8e0008d0dc05","F1","batch6","","463","tol_toboard","","","","tol_peg_3","463","463","0","[[3,0,0],[2,0],[1]]","5","[[3,0,0],[2,0],[1]]","17","0","","","","","","5","","","","","","","","",""
"","","","","","poldrack-single-stim","245","449800","0.0-2.0-63.0","5711110152ab8e0008d0dc05","F1","batch6","","-1","tol_feedback","","","true","","1000","1000","500","","","","","","-1","none","true","5712","9725","","","","","","","","","",""
"","","","","","html-button-response","246","450277","0.0-2.0-64.0","5711110152ab8e0008d0dc05","F1","batch6","","475.6999999284744","tol_trial_num","<div class = centerbox><p class = center-block-text>problem <strong>19</strong> out of 25 problems</p></div>","0","","","","","","","","","","","","","","","","","","","","","","","","",""
"","","","","","single-stim-button","247","453645","0.0-2.0-65.0-0.0","5711110152ab8e0008d0dc05","F1","batch6","","3367","tol_tohand","","","","tol_peg_2","3367","3367","0","[[1,2,0],[0,0],[0]]","1","[[0,0,0],[1,2],[3]]","18","0","","","","","","7","","","","","","","","",""
"","","","","","single-stim-button","248","454517","0.0-2.0-65.0-1.0","5711110152ab8e0008d0dc05","F1","batch6","","871","tol_toboard","","","","tol_peg_3","871","871","0","[[1,2,0],[0,0],[3]]","1","[[0,0,0],[1,2],[3]]","18","0","","","","","","7","","","","","","","","",""
"","","","","","single-stim-button","249","458957","0.0-2.0-65.1-0.1","5711110152ab8e0008d0dc05","F1","batch6","","4439","tol_tohand","","","","tol_peg_1","4439","4439","0","[[1,0,0],[0,0],[3]]","2","[[0,0,0],[1,2],[3]]","18","0","","","","","","7","","","","","","","","",""
"","","","","","single-stim-button","250","461990","0.0-2.0-65.1-1.1","5711110152ab8e0008d0dc05","F1","batch6","","3032","tol_toboard","","","","tol_peg_2","3032","3032","0","[[1,0,0],[2,0],[3]]","2","[[0,0,0],[1,2],[3]]","18","0","","","","","","7","","","","","","","","",""
"","","","","","single-stim-button","251","462574","0.0-2.0-65.2-0.2","5711110152ab8e0008d0dc05","F1","batch6","","584","tol_tohand","","","","tol_peg_1","584","584","0","[[0,0,0],[2,0],[3]]","3","[[0,0,0],[1,2],[3]]","18","0","","","","","","7","","","","","","","","",""
"","","","","","single-stim-button","252","463197","0.0-2.0-65.2-1.2","5711110152ab8e0008d0dc05","F1","batch6","","623","tol_toboard","","","","tol_peg_2","623","623","0","[[0,0,0],[2,1],[3]]","3","[[0,0,0],[1,2],[3]]","18","0","","","","","","7","","","","","","","","",""
"","","","","","single-stim-button","253","464365","0.0-2.0-65.3-0.3","5711110152ab8e0008d0dc05","F1","batch6","","1167","tol_tohand","","","","tol_peg_3","1167","1167","0","[[0,0,0],[2,1],[0]]","4","[[0,0,0],[1,2],[3]]","18","0","","","","","","7","","","","","","","","",""
"","","","","","single-stim-button","254","467533","0.0-2.0-65.3-1.3","5711110152ab8e0008d0dc05","F1","batch6","","3168","tol_toboard","","","","tol_peg_1","3168","3168","0","[[3,0,0],[2,1],[0]]","4","[[0,0,0],[1,2],[3]]","18","0","","","","","","7","","","","","","","","",""
"","","","","","single-stim-button","255","468343","0.0-2.0-65.4-0.4","5711110152ab8e0008d0dc05","F1","batch6","","809","tol_tohand","","","","tol_peg_2","809","809","0","[[3,0,0],[2,0],[0]]","5","[[0,0,0],[1,2],[3]]","18","0","","","","","","7","","","","","","","","",""
"","","","","","single-stim-button","256","468885","0.0-2.0-65.4-1.4","5711110152ab8e0008d0dc05","F1","batch6","","542","tol_toboard","","","","tol_peg_3","542","542","0","[[3,0,0],[2,0],[1]]","5","[[0,0,0],[1,2],[3]]","18","0","","","","","","7","","","","","","","","",""
"","","","","","single-stim-button","257","469837","0.0-2.0-65.5-0.5","5711110152ab8e0008d0dc05","F1","batch6","","951","tol_tohand","","","","tol_peg_2","951","951","0","[[3,0,0],[0,0],[1]]","6","[[0,0,0],[1,2],[3]]","18","0","","","","","","7","","","","","","","","",""
"","","","","","single-stim-button","258","471102","0.0-2.0-65.5-1.5","5711110152ab8e0008d0dc05","F1","batch6","","1263","tol_toboard","","","","tol_peg_1","1263","1263","0","[[3,2,0],[0,0],[1]]","6","[[0,0,0],[1,2],[3]]","18","0","","","","","","7","","","","","","","","",""
"","","","","","single-stim-button","259","471574","0.0-2.0-65.6-0.6","5711110152ab8e0008d0dc05","F1","batch6","","471","tol_tohand","","","","tol_peg_3","471","471","0","[[3,2,0],[0,0],[0]]","7","[[0,0,0],[1,2],[3]]","18","0","","","","","","7","","","","","","","","",""
"","","","","","single-stim-button","260","471941","0.0-2.0-65.6-1.6","5711110152ab8e0008d0dc05","F1","batch6","","367","tol_toboard","","","","tol_peg_2","367","367","0","[[3,2,0],[1,0],[0]]","7","[[0,0,0],[1,2],[3]]","18","0","","","","","","7","","","","","","","","",""
"","","","","","single-stim-button","261","472525","0.0-2.0-65.7-0.7","5711110152ab8e0008d0dc05","F1","batch6","","583","tol_tohand","","","","tol_peg_1","583","583","0","[[3,0,0],[1,0],[0]]","8","[[0,0,0],[1,2],[3]]","18","0","","","","","","7","","","","","","","","",""
"","","","","","single-stim-button","262","472901","0.0-2.0-65.7-1.7","5711110152ab8e0008d0dc05","F1","batch6","","375","tol_toboard","","","","tol_peg_2","375","375","0","[[3,0,0],[1,2],[0]]","8","[[0,0,0],[1,2],[3]]","18","0","","","","","","7","","","","","","","","",""
"","","","","","single-stim-button","263","473470","0.0-2.0-65.8-0.8","5711110152ab8e0008d0dc05","F1","batch6","","569","tol_tohand","","","","tol_peg_1","569","569","0","[[0,0,0],[1,2],[0]]","9","[[0,0,0],[1,2],[3]]","18","0","","","","","","7","","","","","","","","",""
"","","","","","single-stim-button","264","473997","0.0-2.0-65.8-1.8","5711110152ab8e0008d0dc05","F1","batch6","","527","tol_toboard","","","","tol_peg_3","527","527","0","[[0,0,0],[1,2],[3]]","9","[[0,0,0],[1,2],[3]]","18","0","","","","","","7","","","","","","","","",""
"","","","","","poldrack-single-stim","265","475002","0.0-2.0-66.0","5711110152ab8e0008d0dc05","F1","batch6","","-1","tol_feedback","","","true","","1000","1000","500","","","","","","-1","none","true","3367","12940","","","","","","","","","",""
"","","","","","html-button-response","266","475557","0.0-2.0-67.0","5711110152ab8e0008d0dc05","F1","batch6","","553.8999999761581","tol_trial_num","<div class = centerbox><p class = center-block-text>problem <strong>20</strong> out of 25 problems</p></div>","0","","","","","","","","","","","","","","","","","","","","","","","","",""
"","","","","","single-stim-button","267","478510","0.0-2.0-68.0-0.0","5711110152ab8e0008d0dc05","F1","batch6","","2952","tol_tohand","","","","tol_peg_2","2952","2952","0","[[1,2,0],[0,0],[0]]","1","[[2,1,0],[0,0],[3]]","19","0","","","","","","5","","","","","","","","",""
"","","","","","single-stim-button","268","478957","0.0-2.0-68.0-1.0","5711110152ab8e0008d0dc05","F1","batch6","","447","tol_toboard","","","","tol_peg_3","447","447","0","[[1,2,0],[0,0],[3]]","1","[[2,1,0],[0,0],[3]]","19","0","","","","","","5","","","","","","","","",""
"","","","","","single-stim-button","269","482134","0.0-2.0-68.1-0.1","5711110152ab8e0008d0dc05","F1","batch6","","3175","tol_tohand","","","","tol_peg_1","3175","3175","0","[[1,0,0],[0,0],[3]]","2","[[2,1,0],[0,0],[3]]","19","0","","","","","","5","","","","","","","","",""
"","","","","","single-stim-button","270","483045","0.0-2.0-68.1-1.1","5711110152ab8e0008d0dc05","F1","batch6","","911","tol_toboard","","","","tol_peg_2","911","911","0","[[1,0,0],[2,0],[3]]","2","[[2,1,0],[0,0],[3]]","19","0","","","","","","5","","","","","","","","",""
"","","","","","single-stim-button","271","494405","0.0-2.0-68.2-0.2","5711110152ab8e0008d0dc05","F1","batch6","","11359","tol_tohand","","","","tol_peg_3","11359","11359","0","[[1,0,0],[2,0],[0]]","3","[[2,1,0],[0,0],[3]]","19","0","","","","","","5","","","","","","","","",""
"","","","","","single-stim-button","272","495509","0.0-2.0-68.2-1.2","5711110152ab8e0008d0dc05","F1","batch6","","1104","tol_toboard","","","","tol_peg_1","1104","1104","0","[[1,3,0],[2,0],[0]]","3","[[2,1,0],[0,0],[3]]","19","0","","","","","","5","","","","","","","","",""
"","","","","","single-stim-button","273","495925","0.0-2.0-68.3-0.3","5711110152ab8e0008d0dc05","F1","batch6","","416","tol_tohand","","","","tol_peg_2","416","416","0","[[1,3,0],[0,0],[0]]","4","[[2,1,0],[0,0],[3]]","19","0","","","","","","5","","","","","","","","",""
"","","","","","single-stim-button","274","496437","0.0-2.0-68.3-1.3","5711110152ab8e0008d0dc05","F1","batch6","","511","tol_toboard","","","","tol_peg_3","511","511","0","[[1,3,0],[0,0],[2]]","4","[[2,1,0],[0,0],[3]]","19","0","","","","","","5","","","","","","","","",""
"","","","","","single-stim-button","275","497541","0.0-2.0-68.4-0.4","5711110152ab8e0008d0dc05","F1","batch6","","1104","tol_tohand","","","","tol_peg_1","1104","1104","0","[[1,0,0],[0,0],[2]]","5","[[2,1,0],[0,0],[3]]","19","0","","","","","","5","","","","","","","","",""
"","","","","","single-stim-button","276","499405","0.0-2.0-68.4-1.4","5711110152ab8e0008d0dc05","F1","batch6","","1863","tol_toboard","","","","tol_peg_2","1863","1863","0","[[1,0,0],[3,0],[2]]","5","[[2,1,0],[0,0],[3]]","19","0","","","","","","5","","","","","","","","",""
"","","","","","single-stim-button","277","500941","0.0-2.0-68.5-0.5","5711110152ab8e0008d0dc05","F1","batch6","","1536","tol_tohand","","","","tol_peg_1","1536","1536","0","[[0,0,0],[3,0],[2]]","6","[[2,1,0],[0,0],[3]]","19","0","","","","","","5","","","","","","","","",""
"","","","","","single-stim-button","278","501461","0.0-2.0-68.5-1.5","5711110152ab8e0008d0dc05","F1","batch6","","520","tol_toboard","","","","tol_peg_2","520","520","0","[[0,0,0],[3,1],[2]]","6","[[2,1,0],[0,0],[3]]","19","0","","","","","","5","","","","","","","","",""
"","","","","","single-stim-button","279","501974","0.0-2.0-68.6-0.6","5711110152ab8e0008d0dc05","F1","batch6","","512","tol_tohand","","","","tol_peg_3","512","512","0","[[0,0,0],[3,1],[0]]","7","[[2,1,0],[0,0],[3]]","19","0","","","","","","5","","","","","","","","",""
"","","","","","single-stim-button","280","502565","0.0-2.0-68.6-1.6","5711110152ab8e0008d0dc05","F1","batch6","","591","tol_toboard","","","","tol_peg_1","591","591","0","[[2,0,0],[3,1],[0]]","7","[[2,1,0],[0,0],[3]]","19","0","","","","","","5","","","","","","","","",""
"","","","","","single-stim-button","281","503093","0.0-2.0-68.7-0.7","5711110152ab8e0008d0dc05","F1","batch6","","528","tol_tohand","","","","tol_peg_2","528","528","0","[[2,0,0],[3,0],[0]]","8","[[2,1,0],[0,0],[3]]","19","0","","","","","","5","","","","","","","","",""
"","","","","","single-stim-button","282","503581","0.0-2.0-68.7-1.7","5711110152ab8e0008d0dc05","F1","batch6","","488","tol_toboard","","","","tol_peg_1","488","488","0","[[2,1,0],[3,0],[0]]","8","[[2,1,0],[0,0],[3]]","19","0","","","","","","5","","","","","","","","",""
"","","","","","single-stim-button","283","504133","0.0-2.0-68.8-0.8","5711110152ab8e0008d0dc05","F1","batch6","","552","tol_tohand","","","","tol_peg_2","552","552","0","[[2,1,0],[0,0],[0]]","9","[[2,1,0],[0,0],[3]]","19","0","","","","","","5","","","","","","","","",""
"","","","","","single-stim-button","284","504629","0.0-2.0-68.8-1.8","5711110152ab8e0008d0dc05","F1","batch6","","496","tol_toboard","","","","tol_peg_3","496","496","0","[[2,1,0],[0,0],[3]]","9","[[2,1,0],[0,0],[3]]","19","0","","","","","","5","","","","","","","","",""
"","","","","","poldrack-single-stim","285","505638","0.0-2.0-69.0","5711110152ab8e0008d0dc05","F1","batch6","","-1","tol_feedback","","","true","","1000","1000","500","","","","","","-1","none","true","2952","22134","","","","","","","","","",""
"","","","","","html-button-response","286","506357","0.0-2.0-70.0","5711110152ab8e0008d0dc05","F1","batch6","","717.7999999523163","tol_trial_num","<div class = centerbox><p class = center-block-text>problem <strong>21</strong> out of 25 problems</p></div>","0","","","","","","","","","","","","","","","","","","","","","","","","",""
"","","","","","single-stim-button","287","509925","0.0-2.0-71.0-0.0","5711110152ab8e0008d0dc05","F1","batch6","","3568","tol_tohand","","","","tol_peg_1","3568","3568","0","[[1,0,0],[3,0],[0]]","1","[[3,2,0],[0,0],[1]]","20","0","","","","","","6","","","","","","","","",""
"","","","","","single-stim-button","288","510949","0.0-2.0-71.0-1.0","5711110152ab8e0008d0dc05","F1","batch6","","1023","tol_toboard","","","","tol_peg_2","1023","1023","0","[[1,0,0],[3,2],[0]]","1","[[3,2,0],[0,0],[1]]","20","0","","","","","","6","","","","","","","","",""
"","","","","","single-stim-button","289","511461","0.0-2.0-71.1-0.1","5711110152ab8e0008d0dc05","F1","batch6","","512","tol_tohand","","","","tol_peg_1","512","512","0","[[0,0,0],[3,2],[0]]","2","[[3,2,0],[0,0],[1]]","20","0","","","","","","6","","","","","","","","",""
"","","","","","single-stim-button","290","512589","0.0-2.0-71.1-1.1","5711110152ab8e0008d0dc05","F1","batch6","","1128","tol_toboard","","","","tol_peg_3","1128","1128","0","[[0,0,0],[3,2],[1]]","2","[[3,2,0],[0,0],[1]]","20","0","","","","","","6","","","","","","","","",""
"","","","","","single-stim-button","291","519653","0.0-2.0-71.2-0.2","5711110152ab8e0008d0dc05","F1","batch6","","7064","tol_tohand","","","","tol_peg_2","7064","7064","0","[[0,0,0],[3,0],[1]]","3","[[3,2,0],[0,0],[1]]","20","0","","","","","","6","","","","","","","","",""
"","","","","","single-stim-button","292","520165","0.0-2.0-71.2-1.2","5711110152ab8e0008d0dc05","F1","batch6","","512","tol_toboard","","","","tol_peg_1","512","512","0","[[2,0,0],[3,0],[1]]","3","[[3,2,0],[0,0],[1]]","20","0","","","","","","6","","","","","","","","",""
"","","","","","single-stim-button","293","521317","0.0-2.0-71.3-0.3","5711110152ab8e0008d0dc05","F1","batch6","","1151","tol_tohand","","","","tol_peg_3","1151","1151","0","[[2,0,0],[3,0],[0]]","4","[[3,2,0],[0,0],[1]]","20","0","","","","","","6","","","","","","","","",""
"","","","","","single-stim-button","294","521773","0.0-2.0-71.3-1.3","5711110152ab8e0008d0dc05","F1","batch6","","456","tol_toboard","","","","tol_peg_2","456","456","0","[[2,0,0],[3,1],[0]]","4","[[3,2,0],[0,0],[1]]","20","0","","","","","","6","","","","","","","","",""
"","","","","","single-stim-button","295","522189","0.0-2.0-71.4-0.4","5711110152ab8e0008d0dc05","F1","batch6","","416","tol_tohand","","","","tol_peg_1","416","416","0","[[0,0,0],[3,1],[0]]","5","[[3,2,0],[0,0],[1]]","20","0","","","","","","6","","","","","","","","",""
"","","","","","single-stim-button","296","523213","0.0-2.0-71.4-1.4","5711110152ab8e0008d0dc05","F1","batch6","","1023","tol_toboard","","","","tol_peg_3","1023","1023","0","[[0,0,0],[3,1],[2]]","5","[[3,2,0],[0,0],[1]]","20","0","","","","","","6","","","","","","","","",""
"","","","","","single-stim-button","297","528661","0.0-2.0-71.5-0.5","5711110152ab8e0008d0dc05","F1","batch6","","5448","tol_tohand","","","","tol_peg_2","5448","5448","0","[[0,0,0],[3,0],[2]]","6","[[3,2,0],[0,0],[1]]","20","0","","","","","","6","","","","","","","","",""
"","","","","","single-stim-button","298","529253","0.0-2.0-71.5-1.5","5711110152ab8e0008d0dc05","F1","batch6","","592","tol_toboard","","","","tol_peg_1","592","592","0","[[1,0,0],[3,0],[2]]","6","[[3,2,0],[0,0],[1]]","20","0","","","","","","6","","","","","","","","",""
"","","","","","single-stim-button","299","529790","0.0-2.0-71.6-0.6","5711110152ab8e0008d0dc05","F1","batch6","","536","tol_tohand","","","","tol_peg_2","536","536","0","[[1,0,0],[0,0],[2]]","7","[[3,2,0],[0,0],[1]]","20","0","","","","","","6","","","","","","","","",""
"","","","","","single-stim-button","300","530341","0.0-2.0-71.6-1.6","5711110152ab8e0008d0dc05","F1","batch6","","551","tol_toboard","","","","tol_peg_1","551","551","0","[[1,3,0],[0,0],[2]]","7","[[3,2,0],[0,0],[1]]","20","0","","","","","","6","","","","","","","","",""
"","","","","","single-stim-button","301","532102","0.0-2.0-71.7-0.7","5711110152ab8e0008d0dc05","F1","batch6","","1759","tol_tohand","","","","tol_peg_3","1759","1759","0","[[1,3,0],[0,0],[0]]","8","[[3,2,0],[0,0],[1]]","20","0","","","","","","6","","","","","","","","",""
"","","","","","single-stim-button","302","532589","0.0-2.0-71.7-1.7","5711110152ab8e0008d0dc05","F1","batch6","","487","tol_toboard","","","","tol_peg_2","487","487","0","[[1,3,0],[2,0],[0]]","8","[[3,2,0],[0,0],[1]]","20","0","","","","","","6","","","","","","","","",""
"","","","","","single-stim-button","303","535061","0.0-2.0-71.8-0.8","5711110152ab8e0008d0dc05","F1","batch6","","2472","tol_tohand","","","","tol_peg_1","2472","2472","0","[[1,0,0],[2,0],[0]]","9","[[3,2,0],[0,0],[1]]","20","0","","","","","","6","","","","","","","","",""
"","","","","","single-stim-button","304","537901","0.0-2.0-71.8-1.8","5711110152ab8e0008d0dc05","F1","batch6","","2840","tol_toboard","","","","tol_peg_2","2840","2840","0","[[1,0,0],[2,3],[0]]","9","[[3,2,0],[0,0],[1]]","20","0","","","","","","6","","","","","","","","",""
"","","","","","single-stim-button","305","538542","0.0-2.0-71.9-0.9","5711110152ab8e0008d0dc05","F1","batch6","","640","tol_tohand","","","","tol_peg_1","640","640","0","[[0,0,0],[2,3],[0]]","10","[[3,2,0],[0,0],[1]]","20","0","","","","","","6","","","","","","","","",""
"","","","","","single-stim-button","306","539053","0.0-2.0-71.9-1.9","5711110152ab8e0008d0dc05","F1","batch6","","511","tol_toboard","","","","tol_peg_3","511","511","0","[[0,0,0],[2,3],[1]]","10","[[3,2,0],[0,0],[1]]","20","0","","","","","","6","","","","","","","","",""
"","","","","","single-stim-button","307","539493","0.0-2.0-71.10-0.10","5711110152ab8e0008d0dc05","F1","batch6","","440","tol_tohand","","","","tol_peg_2","440","440","0","[[0,0,0],[2,0],[1]]","11","[[3,2,0],[0,0],[1]]","20","0","","","","","","6","","","","","","","","",""
"","","","","","single-stim-button","308","539901","0.0-2.0-71.10-1.10","5711110152ab8e0008d0dc05","F1","batch6","","407","tol_toboard","","","","tol_peg_1","407","407","0","[[3,0,0],[2,0],[1]]","11","[[3,2,0],[0,0],[1]]","20","0","","","","","","6","","","","","","","","",""
"","","","","","single-stim-button","309","540270","0.0-2.0-71.11-0.11","5711110152ab8e0008d0dc05","F1","batch6","","368","tol_tohand","","","","tol_peg_2","368","368","0","[[3,0,0],[0,0],[1]]","12","[[3,2,0],[0,0],[1]]","20","0","","","","","","6","","","","","","","","",""
"","","","","","single-stim-button","310","540645","0.0-2.0-71.11-1.11","5711110152ab8e0008d0dc05","F1","batch6","","375","tol_toboard","","","","tol_peg_1","375","375","0","[[3,2,0],[0,0],[1]]","12","[[3,2,0],[0,0],[1]]","20","0","","","","","","6","","","","","","","","",""
"","","","","","poldrack-single-stim","311","541646","0.0-2.0-72.0","5711110152ab8e0008d0dc05","F1","batch6","","-1","tol_feedback","","","true","","1000","1000","500","","","","","","-1","none","true","3568","24374","","","","","","","","","",""
"","","","","","html-button-response","312","542101","0.0-2.0-73.0","5711110152ab8e0008d0dc05","F1","batch6","","453.39999997615814","tol_trial_num","<div class = centerbox><p class = center-block-text>problem <strong>22</strong> out of 25 problems</p></div>","0","","","","","","","","","","","","","","","","","","","","","","","","",""
"","","","","","single-stim-button","313","548246","0.0-2.0-74.0-0.0","5711110152ab8e0008d0dc05","F1","batch6","","6145","tol_tohand","","","","tol_peg_2","6145","6145","0","[[1,0,0],[2,0],[0]]","1","[[0,0,0],[1,2],[3]]","21","0","","","","","","6","","","","","","","","",""
"","","","","","single-stim-button","314","548717","0.0-2.0-74.0-1.0","5711110152ab8e0008d0dc05","F1","batch6","","471","tol_toboard","","","","tol_peg_1","471","471","0","[[1,3,0],[2,0],[0]]","1","[[0,0,0],[1,2],[3]]","21","0","","","","","","6","","","","","","","","",""
"","","","","","single-stim-button","315","549173","0.0-2.0-74.1-0.1","5711110152ab8e0008d0dc05","F1","batch6","","455","tol_tohand","","","","tol_peg_2","455","455","0","[[1,3,0],[0,0],[0]]","2","[[0,0,0],[1,2],[3]]","21","0","","","","","","6","","","","","","","","",""
"","","","","","single-stim-button","316","549629","0.0-2.0-74.1-1.1","5711110152ab8e0008d0dc05","F1","batch6","","456","tol_toboard","","","","tol_peg_3","456","456","0","[[1,3,0],[0,0],[2]]","2","[[0,0,0],[1,2],[3]]","21","0","","","","","","6","","","","","","","","",""
"","","","","","single-stim-button","317","551189","0.0-2.0-74.2-0.2","5711110152ab8e0008d0dc05","F1","batch6","","1560","tol_tohand","","","","tol_peg_1","1560","1560","0","[[1,0,0],[0,0],[2]]","3","[[0,0,0],[1,2],[3]]","21","0","","","","","","6","","","","","","","","",""
"","","","","","single-stim-button","318","560197","0.0-2.0-74.2-1.2","5711110152ab8e0008d0dc05","F1","batch6","","9008","tol_toboard","","","","tol_peg_2","9008","9008","0","[[1,0,0],[3,0],[2]]","3","[[0,0,0],[1,2],[3]]","21","0","","","","","","6","","","","","","","","",""
"","","","","","single-stim-button","319","561101","0.0-2.0-74.3-0.3","5711110152ab8e0008d0dc05","F1","batch6","","903","tol_tohand","","","","tol_peg_1","903","903","0","[[0,0,0],[3,0],[2]]","4","[[0,0,0],[1,2],[3]]","21","0","","","","","","6","","","","","","","","",""
"","","","","","single-stim-button","320","561557","0.0-2.0-74.3-1.3","5711110152ab8e0008d0dc05","F1","batch6","","456","tol_toboard","","","","tol_peg_2","456","456","0","[[0,0,0],[3,1],[2]]","4","[[0,0,0],[1,2],[3]]","21","0","","","","","","6","","","","","","","","",""
"","","","","","single-stim-button","321","561965","0.0-2.0-74.4-0.4","5711110152ab8e0008d0dc05","F1","batch6","","407","tol_tohand","","","","tol_peg_3","407","407","0","[[0,0,0],[3,1],[0]]","5","[[0,0,0],[1,2],[3]]","21","0","","","","","","6","","","","","","","","",""
"","","","","","single-stim-button","322","562493","0.0-2.0-74.4-1.4","5711110152ab8e0008d0dc05","F1","batch6","","527","tol_toboard","","","","tol_peg_1","527","527","0","[[2,0,0],[3,1],[0]]","5","[[0,0,0],[1,2],[3]]","21","0","","","","","","6","","","","","","","","",""
"","","","","","single-stim-button","323","564269","0.0-2.0-74.5-0.5","5711110152ab8e0008d0dc05","F1","batch6","","1776","tol_tohand","","","","tol_peg_2","1776","1776","0","[[2,0,0],[3,0],[0]]","6","[[0,0,0],[1,2],[3]]","21","0","","","","","","6","","","","","","","","",""
"","","","","","single-stim-button","324","568949","0.0-2.0-74.5-1.5","5711110152ab8e0008d0dc05","F1","batch6","","4679","tol_toboard","","","","tol_peg_2","4679","4679","0","[[2,0,0],[3,1],[0]]","6","[[0,0,0],[1,2],[3]]","21","0","","","","","","6","","","","","","","","",""
"","","","","","single-stim-button","325","571509","0.0-2.0-74.6-0.6","5711110152ab8e0008d0dc05","F1","batch6","","2560","tol_tohand","","","","tol_peg_1","2560","2560","0","[[0,0,0],[3,1],[0]]","7","[[0,0,0],[1,2],[3]]","21","0","","","","","","6","","","","","","","","",""
"","","","","","single-stim-button","326","572509","0.0-2.0-74.6-1.6","5711110152ab8e0008d0dc05","F1","batch6","","999","tol_toboard","","","","tol_peg_3","999","999","0","[[0,0,0],[3,1],[2]]","7","[[0,0,0],[1,2],[3]]","21","0","","","","","","6","","","","","","","","",""
"","","","","","single-stim-button","327","573469","0.0-2.0-74.7-0.7","5711110152ab8e0008d0dc05","F1","batch6","","960","tol_tohand","","","","tol_peg_2","960","960","0","[[0,0,0],[3,0],[2]]","8","[[0,0,0],[1,2],[3]]","21","0","","","","","","6","","","","","","","","",""
"","","","","","single-stim-button","328","577405","0.0-2.0-74.7-1.7","5711110152ab8e0008d0dc05","F1","batch6","","3936","tol_toboard","","","","tol_peg_1","3936","3936","0","[[1,0,0],[3,0],[2]]","8","[[0,0,0],[1,2],[3]]","21","0","","","","","","6","","","","","","","","",""
"","","","","","single-stim-button","329","578453","0.0-2.0-74.8-0.8","5711110152ab8e0008d0dc05","F1","batch6","","1047","tol_tohand","","","","tol_peg_2","1047","1047","0","[[1,0,0],[0,0],[2]]","9","[[0,0,0],[1,2],[3]]","21","0","","","","","","6","","","","","","","","",""
"","","","","","single-stim-button","330","584261","0.0-2.0-74.8-1.8","5711110152ab8e0008d0dc05","F1","batch6","","5807","tol_toboard","","","","tol_peg_2","5807","5807","0","[[1,0,0],[3,0],[2]]","9","[[0,0,0],[1,2],[3]]","21","0","","","","","","6","","","","","","","","",""
"","","","","","single-stim-button","331","584693","0.0-2.0-74.9-0.9","5711110152ab8e0008d0dc05","F1","batch6","","431","tol_tohand","","","","tol_peg_3","431","431","0","[[1,0,0],[3,0],[0]]","10","[[0,0,0],[1,2],[3]]","21","0","","","","","","6","","","","","","","","",""
"","","","","","single-stim-button","332","585213","0.0-2.0-74.9-1.9","5711110152ab8e0008d0dc05","F1","batch6","","519","tol_toboard","","","","tol_peg_1","519","519","0","[[1,2,0],[3,0],[0]]","10","[[0,0,0],[1,2],[3]]","21","0","","","","","","6","","","","","","","","",""
"","","","","","single-stim-button","333","585917","0.0-2.0-74.10-0.10","5711110152ab8e0008d0dc05","F1","batch6","","704","tol_tohand","","","","tol_peg_2","704","704","0","[[1,2,0],[0,0],[0]]","11","[[0,0,0],[1,2],[3]]","21","0","","","","","","6","","","","","","","","",""
"","","","","","single-stim-button","334","586549","0.0-2.0-74.10-1.10","5711110152ab8e0008d0dc05","F1","batch6","","632","tol_toboard","","","","tol_peg_3","632","632","0","[[1,2,0],[0,0],[3]]","11","[[0,0,0],[1,2],[3]]","21","0","","","","","","6","","","","","","","","",""
"","","","","","single-stim-button","335","588037","0.0-2.0-74.11-0.11","5711110152ab8e0008d0dc05","F1","batch6","","1488","tol_tohand","","","","tol_peg_1","1488","1488","0","[[1,0,0],[0,0],[3]]","12","[[0,0,0],[1,2],[3]]","21","0","","","","","","6","","","","","","","","",""
"","","","","","single-stim-button","336","589101","0.0-2.0-74.11-1.11","5711110152ab8e0008d0dc05","F1","batch6","","1064","tol_toboard","","","","tol_peg_2","1064","1064","0","[[1,0,0],[2,0],[3]]","12","[[0,0,0],[1,2],[3]]","21","0","","","","","","6","","","","","","","","",""
"","","","","","single-stim-button","337","589837","0.0-2.0-74.12-0.12","5711110152ab8e0008d0dc05","F1","batch6","","736","tol_tohand","","","","tol_peg_1","736","736","0","[[0,0,0],[2,0],[3]]","13","[[0,0,0],[1,2],[3]]","21","0","","","","","","6","","","","","","","","",""
"","","","","","single-stim-button","338","590341","0.0-2.0-74.12-1.12","5711110152ab8e0008d0dc05","F1","batch6","","503","tol_toboard","","","","tol_peg_2","503","503","0","[[0,0,0],[2,1],[3]]","13","[[0,0,0],[1,2],[3]]","21","0","","","","","","6","","","","","","","","",""
"","","","","","single-stim-button","339","590933","0.0-2.0-74.13-0.13","5711110152ab8e0008d0dc05","F1","batch6","","591","tol_tohand","","","","tol_peg_3","591","591","0","[[0,0,0],[2,1],[0]]","14","[[0,0,0],[1,2],[3]]","21","0","","","","","","6","","","","","","","","",""
"","","","","","single-stim-button","340","591685","0.0-2.0-74.13-1.13","5711110152ab8e0008d0dc05","F1","batch6","","751","tol_toboard","","","","tol_peg_1","751","751","0","[[3,0,0],[2,1],[0]]","14","[[0,0,0],[1,2],[3]]","21","0","","","","","","6","","","","","","","","",""
"","","","","","single-stim-button","341","592365","0.0-2.0-74.14-0.14","5711110152ab8e0008d0dc05","F1","batch6","","680","tol_tohand","","","","tol_peg_2","680","680","0","[[3,0,0],[2,0],[0]]","15","[[0,0,0],[1,2],[3]]","21","0","","","","","","6","","","","","","","","",""
"","","","","","single-stim-button","342","593773","0.0-2.0-74.14-1.14","5711110152ab8e0008d0dc05","F1","batch6","","1406","tol_toboard","","","","tol_peg_1","1406","1406","0","[[3,1,0],[2,0],[0]]","15","[[0,0,0],[1,2],[3]]","21","0","","","","","","6","","","","","","","","",""
"","","","","","single-stim-button","343","594478","0.0-2.0-74.15-0.15","5711110152ab8e0008d0dc05","F1","batch6","","704","tol_tohand","","","","tol_peg_2","704","704","0","[[3,1,0],[0,0],[0]]","16","[[0,0,0],[1,2],[3]]","21","0","","","","","","6","","","","","","","","",""
"","","","","","single-stim-button","344","595677","0.0-2.0-74.15-1.15","5711110152ab8e0008d0dc05","F1","batch6","","1199","tol_toboard","","","","tol_peg_3","1199","1199","0","[[3,1,0],[0,0],[2]]","16","[[0,0,0],[1,2],[3]]","21","0","","","","","","6","","","","","","","","",""
"","","","","","single-stim-button","345","596605","0.0-2.0-74.16-0.16","5711110152ab8e0008d0dc05","F1","batch6","","928","tol_tohand","","","","tol_peg_1","928","928","0","[[3,0,0],[0,0],[2]]","17","[[0,0,0],[1,2],[3]]","21","0","","","","","","6","","","","","","","","",""
"","","","","","single-stim-button","346","597069","0.0-2.0-74.16-1.16","5711110152ab8e0008d0dc05","F1","batch6","","463","tol_toboard","","","","tol_peg_2","463","463","0","[[3,0,0],[1,0],[2]]","17","[[0,0,0],[1,2],[3]]","21","0","","","","","","6","","","","","","","","",""
"","","","","","single-stim-button","347","597893","0.0-2.0-74.17-0.17","5711110152ab8e0008d0dc05","F1","batch6","","824","tol_tohand","","","","tol_peg_3","824","824","0","[[3,0,0],[1,0],[0]]","18","[[0,0,0],[1,2],[3]]","21","0","","","","","","6","","","","","","","","",""
"","","","","","single-stim-button","348","598493","0.0-2.0-74.17-1.17","5711110152ab8e0008d0dc05","F1","batch6","","599","tol_toboard","","","","tol_peg_2","599","599","0","[[3,0,0],[1,2],[0]]","18","[[0,0,0],[1,2],[3]]","21","0","","","","","","6","","","","","","","","",""
"","","","","","single-stim-button","349","599029","0.0-2.0-74.18-0.18","5711110152ab8e0008d0dc05","F1","batch6","","536","tol_tohand","","","","tol_peg_1","536","536","0","[[0,0,0],[1,2],[0]]","19","[[0,0,0],[1,2],[3]]","21","0","","","","","","6","","","","","","","","",""
"","","","","","single-stim-button","350","599493","0.0-2.0-74.18-1.18","5711110152ab8e0008d0dc05","F1","batch6","","463","tol_toboard","","","","tol_peg_3","463","463","0","[[0,0,0],[1,2],[3]]","19","[[0,0,0],[1,2],[3]]","21","0","","","","","","6","","","","","","","","",""
"","","","","","poldrack-single-stim","351","600497","0.0-2.0-75.0","5711110152ab8e0008d0dc05","F1","batch6","","-1","tol_feedback","","","true","","1000","1000","500","","","","","","-1","none","true","6145","23435","","","","","","","","","",""
"","","","","","html-button-response","352","601021","0.0-2.0-76.0","5711110152ab8e0008d0dc05","F1","batch6","","522.3999999761581","tol_trial_num","<div class = centerbox><p class = center-block-text>problem <strong>23</strong> out of 25 problems</p></div>","0","","","","","","","","","","","","","","","","","","","","","","","","",""
"","","","","","single-stim-button","353","605325","0.0-2.0-77.0-0.0","5711110152ab8e0008d0dc05","F1","batch6","","4303","tol_tohand","","","","tol_peg_1","4303","4303","0","[[1,0,0],[3,0],[0]]","1","[[1,3,2],[0,0],[0]]","22","0","","","","","","3","","","","","","","","",""
"","","","","","single-stim-button","354","607269","0.0-2.0-77.0-1.0","5711110152ab8e0008d0dc05","F1","batch6","","1943","tol_toboard","","","","tol_peg_3","1943","1943","0","[[1,0,0],[3,0],[2]]","1","[[1,3,2],[0,0],[0]]","22","0","","","","","","3","","","","","","","","",""
"","","","","","single-stim-button","355","607757","0.0-2.0-77.1-0.1","5711110152ab8e0008d0dc05","F1","batch6","","487","tol_tohand","","","","tol_peg_2","487","487","0","[[1,0,0],[0,0],[2]]","2","[[1,3,2],[0,0],[0]]","22","0","","","","","","3","","","","","","","","",""
