"success","timeout","failed_images","failed_audio","failed_video","trial_type","trial_index","time_elapsed","internal_node_id","subject_id","study_id","session_id","view_history","rt","task","stimulus","response","correct","mouse_click","stim_duration","block_duration","timing_post_trial","current_position","tol_num_moves_made","tol_target","tol_problem_id","tol_rt","key_press","possible_responses","tol_correct","preplanning","tol_rt_per_trial","tol_min_moves","answer","item","fiar_detect_rt","fiar_detect_correct","total_correct_fiar_detect","post_trial_gap","choices","spm_correct","spm_rt"
"true","false","[]","[]","[]","preload","0","21664","0.0-0.0","5731e4005b8b06000f7e36b3","C3","batch3","","","","","","","","","","","","","","","","","","","","","","","","","","","","","",""
"true","","","","","fullscreen","1","30114","0.0-1.0-0.0","5731e4005b8b06000f7e36b3","C3","batch3","","","","","","","","","","","","","","","","","","","","","","","","","","","","","",""
"true","","","","","fullscreen","2","32680","0.0-2.0-0.0","5731e4005b8b06000f7e36b3","C3","batch3","","","","","","","","","","","","","","","","","","","","","","","","","","","","","",""
"","","","","","instructions","3","92501","0.0-2.0-1.0-0.0-0.0","5731e4005b8b06000f7e36b3","C3","batch3","[{""page_index"":0,""viewing_time"":12427.5},{""page_index"":1,""viewing_time"":6148.799999952316},{""page_index"":2,""viewing_time"":4930.700000047684},{""page_index"":3,""viewing_time"":8279.399999976158},{""page_index"":4,""viewing_time"":12521.600000023842},{""page_index"":5,""viewing_time"":13083.600000023842},{""page_index"":6,""viewing_time"":2428}]","59819.799999952316","tol-instructions","","","","","","","","","","","","","","","","","","","","","","","","","","",""
"","","","","","html-button-response","4","93472","0.0-2.0-1.0-1.0-0.0","5731e4005b8b06000f7e36b3","C3","batch3","","969.7000000476837","tol_enter_quiz","<p class=block-text> Let's answer a few questions <br>","0","","","","","","","","","","","","","","","","","","","","","","","","",""
"","","","","","html-button-response","5","97577","0.0-2.0-1.0-1.0-1.0","5731e4005b8b06000f7e36b3","C3","batch3","","4104.700000047684","tol_quiz","<p class = block-text>True or False: You can only move the ball on top of a peg. <br></p>","0","true","","","","","","","","","","","","","","","","","","","","","","","",""
"","","","","","html-button-response","6","98570","0.0-2.0-1.0-1.0-2.0","5731e4005b8b06000f7e36b3","C3","batch3","","992.5","tol_quiz_feedback","<p class = block-text>Correct! You can only move the ball on top of a peg.</p>","0","","","","","","","","","","","","","","","","","","","","","","","","",""
"","","","","","html-button-response","7","101835","0.0-2.0-1.0-1.0-3.0","5731e4005b8b06000f7e36b3","C3","batch3","","3264.399999976158","tol_quiz","<p class = block-text>True or False: You should try to match your board with the target board with fewest moves possible. <br></p>","0","true","","","","","","","","","","","","","","","","","","","","","","","",""
"","","","","","html-button-response","8","102396","0.0-2.0-1.0-1.0-4.0","5731e4005b8b06000f7e36b3","C3","batch3","","559.8000000715256","tol_quiz_feedback","<p class = block-text>Correct! </p>","0","","","","","","","","","","","","","","","","","","","","","","","","",""
"","","","","","html-button-response","9","103617","0.0-2.0-2.0","5731e4005b8b06000f7e36b3","C3","batch3","","1220.1999999284744","","<p class=block-text> Now that you've understood the game, let's practice a few easier examples before we start!<br> <br>","0","","","","","","","","","","","","","","","","","","","","","","","","",""
"","","","","","single-stim-button","10","106805","0.0-2.0-3.0-0.0","5731e4005b8b06000f7e36b3","C3","batch3","","3187","tol_practice","","","","tol_peg_2","3187","3187","0","[[1,2,0],[0,0],[0]]","1","[[1,2,0],[0,0],[3]]","practice","3187","","","","","","","","","","","","","","",""
"","","","","","single-stim-button","11","108784","0.0-2.0-3.0-1.0","5731e4005b8b06000f7e36b3","C3","batch3","","1979","tol_practice","","","","tol_peg_3","1979","1979","0","[[1,2,0],[0,0],[3]]","1","[[1,2,0],[0,0],[3]]","practice","1979","","","","","","","","","","","","","","",""
"","","","","","poldrack-single-stim","12","109786","0.0-2.0-4.0","5731e4005b8b06000f7e36b3","C3","batch3","","-1","tol_feedback","","","true","","1000","1000","500","","","","","","-1","none","true","","0","","","","","","","","","",""
"","","","","","single-stim-button","13","113364","0.0-2.0-5.0-0.0","5731e4005b8b06000f7e36b3","C3","batch3","","3578","tol_practice","","","","tol_peg_1","3578","3578","0","[[1,0,0],[3,0],[0]]","2","[[0,0,0],[3,1],[2]]","practice","3578","","","","","","","","","","","","","","",""
"","","","","","single-stim-button","14","115044","0.0-2.0-5.0-1.0","5731e4005b8b06000f7e36b3","C3","batch3","","1680","tol_practice","","","","tol_peg_3","1680","1680","0","[[1,0,0],[3,0],[2]]","2","[[0,0,0],[3,1],[2]]","practice","1680","","","","","","","","","","","","","","",""
"","","","","","single-stim-button","15","115721","0.0-2.0-5.1-0.1","5731e4005b8b06000f7e36b3","C3","batch3","","676","tol_practice","","","","tol_peg_1","676","676","0","[[0,0,0],[3,0],[2]]","3","[[0,0,0],[3,1],[2]]","practice","676","","","","","","","","","","","","","","",""
"","","","","","single-stim-button","16","116409","0.0-2.0-5.1-1.1","5731e4005b8b06000f7e36b3","C3","batch3","","688","tol_practice","","","","tol_peg_2","688","688","0","[[0,0,0],[3,1],[2]]","3","[[0,0,0],[3,1],[2]]","practice","688","","","","","","","","","","","","","","",""
"","","","","","poldrack-single-stim","17","117410","0.0-2.0-6.0","5731e4005b8b06000f7e36b3","C3","batch3","","-1","tol_feedback","","","true","","1000","1000","500","","","","","","-1","none","true","","0","","","","","","","","","",""
"","","","","","single-stim-button","18","120324","0.0-2.0-7.0-0.0","5731e4005b8b06000f7e36b3","C3","batch3","","2914","tol_practice","","","","tol_peg_2","2914","2914","0","[[1,2,0],[0,0],[0]]","4","[[1,0,0],[2,0],[3]]","practice","2914","","","","","","","","","","","","","","",""
"","","","","","single-stim-button","19","120892","0.0-2.0-7.0-1.0","5731e4005b8b06000f7e36b3","C3","batch3","","568","tol_practice","","","","tol_peg_3","568","568","0","[[1,2,0],[0,0],[3]]","4","[[1,0,0],[2,0],[3]]","practice","568","","","","","","","","","","","","","","",""
"","","","","","single-stim-button","20","121542","0.0-2.0-7.1-0.1","5731e4005b8b06000f7e36b3","C3","batch3","","650","tol_practice","","","","tol_peg_1","650","650","0","[[1,0,0],[0,0],[3]]","5","[[1,0,0],[2,0],[3]]","practice","650","","","","","","","","","","","","","","",""
"","","","","","single-stim-button","21","122279","0.0-2.0-7.1-1.1","5731e4005b8b06000f7e36b3","C3","batch3","","736","tol_practice","","","","tol_peg_2","736","736","0","[[1,0,0],[2,0],[3]]","5","[[1,0,0],[2,0],[3]]","practice","736","","","","","","","","","","","","","","",""
"","","","","","poldrack-single-stim","22","123280","0.0-2.0-8.0","5731e4005b8b06000f7e36b3","C3","batch3","","-1","tol_feedback","","","true","","1000","1000","500","","","","","","-1","none","true","","0","","","","","","","","","",""
"","","","","","html-button-response","23","125164","0.0-2.0-9.0","5731e4005b8b06000f7e36b3","C3","batch3","","1883.7000000476837","tol_instruction","<div class = centerbox><p class = center-block-text>Great job! You are done with practice trials<br>You are about to start official trials.<br> <br> Problem <strong>1</strong> out of 25 problems</p></div>","0","","","","","","","","","","","","","","","","","","","","","","","","",""
"","","","","","single-stim-button","24","133421","0.0-2.0-10.0-0.0","5731e4005b8b06000f7e36b3","C3","batch3","","7255","tol_tohand","","","","tol_peg_2","7255","7255","0","[[1,2,0],[0,0],[0]]","1","[[1,3,0],[2,0],[0]]","0","0","","","","","","3","","","","","","","","",""
"","","","","","single-stim-button","25","134308","0.0-2.0-10.0-1.0","5731e4005b8b06000f7e36b3","C3","batch3","","887","tol_toboard","","","","tol_peg_3","887","887","0","[[1,2,0],[0,0],[3]]","1","[[1,3,0],[2,0],[0]]","0","0","","","","","","3","","","","","","","","",""
"","","","","","single-stim-button","26","134927","0.0-2.0-10.1-0.1","5731e4005b8b06000f7e36b3","C3","batch3","","618","tol_tohand","","","","tol_peg_1","618","618","0","[[1,0,0],[0,0],[3]]","2","[[1,3,0],[2,0],[0]]","0","0","","","","","","3","","","","","","","","",""
"","","","","","single-stim-button","27","136267","0.0-2.0-10.1-1.1","5731e4005b8b06000f7e36b3","C3","batch3","","1339","tol_toboard","","","","tol_peg_2","1339","1339","0","[[1,0,0],[2,0],[3]]","2","[[1,3,0],[2,0],[0]]","0","0","","","","","","3","","","","","","","","",""
"","","","","","single-stim-button","28","136997","0.0-2.0-10.2-0.2","5731e4005b8b06000f7e36b3","C3","batch3","","730","tol_tohand","","","","tol_peg_3","730","730","0","[[1,0,0],[2,0],[0]]","3","[[1,3,0],[2,0],[0]]","0","0","","","","","","3","","","","","","","","",""
"","","","","","single-stim-button","29","137548","0.0-2.0-10.2-1.2","5731e4005b8b06000f7e36b3","C3","batch3","","550","tol_toboard","","","","tol_peg_1","550","550","0","[[1,3,0],[2,0],[0]]","3","[[1,3,0],[2,0],[0]]","0","0","","","","","","3","","","","","","","","",""
"","","","","","poldrack-single-stim","30","138549","0.0-2.0-11.0","5731e4005b8b06000f7e36b3","C3","batch3","","-1","tol_feedback","","","true","","1000","1000","500","","","","","","-1","none","true","7255","8603","","","","","","","","","",""
"","","","","","html-button-response","31","139676","0.0-2.0-12.0","5731e4005b8b06000f7e36b3","C3","batch3","","1125.7999999523163","tol_trial_num","<div class = centerbox><p class = center-block-text>problem <strong>2</strong> out of 25 problems</p></div>","0","","","","","","","","","","","","","","","","","","","","","","","","",""
"","","","","","single-stim-button","32","150423","0.0-2.0-13.0-0.0","5731e4005b8b06000f7e36b3","C3","batch3","","10747","tol_tohand","","","","tol_peg_1","10747","10747","0","[[1,0,0],[3,0],[0]]","1","[[2,1,3],[0,0],[0]]","1","0","","","","","","5","","","","","","","","",""
"","","","","","single-stim-button","33","152385","0.0-2.0-13.0-1.0","5731e4005b8b06000f7e36b3","C3","batch3","","1962","tol_toboard","","","","tol_peg_3","1962","1962","0","[[1,0,0],[3,0],[2]]","1","[[2,1,3],[0,0],[0]]","1","0","","","","","","5","","","","","","","","",""
"","","","","","single-stim-button","34","153040","0.0-2.0-13.1-0.1","5731e4005b8b06000f7e36b3","C3","batch3","","655","tol_tohand","","","","tol_peg_1","655","655","0","[[0,0,0],[3,0],[2]]","2","[[2,1,3],[0,0],[0]]","1","0","","","","","","5","","","","","","","","",""
"","","","","","single-stim-button","35","154115","0.0-2.0-13.1-1.1","5731e4005b8b06000f7e36b3","C3","batch3","","1075","tol_toboard","","","","tol_peg_2","1075","1075","0","[[0,0,0],[3,1],[2]]","2","[[2,1,3],[0,0],[0]]","1","0","","","","","","5","","","","","","","","",""
"","","","","","single-stim-button","36","154756","0.0-2.0-13.2-0.2","5731e4005b8b06000f7e36b3","C3","batch3","","641","tol_tohand","","","","tol_peg_3","641","641","0","[[0,0,0],[3,1],[0]]","3","[[2,1,3],[0,0],[0]]","1","0","","","","","","5","","","","","","","","",""
"","","","","","single-stim-button","37","155602","0.0-2.0-13.2-1.2","5731e4005b8b06000f7e36b3","C3","batch3","","845","tol_toboard","","","","tol_peg_1","845","845","0","[[2,0,0],[3,1],[0]]","3","[[2,1,3],[0,0],[0]]","1","0","","","","","","5","","","","","","","","",""
"","","","","","single-stim-button","38","156177","0.0-2.0-13.3-0.3","5731e4005b8b06000f7e36b3","C3","batch3","","574","tol_tohand","","","","tol_peg_2","574","574","0","[[2,0,0],[3,0],[0]]","4","[[2,1,3],[0,0],[0]]","1","0","","","","","","5","","","","","","","","",""
"","","","","","single-stim-button","39","157016","0.0-2.0-13.3-1.3","5731e4005b8b06000f7e36b3","C3","batch3","","839","tol_toboard","","","","tol_peg_1","839","839","0","[[2,1,0],[3,0],[0]]","4","[[2,1,3],[0,0],[0]]","1","0","","","","","","5","","","","","","","","",""
"","","","","","single-stim-button","40","157658","0.0-2.0-13.4-0.4","5731e4005b8b06000f7e36b3","C3","batch3","","641","tol_tohand","","","","tol_peg_2","641","641","0","[[2,1,0],[0,0],[0]]","5","[[2,1,3],[0,0],[0]]","1","0","","","","","","5","","","","","","","","",""
"","","","","","single-stim-button","41","158113","0.0-2.0-13.4-1.4","5731e4005b8b06000f7e36b3","C3","batch3","","455","tol_toboard","","","","tol_peg_1","455","455","0","[[2,1,3],[0,0],[0]]","5","[[2,1,3],[0,0],[0]]","1","0","","","","","","5","","","","","","","","",""
"","","","","","poldrack-single-stim","42","159123","0.0-2.0-14.0","5731e4005b8b06000f7e36b3","C3","batch3","","-1","tol_feedback","","","true","","1000","1000","500","","","","","","-1","none","true","10747","13258","","","","","","","","","",""
"","","","","","html-button-response","43","159928","0.0-2.0-15.0","5731e4005b8b06000f7e36b3","C3","batch3","","804.8000000715256","tol_trial_num","<div class = centerbox><p class = center-block-text>problem <strong>3</strong> out of 25 problems</p></div>","0","","","","","","","","","","","","","","","","","","","","","","","","",""
"","","","","","single-stim-button","44","165008","0.0-2.0-16.0-0.0","5731e4005b8b06000f7e36b3","C3","batch3","","5079","tol_tohand","","","","tol_peg_1","5079","5079","0","[[2,0,0],[0,0],[1]]","1","[[1,2,0],[3,0],[0]]","2","0","","","","","","4","","","","","","","","",""
"","","","","","single-stim-button","45","165763","0.0-2.0-16.0-1.0","5731e4005b8b06000f7e36b3","C3","batch3","","755","tol_toboard","","","","tol_peg_2","755","755","0","[[2,0,0],[3,0],[1]]","1","[[1,2,0],[3,0],[0]]","2","0","","","","","","4","","","","","","","","",""
"","","","","","single-stim-button","46","167740","0.0-2.0-16.1-0.1","5731e4005b8b06000f7e36b3","C3","batch3","","1977","tol_tohand","","","","tol_peg_1","1977","1977","0","[[0,0,0],[3,0],[1]]","2","[[1,2,0],[3,0],[0]]","2","0","","","","","","4","","","","","","","","",""
"","","","","","single-stim-button","47","168945","0.0-2.0-16.1-1.1","5731e4005b8b06000f7e36b3","C3","batch3","","1205","tol_toboard","","","","tol_peg_2","1205","1205","0","[[0,0,0],[3,2],[1]]","2","[[1,2,0],[3,0],[0]]","2","0","","","","","","4","","","","","","","","",""
"","","","","","single-stim-button","48","169522","0.0-2.0-16.2-0.2","5731e4005b8b06000f7e36b3","C3","batch3","","576","tol_tohand","","","","tol_peg_3","576","576","0","[[0,0,0],[3,2],[0]]","3","[[1,2,0],[3,0],[0]]","2","0","","","","","","4","","","","","","","","",""
"","","","","","single-stim-button","49","170269","0.0-2.0-16.2-1.2","5731e4005b8b06000f7e36b3","C3","batch3","","747","tol_toboard","","","","tol_peg_1","747","747","0","[[1,0,0],[3,2],[0]]","3","[[1,2,0],[3,0],[0]]","2","0","","","","","","4","","","","","","","","",""
"","","","","","single-stim-button","50","170784","0.0-2.0-16.3-0.3","5731e4005b8b06000f7e36b3","C3","batch3","","515","tol_tohand","","","","tol_peg_2","515","515","0","[[1,0,0],[3,0],[0]]","4","[[1,2,0],[3,0],[0]]","2","0","","","","","","4","","","","","","","","",""
"","","","","","single-stim-button","51","171287","0.0-2.0-16.3-1.3","5731e4005b8b06000f7e36b3","C3","batch3","","503","tol_toboard","","","","tol_peg_1","503","503","0","[[1,2,0],[3,0],[0]]","4","[[1,2,0],[3,0],[0]]","2","0","","","","","","4","","","","","","","","",""
"","","","","","poldrack-single-stim","52","172289","0.0-2.0-17.0","5731e4005b8b06000f7e36b3","C3","batch3","","-1","tol_feedback","","","true","","1000","1000","500","","","","","","-1","none","true","5079","8147","","","","","","","","","",""
"","","","","","html-button-response","53","173100","0.0-2.0-18.0","5731e4005b8b06000f7e36b3","C3","batch3","","811.1000000238419","tol_trial_num","<div class = centerbox><p class = center-block-text>problem <strong>4</strong> out of 25 problems</p></div>","0","","","","","","","","","","","","","","","","","","","","","","","","",""
"","","","","","single-stim-button","54","179062","0.0-2.0-19.0-0.0","5731e4005b8b06000f7e36b3","C3","batch3","","5961","tol_tohand","","","","tol_peg_2","5961","5961","0","[[3,0,0],[2,0],[0]]","1","[[3,0,0],[1,0],[2]]","3","0","","","","","","3","","","","","","","","",""
"","","","","","single-stim-button","55","179802","0.0-2.0-19.0-1.0","5731e4005b8b06000f7e36b3","C3","batch3","","740","tol_toboard","","","","tol_peg_1","740","740","0","[[3,1,0],[2,0],[0]]","1","[[3,0,0],[1,0],[2]]","3","0","","","","","","3","","","","","","","","",""
"","","","","","single-stim-button","56","180341","0.0-2.0-19.1-0.1","5731e4005b8b06000f7e36b3","C3","batch3","","539","tol_tohand","","","","tol_peg_2","539","539","0","[[3,1,0],[0,0],[0]]","2","[[3,0,0],[1,0],[2]]","3","0","","","","","","3","","","","","","","","",""
"","","","","","single-stim-button","57","180890","0.0-2.0-19.1-1.1","5731e4005b8b06000f7e36b3","C3","batch3","","549","tol_toboard","","","","tol_peg_3","549","549","0","[[3,1,0],[0,0],[2]]","2","[[3,0,0],[1,0],[2]]","3","0","","","","","","3","","","","","","","","",""
"","","","","","single-stim-button","58","181441","0.0-2.0-19.2-0.2","5731e4005b8b06000f7e36b3","C3","batch3","","551","tol_tohand","","","","tol_peg_1","551","551","0","[[3,0,0],[0,0],[2]]","3","[[3,0,0],[1,0],[2]]","3","0","","","","","","3","","","","","","","","",""
"","","","","","single-stim-button","59","182056","0.0-2.0-19.2-1.2","5731e4005b8b06000f7e36b3","C3","batch3","","615","tol_toboard","","","","tol_peg_2","615","615","0","[[3,0,0],[1,0],[2]]","3","[[3,0,0],[1,0],[2]]","3","0","","","","","","3","","","","","","","","",""
"","","","","","poldrack-single-stim","60","183057","0.0-2.0-20.0","5731e4005b8b06000f7e36b3","C3","batch3","","-1","tol_feedback","","","true","","1000","1000","500","","","","","","-1","none","true","5961","7051","","","","","","","","","",""
"","","","","","html-button-response","61","183765","0.0-2.0-21.0","5731e4005b8b06000f7e36b3","C3","batch3","","707.0999999046326","tol_trial_num","<div class = centerbox><p class = center-block-text>problem <strong>5</strong> out of 25 problems</p></div>","0","","","","","","","","","","","","","","","","","","","","","","","","",""
"","","","","","single-stim-button","62","210383","0.0-2.0-22.0-0.0","5731e4005b8b06000f7e36b3","C3","batch3","","26618","tol_tohand","","","","tol_peg_3","26618","26618","0","[[1,0,0],[2,0],[0]]","1","[[0,0,0],[1,2],[3]]","4","0","","","","","","7","","","","","","","","",""
"","","","","","single-stim-button","63","212075","0.0-2.0-22.0-1.0","5731e4005b8b06000f7e36b3","C3","batch3","","1692","tol_toboard","","","","tol_peg_1","1692","1692","0","[[1,3,0],[2,0],[0]]","1","[[0,0,0],[1,2],[3]]","4","0","","","","","","7","","","","","","","","",""
"","","","","","single-stim-button","64","212778","0.0-2.0-22.1-0.1","5731e4005b8b06000f7e36b3","C3","batch3","","703","tol_tohand","","","","tol_peg_2","703","703","0","[[1,3,0],[0,0],[0]]","2","[[0,0,0],[1,2],[3]]","4","0","","","","","","7","","","","","","","","",""
"","","","","","single-stim-button","65","213526","0.0-2.0-22.1-1.1","5731e4005b8b06000f7e36b3","C3","batch3","","748","tol_toboard","","","","tol_peg_3","748","748","0","[[1,3,0],[0,0],[2]]","2","[[0,0,0],[1,2],[3]]","4","0","","","","","","7","","","","","","","","",""
"","","","","","single-stim-button","66","216547","0.0-2.0-22.2-0.2","5731e4005b8b06000f7e36b3","C3","batch3","","3020","tol_tohand","","","","tol_peg_1","3020","3020","0","[[1,0,0],[0,0],[2]]","3","[[0,0,0],[1,2],[3]]","4","0","","","","","","7","","","","","","","","",""
"","","","","","single-stim-button","67","218633","0.0-2.0-22.2-1.2","5731e4005b8b06000f7e36b3","C3","batch3","","2086","tol_toboard","","","","tol_peg_2","2086","2086","0","[[1,0,0],[3,0],[2]]","3","[[0,0,0],[1,2],[3]]","4","0","","","","","","7","","","","","","","","",""
"","","","","","single-stim-button","68","219736","0.0-2.0-22.3-0.3","5731e4005b8b06000f7e36b3","C3","batch3","","1102","tol_tohand","","","","tol_peg_1","1102","1102","0","[[0,0,0],[3,0],[2]]","4","[[0,0,0],[1,2],[3]]","4","0","","","","","","7","","","","","","","","",""
"","","","","","single-stim-button","69","220563","0.0-2.0-22.3-1.3","5731e4005b8b06000f7e36b3","C3","batch3","","827","tol_toboard","","","","tol_peg_2","827","827","0","[[0,0,0],[3,1],[2]]","4","[[0,0,0],[1,2],[3]]","4","0","","","","","","7","","","","","","","","",""
"","","","","","single-stim-button","70","221533","0.0-2.0-22.4-0.4","5731e4005b8b06000f7e36b3","C3","batch3","","970","tol_tohand","","","","tol_peg_3","970","970","0","[[0,0,0],[3,1],[0]]","5","[[0,0,0],[1,2],[3]]","4","0","","","","","","7","","","","","","","","",""
"","","","","","single-stim-button","71","224278","0.0-2.0-22.4-1.4","5731e4005b8b06000f7e36b3","C3","batch3","","2745","tol_toboard","","","","tol_peg_3","2745","2745","0","[[0,0,0],[3,1],[2]]","5","[[0,0,0],[1,2],[3]]","4","0","","","","","","7","","","","","","","","",""
"","","","","","single-stim-button","72","225083","0.0-2.0-22.5-0.5","5731e4005b8b06000f7e36b3","C3","batch3","","805","tol_tohand","","","","tol_peg_2","805","805","0","[[0,0,0],[3,0],[2]]","6","[[0,0,0],[1,2],[3]]","4","0","","","","","","7","","","","","","","","",""
"","","","","","single-stim-button","73","225716","0.0-2.0-22.5-1.5","5731e4005b8b06000f7e36b3","C3","batch3","","633","tol_toboard","","","","tol_peg_1","633","633","0","[[1,0,0],[3,0],[2]]","6","[[0,0,0],[1,2],[3]]","4","0","","","","","","7","","","","","","","","",""
"","","","","","single-stim-button","74","226270","0.0-2.0-22.6-0.6","5731e4005b8b06000f7e36b3","C3","batch3","","554","tol_tohand","","","","tol_peg_3","554","554","0","[[1,0,0],[3,0],[0]]","7","[[0,0,0],[1,2],[3]]","4","0","","","","","","7","","","","","","","","",""
"","","","","","single-stim-button","75","227011","0.0-2.0-22.6-1.6","5731e4005b8b06000f7e36b3","C3","batch3","","741","tol_toboard","","","","tol_peg_1","741","741","0","[[1,2,0],[3,0],[0]]","7","[[0,0,0],[1,2],[3]]","4","0","","","","","","7","","","","","","","","",""
"","","","","","single-stim-button","76","227492","0.0-2.0-22.7-0.7","5731e4005b8b06000f7e36b3","C3","batch3","","479","tol_tohand","","","","tol_peg_2","479","479","0","[[1,2,0],[0,0],[0]]","8","[[0,0,0],[1,2],[3]]","4","0","","","","","","7","","","","","","","","",""
"","","","","","single-stim-button","77","228126","0.0-2.0-22.7-1.7","5731e4005b8b06000f7e36b3","C3","batch3","","634","tol_toboard","","","","tol_peg_3","634","634","0","[[1,2,0],[0,0],[3]]","8","[[0,0,0],[1,2],[3]]","4","0","","","","","","7","","","","","","","","",""
"","","","","","single-stim-button","78","233589","0.0-2.0-22.8-0.8","5731e4005b8b06000f7e36b3","C3","batch3","","5463","tol_tohand","","","","tol_peg_1","5463","5463","0","[[1,0,0],[0,0],[3]]","9","[[0,0,0],[1,2],[3]]","4","0","","","","","","7","","","","","","","","",""
"","","","","","single-stim-button","79","236906","0.0-2.0-22.8-1.8","5731e4005b8b06000f7e36b3","C3","batch3","","3315","tol_toboard","","","","tol_peg_1","3315","3315","0","[[1,2,0],[0,0],[3]]","9","[[0,0,0],[1,2],[3]]","4","0","","","","","","7","","","","","","","","",""
"","","","","","single-stim-button","80","238393","0.0-2.0-22.9-0.9","5731e4005b8b06000f7e36b3","C3","batch3","","1487","tol_tohand","","","","tol_peg_3","1487","1487","0","[[1,2,0],[0,0],[0]]","10","[[0,0,0],[1,2],[3]]","4","0","","","","","","7","","","","","","","","",""
"","","","","","single-stim-button","81","239579","0.0-2.0-22.9-1.9","5731e4005b8b06000f7e36b3","C3","batch3","","1186","tol_toboard","","","","tol_peg_2","1186","1186","0","[[1,2,0],[3,0],[0]]","10","[[0,0,0],[1,2],[3]]","4","0","","","","","","7","","","","","","","","",""
"","","","","","single-stim-button","82","240299","0.0-2.0-22.10-0.10","5731e4005b8b06000f7e36b3","C3","batch3","","718","tol_tohand","","","","tol_peg_1","718","718","0","[[1,0,0],[3,0],[0]]","11","[[0,0,0],[1,2],[3]]","4","0","","","","","","7","","","","","","","","",""
"","","","","","single-stim-button","83","243506","0.0-2.0-22.10-1.10","5731e4005b8b06000f7e36b3","C3","batch3","","3207","tol_toboard","","","","tol_peg_2","3207","3207","0","[[1,0,0],[3,2],[0]]","11","[[0,0,0],[1,2],[3]]","4","0","","","","","","7","","","","","","","","",""
"","","","","","single-stim-button","84","244494","0.0-2.0-22.11-0.11","5731e4005b8b06000f7e36b3","C3","batch3","","986","tol_tohand","","","","tol_peg_1","986","986","0","[[0,0,0],[3,2],[0]]","12","[[0,0,0],[1,2],[3]]","4","0","","","","","","7","","","","","","","","",""
"","","","","","single-stim-button","85","245061","0.0-2.0-22.11-1.11","5731e4005b8b06000f7e36b3","C3","batch3","","567","tol_toboard","","","","tol_peg_3","567","567","0","[[0,0,0],[3,2],[1]]","12","[[0,0,0],[1,2],[3]]","4","0","","","","","","7","","","","","","","","",""
"","","","","","single-stim-button","86","245459","0.0-2.0-22.12-0.12","5731e4005b8b06000f7e36b3","C3","batch3","","397","tol_tohand","","","","tol_peg_2","397","397","0","[[0,0,0],[3,0],[1]]","13","[[0,0,0],[1,2],[3]]","4","0","","","","","","7","","","","","","","","",""
"","","","","","single-stim-button","87","246052","0.0-2.0-22.12-1.12","5731e4005b8b06000f7e36b3","C3","batch3","","593","tol_toboard","","","","tol_peg_1","593","593","0","[[2,0,0],[3,0],[1]]","13","[[0,0,0],[1,2],[3]]","4","0","","","","","","7","","","","","","","","",""
"","","","","","single-stim-button","88","246537","0.0-2.0-22.13-0.13","5731e4005b8b06000f7e36b3","C3","batch3","","483","tol_tohand","","","","tol_peg_2","483","483","0","[[2,0,0],[0,0],[1]]","14","[[0,0,0],[1,2],[3]]","4","0","","","","","","7","","","","","","","","",""
"","","","","","single-stim-button","89","247175","0.0-2.0-22.13-1.13","5731e4005b8b06000f7e36b3","C3","batch3","","638","tol_toboard","","","","tol_peg_1","638","638","0","[[2,3,0],[0,0],[1]]","14","[[0,0,0],[1,2],[3]]","4","0","","","","","","7","","","","","","","","",""
"","","","","","single-stim-button","90","247692","0.0-2.0-22.14-0.14","5731e4005b8b06000f7e36b3","C3","batch3","","517","tol_tohand","","","","tol_peg_3","517","517","0","[[2,3,0],[0,0],[0]]","15","[[0,0,0],[1,2],[3]]","4","0","","","","","","7","","","","","","","","",""
"","","","","","single-stim-button","91","248921","0.0-2.0-22.14-1.14","5731e4005b8b06000f7e36b3","C3","batch3","","1228","tol_toboard","","","","tol_peg_2","1228","1228","0","[[2,3,0],[1,0],[0]]","15","[[0,0,0],[1,2],[3]]","4","0","","","","","","7","","","","","","","","",""
"","","","","","single-stim-button","92","249411","0.0-2.0-22.15-0.15","5731e4005b8b06000f7e36b3","C3","batch3","","490","tol_tohand","","","","tol_peg_1","490","490","0","[[2,0,0],[1,0],[0]]","16","[[0,0,0],[1,2],[3]]","4","0","","","","","","7","","","","","","","","",""
"","","","","","single-stim-button","93","250095","0.0-2.0-22.15-1.15","5731e4005b8b06000f7e36b3","C3","batch3","","684","tol_toboard","","","","tol_peg_3","684","684","0","[[2,0,0],[1,0],[3]]","16","[[0,0,0],[1,2],[3]]","4","0","","","","","","7","","","","","","","","",""
"","","","","","single-stim-button","94","250707","0.0-2.0-22.16-0.16","5731e4005b8b06000f7e36b3","C3","batch3","","611","tol_tohand","","","","tol_peg_1","611","611","0","[[0,0,0],[1,0],[3]]","17","[[0,0,0],[1,2],[3]]","4","0","","","","","","7","","","","","","","","",""
"","","","","","single-stim-button","95","251216","0.0-2.0-22.16-1.16","5731e4005b8b06000f7e36b3","C3","batch3","","508","tol_toboard","","","","tol_peg_2","508","508","0","[[0,0,0],[1,2],[3]]","17","[[0,0,0],[1,2],[3]]","4","0","","","","","","7","","","","","","","","",""
"","","","","","poldrack-single-stim","96","252220","0.0-2.0-23.0","5731e4005b8b06000f7e36b3","C3","batch3","","-1","tol_feedback","","","true","","1000","1000","500","","","","","","-1","none","true","26618","45403","","","","","","","","","",""
"","","","","","html-button-response","97","253032","0.0-2.0-24.0","5731e4005b8b06000f7e36b3","C3","batch3","","811.7000000476837","tol_trial_num","<div class = centerbox><p class = center-block-text>problem <strong>6</strong> out of 25 problems</p></div>","0","","","","","","","","","","","","","","","","","","","","","","","","",""
"","","","","","single-stim-button","98","277762","0.0-2.0-25.0-0.0","5731e4005b8b06000f7e36b3","C3","batch3","","24729","tol_tohand","","","","tol_peg_2","24729","24729","0","[[0,0,0],[1,0],[3]]","1","[[1,0,0],[2,3],[0]]","5","0","","","","","","6","","","","","","","","",""
"","","","","","single-stim-button","99","278238","0.0-2.0-25.0-1.0","5731e4005b8b06000f7e36b3","C3","batch3","","474","tol_toboard","","","","tol_peg_1","474","474","0","[[2,0,0],[1,0],[3]]","1","[[1,0,0],[2,3],[0]]","5","0","","","","","","6","","","","","","","","",""
"","","","","","single-stim-button","100","278684","0.0-2.0-25.1-0.1","5731e4005b8b06000f7e36b3","C3","batch3","","446","tol_tohand","","","","tol_peg_2","446","446","0","[[2,0,0],[0,0],[3]]","2","[[1,0,0],[2,3],[0]]","5","0","","","","","","6","","","","","","","","",""
"","","","","","single-stim-button","101","279131","0.0-2.0-25.1-1.1","5731e4005b8b06000f7e36b3","C3","batch3","","447","tol_toboard","","","","tol_peg_1","447","447","0","[[2,1,0],[0,0],[3]]","2","[[1,0,0],[2,3],[0]]","5","0","","","","","","6","","","","","","","","",""
"","","","","","single-stim-button","102","279645","0.0-2.0-25.2-0.2","5731e4005b8b06000f7e36b3","C3","batch3","","514","tol_tohand","","","","tol_peg_3","514","514","0","[[2,1,0],[0,0],[0]]","3","[[1,0,0],[2,3],[0]]","5","0","","","","","","6","","","","","","","","",""
"","","","","","single-stim-button","103","280512","0.0-2.0-25.2-1.2","5731e4005b8b06000f7e36b3","C3","batch3","","866","tol_toboard","","","","tol_peg_2","866","866","0","[[2,1,0],[3,0],[0]]","3","[[1,0,0],[2,3],[0]]","5","0","","","","","","6","","","","","","","","",""
"","","","","","single-stim-button","104","281403","0.0-2.0-25.3-0.3","5731e4005b8b06000f7e36b3","C3","batch3","","890","tol_tohand","","","","tol_peg_1","890","890","0","[[2,0,0],[3,0],[0]]","4","[[1,0,0],[2,3],[0]]","5","0","","","","","","6","","","","","","","","",""
"","","","","","single-stim-button","105","281947","0.0-2.0-25.3-1.3","5731e4005b8b06000f7e36b3","C3","batch3","","544","tol_toboard","","","","tol_peg_2","544","544","0","[[2,0,0],[3,1],[0]]","4","[[1,0,0],[2,3],[0]]","5","0","","","","","","6","","","","","","","","",""
"","","","","","single-stim-button","106","282362","0.0-2.0-25.4-0.4","5731e4005b8b06000f7e36b3","C3","batch3","","415","tol_tohand","","","","tol_peg_1","415","415","0","[[0,0,0],[3,1],[0]]","5","[[1,0,0],[2,3],[0]]","5","0","","","","","","6","","","","","","","","",""
"","","","","","single-stim-button","107","283063","0.0-2.0-25.4-1.4","5731e4005b8b06000f7e36b3","C3","batch3","","700","tol_toboard","","","","tol_peg_3","700","700","0","[[0,0,0],[3,1],[2]]","5","[[1,0,0],[2,3],[0]]","5","0","","","","","","6","","","","","","","","",""
"","","","","","single-stim-button","108","283610","0.0-2.0-25.5-0.5","5731e4005b8b06000f7e36b3","C3","batch3","","547","tol_tohand","","","","tol_peg_2","547","547","0","[[0,0,0],[3,0],[2]]","6","[[1,0,0],[2,3],[0]]","5","0","","","","","","6","","","","","","","","",""
"","","","","","single-stim-button","109","284188","0.0-2.0-25.5-1.5","5731e4005b8b06000f7e36b3","C3","batch3","","577","tol_toboard","","","","tol_peg_1","577","577","0","[[1,0,0],[3,0],[2]]","6","[[1,0,0],[2,3],[0]]","5","0","","","","","","6","","","","","","","","",""
"","","","","","single-stim-button","110","285833","0.0-2.0-25.6-0.6","5731e4005b8b06000f7e36b3","C3","batch3","","1645","tol_tohand","","","","tol_peg_2","1645","1645","0","[[1,0,0],[0,0],[2]]","7","[[1,0,0],[2,3],[0]]","5","0","","","","","","6","","","","","","","","",""
"","","","","","single-stim-button","111","286392","0.0-2.0-25.6-1.6","5731e4005b8b06000f7e36b3","C3","batch3","","558","tol_toboard","","","","tol_peg_1","558","558","0","[[1,3,0],[0,0],[2]]","7","[[1,0,0],[2,3],[0]]","5","0","","","","","","6","","","","","","","","",""
"","","","","","single-stim-button","112","287156","0.0-2.0-25.7-0.7","5731e4005b8b06000f7e36b3","C3","batch3","","764","tol_tohand","","","","tol_peg_3","764","764","0","[[1,3,0],[0,0],[0]]","8","[[1,0,0],[2,3],[0]]","5","0","","","","","","6","","","","","","","","",""
"","","","","","single-stim-button","113","287683","0.0-2.0-25.7-1.7","5731e4005b8b06000f7e36b3","C3","batch3","","527","tol_toboard","","","","tol_peg_2","527","527","0","[[1,3,0],[2,0],[0]]","8","[[1,0,0],[2,3],[0]]","5","0","","","","","","6","","","","","","","","",""
"","","","","","single-stim-button","114","288129","0.0-2.0-25.8-0.8","5731e4005b8b06000f7e36b3","C3","batch3","","446","tol_tohand","","","","tol_peg_1","446","446","0","[[1,0,0],[2,0],[0]]","9","[[1,0,0],[2,3],[0]]","5","0","","","","","","6","","","","","","","","",""
"","","","","","single-stim-button","115","288574","0.0-2.0-25.8-1.8","5731e4005b8b06000f7e36b3","C3","batch3","","444","tol_toboard","","","","tol_peg_2","444","444","0","[[1,0,0],[2,3],[0]]","9","[[1,0,0],[2,3],[0]]","5","0","","","","","","6","","","","","","","","",""
"","","","","","poldrack-single-stim","116","289575","0.0-2.0-26.0","5731e4005b8b06000f7e36b3","C3","batch3","","-1","tol_feedback","","","true","","1000","1000","500","","","","","","-1","none","true","24729","30396","","","","","","","","","",""
"","","","","","html-button-response","117","290124","0.0-2.0-27.0","5731e4005b8b06000f7e36b3","C3","batch3","","548.8999999761581","tol_trial_num","<div class = centerbox><p class = center-block-text>problem <strong>7</strong> out of 25 problems</p></div>","0","","","","","","","","","","","","","","","","","","","","","","","","",""
"","","","","","single-stim-button","118","294356","0.0-2.0-28.0-0.0","5731e4005b8b06000f7e36b3","C3","batch3","","4231","tol_tohand","","","","tol_peg_3","4231","4231","0","[[2,1,0],[0,0],[0]]","1","[[1,2,0],[3,0],[0]]","6","0","","","","","","5","","","","","","","","",""
"","","","","","single-stim-button","119","295255","0.0-2.0-28.0-1.0","5731e4005b8b06000f7e36b3","C3","batch3","","899","tol_toboard","","","","tol_peg_2","899","899","0","[[2,1,0],[3,0],[0]]","1","[[1,2,0],[3,0],[0]]","6","0","","","","","","5","","","","","","","","",""
"","","","","","single-stim-button","120","295757","0.0-2.0-28.1-0.1","5731e4005b8b06000f7e36b3","C3","batch3","","501","tol_tohand","","","","tol_peg_1","501","501","0","[[2,0,0],[3,0],[0]]","2","[[1,2,0],[3,0],[0]]","6","0","","","","","","5","","","","","","","","",""
"","","","","","single-stim-button","121","296310","0.0-2.0-28.1-1.1","5731e4005b8b06000f7e36b3","C3","batch3","","553","tol_toboard","","","","tol_peg_2","553","553","0","[[2,0,0],[3,1],[0]]","2","[[1,2,0],[3,0],[0]]","6","0","","","","","","5","","","","","","","","",""
"","","","","","single-stim-button","122","297225","0.0-2.0-28.2-0.2","5731e4005b8b06000f7e36b3","C3","batch3","","915","tol_tohand","","","","tol_peg_1","915","915","0","[[0,0,0],[3,1],[0]]","3","[[1,2,0],[3,0],[0]]","6","0","","","","","","5","","","","","","","","",""
"","","","","","single-stim-button","123","298044","0.0-2.0-28.2-1.2","5731e4005b8b06000f7e36b3","C3","batch3","","819","tol_toboard","","","","tol_peg_3","819","819","0","[[0,0,0],[3,1],[2]]","3","[[1,2,0],[3,0],[0]]","6","0","","","","","","5","","","","","","","","",""
"","","","","","single-stim-button","124","298470","0.0-2.0-28.3-0.3","5731e4005b8b06000f7e36b3","C3","batch3","","426","tol_tohand","","","","tol_peg_2","426","426","0","[[0,0,0],[3,0],[2]]","4","[[1,2,0],[3,0],[0]]","6","0","","","","","","5","","","","","","","","",""
"","","","","","single-stim-button","125","299119","0.0-2.0-28.3-1.3","5731e4005b8b06000f7e36b3","C3","batch3","","649","tol_toboard","","","","tol_peg_1","649","649","0","[[1,0,0],[3,0],[2]]","4","[[1,2,0],[3,0],[0]]","6","0","","","","","","5","","","","","","","","",""
"","","","","","single-stim-button","126","299650","0.0-2.0-28.4-0.4","5731e4005b8b06000f7e36b3","C3","batch3","","530","tol_tohand","","","","tol_peg_3","530","530","0","[[1,0,0],[3,0],[0]]","5","[[1,2,0],[3,0],[0]]","6","0","","","","","","5","","","","","","","","",""
"","","","","","single-stim-button","127","300052","0.0-2.0-28.4-1.4","5731e4005b8b06000f7e36b3","C3","batch3","","402","tol_toboard","","","","tol_peg_1","402","402","0","[[1,2,0],[3,0],[0]]","5","[[1,2,0],[3,0],[0]]","6","0","","","","","","5","","","","","","","","",""
"","","","","","poldrack-single-stim","128","301053","0.0-2.0-29.0","5731e4005b8b06000f7e36b3","C3","batch3","","-1","tol_feedback","","","true","","1000","1000","500","","","","","","-1","none","true","4231","6603","","","","","","","","","",""
"","","","","","html-button-response","129","301620","0.0-2.0-30.0","5731e4005b8b06000f7e36b3","C3","batch3","","566.7999999523163","tol_trial_num","<div class = centerbox><p class = center-block-text>problem <strong>8</strong> out of 25 problems</p></div>","0","","","","","","","","","","","","","","","","","","","","","","","","",""
"","","","","","single-stim-button","130","308275","0.0-2.0-31.0-0.0","5731e4005b8b06000f7e36b3","C3","batch3","","6654","tol_tohand","","","","tol_peg_3","6654","6654","0","[[0,0,0],[2,3],[0]]","1","[[1,2,0],[3,0],[0]]","7","0","","","","","","4","","","","","","","","",""
"","","","","","single-stim-button","131","310299","0.0-2.0-31.0-1.0","5731e4005b8b06000f7e36b3","C3","batch3","","2023","tol_toboard","","","","tol_peg_1","2023","2023","0","[[1,0,0],[2,3],[0]]","1","[[1,2,0],[3,0],[0]]","7","0","","","","","","4","","","","","","","","",""
"","","","","","single-stim-button","132","311103","0.0-2.0-31.1-0.1","5731e4005b8b06000f7e36b3","C3","batch3","","804","tol_tohand","","","","tol_peg_2","804","804","0","[[1,0,0],[2,0],[0]]","2","[[1,2,0],[3,0],[0]]","7","0","","","","","","4","","","","","","","","",""
"","","","","","single-stim-button","133","311630","0.0-2.0-31.1-1.1","5731e4005b8b06000f7e36b3","C3","batch3","","525","tol_toboard","","","","tol_peg_3","525","525","0","[[1,0,0],[2,0],[3]]","2","[[1,2,0],[3,0],[0]]","7","0","","","","","","4","","","","","","","","",""
"","","","","","single-stim-button","134","312025","0.0-2.0-31.2-0.2","5731e4005b8b06000f7e36b3","C3","batch3","","395","tol_tohand","","","","tol_peg_2","395","395","0","[[1,0,0],[0,0],[3]]","3","[[1,2,0],[3,0],[0]]","7","0","","","","","","4","","","","","","","","",""
"","","","","","single-stim-button","135","312509","0.0-2.0-31.2-1.2","5731e4005b8b06000f7e36b3","C3","batch3","","483","tol_toboard","","","","tol_peg_1","483","483","0","[[1,2,0],[0,0],[3]]","3","[[1,2,0],[3,0],[0]]","7","0","","","","","","4","","","","","","","","",""
"","","","","","single-stim-button","136","313229","0.0-2.0-31.3-0.3","5731e4005b8b06000f7e36b3","C3","batch3","","719","tol_tohand","","","","tol_peg_3","719","719","0","[[1,2,0],[0,0],[0]]","4","[[1,2,0],[3,0],[0]]","7","0","","","","","","4","","","","","","","","",""
"","","","","","single-stim-button","137","313887","0.0-2.0-31.3-1.3","5731e4005b8b06000f7e36b3","C3","batch3","","658","tol_toboard","","","","tol_peg_2","658","658","0","[[1,2,0],[3,0],[0]]","4","[[1,2,0],[3,0],[0]]","7","0","","","","","","4","","","","","","","","",""
"","","","","","poldrack-single-stim","138","314888","0.0-2.0-32.0","5731e4005b8b06000f7e36b3","C3","batch3","","-1","tol_feedback","","","true","","1000","1000","500","","","","","","-1","none","true","6654","8572","","","","","","","","","",""
"","","","","","html-button-response","139","315358","0.0-2.0-33.0","5731e4005b8b06000f7e36b3","C3","batch3","","469.60000002384186","tol_trial_num","<div class = centerbox><p class = center-block-text>problem <strong>9</strong> out of 25 problems</p></div>","0","","","","","","","","","","","","","","","","","","","","","","","","",""
"","","","","","single-stim-button","140","331310","0.0-2.0-34.0-0.0","5731e4005b8b06000f7e36b3","C3","batch3","","15952","tol_tohand","","","","tol_peg_3","15952","15952","0","[[3,2,0],[0,0],[0]]","1","[[2,1,0],[3,0],[0]]","8","0","","","","","","6","","","","","","","","",""
"","","","","","single-stim-button","141","332028","0.0-2.0-34.0-1.0","5731e4005b8b06000f7e36b3","C3","batch3","","716","tol_toboard","","","","tol_peg_2","716","716","0","[[3,2,0],[1,0],[0]]","1","[[2,1,0],[3,0],[0]]","8","0","","","","","","6","","","","","","","","",""
"","","","","","single-stim-button","142","332545","0.0-2.0-34.1-0.1","5731e4005b8b06000f7e36b3","C3","batch3","","517","tol_tohand","","","","tol_peg_1","517","517","0","[[3,0,0],[1,0],[0]]","2","[[2,1,0],[3,0],[0]]","8","0","","","","","","6","","","","","","","","",""
"","","","","","single-stim-button","143","332951","0.0-2.0-34.1-1.1","5731e4005b8b06000f7e36b3","C3","batch3","","405","tol_toboard","","","","tol_peg_2","405","405","0","[[3,0,0],[1,2],[0]]","2","[[2,1,0],[3,0],[0]]","8","0","","","","","","6","","","","","","","","",""
"","","","","","single-stim-button","144","333376","0.0-2.0-34.2-0.2","5731e4005b8b06000f7e36b3","C3","batch3","","424","tol_tohand","","","","tol_peg_1","424","424","0","[[0,0,0],[1,2],[0]]","3","[[2,1,0],[3,0],[0]]","8","0","","","","","","6","","","","","","","","",""
"","","","","","single-stim-button","145","334401","0.0-2.0-34.2-1.2","5731e4005b8b06000f7e36b3","C3","batch3","","1024","tol_toboard","","","","tol_peg_3","1024","1024","0","[[0,0,0],[1,2],[3]]","3","[[2,1,0],[3,0],[0]]","8","0","","","","","","6","","","","","","","","",""
"","","","","","single-stim-button","146","334834","0.0-2.0-34.3-0.3","5731e4005b8b06000f7e36b3","C3","batch3","","432","tol_tohand","","","","tol_peg_2","432","432","0","[[0,0,0],[1,0],[3]]","4","[[2,1,0],[3,0],[0]]","8","0","","","","","","6","","","","","","","","",""
"","","","","","single-stim-button","147","335369","0.0-2.0-34.3-1.3","5731e4005b8b06000f7e36b3","C3","batch3","","534","tol_toboard","","","","tol_peg_1","534","534","0","[[2,0,0],[1,0],[3]]","4","[[2,1,0],[3,0],[0]]","8","0","","","","","","6","","","","","","","","",""
"","","","","","single-stim-button","148","335833","0.0-2.0-34.4-0.4","5731e4005b8b06000f7e36b3","C3","batch3","","462","tol_tohand","","","","tol_peg_2","462","462","0","[[2,0,0],[0,0],[3]]","5","[[2,1,0],[3,0],[0]]","8","0","","","","","","6","","","","","","","","",""
"","","","","","single-stim-button","149","336343","0.0-2.0-34.4-1.4","5731e4005b8b06000f7e36b3","C3","batch3","","510","tol_toboard","","","","tol_peg_1","510","510","0","[[2,1,0],[0,0],[3]]","5","[[2,1,0],[3,0],[0]]","8","0","","","","","","6","","","","","","","","",""
"","","","","","single-stim-button","150","337279","0.0-2.0-34.5-0.5","5731e4005b8b06000f7e36b3","C3","batch3","","935","tol_tohand","","","","tol_peg_3","935","935","0","[[2,1,0],[0,0],[0]]","6","[[2,1,0],[3,0],[0]]","8","0","","","","","","6","","","","","","","","",""
"","","","","","single-stim-button","151","337749","0.0-2.0-34.5-1.5","5731e4005b8b06000f7e36b3","C3","batch3","","468","tol_toboard","","","","tol_peg_2","468","468","0","[[2,1,0],[3,0],[0]]","6","[[2,1,0],[3,0],[0]]","8","0","","","","","","6","","","","","","","","",""
"","","","","","poldrack-single-stim","152","338749","0.0-2.0-35.0","5731e4005b8b06000f7e36b3","C3","batch3","","-1","tol_feedback","","","true","","1000","1000","500","","","","","","-1","none","true","15952","18722","","","","","","","","","",""
"","","","","","html-button-response","153","339323","0.0-2.0-36.0","5731e4005b8b06000f7e36b3","C3","batch3","","573.7000000476837","tol_trial_num","<div class = centerbox><p class = center-block-text>problem <strong>10</strong> out of 25 problems</p></div>","0","","","","","","","","","","","","","","","","","","","","","","","","",""
"","","","","","single-stim-button","154","342551","0.0-2.0-37.0-0.0","5731e4005b8b06000f7e36b3","C3","batch3","","3227","tol_tohand","","","","tol_peg_2","3227","3227","0","[[3,0,0],[0,0],[2]]","1","[[3,0,0],[2,1],[0]]","9","0","","","","","","3","","","","","","","","",""
"","","","","","single-stim-button","155","342931","0.0-2.0-37.0-1.0","5731e4005b8b06000f7e36b3","C3","batch3","","380","tol_toboard","","","","tol_peg_1","380","380","0","[[3,1,0],[0,0],[2]]","1","[[3,0,0],[2,1],[0]]","9","0","","","","","","3","","","","","","","","",""
"","","","","","single-stim-button","156","343464","0.0-2.0-37.1-0.1","5731e4005b8b06000f7e36b3","C3","batch3","","533","tol_tohand","","","","tol_peg_3","533","533","0","[[3,1,0],[0,0],[0]]","2","[[3,0,0],[2,1],[0]]","9","0","","","","","","3","","","","","","","","",""
"","","","","","single-stim-button","157","344081","0.0-2.0-37.1-1.1","5731e4005b8b06000f7e36b3","C3","batch3","","617","tol_toboard","","","","tol_peg_2","617","617","0","[[3,1,0],[2,0],[0]]","2","[[3,0,0],[2,1],[0]]","9","0","","","","","","3","","","","","","","","",""
"","","","","","single-stim-button","158","344628","0.0-2.0-37.2-0.2","5731e4005b8b06000f7e36b3","C3","batch3","","545","tol_tohand","","","","tol_peg_1","545","545","0","[[3,0,0],[2,0],[0]]","3","[[3,0,0],[2,1],[0]]","9","0","","","","","","3","","","","","","","","",""
"","","","","","single-stim-button","159","345213","0.0-2.0-37.2-1.2","5731e4005b8b06000f7e36b3","C3","batch3","","585","tol_toboard","","","","tol_peg_2","585","585","0","[[3,0,0],[2,1],[0]]","3","[[3,0,0],[2,1],[0]]","9","0","","","","","","3","","","","","","","","",""
"","","","","","poldrack-single-stim","160","346219","0.0-2.0-38.0","5731e4005b8b06000f7e36b3","C3","batch3","","-1","tol_feedback","","","true","","1000","1000","500","","","","","","-1","none","true","3227","4305","","","","","","","","","",""
"","","","","","html-button-response","161","346688","0.0-2.0-39.0","5731e4005b8b06000f7e36b3","C3","batch3","","469","tol_trial_num","<div class = centerbox><p class = center-block-text>problem <strong>11</strong> out of 25 problems</p></div>","0","","","","","","","","","","","","","","","","","","","","","","","","",""
"","","","","","single-stim-button","162","353916","0.0-2.0-40.0-0.0","5731e4005b8b06000f7e36b3","C3","batch3","","7228","tol_tohand","","","","tol_peg_1","7228","7228","0","[[1,0,0],[3,0],[0]]","1","[[2,0,0],[1,3],[0]]","10","0","","","","","","6","","","","","","","","",""
"","","","","","single-stim-button","163","357477","0.0-2.0-40.0-1.0","5731e4005b8b06000f7e36b3","C3","batch3","","3561","tol_toboard","","","","tol_peg_3","3561","3561","0","[[1,0,0],[3,0],[2]]","1","[[2,0,0],[1,3],[0]]","10","0","","","","","","6","","","","","","","","",""
"","","","","","single-stim-button","164","359794","0.0-2.0-40.1-0.1","5731e4005b8b06000f7e36b3","C3","batch3","","2317","tol_tohand","","","","tol_peg_1","2317","2317","0","[[0,0,0],[3,0],[2]]","2","[[2,0,0],[1,3],[0]]","10","0","","","","","","6","","","","","","","","",""
"","","","","","single-stim-button","165","360293","0.0-2.0-40.1-1.1","5731e4005b8b06000f7e36b3","C3","batch3","","498","tol_toboard","","","","tol_peg_2","498","498","0","[[0,0,0],[3,1],[2]]","2","[[2,0,0],[1,3],[0]]","10","0","","","","","","6","","","","","","","","",""
"","","","","","single-stim-button","166","360762","0.0-2.0-40.2-0.2","5731e4005b8b06000f7e36b3","C3","batch3","","469","tol_tohand","","","","tol_peg_3","469","469","0","[[0,0,0],[3,1],[0]]","3","[[2,0,0],[1,3],[0]]","10","0","","","","","","6","","","","","","","","",""
"","","","","","single-stim-button","167","361516","0.0-2.0-40.2-1.2","5731e4005b8b06000f7e36b3","C3","batch3","","754","tol_toboard","","","","tol_peg_1","754","754","0","[[2,0,0],[3,1],[0]]","3","[[2,0,0],[1,3],[0]]","10","0","","","","","","6","","","","","","","","",""
"","","","","","single-stim-button","168","361979","0.0-2.0-40.3-0.3","5731e4005b8b06000f7e36b3","C3","batch3","","463","tol_tohand","","","","tol_peg_2","463","463","0","[[2,0,0],[3,0],[0]]","4","[[2,0,0],[1,3],[0]]","10","0","","","","","","6","","","","","","","","",""
"","","","","","single-stim-button","169","362463","0.0-2.0-40.3-1.3","5731e4005b8b06000f7e36b3","C3","batch3","","484","tol_toboard","","","","tol_peg_3","484","484","0","[[2,0,0],[3,0],[1]]","4","[[2,0,0],[1,3],[0]]","10","0","","","","","","6","","","","","","","","",""
"","","","","","single-stim-button","170","363191","0.0-2.0-40.4-0.4","5731e4005b8b06000f7e36b3","C3","batch3","","728","tol_tohand","","","","tol_peg_2","728","728","0","[[2,0,0],[0,0],[1]]","5","[[2,0,0],[1,3],[0]]","10","0","","","","","","6","","","","","","","","",""
"","","","","","single-stim-button","171","363802","0.0-2.0-40.4-1.4","5731e4005b8b06000f7e36b3","C3","batch3","","611","tol_toboard","","","","tol_peg_1","611","611","0","[[2,3,0],[0,0],[1]]","5","[[2,0,0],[1,3],[0]]","10","0","","","","","","6","","","","","","","","",""
"","","","","","single-stim-button","172","364415","0.0-2.0-40.5-0.5","5731e4005b8b06000f7e36b3","C3","batch3","","612","tol_tohand","","","","tol_peg_3","612","612","0","[[2,3,0],[0,0],[0]]","6","[[2,0,0],[1,3],[0]]","10","0","","","","","","6","","","","","","","","",""
"","","","","","single-stim-button","173","364923","0.0-2.0-40.5-1.5","5731e4005b8b06000f7e36b3","C3","batch3","","507","tol_toboard","","","","tol_peg_2","507","507","0","[[2,3,0],[1,0],[0]]","6","[[2,0,0],[1,3],[0]]","10","0","","","","","","6","","","","","","","","",""
"","","","","","single-stim-button","174","365418","0.0-2.0-40.6-0.6","5731e4005b8b06000f7e36b3","C3","batch3","","494","tol_tohand","","","","tol_peg_1","494","494","0","[[2,0,0],[1,0],[0]]","7","[[2,0,0],[1,3],[0]]","10","0","","","","","","6","","","","","","","","",""
"","","","","","single-stim-button","175","365771","0.0-2.0-40.6-1.6","5731e4005b8b06000f7e36b3","C3","batch3","","353","tol_toboard","","","","tol_peg_2","353","353","0","[[2,0,0],[1,3],[0]]","7","[[2,0,0],[1,3],[0]]","10","0","","","","","","6","","","","","","","","",""
"","","","","","poldrack-single-stim","176","366773","0.0-2.0-41.0","5731e4005b8b06000f7e36b3","C3","batch3","","-1","tol_feedback","","","true","","1000","1000","500","","","","","","-1","none","true","7228","12311","","","","","","","","","",""
"","","","","","html-button-response","177","367143","0.0-2.0-42.0","5731e4005b8b06000f7e36b3","C3","batch3","","368.89999997615814","tol_trial_num","<div class = centerbox><p class = center-block-text>problem <strong>12</strong> out of 25 problems</p></div>","0","","","","","","","","","","","","","","","","","","","","","","","","",""
"","","","","","single-stim-button","178","371490","0.0-2.0-43.0-0.0","5731e4005b8b06000f7e36b3","C3","batch3","","4347","tol_tohand","","","","tol_peg_1","4347","4347","0","[[1,0,0],[3,0],[0]]","1","[[2,3,0],[0,0],[1]]","11","0","","","","","","4","","","","","","","","",""
"","","","","","single-stim-button","179","371836","0.0-2.0-43.0-1.0","5731e4005b8b06000f7e36b3","C3","batch3","","346","tol_toboard","","","","tol_peg_2","346","346","0","[[1,0,0],[3,2],[0]]","1","[[2,3,0],[0,0],[1]]","11","0","","","","","","4","","","","","","","","",""
"","","","","","single-stim-button","180","372525","0.0-2.0-43.1-0.1","5731e4005b8b06000f7e36b3","C3","batch3","","689","tol_tohand","","","","tol_peg_1","689","689","0","[[0,0,0],[3,2],[0]]","2","[[2,3,0],[0,0],[1]]","11","0","","","","","","4","","","","","","","","",""
"","","","","","single-stim-button","181","373241","0.0-2.0-43.1-1.1","5731e4005b8b06000f7e36b3","C3","batch3","","716","tol_toboard","","","","tol_peg_3","716","716","0","[[0,0,0],[3,2],[1]]","2","[[2,3,0],[0,0],[1]]","11","0","","","","","","4","","","","","","","","",""
"","","","","","single-stim-button","182","373674","0.0-2.0-43.2-0.2","5731e4005b8b06000f7e36b3","C3","batch3","","432","tol_tohand","","","","tol_peg_2","432","432","0","[[0,0,0],[3,0],[1]]","3","[[2,3,0],[0,0],[1]]","11","0","","","","","","4","","","","","","","","",""
"","","","","","single-stim-button","183","374279","0.0-2.0-43.2-1.2","5731e4005b8b06000f7e36b3","C3","batch3","","605","tol_toboard","","","","tol_peg_1","605","605","0","[[2,0,0],[3,0],[1]]","3","[[2,3,0],[0,0],[1]]","11","0","","","","","","4","","","","","","","","",""
"","","","","","single-stim-button","184","374698","0.0-2.0-43.3-0.3","5731e4005b8b06000f7e36b3","C3","batch3","","419","tol_tohand","","","","tol_peg_2","419","419","0","[[2,0,0],[0,0],[1]]","4","[[2,3,0],[0,0],[1]]","11","0","","","","","","4","","","","","","","","",""
"","","","","","single-stim-button","185","375105","0.0-2.0-43.3-1.3","5731e4005b8b06000f7e36b3","C3","batch3","","406","tol_toboard","","","","tol_peg_1","406","406","0","[[2,3,0],[0,0],[1]]","4","[[2,3,0],[0,0],[1]]","11","0","","","","","","4","","","","","","","","",""
"","","","","","poldrack-single-stim","186","376109","0.0-2.0-44.0","5731e4005b8b06000f7e36b3","C3","batch3","","-1","tol_feedback","","","true","","1000","1000","500","","","","","","-1","none","true","4347","5887","","","","","","","","","",""
"","","","","","html-button-response","187","376988","0.0-2.0-45.0","5731e4005b8b06000f7e36b3","C3","batch3","","877.7999999523163","tol_trial_num","<div class = centerbox><p class = center-block-text>problem <strong>13</strong> out of 25 problems</p></div>","0","","","","","","","","","","","","","","","","","","","","","","","","",""
"","","","","","single-stim-button","188","380466","0.0-2.0-46.0-0.0","5731e4005b8b06000f7e36b3","C3","batch3","","3478","tol_tohand","","","","tol_peg_2","3478","3478","0","[[1,2,0],[0,0],[0]]","1","[[0,0,0],[2,3],[1]]","12","0","","","","","","4","","","","","","","","",""
"","","","","","single-stim-button","189","380943","0.0-2.0-46.0-1.0","5731e4005b8b06000f7e36b3","C3","batch3","","477","tol_toboard","","","","tol_peg_3","477","477","0","[[1,2,0],[0,0],[3]]","1","[[0,0,0],[2,3],[1]]","12","0","","","","","","4","","","","","","","","",""
"","","","","","single-stim-button","190","381494","0.0-2.0-46.1-0.1","5731e4005b8b06000f7e36b3","C3","batch3","","550","tol_tohand","","","","tol_peg_1","550","550","0","[[1,0,0],[0,0],[3]]","2","[[0,0,0],[2,3],[1]]","12","0","","","","","","4","","","","","","","","",""
"","","","","","single-stim-button","191","382096","0.0-2.0-46.1-1.1","5731e4005b8b06000f7e36b3","C3","batch3","","601","tol_toboard","","","","tol_peg_2","601","601","0","[[1,0,0],[2,0],[3]]","2","[[0,0,0],[2,3],[1]]","12","0","","","","","","4","","","","","","","","",""
"","","","","","single-stim-button","192","382718","0.0-2.0-46.2-0.2","5731e4005b8b06000f7e36b3","C3","batch3","","622","tol_tohand","","","","tol_peg_3","622","622","0","[[1,0,0],[2,0],[0]]","3","[[0,0,0],[2,3],[1]]","12","0","","","","","","4","","","","","","","","",""
"","","","","","single-stim-button","193","383141","0.0-2.0-46.2-1.2","5731e4005b8b06000f7e36b3","C3","batch3","","423","tol_toboard","","","","tol_peg_2","423","423","0","[[1,0,0],[2,3],[0]]","3","[[0,0,0],[2,3],[1]]","12","0","","","","","","4","","","","","","","","",""
"","","","","","single-stim-button","194","383649","0.0-2.0-46.3-0.3","5731e4005b8b06000f7e36b3","C3","batch3","","508","tol_tohand","","","","tol_peg_1","508","508","0","[[0,0,0],[2,3],[0]]","4","[[0,0,0],[2,3],[1]]","12","0","","","","","","4","","","","","","","","",""
"","","","","","single-stim-button","195","384064","0.0-2.0-46.3-1.3","5731e4005b8b06000f7e36b3","C3","batch3","","415","tol_toboard","","","","tol_peg_3","415","415","0","[[0,0,0],[2,3],[1]]","4","[[0,0,0],[2,3],[1]]","12","0","","","","","","4","","","","","","","","",""
"","","","","","poldrack-single-stim","196","385065","0.0-2.0-47.0","5731e4005b8b06000f7e36b3","C3","batch3","","-1","tol_feedback","","","true","","1000","1000","500","","","","","","-1","none","true","3478","5158","","","","","","","","","",""
"","","","","","html-button-response","197","387600","0.0-2.0-48.0","5731e4005b8b06000f7e36b3","C3","batch3","","2534.100000023842","attention_check","<p class = block-text>How many balls are in your board<br></p>","1","true","","","","","","","","","","","","","","","","","","","","","","","",""
"","","","","","html-button-response","198","388471","0.0-2.0-49.0","5731e4005b8b06000f7e36b3","C3","batch3","","870.6000000238419","tol_trial_num","<div class = centerbox><p class = center-block-text>problem <strong>14</strong> out of 25 problems</p></div>","0","","","","","","","","","","","","","","","","","","","","","","","","",""
"","","","","","single-stim-button","199","392455","0.0-2.0-50.0-0.0","5731e4005b8b06000f7e36b3","C3","batch3","","3984","tol_tohand","","","","tol_peg_1","3984","3984","0","[[2,0,0],[3,0],[0]]","1","[[1,2,0],[3,0],[0]]","13","0","","","","","","4","","","","","","","","",""
"","","","","","single-stim-button","200","394135","0.0-2.0-50.0-1.0","5731e4005b8b06000f7e36b3","C3","batch3","","1680","tol_toboard","","","","tol_peg_3","1680","1680","0","[[2,0,0],[3,0],[1]]","1","[[1,2,0],[3,0],[0]]","13","0","","","","","","4","","","","","","","","",""
"","","","","","single-stim-button","201","394674","0.0-2.0-50.1-0.1","5731e4005b8b06000f7e36b3","C3","batch3","","539","tol_tohand","","","","tol_peg_1","539","539","0","[[0,0,0],[3,0],[1]]","2","[[1,2,0],[3,0],[0]]","13","0","","","","","","4","","","","","","","","",""
"","","","","","single-stim-button","202","395046","0.0-2.0-50.1-1.1","5731e4005b8b06000f7e36b3","C3","batch3","","372","tol_toboard","","","","tol_peg_2","372","372","0","[[0,0,0],[3,2],[1]]","2","[[1,2,0],[3,0],[0]]","13","0","","","","","","4","","","","","","","","",""
"","","","","","single-stim-button","203","395459","0.0-2.0-50.2-0.2","5731e4005b8b06000f7e36b3","C3","batch3","","412","tol_tohand","","","","tol_peg_3","412","412","0","[[0,0,0],[3,2],[0]]","3","[[1,2,0],[3,0],[0]]","13","0","","","","","","4","","","","","","","","",""
"","","","","","single-stim-button","204","396135","0.0-2.0-50.2-1.2","5731e4005b8b06000f7e36b3","C3","batch3","","676","tol_toboard","","","","tol_peg_1","676","676","0","[[1,0,0],[3,2],[0]]","3","[[1,2,0],[3,0],[0]]","13","0","","","","","","4","","","","","","","","",""
"","","","","","single-stim-button","205","396575","0.0-2.0-50.3-0.3","5731e4005b8b06000f7e36b3","C3","batch3","","440","tol_tohand","","","","tol_peg_2","440","440","0","[[1,0,0],[3,0],[0]]","4","[[1,2,0],[3,0],[0]]","13","0","","","","","","4","","","","","","","","",""
"","","","","","single-stim-button","206","396974","0.0-2.0-50.3-1.3","5731e4005b8b06000f7e36b3","C3","batch3","","399","tol_toboard","","","","tol_peg_1","399","399","0","[[1,2,0],[3,0],[0]]","4","[[1,2,0],[3,0],[0]]","13","0","","","","","","4","","","","","","","","",""
"","","","","","poldrack-single-stim","207","397975","0.0-2.0-51.0","5731e4005b8b06000f7e36b3","C3","batch3","","-1","tol_feedback","","","true","","1000","1000","500","","","","","","-1","none","true","3984","5375","","","","","","","","","",""
"","","","","","html-button-response","208","398390","0.0-2.0-52.0","5731e4005b8b06000f7e36b3","C3","batch3","","414","tol_trial_num","<div class = centerbox><p class = center-block-text>problem <strong>15</strong> out of 25 problems</p></div>","0","","","","","","","","","","","","","","","","","","","","","","","","",""
"","","","","","single-stim-button","209","402126","0.0-2.0-53.0-0.0","5731e4005b8b06000f7e36b3","C3","batch3","","3736","tol_tohand","","","","tol_peg_1","3736","3736","0","[[1,0,0],[3,0],[0]]","1","[[2,0,0],[3,0],[1]]","14","0","","","","","","3","","","","","","","","",""
"","","","","","single-stim-button","210","402735","0.0-2.0-53.0-1.0","5731e4005b8b06000f7e36b3","C3","batch3","","608","tol_toboard","","","","tol_peg_2","608","608","0","[[1,0,0],[3,2],[0]]","1","[[2,0,0],[3,0],[1]]","14","0","","","","","","3","","","","","","","","",""
"","","","","","single-stim-button","211","403188","0.0-2.0-53.1-0.1","5731e4005b8b06000f7e36b3","C3","batch3","","452","tol_tohand","","","","tol_peg_1","452","452","0","[[0,0,0],[3,2],[0]]","2","[[2,0,0],[3,0],[1]]","14","0","","","","","","3","","","","","","","","",""
"","","","","","single-stim-button","212","403843","0.0-2.0-53.1-1.1","5731e4005b8b06000f7e36b3","C3","batch3","","655","tol_toboard","","","","tol_peg_3","655","655","0","[[0,0,0],[3,2],[1]]","2","[[2,0,0],[3,0],[1]]","14","0","","","","","","3","","","","","","","","",""
"","","","","","single-stim-button","213","404327","0.0-2.0-53.2-0.2","5731e4005b8b06000f7e36b3","C3","batch3","","484","tol_tohand","","","","tol_peg_2","484","484","0","[[0,0,0],[3,0],[1]]","3","[[2,0,0],[3,0],[1]]","14","0","","","","","","3","","","","","","","","",""
"","","","","","single-stim-button","214","404768","0.0-2.0-53.2-1.2","5731e4005b8b06000f7e36b3","C3","batch3","","439","tol_toboard","","","","tol_peg_1","439","439","0","[[2,0,0],[3,0],[1]]","3","[[2,0,0],[3,0],[1]]","14","0","","","","","","3","","","","","","","","",""
"","","","","","poldrack-single-stim","215","405769","0.0-2.0-54.0","5731e4005b8b06000f7e36b3","C3","batch3","","-1","tol_feedback","","","true","","1000","1000","500","","","","","","-1","none","true","3736","4672","","","","","","","","","",""
"","","","","","html-button-response","216","406270","0.0-2.0-55.0","5731e4005b8b06000f7e36b3","C3","batch3","","500.60000002384186","tol_trial_num","<div class = centerbox><p class = center-block-text>problem <strong>16</strong> out of 25 problems</p></div>","0","","","","","","","","","","","","","","","","","","","","","","","","",""
"","","","","","single-stim-button","217","426615","0.0-2.0-56.0-0.0","5731e4005b8b06000f7e36b3","C3","batch3","","20343","tol_tohand","","","","tol_peg_2","20343","20343","0","[[0,0,0],[2,0],[1]]","1","[[2,3,0],[1,0],[0]]","15","0","","","","","","7","","","","","","","","",""
"","","","","","single-stim-button","218","427589","0.0-2.0-56.0-1.0","5731e4005b8b06000f7e36b3","C3","batch3","","974","tol_toboard","","","","tol_peg_1","974","974","0","[[3,0,0],[2,0],[1]]","1","[[2,3,0],[1,0],[0]]","15","0","","","","","","7","","","","","","","","",""
"","","","","","single-stim-button","219","428309","0.0-2.0-56.1-0.1","5731e4005b8b06000f7e36b3","C3","batch3","","720","tol_tohand","","","","tol_peg_3","720","720","0","[[3,0,0],[2,0],[0]]","2","[[2,3,0],[1,0],[0]]","15","0","","","","","","7","","","","","","","","",""
"","","","","","single-stim-button","220","428841","0.0-2.0-56.1-1.1","5731e4005b8b06000f7e36b3","C3","batch3","","532","tol_toboard","","","","tol_peg_1","532","532","0","[[3,1,0],[2,0],[0]]","2","[[2,3,0],[1,0],[0]]","15","0","","","","","","7","","","","","","","","",""
"","","","","","single-stim-button","221","429254","0.0-2.0-56.2-0.2","5731e4005b8b06000f7e36b3","C3","batch3","","412","tol_tohand","","","","tol_peg_2","412","412","0","[[3,1,0],[0,0],[0]]","3","[[2,3,0],[1,0],[0]]","15","0","","","","","","7","","","","","","","","",""
"","","","","","single-stim-button","222","430095","0.0-2.0-56.2-1.2","5731e4005b8b06000f7e36b3","C3","batch3","","841","tol_toboard","","","","tol_peg_3","841","841","0","[[3,1,0],[0,0],[2]]","3","[[2,3,0],[1,0],[0]]","15","0","","","","","","7","","","","","","","","",""
"","","","","","single-stim-button","223","430717","0.0-2.0-56.3-0.3","5731e4005b8b06000f7e36b3","C3","batch3","","622","tol_tohand","","","","tol_peg_1","622","622","0","[[3,0,0],[0,0],[2]]","4","[[2,3,0],[1,0],[0]]","15","0","","","","","","7","","","","","","","","",""
"","","","","","single-stim-button","224","431367","0.0-2.0-56.3-1.3","5731e4005b8b06000f7e36b3","C3","batch3","","649","tol_toboard","","","","tol_peg_2","649","649","0","[[3,0,0],[1,0],[2]]","4","[[2,3,0],[1,0],[0]]","15","0","","","","","","7","","","","","","","","",""
"","","","","","single-stim-button","225","431879","0.0-2.0-56.4-0.4","5731e4005b8b06000f7e36b3","C3","batch3","","512","tol_tohand","","","","tol_peg_1","512","512","0","[[0,0,0],[1,0],[2]]","5","[[2,3,0],[1,0],[0]]","15","0","","","","","","7","","","","","","","","",""
"","","","","","single-stim-button","226","432313","0.0-2.0-56.4-1.4","5731e4005b8b06000f7e36b3","C3","batch3","","432","tol_toboard","","","","tol_peg_2","432","432","0","[[0,0,0],[1,3],[2]]","5","[[2,3,0],[1,0],[0]]","15","0","","","","","","7","","","","","","","","",""
"","","","","","single-stim-button","227","432800","0.0-2.0-56.5-0.5","5731e4005b8b06000f7e36b3","C3","batch3","","487","tol_tohand","","","","tol_peg_3","487","487","0","[[0,0,0],[1,3],[0]]","6","[[2,3,0],[1,0],[0]]","15","0","","","","","","7","","","","","","","","",""
"","","","","","single-stim-button","228","433372","0.0-2.0-56.5-1.5","5731e4005b8b06000f7e36b3","C3","batch3","","571","tol_toboard","","","","tol_peg_1","571","571","0","[[2,0,0],[1,3],[0]]","6","[[2,3,0],[1,0],[0]]","15","0","","","","","","7","","","","","","","","",""
"","","","","","single-stim-button","229","433858","0.0-2.0-56.6-0.6","5731e4005b8b06000f7e36b3","C3","batch3","","486","tol_tohand","","","","tol_peg_2","486","486","0","[[2,0,0],[1,0],[0]]","7","[[2,3,0],[1,0],[0]]","15","0","","","","","","7","","","","","","","","",""
"","","","","","single-stim-button","230","434247","0.0-2.0-56.6-1.6","5731e4005b8b06000f7e36b3","C3","batch3","","389","tol_toboard","","","","tol_peg_1","389","389","0","[[2,3,0],[1,0],[0]]","7","[[2,3,0],[1,0],[0]]","15","0","","","","","","7","","","","","","","","",""
"","","","","","poldrack-single-stim","231","435248","0.0-2.0-57.0","5731e4005b8b06000f7e36b3","C3","batch3","","-1","tol_feedback","","","true","","1000","1000","500","","","","","","-1","none","true","20343","23582","","","","","","","","","",""
"","","","","","html-button-response","232","435745","0.0-2.0-58.0","5731e4005b8b06000f7e36b3","C3","batch3","","496.89999997615814","tol_trial_num","<div class = centerbox><p class = center-block-text>problem <strong>17</strong> out of 25 problems</p></div>","0","","","","","","","","","","","","","","","","","","","","","","","","",""
"","","","","","single-stim-button","233","441207","0.0-2.0-59.0-0.0","5731e4005b8b06000f7e36b3","C3","batch3","","5461","tol_tohand","","","","tol_peg_2","5461","5461","0","[[1,2,0],[0,0],[0]]","1","[[3,1,0],[2,0],[0]]","16","0","","","","","","5","","","","","","","","",""
"","","","","","single-stim-button","234","441936","0.0-2.0-59.0-1.0","5731e4005b8b06000f7e36b3","C3","batch3","","729","tol_toboard","","","","tol_peg_3","729","729","0","[[1,2,0],[0,0],[3]]","1","[[3,1,0],[2,0],[0]]","16","0","","","","","","5","","","","","","","","",""
"","","","","","single-stim-button","235","442651","0.0-2.0-59.1-0.1","5731e4005b8b06000f7e36b3","C3","batch3","","714","tol_tohand","","","","tol_peg_1","714","714","0","[[1,0,0],[0,0],[3]]","2","[[3,1,0],[2,0],[0]]","16","0","","","","","","5","","","","","","","","",""
"","","","","","single-stim-button","236","443322","0.0-2.0-59.1-1.1","5731e4005b8b06000f7e36b3","C3","batch3","","670","tol_toboard","","","","tol_peg_2","670","670","0","[[1,0,0],[2,0],[3]]","2","[[3,1,0],[2,0],[0]]","16","0","","","","","","5","","","","","","","","",""
"","","","","","single-stim-button","237","443790","0.0-2.0-59.2-0.2","5731e4005b8b06000f7e36b3","C3","batch3","","468","tol_tohand","","","","tol_peg_1","468","468","0","[[0,0,0],[2,0],[3]]","3","[[3,1,0],[2,0],[0]]","16","0","","","","","","5","","","","","","","","",""
"","","","","","single-stim-button","238","444322","0.0-2.0-59.2-1.2","5731e4005b8b06000f7e36b3","C3","batch3","","532","tol_toboard","","","","tol_peg_2","532","532","0","[[0,0,0],[2,1],[3]]","3","[[3,1,0],[2,0],[0]]","16","0","","","","","","5","","","","","","","","",""
"","","","","","single-stim-button","239","444825","0.0-2.0-59.3-0.3","5731e4005b8b06000f7e36b3","C3","batch3","","502","tol_tohand","","","","tol_peg_3","502","502","0","[[0,0,0],[2,1],[0]]","4","[[3,1,0],[2,0],[0]]","16","0","","","","","","5","","","","","","","","",""
"","","","","","single-stim-button","240","445492","0.0-2.0-59.3-1.3","5731e4005b8b06000f7e36b3","C3","batch3","","667","tol_toboard","","","","tol_peg_1","667","667","0","[[3,0,0],[2,1],[0]]","4","[[3,1,0],[2,0],[0]]","16","0","","","","","","5","","","","","","","","",""
"","","","","","single-stim-button","241","445892","0.0-2.0-59.4-0.4","5731e4005b8b06000f7e36b3","C3","batch3","","399","tol_tohand","","","","tol_peg_2","399","399","0","[[3,0,0],[2,0],[0]]","5","[[3,1,0],[2,0],[0]]","16","0","","","","","","5","","","","","","","","",""
"","","","","","single-stim-button","242","446262","0.0-2.0-59.4-1.4","5731e4005b8b06000f7e36b3","C3","batch3","","370","tol_toboard","","","","tol_peg_1","370","370","0","[[3,1,0],[2,0],[0]]","5","[[3,1,0],[2,0],[0]]","16","0","","","","","","5","","","","","","","","",""
"","","","","","poldrack-single-stim","243","447275","0.0-2.0-60.0","5731e4005b8b06000f7e36b3","C3","batch3","","-1","tol_feedback","","","true","","1000","1000","500","","","","","","-1","none","true","5461","7544","","","","","","","","","",""
"","","","","","html-button-response","244","447704","0.0-2.0-61.0","5731e4005b8b06000f7e36b3","C3","batch3","","429.1999999284744","tol_trial_num","<div class = centerbox><p class = center-block-text>problem <strong>18</strong> out of 25 problems</p></div>","0","","","","","","","","","","","","","","","","","","","","","","","","",""
"","","","","","single-stim-button","245","452713","0.0-2.0-62.0-0.0","5731e4005b8b06000f7e36b3","C3","batch3","","5007","tol_tohand","","","","tol_peg_1","5007","5007","0","[[1,0,0],[3,0],[0]]","1","[[3,0,0],[2,0],[1]]","17","0","","","","","","5","","","","","","","","",""
"","","","","","single-stim-button","246","453289","0.0-2.0-62.0-1.0","5731e4005b8b06000f7e36b3","C3","batch3","","576","tol_toboard","","","","tol_peg_2","576","576","0","[[1,0,0],[3,2],[0]]","1","[[3,0,0],[2,0],[1]]","17","0","","","","","","5","","","","","","","","",""
"","","","","","single-stim-button","247","456049","0.0-2.0-62.1-0.1","5731e4005b8b06000f7e36b3","C3","batch3","","2760","tol_tohand","","","","tol_peg_1","2760","2760","0","[[0,0,0],[3,2],[0]]","2","[[3,0,0],[2,0],[1]]","17","0","","","","","","5","","","","","","","","",""
"","","","","","single-stim-button","248","457132","0.0-2.0-62.1-1.1","5731e4005b8b06000f7e36b3","C3","batch3","","1082","tol_toboard","","","","tol_peg_3","1082","1082","0","[[0,0,0],[3,2],[1]]","2","[[3,0,0],[2,0],[1]]","17","0","","","","","","5","","","","","","","","",""
"","","","","","single-stim-button","249","460176","0.0-2.0-62.2-0.2","5731e4005b8b06000f7e36b3","C3","batch3","","3044","tol_tohand","","","","tol_peg_2","3044","3044","0","[[0,0,0],[3,0],[1]]","3","[[3,0,0],[2,0],[1]]","17","0","","","","","","5","","","","","","","","",""
"","","","","","single-stim-button","250","461267","0.0-2.0-62.2-1.2","5731e4005b8b06000f7e36b3","C3","batch3","","1091","tol_toboard","","","","tol_peg_1","1091","1091","0","[[2,0,0],[3,0],[1]]","3","[[3,0,0],[2,0],[1]]","17","0","","","","","","5","","","","","","","","",""
"","","","","","single-stim-button","251","461738","0.0-2.0-62.3-0.3","5731e4005b8b06000f7e36b3","C3","batch3","","470","tol_tohand","","","","tol_peg_3","470","470","0","[[2,0,0],[3,0],[0]]","4","[[3,0,0],[2,0],[1]]","17","0","","","","","","5","","","","","","","","",""
"","","","","","single-stim-button","252","462238","0.0-2.0-62.3-1.3","5731e4005b8b06000f7e36b3","C3","batch3","","499","tol_toboard","","","","tol_peg_1","499","499","0","[[2,1,0],[3,0],[0]]","4","[[3,0,0],[2,0],[1]]","17","0","","","","","","5","","","","","","","","",""
"","","","","","single-stim-button","253","462698","0.0-2.0-62.4-0.4","5731e4005b8b06000f7e36b3","C3","batch3","","460","tol_tohand","","","","tol_peg_2","460","460","0","[[2,1,0],[0,0],[0]]","5","[[3,0,0],[2,0],[1]]","17","0","","","","","","5","","","","","","","","",""
"","","","","","single-stim-button","254","463375","0.0-2.0-62.4-1.4","5731e4005b8b06000f7e36b3","C3","batch3","","676","tol_toboard","","","","tol_peg_3","676","676","0","[[2,1,0],[0,0],[3]]","5","[[3,0,0],[2,0],[1]]","17","0","","","","","","5","","","","","","","","",""
"","","","","","single-stim-button","255","464077","0.0-2.0-62.5-0.5","5731e4005b8b06000f7e36b3","C3","batch3","","701","tol_tohand","","","","tol_peg_1","701","701","0","[[2,0,0],[0,0],[3]]","6","[[3,0,0],[2,0],[1]]","17","0","","","","","","5","","","","","","","","",""
"","","","","","single-stim-button","256","464547","0.0-2.0-62.5-1.5","5731e4005b8b06000f7e36b3","C3","batch3","","470","tol_toboard","","","","tol_peg_2","470","470","0","[[2,0,0],[1,0],[3]]","6","[[3,0,0],[2,0],[1]]","17","0","","","","","","5","","","","","","","","",""
"","","","","","single-stim-button","257","464982","0.0-2.0-62.6-0.6","5731e4005b8b06000f7e36b3","C3","batch3","","435","tol_tohand","","","","tol_peg_1","435","435","0","[[0,0,0],[1,0],[3]]","7","[[3,0,0],[2,0],[1]]","17","0","","","","","","5","","","","","","","","",""
"","","","","","single-stim-button","258","465382","0.0-2.0-62.6-1.6","5731e4005b8b06000f7e36b3","C3","batch3","","399","tol_toboard","","","","tol_peg_2","399","399","0","[[0,0,0],[1,2],[3]]","7","[[3,0,0],[2,0],[1]]","17","0","","","","","","5","","","","","","","","",""
"","","","","","single-stim-button","259","465958","0.0-2.0-62.7-0.7","5731e4005b8b06000f7e36b3","C3","batch3","","575","tol_tohand","","","","tol_peg_3","575","575","0","[[0,0,0],[1,2],[0]]","8","[[3,0,0],[2,0],[1]]","17","0","","","","","","5","","","","","","","","",""
"","","","","","single-stim-button","260","466621","0.0-2.0-62.7-1.7","5731e4005b8b06000f7e36b3","C3","batch3","","663","tol_toboard","","","","tol_peg_1","663","663","0","[[3,0,0],[1,2],[0]]","8","[[3,0,0],[2,0],[1]]","17","0","","","","","","5","","","","","","","","",""
"","","","","","single-stim-button","261","467390","0.0-2.0-62.8-0.8","5731e4005b8b06000f7e36b3","C3","batch3","","769","tol_tohand","","","","tol_peg_2","769","769","0","[[3,0,0],[1,0],[0]]","9","[[3,0,0],[2,0],[1]]","17","0","","","","","","5","","","","","","","","",""
"","","","","","single-stim-button","262","467946","0.0-2.0-62.8-1.8","5731e4005b8b06000f7e36b3","C3","batch3","","556","tol_toboard","","","","tol_peg_1","556","556","0","[[3,2,0],[1,0],[0]]","9","[[3,0,0],[2,0],[1]]","17","0","","","","","","5","","","","","","","","",""
"","","","","","single-stim-button","263","468420","0.0-2.0-62.9-0.9","5731e4005b8b06000f7e36b3","C3","batch3","","474","tol_tohand","","","","tol_peg_2","474","474","0","[[3,2,0],[0,0],[0]]","10","[[3,0,0],[2,0],[1]]","17","0","","","","","","5","","","","","","","","",""
"","","","","","single-stim-button","264","469185","0.0-2.0-62.9-1.9","5731e4005b8b06000f7e36b3","C3","batch3","","765","tol_toboard","","","","tol_peg_3","765","765","0","[[3,2,0],[0,0],[1]]","10","[[3,0,0],[2,0],[1]]","17","0","","","","","","5","","","","","","","","",""
"","","","","","single-stim-button","265","469951","0.0-2.0-62.10-0.10","5731e4005b8b06000f7e36b3","C3","batch3","","766","tol_tohand","","","","tol_peg_1","766","766","0","[[3,0,0],[0,0],[1]]","11","[[3,0,0],[2,0],[1]]","17","0","","","","","","5","","","","","","","","",""
"","","","","","single-stim-button","266","470435","0.0-2.0-62.10-1.10","5731e4005b8b06000f7e36b3","C3","batch3","","483","tol_toboard","","","","tol_peg_2","483","483","0","[[3,0,0],[2,0],[1]]","11","[[3,0,0],[2,0],[1]]","17","0","","","","","","5","","","","","","","","",""
"","","","","","poldrack-single-stim","267","471437","0.0-2.0-63.0","5731e4005b8b06000f7e36b3","C3","batch3","","-1","tol_feedback","","","true","","1000","1000","500","","","","","","-1","none","true","5007","15461","","","","","","","","","",""
"","","","","","html-button-response","268","471787","0.0-2.0-64.0","5731e4005b8b06000f7e36b3","C3","batch3","","349","tol_trial_num","<div class = centerbox><p class = center-block-text>problem <strong>19</strong> out of 25 problems</p></div>","0","","","","","","","","","","","","","","","","","","","","","","","","",""
"","","","","","single-stim-button","269","473466","0.0-2.0-65.0-0.0","5731e4005b8b06000f7e36b3","C3","batch3","","1679","tol_tohand","","","","tol_peg_2","1679","1679","0","[[1,2,0],[0,0],[0]]","1","[[0,0,0],[1,2],[3]]","18","0","","","","","","7","","","","","","","","",""
"","","","","","single-stim-button","270","478309","0.0-2.0-65.0-1.0","5731e4005b8b06000f7e36b3","C3","batch3","","4843","tol_toboard","","","","tol_peg_2","4843","4843","0","[[1,2,0],[3,0],[0]]","1","[[0,0,0],[1,2],[3]]","18","0","","","","","","7","","","","","","","","",""
"","","","","","single-stim-button","271","479221","0.0-2.0-65.1-0.1","5731e4005b8b06000f7e36b3","C3","batch3","","911","tol_tohand","","","","tol_peg_1","911","911","0","[[1,0,0],[3,0],[0]]","2","[[0,0,0],[1,2],[3]]","18","0","","","","","","7","","","","","","","","",""
"","","","","","single-stim-button","272","481018","0.0-2.0-65.1-1.1","5731e4005b8b06000f7e36b3","C3","batch3","","1796","tol_toboard","","","","tol_peg_2","1796","1796","0","[[1,0,0],[3,2],[0]]","2","[[0,0,0],[1,2],[3]]","18","0","","","","","","7","","","","","","","","",""
"","","","","","single-stim-button","273","495655","0.0-2.0-65.2-0.2","5731e4005b8b06000f7e36b3","C3","batch3","","14636","tol_tohand","","","","tol_peg_2","14636","14636","0","[[1,0,0],[3,0],[0]]","3","[[0,0,0],[1,2],[3]]","18","0","","","","","","7","","","","","","","","",""
"","","","","","single-stim-button","274","496139","0.0-2.0-65.2-1.2","5731e4005b8b06000f7e36b3","C3","batch3","","484","tol_toboard","","","","tol_peg_1","484","484","0","[[1,2,0],[3,0],[0]]","3","[[0,0,0],[1,2],[3]]","18","0","","","","","","7","","","","","","","","",""
"","","","","","single-stim-button","275","496887","0.0-2.0-65.3-0.3","5731e4005b8b06000f7e36b3","C3","batch3","","747","tol_tohand","","","","tol_peg_2","747","747","0","[[1,2,0],[0,0],[0]]","4","[[0,0,0],[1,2],[3]]","18","0","","","","","","7","","","","","","","","",""
"","","","","","single-stim-button","276","497613","0.0-2.0-65.3-1.3","5731e4005b8b06000f7e36b3","C3","batch3","","726","tol_toboard","","","","tol_peg_3","726","726","0","[[1,2,0],[0,0],[3]]","4","[[0,0,0],[1,2],[3]]","18","0","","","","","","7","","","","","","","","",""
"","","","","","single-stim-button","277","498142","0.0-2.0-65.4-0.4","5731e4005b8b06000f7e36b3","C3","batch3","","527","tol_tohand","","","","tol_peg_1","527","527","0","[[1,0,0],[0,0],[3]]","5","[[0,0,0],[1,2],[3]]","18","0","","","","","","7","","","","","","","","",""
"","","","","","single-stim-button","278","498624","0.0-2.0-65.4-1.4","5731e4005b8b06000f7e36b3","C3","batch3","","482","tol_toboard","","","","tol_peg_2","482","482","0","[[1,0,0],[2,0],[3]]","5","[[0,0,0],[1,2],[3]]","18","0","","","","","","7","","","","","","","","",""
"","","","","","single-stim-button","279","499106","0.0-2.0-65.5-0.5","5731e4005b8b06000f7e36b3","C3","batch3","","482","tol_tohand","","","","tol_peg_1","482","482","0","[[0,0,0],[2,0],[3]]","6","[[0,0,0],[1,2],[3]]","18","0","","","","","","7","","","","","","","","",""
"","","","","","single-stim-button","280","499663","0.0-2.0-65.5-1.5","5731e4005b8b06000f7e36b3","C3","batch3","","556","tol_toboard","","","","tol_peg_2","556","556","0","[[0,0,0],[2,1],[3]]","6","[[0,0,0],[1,2],[3]]","18","0","","","","","","7","","","","","","","","",""
"","","","","","single-stim-button","281","500635","0.0-2.0-65.6-0.6","5731e4005b8b06000f7e36b3","C3","batch3","","971","tol_tohand","","","","tol_peg_2","971","971","0","[[0,0,0],[2,0],[3]]","7","[[0,0,0],[1,2],[3]]","18","0","","","","","","7","","","","","","","","",""
"","","","","","single-stim-button","282","501704","0.0-2.0-65.6-1.6","5731e4005b8b06000f7e36b3","C3","batch3","","1069","tol_toboard","","","","tol_peg_1","1069","1069","0","[[1,0,0],[2,0],[3]]","7","[[0,0,0],[1,2],[3]]","18","0","","","","","","7","","","","","","","","",""
"","","","","","single-stim-button","283","502603","0.0-2.0-65.7-0.7","5731e4005b8b06000f7e36b3","C3","batch3","","899","tol_tohand","","","","tol_peg_3","899","899","0","[[1,0,0],[2,0],[0]]","8","[[0,0,0],[1,2],[3]]","18","0","","","","","","7","","","","","","","","",""
"","","","","","single-stim-button","284","503414","0.0-2.0-65.7-1.7","5731e4005b8b06000f7e36b3","C3","batch3","","810","tol_toboard","","","","tol_peg_1","810","810","0","[[1,3,0],[2,0],[0]]","8","[[0,0,0],[1,2],[3]]","18","0","","","","","","7","","","","","","","","",""
"","","","","","single-stim-button","285","504052","0.0-2.0-65.8-0.8","5731e4005b8b06000f7e36b3","C3","batch3","","637","tol_tohand","","","","tol_peg_2","637","637","0","[[1,3,0],[0,0],[0]]","9","[[0,0,0],[1,2],[3]]","18","0","","","","","","7","","","","","","","","",""
"","","","","","single-stim-button","286","504553","0.0-2.0-65.8-1.8","5731e4005b8b06000f7e36b3","C3","batch3","","501","tol_toboard","","","","tol_peg_3","501","501","0","[[1,3,0],[0,0],[2]]","9","[[0,0,0],[1,2],[3]]","18","0","","","","","","7","","","","","","","","",""
"","","","","","single-stim-button","287","505133","0.0-2.0-65.9-0.9","5731e4005b8b06000f7e36b3","C3","batch3","","578","tol_tohand","","","","tol_peg_1","578","578","0","[[1,0,0],[0,0],[2]]","10","[[0,0,0],[1,2],[3]]","18","0","","","","","","7","","","","","","","","",""
"","","","","","single-stim-button","288","505542","0.0-2.0-65.9-1.9","5731e4005b8b06000f7e36b3","C3","batch3","","409","tol_toboard","","","","tol_peg_2","409","409","0","[[1,0,0],[3,0],[2]]","10","[[0,0,0],[1,2],[3]]","18","0","","","","","","7","","","","","","","","",""
"","","","","","single-stim-button","289","507230","0.0-2.0-65.10-0.10","5731e4005b8b06000f7e36b3","C3","batch3","","1687","tol_tohand","","","","tol_peg_1","1687","1687","0","[[0,0,0],[3,0],[2]]","11","[[0,0,0],[1,2],[3]]","18","0","","","","","","7","","","","","","","","",""
"","","","","","single-stim-button","290","508109","0.0-2.0-65.10-1.10","5731e4005b8b06000f7e36b3","C3","batch3","","879","tol_toboard","","","","tol_peg_2","879","879","0","[[0,0,0],[3,1],[2]]","11","[[0,0,0],[1,2],[3]]","18","0","","","","","","7","","","","","","","","",""
"","","","","","single-stim-button","291","509525","0.0-2.0-65.11-0.11","5731e4005b8b06000f7e36b3","C3","batch3","","1414","tol_tohand","","","","tol_peg_3","1414","1414","0","[[0,0,0],[3,1],[0]]","12","[[0,0,0],[1,2],[3]]","18","0","","","","","","7","","","","","","","","",""
"","","","","","single-stim-button","292","510024","0.0-2.0-65.11-1.11","5731e4005b8b06000f7e36b3","C3","batch3","","499","tol_toboard","","","","tol_peg_1","499","499","0","[[2,0,0],[3,1],[0]]","12","[[0,0,0],[1,2],[3]]","18","0","","","","","","7","","","","","","","","",""
"","","","","","single-stim-button","293","510427","0.0-2.0-65.12-0.12","5731e4005b8b06000f7e36b3","C3","batch3","","403","tol_tohand","","","","tol_peg_2","403","403","0","[[2,0,0],[3,0],[0]]","13","[[0,0,0],[1,2],[3]]","18","0","","","","","","7","","","","","","","","",""
"","","","","","single-stim-button","294","510836","0.0-2.0-65.12-1.12","5731e4005b8b06000f7e36b3","C3","batch3","","407","tol_toboard","","","","tol_peg_1","407","407","0","[[2,1,0],[3,0],[0]]","13","[[0,0,0],[1,2],[3]]","18","0","","","","","","7","","","","","","","","",""
"","","","","","single-stim-button","295","511520","0.0-2.0-65.13-0.13","5731e4005b8b06000f7e36b3","C3","batch3","","684","tol_tohand","","","","tol_peg_2","684","684","0","[[2,1,0],[0,0],[0]]","14","[[0,0,0],[1,2],[3]]","18","0","","","","","","7","","","","","","","","",""
"","","","","","single-stim-button","296","512039","0.0-2.0-65.13-1.13","5731e4005b8b06000f7e36b3","C3","batch3","","519","tol_toboard","","","","tol_peg_3","519","519","0","[[2,1,0],[0,0],[3]]","14","[[0,0,0],[1,2],[3]]","18","0","","","","","","7","","","","","","","","",""
"","","","","","single-stim-button","297","512872","0.0-2.0-65.14-0.14","5731e4005b8b06000f7e36b3","C3","batch3","","832","tol_tohand","","","","tol_peg_1","832","832","0","[[2,0,0],[0,0],[3]]","15","[[0,0,0],[1,2],[3]]","18","0","","","","","","7","","","","","","","","",""
"","","","","","single-stim-button","298","514946","0.0-2.0-65.14-1.14","5731e4005b8b06000f7e36b3","C3","batch3","","2074","tol_toboard","","","","tol_peg_2","2074","2074","0","[[2,0,0],[1,0],[3]]","15","[[0,0,0],[1,2],[3]]","18","0","","","","","","7","","","","","","","","",""
"","","","","","single-stim-button","299","515701","0.0-2.0-65.15-0.15","5731e4005b8b06000f7e36b3","C3","batch3","","755","tol_tohand","","","","tol_peg_1","755","755","0","[[0,0,0],[1,0],[3]]","16","[[0,0,0],[1,2],[3]]","18","0","","","","","","7","","","","","","","","",""
"","","","","","single-stim-button","300","516313","0.0-2.0-65.15-1.15","5731e4005b8b06000f7e36b3","C3","batch3","","611","tol_toboard","","","","tol_peg_2","611","611","0","[[0,0,0],[1,2],[3]]","16","[[0,0,0],[1,2],[3]]","18","0","","","","","","7","","","","","","","","",""
"","","","","","poldrack-single-stim","301","517314","0.0-2.0-66.0","5731e4005b8b06000f7e36b3","C3","batch3","","-1","tol_feedback","","","true","","1000","1000","500","","","","","","-1","none","true","1679","27842","","","","","","","","","",""
"","","","","","html-button-response","302","517826","0.0-2.0-67.0","5731e4005b8b06000f7e36b3","C3","batch3","","510.7999999523163","tol_trial_num","<div class = centerbox><p class = center-block-text>problem <strong>20</strong> out of 25 problems</p></div>","0","","","","","","","","","","","","","","","","","","","","","","","","",""
"","","","","","single-stim-button","303","525124","0.0-2.0-68.0-0.0","5731e4005b8b06000f7e36b3","C3","batch3","","7298","tol_tohand","","","","tol_peg_1","7298","7298","0","[[1,0,0],[3,0],[0]]","1","[[2,1,0],[0,0],[3]]","19","0","","","","","","5","","","","","","","","",""
"","","","","","single-stim-button","304","525890","0.0-2.0-68.0-1.0","5731e4005b8b06000f7e36b3","C3","batch3","","765","tol_toboard","","","","tol_peg_3","765","765","0","[[1,0,0],[3,0],[2]]","1","[[2,1,0],[0,0],[3]]","19","0","","","","","","5","","","","","","","","",""
"","","","","","single-stim-button","305","528685","0.0-2.0-68.1-0.1","5731e4005b8b06000f7e36b3","C3","batch3","","2793","tol_tohand","","","","tol_peg_1","2793","2793","0","[[0,0,0],[3,0],[2]]","2","[[2,1,0],[0,0],[3]]","19","0","","","","","","5","","","","","","","","",""
"","","","","","single-stim-button","306","530282","0.0-2.0-68.1-1.1","5731e4005b8b06000f7e36b3","C3","batch3","","1597","tol_toboard","","","","tol_peg_2","1597","1597","0","[[0,0,0],[3,1],[2]]","2","[[2,1,0],[0,0],[3]]","19","0","","","","","","5","","","","","","","","",""
"","","","","","single-stim-button","307","530787","0.0-2.0-68.2-0.2","5731e4005b8b06000f7e36b3","C3","batch3","","504","tol_tohand","","","","tol_peg_3","504","504","0","[[0,0,0],[3,1],[0]]","3","[[2,1,0],[0,0],[3]]","19","0","","","","","","5","","","","","","","","",""
"","","","","","single-stim-button","308","531335","0.0-2.0-68.2-1.2","5731e4005b8b06000f7e36b3","C3","batch3","","548","tol_toboard","","","","tol_peg_1","548","548","0","[[2,0,0],[3,1],[0]]","3","[[2,1,0],[0,0],[3]]","19","0","","","","","","5","","","","","","","","",""
"","","","","","single-stim-button","309","531834","0.0-2.0-68.3-0.3","5731e4005b8b06000f7e36b3","C3","batch3","","498","tol_tohand","","","","tol_peg_2","498","498","0","[[2,0,0],[3,0],[0]]","4","[[2,1,0],[0,0],[3]]","19","0","","","","","","5","","","","","","","","",""
"","","","","","single-stim-button","310","532249","0.0-2.0-68.3-1.3","5731e4005b8b06000f7e36b3","C3","batch3","","414","tol_toboard","","","","tol_peg_1","414","414","0","[[2,1,0],[3,0],[0]]","4","[[2,1,0],[0,0],[3]]","19","0","","","","","","5","","","","","","","","",""
"","","","","","single-stim-button","311","532673","0.0-2.0-68.4-0.4","5731e4005b8b06000f7e36b3","C3","batch3","","424","tol_tohand","","","","tol_peg_2","424","424","0","[[2,1,0],[0,0],[0]]","5","[[2,1,0],[0,0],[3]]","19","0","","","","","","5","","","","","","","","",""
"","","","","","single-stim-button","312","533175","0.0-2.0-68.4-1.4","5731e4005b8b06000f7e36b3","C3","batch3","","502","tol_toboard","","","","tol_peg_3","502","502","0","[[2,1,0],[0,0],[3]]","5","[[2,1,0],[0,0],[3]]","19","0","","","","","","5","","","","","","","","",""
"","","","","","poldrack-single-stim","313","534175","0.0-2.0-69.0","5731e4005b8b06000f7e36b3","C3","batch3","","-1","tol_feedback","","","true","","1000","1000","500","","","","","","-1","none","true","7298","11517","","","","","","","","","",""
"","","","","","html-button-response","314","534649","0.0-2.0-70.0","5731e4005b8b06000f7e36b3","C3","batch3","","472.8000000715256","tol_trial_num","<div class = centerbox><p class = center-block-text>problem <strong>21</strong> out of 25 problems</p></div>","0","","","","","","","","","","","","","","","","","","","","","","","","",""
"","","","","","single-stim-button","315","541356","0.0-2.0-71.0-0.0","5731e4005b8b06000f7e36b3","C3","batch3","","6706","tol_tohand","","","","tol_peg_2","6706","6706","0","[[1,2,0],[0,0],[0]]","1","[[3,2,0],[0,0],[1]]","20","0","","","","","","6","","","","","","","","",""
"","","","","","single-stim-button","316","541959","0.0-2.0-71.0-1.0","5731e4005b8b06000f7e36b3","C3","batch3","","603","tol_toboard","","","","tol_peg_3","603","603","0","[[1,2,0],[0,0],[3]]","1","[[3,2,0],[0,0],[1]]","20","0","","","","","","6","","","","","","","","",""
"","","","","","single-stim-button","317","542981","0.0-2.0-71.1-0.1","5731e4005b8b06000f7e36b3","C3","batch3","","1022","tol_tohand","","","","tol_peg_1","1022","1022","0","[[1,0,0],[0,0],[3]]","2","[[3,2,0],[0,0],[1]]","20","0","","","","","","6","","","","","","","","",""
"","","","","","single-stim-button","318","543505","0.0-2.0-71.1-1.1","5731e4005b8b06000f7e36b3","C3","batch3","","523","tol_toboard","","","","tol_peg_2","523","523","0","[[1,0,0],[2,0],[3]]","2","[[3,2,0],[0,0],[1]]","20","0","","","","","","6","","","","","","","","",""
"","","","","","single-stim-button","319","543998","0.0-2.0-71.2-0.2","5731e4005b8b06000f7e36b3","C3","batch3","","492","tol_tohand","","","","tol_peg_1","492","492","0","[[0,0,0],[2,0],[3]]","3","[[3,2,0],[0,0],[1]]","20","0","","","","","","6","","","","","","","","",""
"","","","","","single-stim-button","320","544457","0.0-2.0-71.2-1.2","5731e4005b8b06000f7e36b3","C3","batch3","","458","tol_toboard","","","","tol_peg_2","458","458","0","[[0,0,0],[2,1],[3]]","3","[[3,2,0],[0,0],[1]]","20","0","","","","","","6","","","","","","","","",""
"","","","","","single-stim-button","321","544957","0.0-2.0-71.3-0.3","5731e4005b8b06000f7e36b3","C3","batch3","","500","tol_tohand","","","","tol_peg_3","500","500","0","[[0,0,0],[2,1],[0]]","4","[[3,2,0],[0,0],[1]]","20","0","","","","","","6","","","","","","","","",""
"","","","","","single-stim-button","322","545554","0.0-2.0-71.3-1.3","5731e4005b8b06000f7e36b3","C3","batch3","","597","tol_toboard","","","","tol_peg_1","597","597","0","[[3,0,0],[2,1],[0]]","4","[[3,2,0],[0,0],[1]]","20","0","","","","","","6","","","","","","","","",""
"","","","","","single-stim-button","323","545989","0.0-2.0-71.4-0.4","5731e4005b8b06000f7e36b3","C3","batch3","","434","tol_tohand","","","","tol_peg_2","434","434","0","[[3,0,0],[2,0],[0]]","5","[[3,2,0],[0,0],[1]]","20","0","","","","","","6","","","","","","","","",""
"","","","","","single-stim-button","324","546500","0.0-2.0-71.4-1.4","5731e4005b8b06000f7e36b3","C3","batch3","","511","tol_toboard","","","","tol_peg_3","511","511","0","[[3,0,0],[2,0],[1]]","5","[[3,2,0],[0,0],[1]]","20","0","","","","","","6","","","","","","","","",""
"","","","","","single-stim-button","325","546974","0.0-2.0-71.5-0.5","5731e4005b8b06000f7e36b3","C3","batch3","","474","tol_tohand","","","","tol_peg_2","474","474","0","[[3,0,0],[0,0],[1]]","6","[[3,2,0],[0,0],[1]]","20","0","","","","","","6","","","","","","","","",""
"","","","","","single-stim-button","326","547388","0.0-2.0-71.5-1.5","5731e4005b8b06000f7e36b3","C3","batch3","","413","tol_toboard","","","","tol_peg_1","413","413","0","[[3,2,0],[0,0],[1]]","6","[[3,2,0],[0,0],[1]]","20","0","","","","","","6","","","","","","","","",""
"","","","","","poldrack-single-stim","327","548388","0.0-2.0-72.0","5731e4005b8b06000f7e36b3","C3","batch3","","-1","tol_feedback","","","true","","1000","1000","500","","","","","","-1","none","true","6706","9628","","","","","","","","","",""
"","","","","","html-button-response","328","548827","0.0-2.0-73.0","5731e4005b8b06000f7e36b3","C3","batch3","","438.10000002384186","tol_trial_num","<div class = centerbox><p class = center-block-text>problem <strong>22</strong> out of 25 problems</p></div>","0","","","","","","","","","","","","","","","","","","","","","","","","",""
"","","","","","single-stim-button","329","564339","0.0-2.0-74.0-0.0","5731e4005b8b06000f7e36b3","C3","batch3","","15511","tol_tohand","","","","tol_peg_2","15511","15511","0","[[1,0,0],[2,0],[0]]","1","[[0,0,0],[1,2],[3]]","21","0","","","","","","6","","","","","","","","",""
"","","","","","single-stim-button","330","565194","0.0-2.0-74.0-1.0","5731e4005b8b06000f7e36b3","C3","batch3","","855","tol_toboard","","","","tol_peg_3","855","855","0","[[1,0,0],[2,0],[3]]","1","[[0,0,0],[1,2],[3]]","21","0","","","","","","6","","","","","","","","",""
"","","","","","single-stim-button","331","565950","0.0-2.0-74.1-0.1","5731e4005b8b06000f7e36b3","C3","batch3","","756","tol_tohand","","","","tol_peg_1","756","756","0","[[0,0,0],[2,0],[3]]","2","[[0,0,0],[1,2],[3]]","21","0","","","","","","6","","","","","","","","",""
"","","","","","single-stim-button","332","566367","0.0-2.0-74.1-1.1","5731e4005b8b06000f7e36b3","C3","batch3","","416","tol_toboard","","","","tol_peg_2","416","416","0","[[0,0,0],[2,1],[3]]","2","[[0,0,0],[1,2],[3]]","21","0","","","","","","6","","","","","","","","",""
"","","","","","single-stim-button","333","566762","0.0-2.0-74.2-0.2","5731e4005b8b06000f7e36b3","C3","batch3","","395","tol_tohand","","","","tol_peg_3","395","395","0","[[0,0,0],[2,1],[0]]","3","[[0,0,0],[1,2],[3]]","21","0","","","","","","6","","","","","","","","",""
"","","","","","single-stim-button","334","567510","0.0-2.0-74.2-1.2","5731e4005b8b06000f7e36b3","C3","batch3","","747","tol_toboard","","","","tol_peg_1","747","747","0","[[3,0,0],[2,1],[0]]","3","[[0,0,0],[1,2],[3]]","21","0","","","","","","6","","","","","","","","",""
"","","","","","single-stim-button","335","568222","0.0-2.0-74.3-0.3","5731e4005b8b06000f7e36b3","C3","batch3","","711","tol_tohand","","","","tol_peg_2","711","711","0","[[3,0,0],[2,0],[0]]","4","[[0,0,0],[1,2],[3]]","21","0","","","","","","6","","","","","","","","",""
"","","","","","single-stim-button","336","568868","0.0-2.0-74.3-1.3","5731e4005b8b06000f7e36b3","C3","batch3","","646","tol_toboard","","","","tol_peg_1","646","646","0","[[3,1,0],[2,0],[0]]","4","[[0,0,0],[1,2],[3]]","21","0","","","","","","6","","","","","","","","",""
"","","","","","single-stim-button","337","569282","0.0-2.0-74.4-0.4","5731e4005b8b06000f7e36b3","C3","batch3","","414","tol_tohand","","","","tol_peg_2","414","414","0","[[3,1,0],[0,0],[0]]","5","[[0,0,0],[1,2],[3]]","21","0","","","","","","6","","","","","","","","",""
"","","","","","single-stim-button","338","569744","0.0-2.0-74.4-1.4","5731e4005b8b06000f7e36b3","C3","batch3","","462","tol_toboard","","","","tol_peg_3","462","462","0","[[3,1,0],[0,0],[2]]","5","[[0,0,0],[1,2],[3]]","21","0","","","","","","6","","","","","","","","",""
"","","","","","single-stim-button","339","570304","0.0-2.0-74.5-0.5","5731e4005b8b06000f7e36b3","C3","batch3","","559","tol_tohand","","","","tol_peg_1","559","559","0","[[3,0,0],[0,0],[2]]","6","[[0,0,0],[1,2],[3]]","21","0","","","","","","6","","","","","","","","",""
"","","","","","single-stim-button","340","571587","0.0-2.0-74.5-1.5","5731e4005b8b06000f7e36b3","C3","batch3","","1283","tol_toboard","","","","tol_peg_2","1283","1283","0","[[3,0,0],[1,0],[2]]","6","[[0,0,0],[1,2],[3]]","21","0","","","","","","6","","","","","","","","",""
"","","","","","single-stim-button","341","572121","0.0-2.0-74.6-0.6","5731e4005b8b06000f7e36b3","C3","batch3","","534","tol_tohand","","","","tol_peg_3","534","534","0","[[3,0,0],[1,0],[0]]","7","[[0,0,0],[1,2],[3]]","21","0","","","","","","6","","","","","","","","",""
"","","","","","single-stim-button","342","572551","0.0-2.0-74.6-1.6","5731e4005b8b06000f7e36b3","C3","batch3","","430","tol_toboard","","","","tol_peg_2","430","430","0","[[3,0,0],[1,2],[0]]","7","[[0,0,0],[1,2],[3]]","21","0","","","","","","6","","","","","","","","",""
"","","","","","single-stim-button","343","573024","0.0-2.0-74.7-0.7","5731e4005b8b06000f7e36b3","C3","batch3","","472","tol_tohand","","","","tol_peg_1","472","472","0","[[0,0,0],[1,2],[0]]","8","[[0,0,0],[1,2],[3]]","21","0","","","","","","6","","","","","","","","",""
"","","","","","single-stim-button","344","573568","0.0-2.0-74.7-1.7","5731e4005b8b06000f7e36b3","C3","batch3","","544","tol_toboard","","","","tol_peg_3","544","544","0","[[0,0,0],[1,2],[3]]","8","[[0,0,0],[1,2],[3]]","21","0","","","","","","6","","","","","","","","",""
"","","","","","poldrack-single-stim","345","574570","0.0-2.0-75.0","5731e4005b8b06000f7e36b3","C3","batch3","","-1","tol_feedback","","","true","","1000","1000","500","","","","","","-1","none","true","15511","19352","","","","","","","","","",""
"","","","","","html-button-response","346","574995","0.0-2.0-76.0","5731e4005b8b06000f7e36b3","C3","batch3","","424.7000000476837","tol_trial_num","<div class = centerbox><p class = center-block-text>problem <strong>23</strong> out of 25 problems</p></div>","0","","","","","","","","","","","","","","","","","","","","","","","","",""
"","","","","","single-stim-button","347","578042","0.0-2.0-77.0-0.0","5731e4005b8b06000f7e36b3","C3","batch3","","3047","tol_tohand","","","","tol_peg_1","3047","3047","0","[[1,0,0],[3,0],[0]]","1","[[1,3,2],[0,0],[0]]","22","0","","","","","","3","","","","","","","","",""
"","","","","","single-stim-button","348","578727","0.0-2.0-77.0-1.0","5731e4005b8b06000f7e36b3","C3","batch3","","683","tol_toboard","","","","tol_peg_3","683","683","0","[[1,0,0],[3,0],[2]]","1","[[1,3,2],[0,0],[0]]","22","0","","","","","","3","","","","","","","","",""
"","","","","","single-stim-button","349","579133","0.0-2.0-77.1-0.1","5731e4005b8b06000f7e36b3","C3","batch3","","406","tol_tohand","","","","tol_peg_2","406","406","0","[[1,0,0],[0,0],[2]]","2","[[1,3,2],[0,0],[0]]","22","0","","","","","","3","","","","","","","","",""
"","","","","","single-stim-button","350","579594","0.0-2.0-77.1-1.1","5731e4005b8b06000f7e36b3","C3","batch3","","460","tol_toboard","","","","tol_peg_1","460","460","0","[[1,3,0],[0,0],[2]]","2","[[1,3,2],[0,0],[0]]","22","0","","","","","","3","","","","","","","","",""
"","","","","","single-stim-button","351","580184","0.0-2.0-77.2-0.2","5731e4005b8b06000f7e36b3","C3","batch3","","590","tol_tohand","","","","tol_peg_3","590","590","0","[[1,3,0],[0,0],[0]]","3","[[1,3,2],[0,0],[0]]","22","0","","","","","","3","","","","","","","","",""
"","","","","","single-stim-button","352","580922","0.0-2.0-77.2-1.2","5731e4005b8b06000f7e36b3","C3","batch3","","737","tol_toboard","","","","tol_peg_1","737","737","0","[[1,3,2],[0,0],[0]]","3","[[1,3,2],[0,0],[0]]","22","0","","","","","","3","","","","","","","","",""
"","","","","","poldrack-single-stim","353","581923","0.0-2.0-78.0","5731e4005b8b06000f7e36b3","C3","batch3","","-1","tol_feedback","","","true","","1000","1000","500","","","","","","-1","none","true","3047","4043","","","","","","","","","",""
"","","","","","html-button-response","354","582371","0.0-2.0-79.0","5731e4005b8b06000f7e36b3","C3","batch3","","447.60000002384186","tol_trial_num","<div class = centerbox><p class = center-block-text>problem <strong>24</strong> out of 25 problems</p></div>","0","","","","","","","","","","","","","","","","","","","","","","","","",""
"","","","","","single-stim-button","355","586362","0.0-2.0-80.0-0.0","5731e4005b8b06000f7e36b3","C3","batch3","","3991","tol_tohand","","","","tol_peg_3","3991","3991","0","[[0,0,0],[2,3],[0]]","1","[[2,0,0],[3,0],[1]]","23","0","","","","","","7","","","","","","","","",""
"","","","","","single-stim-button","356","587030","0.0-2.0-80.0-1.0","5731e4005b8b06000f7e36b3","C3","batch3","","667","tol_toboard","","","","tol_peg_1","667","667","0","[[1,0,0],[2,3],[0]]","1","[[2,0,0],[3,0],[1]]","23","0","","","","","","7","","","","","","","","",""
