"success","timeout","failed_images","failed_audio","failed_video","trial_type","trial_index","time_elapsed","internal_node_id","subject_id","study_id","session_id","view_history","rt","stimulus","response","task","correct","answer","item","fiar_detect_rt","fiar_detect_correct","total_correct_fiar_detect","post_trial_gap","choices","mouse_click","stim_duration","block_duration","timing_post_trial","current_position","tol_num_moves_made","tol_target","tol_problem_id","tol_rt","key_press","possible_responses","tol_correct","preplanning","tol_rt_per_trial","tol_min_moves","spm_correct","spm_rt"
"true","false","[]","[]","[]","preload","0","1581","0.0-0.0","5783f7dd25cb7100012884a7","E1","batch5","","","","","","","","","","","","","","","","","","","","","","","","","","","","","",""
"true","","","","","fullscreen","1","16248","0.0-1.0-0.0","5783f7dd25cb7100012884a7","E1","batch5","","","","","","","","","","","","","","","","","","","","","","","","","","","","","",""
"true","","","","","fullscreen","2","18846","0.0-2.0-0.0","5783f7dd25cb7100012884a7","E1","batch5","","","","","","","","","","","","","","","","","","","","","","","","","","","","","",""
"","","","","","instructions","3","44538","0.0-2.0-1.0-0.0","5783f7dd25cb7100012884a7","E1","batch5","[{""page_index"":0,""viewing_time"":19410},{""page_index"":1,""viewing_time"":6281.099999904633}]","25691.39999985695","","","","","","","","","","","","","","","","","","","","","","","","","","","",""
"","","","","","html-button-response","4","46099","0.0-2.0-1.0-1.0-0.0","5783f7dd25cb7100012884a7","E1","batch5","","1559.3999998569489","<p class=block-text> Let's answer a few questions <br>","0","pattern_enter_quiz","","","","","","","","","","","","","","","","","","","","","","","","",""
"","","","","","html-button-response","5","49315","0.0-2.0-1.0-1.0-1.0","5783f7dd25cb7100012884a7","E1","batch5","","3215","<p class = block-text>True or False: You will have as much time as you want to make each choice. <br></p>","1","pattern_quiz","true","","","","","","","","","","","","","","","","","","","","","","","",""
"","","","","","html-button-response","6","50772","0.0-2.0-1.0-1.0-2.0","5783f7dd25cb7100012884a7","E1","batch5","","1456.2999999523163","<p class = block-text>Correct! You should make your choice <strong> as fast as you can</strong>.</p>","0","pattern_quiz_feedback","","","","","","","","","","","","","","","","","","","","","","","","",""
"","","","","","html-button-response","7","55659","0.0-2.0-1.0-1.0-3.0","5783f7dd25cb7100012884a7","E1","batch5","","4886.600000143051","<p class = block-text>True or False: You will look for 4 pieces in black or white color connected in a row either horizontally, vertically or diagonally. <br></p>","0","pattern_quiz","true","","","","","","","","","","","","","","","","","","","","","","","",""
"","","","","","html-button-response","8","56451","0.0-2.0-1.0-1.0-4.0","5783f7dd25cb7100012884a7","E1","batch5","","791.2999999523163","<p class = block-text>Correct! </p>","0","pattern_quiz_feedback","","","","","","","","","","","","","","","","","","","","","","","","",""
"","","","","","html-button-response","9","57859","0.0-2.0-2.0","5783f7dd25cb7100012884a7","E1","batch5","","1407.1000001430511","<p class=block-text> Now that you've understood the game, let's do a few practice trials before we start!<br> <br>","0","pattern_enter_practice","","","","","","","","","","","","","","","","","","","","","","","","",""
"","","","","","image-keyboard-response","10","60544","0.0-2.0-3.0-0.0","5783f7dd25cb7100012884a7","E1","batch5","","2677.899999856949","stim/prac_yes_20_dia_b1.png","f","pattern_practice","true","f","","","","","","","","","","","","","","","","","","","","","","",""
"","","","","","html-keyboard-response","11","61566","0.0-2.0-3.0-1.0","5783f7dd25cb7100012884a7","E1","batch5","","null","<p style=""font-size:30px;color:green;"">Correct!</p>","null","pattern_feedback","","","","","","","","","","","","","","","","","","","","","","","","",""
"","","","","","image-keyboard-response","12","63133","0.0-2.0-3.0-0.1","5783f7dd25cb7100012884a7","E1","batch5","","1564.9000000953674","stim/prac_no_16_1.png","j","pattern_practice","true","j","","","","","","","","","","","","","","","","","","","","","","",""
"","","","","","html-keyboard-response","13","64154","0.0-2.0-3.0-1.1","5783f7dd25cb7100012884a7","E1","batch5","","null","<p style=""font-size:30px;color:green;"">Correct!</p>","null","pattern_feedback","","","","","","","","","","","","","","","","","","","","","","","","",""
"","","","","","image-keyboard-response","14","65619","0.0-2.0-3.0-0.2","5783f7dd25cb7100012884a7","E1","batch5","","1463.9000000953674","stim/prac_no_18_1.png","j","pattern_practice","true","j","","","","","","","","","","","","","","","","","","","","","","",""
"","","","","","html-keyboard-response","15","66649","0.0-2.0-3.0-1.2","5783f7dd25cb7100012884a7","E1","batch5","","null","<p style=""font-size:30px;color:green;"">Correct!</p>","null","pattern_feedback","","","","","","","","","","","","","","","","","","","","","","","","",""
"","","","","","image-keyboard-response","16","67500","0.0-2.0-3.0-0.3","5783f7dd25cb7100012884a7","E1","batch5","","849.7999999523163","stim/prac_yes_18_hor_w1.png","f","pattern_practice","true","f","","","","","","","","","","","","","","","","","","","","","","",""
"","","","","","html-keyboard-response","17","68520","0.0-2.0-3.0-1.3","5783f7dd25cb7100012884a7","E1","batch5","","null","<p style=""font-size:30px;color:green;"">Correct!</p>","null","pattern_feedback","","","","","","","","","","","","","","","","","","","","","","","","",""
"","","","","","image-keyboard-response","18","69221","0.0-2.0-3.0-0.4","5783f7dd25cb7100012884a7","E1","batch5","","699.7999999523163","stim/prac_yes_16_ver_w1.png","f","pattern_practice","true","f","","","","","","","","","","","","","","","","","","","","","","",""
"","","","","","html-keyboard-response","19","70237","0.0-2.0-3.0-1.4","5783f7dd25cb7100012884a7","E1","batch5","","null","<p style=""font-size:30px;color:green;"">Correct!</p>","null","pattern_feedback","","","","","","","","","","","","","","","","","","","","","","","","",""
"","","","","","html-button-response","20","72326","0.0-2.0-4.0","5783f7dd25cb7100012884a7","E1","batch5","","2087.9000000953674","<p class=block-text> Good job! You are done with practice trials!<br>
        You responded correctly on 100% of the trials.<br>
        Press the button below to start official trials. Now you won't see any feedback about your response</p>","0","pattern_enter_official_trials","","","","","","","","","","","","","","","","","","","","","","","","",""
"","","","","","html-keyboard-response","21","73128","0.0-2.0-5.0-0.0","5783f7dd25cb7100012884a7","E1","batch5","","null","<p class=block-text>Trial 1 out of 78</p>","null","pattern_show_trial_num","","","","","","","","","","","","","","","","","","","","","","","","",""
"","","","","","image-keyboard-response","22","74541","0.0-2.0-5.0-1.0","5783f7dd25cb7100012884a7","E1","batch5","","1411.7000000476837","stim/no_53_1_b.png","j","pattern_response","true","j","pattern_33","1411.7000000476837","true","1","","","","","","","","","","","","","","","","","","",""
"","","","","","html-keyboard-response","23","75866","0.0-2.0-5.0-0.1","5783f7dd25cb7100012884a7","E1","batch5","","null","<p class=block-text>Trial 2 out of 78</p>","null","pattern_show_trial_num","","","","","","","","","","","","","","","","","","","","","","","","",""
"","","","","","image-keyboard-response","24","76485","0.0-2.0-5.0-1.1","5783f7dd25cb7100012884a7","E1","batch5","","617.6999998092651","stim/yes_37_hor_w1_w.png","f","pattern_response","true","f","pattern_60","617.6999998092651","true","2","","","","","","","","","","","","","","","","","","",""
"","","","","","html-keyboard-response","25","77805","0.0-2.0-5.0-0.2","5783f7dd25cb7100012884a7","E1","batch5","","null","<p class=block-text>Trial 3 out of 78</p>","null","pattern_show_trial_num","","","","","","","","","","","","","","","","","","","","","","","","",""
"","","","","","image-keyboard-response","26","78839","0.0-2.0-5.0-1.2","5783f7dd25cb7100012884a7","E1","batch5","","1032.6999998092651","stim/yes_17_ver_b1_b.png","f","pattern_response","true","f","pattern_46","1032.6999998092651","true","3","","","","","","","","","","","","","","","","","","",""
"","","","","","html-keyboard-response","27","80158","0.0-2.0-5.0-0.3","5783f7dd25cb7100012884a7","E1","batch5","","null","<p class=block-text>Trial 4 out of 78</p>","null","pattern_show_trial_num","","","","","","","","","","","","","","","","","","","","","","","","",""
"","","","","","image-keyboard-response","28","81351","0.0-2.0-5.0-1.3","5783f7dd25cb7100012884a7","E1","batch5","","1191.5999999046326","stim/no_49_2_b.png","j","pattern_response","true","j","pattern_29","1191.5999999046326","true","4","","","","","","","","","","","","","","","","","","",""
"","","","","","html-keyboard-response","29","82657","0.0-2.0-5.0-0.4","5783f7dd25cb7100012884a7","E1","batch5","","null","<p class=block-text>Trial 5 out of 78</p>","null","pattern_show_trial_num","","","","","","","","","","","","","","","","","","","","","","","","",""
"","","","","","image-keyboard-response","30","84395","0.0-2.0-5.0-1.4","5783f7dd25cb7100012884a7","E1","batch5","","1737","stim/yes_53_ver_b1_b.png","f","pattern_response","true","f","pattern_74","1737","true","5","","","","","","","","","","","","","","","","","","",""
"","","","","","html-keyboard-response","31","85708","0.0-2.0-5.0-0.5","5783f7dd25cb7100012884a7","E1","batch5","","null","<p class=block-text>Trial 6 out of 78</p>","null","pattern_show_trial_num","","","","","","","","","","","","","","","","","","","","","","","","",""
"","","","","","image-keyboard-response","32","87391","0.0-2.0-5.0-1.5","5783f7dd25cb7100012884a7","E1","batch5","","1682.4000000953674","stim/yes_26_dia_w2_w.png","j","pattern_response","false","f","pattern_50","1682.4000000953674","false","5","","","","","","","","","","","","","","","","","","",""
"","","","","","html-keyboard-response","33","88715","0.0-2.0-5.0-0.6","5783f7dd25cb7100012884a7","E1","batch5","","null","<p class=block-text>Trial 7 out of 78</p>","null","pattern_show_trial_num","","","","","","","","","","","","","","","","","","","","","","","","",""
"","","","","","image-keyboard-response","34","89439","0.0-2.0-5.0-1.6","5783f7dd25cb7100012884a7","E1","batch5","","722.4000000953674","stim/no_15_1_w.png","j","pattern_response","true","j","pattern_03","722.4000000953674","true","6","","","","","","","","","","","","","","","","","","",""
"","","","","","html-keyboard-response","35","90753","0.0-2.0-5.0-0.7","5783f7dd25cb7100012884a7","E1","batch5","","null","<p class=block-text>Trial 8 out of 78</p>","null","pattern_show_trial_num","","","","","","","","","","","","","","","","","","","","","","","","",""
"","","","","","image-keyboard-response","36","92047","0.0-2.0-5.0-1.7","5783f7dd25cb7100012884a7","E1","batch5","","1293","stim/no_43_2_b.png","j","pattern_response","true","j","pattern_23","1293","true","7","","","","","","","","","","","","","","","","","","",""
"","","","","","html-keyboard-response","37","93363","0.0-2.0-5.0-0.8","5783f7dd25cb7100012884a7","E1","batch5","","null","<p class=block-text>Trial 9 out of 78</p>","null","pattern_show_trial_num","","","","","","","","","","","","","","","","","","","","","","","","",""
"","","","","","image-keyboard-response","38","94399","0.0-2.0-5.0-1.8","5783f7dd25cb7100012884a7","E1","batch5","","1034.9000000953674","stim/yes_39_hor_w1_w.png","f","pattern_response","true","f","pattern_62","1034.9000000953674","true","8","","","","","","","","","","","","","","","","","","",""
"","","","","","html-keyboard-response","39","95704","0.0-2.0-5.0-0.9","5783f7dd25cb7100012884a7","E1","batch5","","null","<p class=block-text>Trial 10 out of 78</p>","null","pattern_show_trial_num","","","","","","","","","","","","","","","","","","","","","","","","",""
"","","","","","image-keyboard-response","40","96530","0.0-2.0-5.0-1.9","5783f7dd25cb7100012884a7","E1","batch5","","824.2999999523163","stim/no_30_1_b.png","j","pattern_response","true","j","pattern_13","824.2999999523163","true","9","","","","","","","","","","","","","","","","","","",""
"","","","","","html-keyboard-response","41","97845","0.0-2.0-5.0-0.10","5783f7dd25cb7100012884a7","E1","batch5","","null","<p class=block-text>Trial 11 out of 78</p>","null","pattern_show_trial_num","","","","","","","","","","","","","","","","","","","","","","","","",""
"","","","","","image-keyboard-response","42","98645","0.0-2.0-5.0-1.10","5783f7dd25cb7100012884a7","E1","batch5","","799.5999999046326","stim/no_33_1_b.png","j","pattern_response","true","j","pattern_15","799.5999999046326","true","10","","","","","","","","","","","","","","","","","","",""
"","","","","","html-keyboard-response","43","99983","0.0-2.0-5.0-0.11","5783f7dd25cb7100012884a7","E1","batch5","","null","<p class=block-text>Trial 12 out of 78</p>","null","pattern_show_trial_num","","","","","","","","","","","","","","","","","","","","","","","","",""
"","","","","","image-keyboard-response","44","101123","0.0-2.0-5.0-1.11","5783f7dd25cb7100012884a7","E1","batch5","","1138.3999998569489","stim/no_28_2.png","j","pattern_response","true","j","pattern_11","1138.3999998569489","true","11","","","","","","","","","","","","","","","","","","",""
"","","","","","html-keyboard-response","45","102446","0.0-2.0-5.0-0.12","5783f7dd25cb7100012884a7","E1","batch5","","null","<p class=block-text>Trial 13 out of 78</p>","null","pattern_show_trial_num","","","","","","","","","","","","","","","","","","","","","","","","",""
"","","","","","image-keyboard-response","46","104603","0.0-2.0-5.0-1.12","5783f7dd25cb7100012884a7","E1","batch5","","2156.2000000476837","stim/no_58_1_w.png","j","pattern_response","true","j","pattern_35","2156.2000000476837","true","12","","","","","","","","","","","","","","","","","","",""
"","","","","","html-keyboard-response","47","105920","0.0-2.0-5.0-0.13","5783f7dd25cb7100012884a7","E1","batch5","","null","<p class=block-text>Trial 14 out of 78</p>","null","pattern_show_trial_num","","","","","","","","","","","","","","","","","","","","","","","","",""
"","","","","","image-keyboard-response","48","107480","0.0-2.0-5.0-1.13","5783f7dd25cb7100012884a7","E1","batch5","","1557.8000001907349","stim/no_45_1_w.png","j","pattern_response","true","j","pattern_25","1557.8000001907349","true","13","","","","","","","","","","","","","","","","","","",""
"","","","","","html-keyboard-response","49","108802","0.0-2.0-5.0-0.14","5783f7dd25cb7100012884a7","E1","batch5","","null","<p class=block-text>Trial 15 out of 78</p>","null","pattern_show_trial_num","","","","","","","","","","","","","","","","","","","","","","","","",""
"","","","","","image-keyboard-response","50","110347","0.0-2.0-5.0-1.14","5783f7dd25cb7100012884a7","E1","batch5","","1544.2000000476837","stim/no_51_1.png","j","pattern_response","true","j","pattern_31","1544.2000000476837","true","14","","","","","","","","","","","","","","","","","","",""
"","","","","","html-keyboard-response","51","111661","0.0-2.0-5.0-0.15","5783f7dd25cb7100012884a7","E1","batch5","","null","<p class=block-text>Trial 16 out of 78</p>","null","pattern_show_trial_num","","","","","","","","","","","","","","","","","","","","","","","","",""
"","","","","","image-keyboard-response","52","113213","0.0-2.0-5.0-1.15","5783f7dd25cb7100012884a7","E1","batch5","","1551.4000000953674","stim/no_47_1_b.png","j","pattern_response","true","j","pattern_27","1551.4000000953674","true","15","","","","","","","","","","","","","","","","","","",""
"","","","","","html-keyboard-response","53","114538","0.0-2.0-5.0-0.16","5783f7dd25cb7100012884a7","E1","batch5","","null","<p class=block-text>Trial 17 out of 78</p>","null","pattern_show_trial_num","","","","","","","","","","","","","","","","","","","","","","","","",""
"","","","","","image-keyboard-response","54","115757","0.0-2.0-5.0-1.16","5783f7dd25cb7100012884a7","E1","batch5","","1218.1999998092651","stim/yes_51_dia_b1.png","j","pattern_response","false","f","pattern_72","1218.1999998092651","false","15","","","","","","","","","","","","","","","","","","",""
"","","","","","html-keyboard-response","55","117077","0.0-2.0-5.0-0.17","5783f7dd25cb7100012884a7","E1","batch5","","null","<p class=block-text>Trial 18 out of 78</p>","null","pattern_show_trial_num","","","","","","","","","","","","","","","","","","","","","","","","",""
"","","","","","image-keyboard-response","56","118530","0.0-2.0-5.0-1.17","5783f7dd25cb7100012884a7","E1","batch5","","1450.2000000476837","stim/yes_33_dia_w1_w.png","j","pattern_response","false","f","pattern_56","1450.2000000476837","false","15","","","","","","","","","","","","","","","","","","",""
"","","","","","html-keyboard-response","57","119853","0.0-2.0-5.0-0.18","5783f7dd25cb7100012884a7","E1","batch5","","null","<p class=block-text>Trial 19 out of 78</p>","null","pattern_show_trial_num","","","","","","","","","","","","","","","","","","","","","","","","",""
"","","","","","image-keyboard-response","58","121893","0.0-2.0-5.0-1.18","5783f7dd25cb7100012884a7","E1","batch5","","2039.2000000476837","stim/yes_58_dia_w1_w.png","j","pattern_response","false","f","pattern_76","2039.2000000476837","false","15","","","","","","","","","","","","","","","","","","",""
"","","","","","html-keyboard-response","59","123199","0.0-2.0-5.0-0.19","5783f7dd25cb7100012884a7","E1","batch5","","null","<p class=block-text>Trial 20 out of 78</p>","null","pattern_show_trial_num","","","","","","","","","","","","","","","","","","","","","","","","",""
"","","","","","image-keyboard-response","60","124429","0.0-2.0-5.0-1.19","5783f7dd25cb7100012884a7","E1","batch5","","1229.6999998092651","stim/yes_30_ver_b1_b.png","f","pattern_response","true","f","pattern_54","1229.6999998092651","true","16","","","","","","","","","","","","","","","","","","",""
"","","","","","html-keyboard-response","61","125751","0.0-2.0-5.0-0.20","5783f7dd25cb7100012884a7","E1","batch5","","null","<p class=block-text>Trial 21 out of 78</p>","null","pattern_show_trial_num","","","","","","","","","","","","","","","","","","","","","","","","",""
"","","","","","image-keyboard-response","62","126767","0.0-2.0-5.0-1.20","5783f7dd25cb7100012884a7","E1","batch5","","1015.2000000476837","stim/no_25_1_b.png","j","pattern_response","true","j","pattern_09","1015.2000000476837","true","17","","","","","","","","","","","","","","","","","","",""
"","","","","","html-keyboard-response","63","128088","0.0-2.0-5.0-0.21","5783f7dd25cb7100012884a7","E1","batch5","","null","<p class=block-text>Trial 22 out of 78</p>","null","pattern_show_trial_num","","","","","","","","","","","","","","","","","","","","","","","","",""
"","","","","","image-keyboard-response","64","128978","0.0-2.0-5.0-1.21","5783f7dd25cb7100012884a7","E1","batch5","","889.5999999046326","stim/yes_15_dia_b1u_b.png","f","pattern_response","true","f","pattern_44","889.5999999046326","true","18","","","","","","","","","","","","","","","","","","",""
"","","","","","html-keyboard-response","65","130300","0.0-2.0-5.0-0.22","5783f7dd25cb7100012884a7","E1","batch5","","null","<p class=block-text>Trial 23 out of 78</p>","null","pattern_show_trial_num","","","","","","","","","","","","","","","","","","","","","","","","",""
"","","","","","image-keyboard-response","66","131966","0.0-2.0-5.0-1.22","5783f7dd25cb7100012884a7","E1","batch5","","1664.5","stim/no_37_2_w.png","j","pattern_response","true","j","pattern_19","1664.5","true","19","","","","","","","","","","","","","","","","","","",""
"","","","","","html-keyboard-response","67","133288","0.0-2.0-5.0-0.23","5783f7dd25cb7100012884a7","E1","batch5","","null","<p class=block-text>Trial 24 out of 78</p>","null","pattern_show_trial_num","","","","","","","","","","","","","","","","","","","","","","","","",""
"","","","","","image-keyboard-response","68","134504","0.0-2.0-5.0-1.23","5783f7dd25cb7100012884a7","E1","batch5","","1214.4000000953674","stim/yes_44_ver_w1_w.png","f","pattern_response","true","f","pattern_66","1214.4000000953674","true","20","","","","","","","","","","","","","","","","","","",""
"","","","","","html-keyboard-response","69","135818","0.0-2.0-5.0-0.24","5783f7dd25cb7100012884a7","E1","batch5","","null","<p class=block-text>Trial 25 out of 78</p>","null","pattern_show_trial_num","","","","","","","","","","","","","","","","","","","","","","","","",""
"","","","","","image-keyboard-response","70","137256","0.0-2.0-5.0-1.24","5783f7dd25cb7100012884a7","E1","batch5","","1437","stim/no_22_1_b.png","j","pattern_response","true","j","pattern_07","1437","true","21","","","","","","","","","","","","","","","","","","",""
"","","","","","html-keyboard-response","71","138566","0.0-2.0-5.0-0.25","5783f7dd25cb7100012884a7","E1","batch5","","null","<p class=block-text>Trial 26 out of 78</p>","null","pattern_show_trial_num","","","","","","","","","","","","","","","","","","","","","","","","",""
"","","","","","image-keyboard-response","72","139628","0.0-2.0-5.0-1.25","5783f7dd25cb7100012884a7","E1","batch5","","1060.8000001907349","stim/yes_29_hor_b1_b.png","f","pattern_response","true","f","pattern_52","1060.8000001907349","true","22","","","","","","","","","","","","","","","","","","",""
"","","","","","html-keyboard-response","73","140949","0.0-2.0-5.0-0.26","5783f7dd25cb7100012884a7","E1","batch5","","null","<p class=block-text>Trial 27 out of 78</p>","null","pattern_show_trial_num","","","","","","","","","","","","","","","","","","","","","","","","",""
"","","","","","image-keyboard-response","74","141776","0.0-2.0-5.0-1.26","5783f7dd25cb7100012884a7","E1","batch5","","825.7999999523163","stim/yes_46_ver_b1_b.png","f","pattern_response","true","f","pattern_68","825.7999999523163","true","23","","","","","","","","","","","","","","","","","","",""
"","","","","","html-keyboard-response","75","143089","0.0-2.0-5.0-0.27","5783f7dd25cb7100012884a7","E1","batch5","","null","<p class=block-text>Trial 28 out of 78</p>","null","pattern_show_trial_num","","","","","","","","","","","","","","","","","","","","","","","","",""
"","","","","","image-keyboard-response","76","143832","0.0-2.0-5.0-1.27","5783f7dd25cb7100012884a7","E1","batch5","","741.2999999523163","stim/yes_12_hor_w1_w.png","f","pattern_response","true","f","pattern_42","741.2999999523163","true","24","","","","","","","","","","","","","","","","","","",""
"","","","","","html-keyboard-response","77","145143","0.0-2.0-5.0-0.28","5783f7dd25cb7100012884a7","E1","batch5","","null","<p class=block-text>Trial 29 out of 78</p>","null","pattern_show_trial_num","","","","","","","","","","","","","","","","","","","","","","","","",""
"","","","","","image-keyboard-response","78","145858","0.0-2.0-5.0-1.28","5783f7dd25cb7100012884a7","E1","batch5","","713.5999999046326","stim/yes_70_ver_b1.png","f","pattern_response","true","f","pattern_80","713.5999999046326","true","25","","","","","","","","","","","","","","","","","","",""
"","","","","","html-keyboard-response","79","147168","0.0-2.0-5.0-0.29","5783f7dd25cb7100012884a7","E1","batch5","","null","<p class=block-text>Trial 30 out of 78</p>","null","pattern_show_trial_num","","","","","","","","","","","","","","","","","","","","","","","","",""
"","","","","","image-keyboard-response","80","148218","0.0-2.0-5.0-1.29","5783f7dd25cb7100012884a7","E1","batch5","","1049","stim/no_36_1_b.png","j","pattern_response","true","j","pattern_17","1049","true","26","","","","","","","","","","","","","","","","","","",""
"","","","","","html-keyboard-response","81","149536","0.0-2.0-5.0-0.30","5783f7dd25cb7100012884a7","E1","batch5","","null","<p class=block-text>Trial 31 out of 78</p>","null","pattern_show_trial_num","","","","","","","","","","","","","","","","","","","","","","","","",""
"","","","","","image-keyboard-response","82","150479","0.0-2.0-5.0-1.30","5783f7dd25cb7100012884a7","E1","batch5","","941.5","stim/yes_36_ver_w1_w.png","f","pattern_response","true","f","pattern_58","941.5","true","27","","","","","","","","","","","","","","","","","","",""
"","","","","","html-keyboard-response","83","151797","0.0-2.0-5.0-0.31","5783f7dd25cb7100012884a7","E1","batch5","","null","<p class=block-text>Trial 32 out of 78</p>","null","pattern_show_trial_num","","","","","","","","","","","","","","","","","","","","","","","","",""
"","","","","","image-keyboard-response","84","152578","0.0-2.0-5.0-1.31","5783f7dd25cb7100012884a7","E1","batch5","","780","stim/yes_49_hor_w1_b.png","f","pattern_response","true","f","pattern_70","780","true","28","","","","","","","","","","","","","","","","","","",""
"","","","","","html-keyboard-response","85","153890","0.0-2.0-5.0-0.32","5783f7dd25cb7100012884a7","E1","batch5","","null","<p class=block-text>Trial 33 out of 78</p>","null","pattern_show_trial_num","","","","","","","","","","","","","","","","","","","","","","","","",""
"","","","","","image-keyboard-response","86","154882","0.0-2.0-5.0-1.32","5783f7dd25cb7100012884a7","E1","batch5","","990.7000000476837","stim/no_67_1.png","j","pattern_response","true","j","pattern_39","990.7000000476837","true","29","","","","","","","","","","","","","","","","","","",""
"","","","","","html-keyboard-response","87","156199","0.0-2.0-5.0-0.33","5783f7dd25cb7100012884a7","E1","batch5","","null","<p class=block-text>Trial 34 out of 78</p>","null","pattern_show_trial_num","","","","","","","","","","","","","","","","","","","","","","","","",""
"","","","","","image-keyboard-response","88","157762","0.0-2.0-5.0-1.33","5783f7dd25cb7100012884a7","E1","batch5","","1562.5","stim/no_18_1_b.png","j","pattern_response","true","j","pattern_05","1562.5","true","30","","","","","","","","","","","","","","","","","","",""
"","","","","","html-keyboard-response","89","159075","0.0-2.0-5.0-0.34","5783f7dd25cb7100012884a7","E1","batch5","","null","<p class=block-text>Trial 35 out of 78</p>","null","pattern_show_trial_num","","","","","","","","","","","","","","","","","","","","","","","","",""
"","","","","","image-keyboard-response","90","159971","0.0-2.0-5.0-1.34","5783f7dd25cb7100012884a7","E1","batch5","","893.7999999523163","stim/no_39_1_w.png","j","pattern_response","true","j","pattern_21","893.7999999523163","true","31","","","","","","","","","","","","","","","","","","",""
"","","","","","html-keyboard-response","91","161284","0.0-2.0-5.0-0.35","5783f7dd25cb7100012884a7","E1","batch5","","null","<p class=block-text>Trial 36 out of 78</p>","null","pattern_show_trial_num","","","","","","","","","","","","","","","","","","","","","","","","",""
"","","","","","image-keyboard-response","92","162536","0.0-2.0-5.0-1.35","5783f7dd25cb7100012884a7","E1","batch5","","1250.5999999046326","stim/yes_63_dia_b1.png","j","pattern_response","false","f","pattern_78","1250.5999999046326","false","31","","","","","","","","","","","","","","","","","","",""
"","","","","","html-keyboard-response","93","163856","0.0-2.0-5.0-0.36","5783f7dd25cb7100012884a7","E1","batch5","","null","<p class=block-text>Trial 37 out of 78</p>","null","pattern_show_trial_num","","","","","","","","","","","","","","","","","","","","","","","","",""
"","","","","","image-keyboard-response","94","165165","0.0-2.0-5.0-1.36","5783f7dd25cb7100012884a7","E1","batch5","","1308.1000001430511","stim/yes_42_dia_w1_w.png","j","pattern_response","false","f","pattern_64","1308.1000001430511","false","31","","","","","","","","","","","","","","","","","","",""
"","","","","","html-keyboard-response","95","166480","0.0-2.0-5.0-0.37","5783f7dd25cb7100012884a7","E1","batch5","","null","<p class=block-text>Trial 38 out of 78</p>","null","pattern_show_trial_num","","","","","","","","","","","","","","","","","","","","","","","","",""
"","","","","","image-keyboard-response","96","167269","0.0-2.0-5.0-1.37","5783f7dd25cb7100012884a7","E1","batch5","","787.5999999046326","stim/no_12_1.png","j","pattern_response","true","j","pattern_01","787.5999999046326","true","32","","","","","","","","","","","","","","","","","","",""
"","","","","","html-keyboard-response","97","168571","0.0-2.0-5.0-0.38","5783f7dd25cb7100012884a7","E1","batch5","","null","<p class=block-text>Trial 39 out of 78</p>","null","pattern_show_trial_num","","","","","","","","","","","","","","","","","","","","","","","","",""
"","","","","","image-keyboard-response","98","169645","0.0-2.0-5.0-1.38","5783f7dd25cb7100012884a7","E1","batch5","","1072.7000000476837","stim/yes_23_ver_b1.png","f","pattern_response","true","f","pattern_48","1072.7000000476837","true","33","","","","","","","","","","","","","","","","","","",""
"","","","","","image-keyboard-response","99","172978","0.0-2.0-6.0","5783f7dd25cb7100012884a7","E1","batch5","","2825.300000190735","stim/empty_board.png","j","attention_check","true","j","","","","","500","[""f"",""j""]","","","","","","","","","","","","","","","","",""
"","","","","","html-keyboard-response","100","173790","0.0-2.0-7.0-0.0","5783f7dd25cb7100012884a7","E1","batch5","","null","<p class=block-text>Trial 40 out of 78</p>","null","pattern_show_trial_num","","","","","","","","","","","","","","","","","","","","","","","","",""
"","","","","","image-keyboard-response","101","177405","0.0-2.0-7.0-1.0","5783f7dd25cb7100012884a7","E1","batch5","","3613.0999999046326","stim/no_36_2_w.png","j","pattern_response","true","j","pattern_18","3613.0999999046326","true","34","","","","","","","","","","","","","","","","","","",""
"","","","","","html-keyboard-response","102","178721","0.0-2.0-7.0-0.1","5783f7dd25cb7100012884a7","E1","batch5","","null","<p class=block-text>Trial 41 out of 78</p>","null","pattern_show_trial_num","","","","","","","","","","","","","","","","","","","","","","","","",""
"","","","","","image-keyboard-response","103","179533","0.0-2.0-7.0-1.1","5783f7dd25cb7100012884a7","E1","batch5","","811","stim/yes_14_hor_b1_w.png","f","pattern_response","true","f","pattern_43","811","true","35","","","","","","","","","","","","","","","","","","",""
"","","","","","html-keyboard-response","104","180851","0.0-2.0-7.0-0.2","5783f7dd25cb7100012884a7","E1","batch5","","null","<p class=block-text>Trial 42 out of 78</p>","null","pattern_show_trial_num","","","","","","","","","","","","","","","","","","","","","","","","",""
"","","","","","image-keyboard-response","105","182920","0.0-2.0-7.0-1.2","5783f7dd25cb7100012884a7","E1","batch5","","2067.5999999046326","stim/no_44_1.png","j","pattern_response","true","j","pattern_24","2067.5999999046326","true","36","","","","","","","","","","","","","","","","","","",""
"","","","","","html-keyboard-response","106","184241","0.0-2.0-7.0-0.3","5783f7dd25cb7100012884a7","E1","batch5","","null","<p class=block-text>Trial 43 out of 78</p>","null","pattern_show_trial_num","","","","","","","","","","","","","","","","","","","","","","","","",""
"","","","","","image-keyboard-response","107","185700","0.0-2.0-7.0-1.3","5783f7dd25cb7100012884a7","E1","batch5","","1458.1000001430511","stim/yes_43_ver_w1_w.png","f","pattern_response","true","f","pattern_65","1458.1000001430511","true","37","","","","","","","","","","","","","","","","","","",""
"","","","","","html-keyboard-response","108","187013","0.0-2.0-7.0-0.4","5783f7dd25cb7100012884a7","E1","batch5","","null","<p class=block-text>Trial 44 out of 78</p>","null","pattern_show_trial_num","","","","","","","","","","","","","","","","","","","","","","","","",""
"","","","","","image-keyboard-response","109","187936","0.0-2.0-7.0-1.4","5783f7dd25cb7100012884a7","E1","batch5","","920.2999999523163","stim/no_13_2_b.png","j","pattern_response","true","j","pattern_02","920.2999999523163","true","38","","","","","","","","","","","","","","","","","","",""
"","","","","","html-keyboard-response","110","189253","0.0-2.0-7.0-0.5","5783f7dd25cb7100012884a7","E1","batch5","","null","<p class=block-text>Trial 45 out of 78</p>","null","pattern_show_trial_num","","","","","","","","","","","","","","","","","","","","","","","","",""
"","","","","","image-keyboard-response","111","192527","0.0-2.0-7.0-1.5","5783f7dd25cb7100012884a7","E1","batch5","","3273.4000000953674","stim/no_50_1.png","f","pattern_response","false","j","pattern_30","3273.4000000953674","false","38","","","","","","","","","","","","","","","","","","",""
"","","","","","html-keyboard-response","112","193868","0.0-2.0-7.0-0.6","5783f7dd25cb7100012884a7","E1","batch5","","null","<p class=block-text>Trial 46 out of 78</p>","null","pattern_show_trial_num","","","","","","","","","","","","","","","","","","","","","","","","",""
"","","","","","image-keyboard-response","113","196956","0.0-2.0-7.0-1.6","5783f7dd25cb7100012884a7","E1","batch5","","3087.399999856949","stim/no_34_1_b.png","j","pattern_response","true","j","pattern_16","3087.399999856949","true","39","","","","","","","","","","","","","","","","","","",""
"","","","","","html-keyboard-response","114","198277","0.0-2.0-7.0-0.7","5783f7dd25cb7100012884a7","E1","batch5","","null","<p class=block-text>Trial 47 out of 78</p>","null","pattern_show_trial_num","","","","","","","","","","","","","","","","","","","","","","","","",""
"","","","","","image-keyboard-response","115","199146","0.0-2.0-7.0-1.7","5783f7dd25cb7100012884a7","E1","batch5","","867","stim/no_23_1.png","j","pattern_response","true","j","pattern_08","867","true","40","","","","","","","","","","","","","","","","","","",""
"","","","","","html-keyboard-response","116","200465","0.0-2.0-7.0-0.8","5783f7dd25cb7100012884a7","E1","batch5","","null","<p class=block-text>Trial 48 out of 78</p>","null","pattern_show_trial_num","","","","","","","","","","","","","","","","","","","","","","","","",""
"","","","","","image-keyboard-response","117","201762","0.0-2.0-7.0-1.8","5783f7dd25cb7100012884a7","E1","batch5","","1295.5","stim/no_17_1_w.png","j","pattern_response","true","j","pattern_04","1295.5","true","41","","","","","","","","","","","","","","","","","","",""
"","","","","","html-keyboard-response","118","203083","0.0-2.0-7.0-0.9","5783f7dd25cb7100012884a7","E1","batch5","","null","<p class=block-text>Trial 49 out of 78</p>","null","pattern_show_trial_num","","","","","","","","","","","","","","","","","","","","","","","","",""
"","","","","","image-keyboard-response","119","204474","0.0-2.0-7.0-1.9","5783f7dd25cb7100012884a7","E1","batch5","","1389.5999999046326","stim/yes_52_ver_w1.png","f","pattern_response","true","f","pattern_73","1389.5999999046326","true","42","","","","","","","","","","","","","","","","","","",""
"","","","","","html-keyboard-response","120","205801","0.0-2.0-7.0-0.10","5783f7dd25cb7100012884a7","E1","batch5","","null","<p class=block-text>Trial 50 out of 78</p>","null","pattern_show_trial_num","","","","","","","","","","","","","","","","","","","","","","","","",""
"","","","","","image-keyboard-response","121","207015","0.0-2.0-7.0-1.10","5783f7dd25cb7100012884a7","E1","batch5","","1212.5","stim/no_46_1_b.png","j","pattern_response","true","j","pattern_26","1212.5","true","43","","","","","","","","","","","","","","","","","","",""
"","","","","","html-keyboard-response","122","208338","0.0-2.0-7.0-0.11","5783f7dd25cb7100012884a7","E1","batch5","","null","<p class=block-text>Trial 51 out of 78</p>","null","pattern_show_trial_num","","","","","","","","","","","","","","","","","","","","","","","","",""
"","","","","","image-keyboard-response","123","209554","0.0-2.0-7.0-1.11","5783f7dd25cb7100012884a7","E1","batch5","","1215.3999998569489","stim/no_42_1_w.png","j","pattern_response","true","j","pattern_22","1215.3999998569489","true","44","","","","","","","","","","","","","","","","","","",""
"","","","","","html-keyboard-response","124","210872","0.0-2.0-7.0-0.12","5783f7dd25cb7100012884a7","E1","batch5","","null","<p class=block-text>Trial 52 out of 78</p>","null","pattern_show_trial_num","","","","","","","","","","","","","","","","","","","","","","","","",""
"","","","","","image-keyboard-response","125","212252","0.0-2.0-7.0-1.12","5783f7dd25cb7100012884a7","E1","batch5","","1379.4000000953674","stim/no_48_1_w.png","j","pattern_response","true","j","pattern_28","1379.4000000953674","true","45","","","","","","","","","","","","","","","","","","",""
"","","","","","html-keyboard-response","126","213560","0.0-2.0-7.0-0.13","5783f7dd25cb7100012884a7","E1","batch5","","null","<p class=block-text>Trial 53 out of 78</p>","null","pattern_show_trial_num","","","","","","","","","","","","","","","","","","","","","","","","",""
"","","","","","image-keyboard-response","127","215180","0.0-2.0-7.0-1.13","5783f7dd25cb7100012884a7","E1","batch5","","1619","stim/yes_50_dia_w1.png","j","pattern_response","false","f","pattern_71","1619","false","45","","","","","","","","","","","","","","","","","","",""
"","","","","","html-keyboard-response","128","216497","0.0-2.0-7.0-0.14","5783f7dd25cb7100012884a7","E1","batch5","","null","<p class=block-text>Trial 54 out of 78</p>","null","pattern_show_trial_num","","","","","","","","","","","","","","","","","","","","","","","","",""
"","","","","","image-keyboard-response","129","217705","0.0-2.0-7.0-1.14","5783f7dd25cb7100012884a7","E1","batch5","","1206.6999998092651","stim/yes_60_ver_b1_b.png","f","pattern_response","true","f","pattern_77","1206.6999998092651","true","46","","","","","","","","","","","","","","","","","","",""
"","","","","","html-keyboard-response","130","219016","0.0-2.0-7.0-0.15","5783f7dd25cb7100012884a7","E1","batch5","","null","<p class=block-text>Trial 55 out of 78</p>","null","pattern_show_trial_num","","","","","","","","","","","","","","","","","","","","","","","","",""
"","","","","","image-keyboard-response","131","220020","0.0-2.0-7.0-1.15","5783f7dd25cb7100012884a7","E1","batch5","","1002.6999998092651","stim/no_26_1_w.png","j","pattern_response","true","j","pattern_10","1002.6999998092651","true","47","","","","","","","","","","","","","","","","","","",""
"","","","","","html-keyboard-response","132","221341","0.0-2.0-7.0-0.16","5783f7dd25cb7100012884a7","E1","batch5","","null","<p class=block-text>Trial 56 out of 78</p>","null","pattern_show_trial_num","","","","","","","","","","","","","","","","","","","","","","","","",""
"","","","","","image-keyboard-response","133","222836","0.0-2.0-7.0-1.16","5783f7dd25cb7100012884a7","E1","batch5","","1494.3999998569489","stim/no_52_1.png","j","pattern_response","true","j","pattern_32","1494.3999998569489","true","48","","","","","","","","","","","","","","","","","","",""
"","","","","","html-keyboard-response","134","224145","0.0-2.0-7.0-0.17","5783f7dd25cb7100012884a7","E1","batch5","","null","<p class=block-text>Trial 57 out of 78</p>","null","pattern_show_trial_num","","","","","","","","","","","","","","","","","","","","","","","","",""
"","","","","","image-keyboard-response","135","225038","0.0-2.0-7.0-1.17","5783f7dd25cb7100012884a7","E1","batch5","","891.8999998569489","stim/yes_17_dia_w1.png","f","pattern_response","true","f","pattern_45","891.8999998569489","true","49","","","","","","","","","","","","","","","","","","",""
"","","","","","html-keyboard-response","136","226358","0.0-2.0-7.0-0.18","5783f7dd25cb7100012884a7","E1","batch5","","null","<p class=block-text>Trial 58 out of 78</p>","null","pattern_show_trial_num","","","","","","","","","","","","","","","","","","","","","","","","",""
"","","","","","image-keyboard-response","137","229987","0.0-2.0-7.0-1.18","5783f7dd25cb7100012884a7","E1","batch5","","3627.899999856949","stim/yes_67_hor_b1.png","j","pattern_response","false","f","pattern_79","3627.899999856949","false","49","","","","","","","","","","","","","","","","","","",""
"","","","","","html-keyboard-response","138","231297","0.0-2.0-7.0-0.19","5783f7dd25cb7100012884a7","E1","batch5","","null","<p class=block-text>Trial 59 out of 78</p>","null","pattern_show_trial_num","","","","","","","","","","","","","","","","","","","","","","","","",""
"","","","","","image-keyboard-response","139","232207","0.0-2.0-7.0-1.19","5783f7dd25cb7100012884a7","E1","batch5","","908.7999999523163","stim/yes_28_ver_b1.png","f","pattern_response","true","f","pattern_51","908.7999999523163","true","50","","","","","","","","","","","","","","","","","","",""
"","","","","","html-keyboard-response","140","233523","0.0-2.0-7.0-0.20","5783f7dd25cb7100012884a7","E1","batch5","","null","<p class=block-text>Trial 60 out of 78</p>","null","pattern_show_trial_num","","","","","","","","","","","","","","","","","","","","","","","","",""
"","","","","","image-keyboard-response","141","235486","0.0-2.0-7.0-1.20","5783f7dd25cb7100012884a7","E1","batch5","","1962.6000001430511","stim/no_70_2.png","j","pattern_response","true","j","pattern_40","1962.6000001430511","true","51","","","","","","","","","","","","","","","","","","",""
"","","","","","html-keyboard-response","142","236802","0.0-2.0-7.0-0.21","5783f7dd25cb7100012884a7","E1","batch5","","null","<p class=block-text>Trial 61 out of 78</p>","null","pattern_show_trial_num","","","","","","","","","","","","","","","","","","","","","","","","",""
"","","","","","image-keyboard-response","143","237870","0.0-2.0-7.0-1.21","5783f7dd25cb7100012884a7","E1","batch5","","1067.8999998569489","stim/yes_45_hor_b2_b.png","f","pattern_response","true","f","pattern_67","1067.8999998569489","true","52","","","","","","","","","","","","","","","","","","",""
"","","","","","html-keyboard-response","144","239196","0.0-2.0-7.0-0.22","5783f7dd25cb7100012884a7","E1","batch5","","null","<p class=block-text>Trial 62 out of 78</p>","null","pattern_show_trial_num","","","","","","","","","","","","","","","","","","","","","","","","",""
"","","","","","image-keyboard-response","145","240563","0.0-2.0-7.0-1.22","5783f7dd25cb7100012884a7","E1","batch5","","1366.1999998092651","stim/no_20_1_w.png","j","pattern_response","true","j","pattern_06","1366.1999998092651","true","53","","","","","","","","","","","","","","","","","","",""
"","","","","","html-keyboard-response","146","241873","0.0-2.0-7.0-0.23","5783f7dd25cb7100012884a7","E1","batch5","","null","<p class=block-text>Trial 63 out of 78</p>","null","pattern_show_trial_num","","","","","","","","","","","","","","","","","","","","","","","","",""
"","","","","","image-keyboard-response","147","243231","0.0-2.0-7.0-1.23","5783f7dd25cb7100012884a7","E1","batch5","","1356.9000000953674","stim/yes_29_ver_w1.png","f","pattern_response","true","f","pattern_53","1356.9000000953674","true","54","","","","","","","","","","","","","","","","","","",""
"","","","","","html-keyboard-response","148","244555","0.0-2.0-7.0-0.24","5783f7dd25cb7100012884a7","E1","batch5","","null","<p class=block-text>Trial 64 out of 78</p>","null","pattern_show_trial_num","","","","","","","","","","","","","","","","","","","","","","","","",""
"","","","","","image-keyboard-response","149","245959","0.0-2.0-7.0-1.24","5783f7dd25cb7100012884a7","E1","batch5","","1403.0999999046326","stim/no_29_1_b.png","j","pattern_response","true","j","pattern_12","1403.0999999046326","true","55","","","","","","","","","","","","","","","","","","",""
"","","","","","html-keyboard-response","150","247265","0.0-2.0-7.0-0.25","5783f7dd25cb7100012884a7","E1","batch5","","null","<p class=block-text>Trial 65 out of 78</p>","null","pattern_show_trial_num","","","","","","","","","","","","","","","","","","","","","","","","",""
"","","","","","image-keyboard-response","151","248817","0.0-2.0-7.0-1.25","5783f7dd25cb7100012884a7","E1","batch5","","1550.6000001430511","stim/yes_38_hor_b1_b.png","f","pattern_response","true","f","pattern_61","1550.6000001430511","true","56","","","","","","","","","","","","","","","","","","",""
"","","","","","html-keyboard-response","152","250139","0.0-2.0-7.0-0.26","5783f7dd25cb7100012884a7","E1","batch5","","null","<p class=block-text>Trial 66 out of 78</p>","null","pattern_show_trial_num","","","","","","","","","","","","","","","","","","","","","","","","",""
"","","","","","image-keyboard-response","153","252053","0.0-2.0-7.0-1.26","5783f7dd25cb7100012884a7","E1","batch5","","1913.9000000953674","stim/yes_37_dia_w1.png","j","pattern_response","false","f","pattern_59","1913.9000000953674","false","56","","","","","","","","","","","","","","","","","","",""
"","","","","","html-keyboard-response","154","253368","0.0-2.0-7.0-0.27","5783f7dd25cb7100012884a7","E1","batch5","","null","<p class=block-text>Trial 67 out of 78</p>","null","pattern_show_trial_num","","","","","","","","","","","","","","","","","","","","","","","","",""
"","","","","","image-keyboard-response","155","255177","0.0-2.0-7.0-1.27","5783f7dd25cb7100012884a7","E1","batch5","","1807.7999999523163","stim/yes_40_dia_b1_b.png","j","pattern_response","false","f","pattern_63","1807.7999999523163","false","56","","","","","","","","","","","","","","","","","","",""
"","","","","","html-keyboard-response","156","256495","0.0-2.0-7.0-0.28","5783f7dd25cb7100012884a7","E1","batch5","","null","<p class=block-text>Trial 68 out of 78</p>","null","pattern_show_trial_num","","","","","","","","","","","","","","","","","","","","","","","","",""
"","","","","","image-keyboard-response","157","258305","0.0-2.0-7.0-1.28","5783f7dd25cb7100012884a7","E1","batch5","","1809","stim/yes_48_dia_w1_w.png","j","pattern_response","false","f","pattern_69","1809","false","56","","","","","","","","","","","","","","","","","","",""
"","","","","","html-keyboard-response","158","259623","0.0-2.0-7.0-0.29","5783f7dd25cb7100012884a7","E1","batch5","","null","<p class=block-text>Trial 69 out of 78</p>","null","pattern_show_trial_num","","","","","","","","","","","","","","","","","","","","","","","","",""
"","","","","","image-keyboard-response","159","260433","0.0-2.0-7.0-1.29","5783f7dd25cb7100012884a7","E1","batch5","","808.5999999046326","stim/yes_55_hor_w1_w.png","f","pattern_response","true","f","pattern_75","808.5999999046326","true","57","","","","","","","","","","","","","","","","","","",""
"","","","","","html-keyboard-response","160","261751","0.0-2.0-7.0-0.30","5783f7dd25cb7100012884a7","E1","batch5","","null","<p class=block-text>Trial 70 out of 78</p>","null","pattern_show_trial_num","","","","","","","","","","","","","","","","","","","","","","","","",""
"","","","","","image-keyboard-response","161","263430","0.0-2.0-7.0-1.30","5783f7dd25cb7100012884a7","E1","batch5","","1677.9000000953674","stim/no_32_1_w.png","j","pattern_response","true","j","pattern_14","1677.9000000953674","true","58","","","","","","","","","","","","","","","","","","",""
"","","","","","html-keyboard-response","162","264748","0.0-2.0-7.0-0.31","5783f7dd25cb7100012884a7","E1","batch5","","null","<p class=block-text>Trial 71 out of 78</p>","null","pattern_show_trial_num","","","","","","","","","","","","","","","","","","","","","","","","",""
"","","","","","image-keyboard-response","163","266323","0.0-2.0-7.0-1.31","5783f7dd25cb7100012884a7","E1","batch5","","1574.5","stim/yes_35_dia_b1.png","j","pattern_response","false","f","pattern_57","1574.5","false","58","","","","","","","","","","","","","","","","","","",""
"","","","","","html-keyboard-response","164","267655","0.0-2.0-7.0-0.32","5783f7dd25cb7100012884a7","E1","batch5","","null","<p class=block-text>Trial 72 out of 78</p>","null","pattern_show_trial_num","","","","","","","","","","","","","","","","","","","","","","","","",""
"","","","","","image-keyboard-response","165","268691","0.0-2.0-7.0-1.32","5783f7dd25cb7100012884a7","E1","batch5","","1035.5","stim/no_38_1_b.png","j","pattern_response","true","j","pattern_20","1035.5","true","59","","","","","","","","","","","","","","","","","","",""
"","","","","","html-keyboard-response","166","269996","0.0-2.0-7.0-0.33","5783f7dd25cb7100012884a7","E1","batch5","","null","<p class=block-text>Trial 73 out of 78</p>","null","pattern_show_trial_num","","","","","","","","","","","","","","","","","","","","","","","","",""
"","","","","","image-keyboard-response","167","272444","0.0-2.0-7.0-1.33","5783f7dd25cb7100012884a7","E1","batch5","","2446.4000000953674","stim/yes_31_hor_b1.png","f","pattern_response","true","f","pattern_55","2446.4000000953674","true","60","","","","","","","","","","","","","","","","","","",""
"","","","","","html-keyboard-response","168","273762","0.0-2.0-7.0-0.34","5783f7dd25cb7100012884a7","E1","batch5","","null","<p class=block-text>Trial 74 out of 78</p>","null","pattern_show_trial_num","","","","","","","","","","","","","","","","","","","","","","","","",""
"","","","","","image-keyboard-response","169","275338","0.0-2.0-7.0-1.34","5783f7dd25cb7100012884a7","E1","batch5","","1575.4000000953674","stim/no_55_1_w.png","j","pattern_response","true","j","pattern_34","1575.4000000953674","true","61","","","","","","","","","","","","","","","","","","",""
"","","","","","html-keyboard-response","170","276641","0.0-2.0-7.0-0.35","5783f7dd25cb7100012884a7","E1","batch5","","null","<p class=block-text>Trial 75 out of 78</p>","null","pattern_show_trial_num","","","","","","","","","","","","","","","","","","","","","","","","",""
"","","","","","image-keyboard-response","171","278286","0.0-2.0-7.0-1.35","5783f7dd25cb7100012884a7","E1","batch5","","1643","stim/no_65_1_b.png","j","pattern_response","true","j","pattern_38","1643","true","62","","","","","","","","","","","","","","","","","","",""
"","","","","","html-keyboard-response","172","279591","0.0-2.0-7.0-0.36","5783f7dd25cb7100012884a7","E1","batch5","","null","<p class=block-text>Trial 76 out of 78</p>","null","pattern_show_trial_num","","","","","","","","","","","","","","","","","","","","","","","","",""
"","","","","","image-keyboard-response","173","280365","0.0-2.0-7.0-1.36","5783f7dd25cb7100012884a7","E1","batch5","","773.1999998092651","stim/yes_22_ver_w1.png","f","pattern_response","true","f","pattern_47","773.1999998092651","true","63","","","","","","","","","","","","","","","","","","",""
"","","","","","html-keyboard-response","174","281672","0.0-2.0-7.0-0.37","5783f7dd25cb7100012884a7","E1","batch5","","null","<p class=block-text>Trial 77 out of 78</p>","null","pattern_show_trial_num","","","","","","","","","","","","","","","","","","","","","","","","",""
"","","","","","image-keyboard-response","175","282421","0.0-2.0-7.0-1.37","5783f7dd25cb7100012884a7","E1","batch5","","748.4000000953674","stim/yes_25_hor_b1_b.png","f","pattern_response","true","f","pattern_49","748.4000000953674","true","64","","","","","","","","","","","","","","","","","","",""
"","","","","","html-keyboard-response","176","283738","0.0-2.0-7.0-0.38","5783f7dd25cb7100012884a7","E1","batch5","","null","<p class=block-text>Trial 78 out of 78</p>","null","pattern_show_trial_num","","","","","","","","","","","","","","","","","","","","","","","","",""
"","","","","","image-keyboard-response","177","285914","0.0-2.0-7.0-1.38","5783f7dd25cb7100012884a7","E1","batch5","","2174.9000000953674","stim/no_62_1_w.png","j","pattern_response","true","j","pattern_36","2174.9000000953674","true","65","","","","","","","","","","","","","","","","","","",""
"","","","","","html-button-response","178","295516","0.0-2.0-8.0","5783f7dd25cb7100012884a7","E1","batch5","","9100.099999904633","<p class = block-text>This concludes the 4-in-a-row detection game.Thank you for your responses!<br>
            You responded correctly on 83% of the trials.<br>
            When you are ready, press ""Continue"" button to continue </p>","0","","","","","","","","","","","","","","","","","","","","","","","","","",""
"true","","","","","fullscreen","179","314888","0.0-3.0-0.0","5783f7dd25cb7100012884a7","E1","batch5","","","","","","","","","","","","","","","","","","","","","","","","","","","","","",""
"","","","","","instructions","180","361565","0.0-3.0-1.0-0.0-0.0","5783f7dd25cb7100012884a7","E1","batch5","[{""page_index"":0,""viewing_time"":7470.5},{""page_index"":1,""viewing_time"":5273.400000095367},{""page_index"":2,""viewing_time"":5144.799999952316},{""page_index"":3,""viewing_time"":6152.200000047684},{""page_index"":4,""viewing_time"":5529.099999904633},{""page_index"":5,""viewing_time"":14793.700000047684},{""page_index"":6,""viewing_time"":2312.7000000476837}]","46676.700000047684","","","tol-instructions","","","","","","","","","","","","","","","","","","","","","","","","",""
"","","","","","html-button-response","181","362471","0.0-3.0-1.0-1.0-0.0","5783f7dd25cb7100012884a7","E1","batch5","","904.2999999523163","<p class=block-text> Let's answer a few questions <br>","0","tol_enter_quiz","","","","","","","","","","","","","","","","","","","","","","","","",""
"","","","","","html-button-response","182","368647","0.0-3.0-1.0-1.0-1.0","5783f7dd25cb7100012884a7","E1","batch5","","6175","<p class = block-text>True or False: You can only move the ball on top of a peg. <br></p>","0","tol_quiz","true","","","","","","","","","","","","","","","","","","","","","","","",""
"","","","","","html-button-response","183","370543","0.0-3.0-1.0-1.0-2.0","5783f7dd25cb7100012884a7","E1","batch5","","1894.8999998569489","<p class = block-text>Correct! You can only move the ball on top of a peg.</p>","0","tol_quiz_feedback","","","","","","","","","","","","","","","","","","","","","","","","",""
"","","","","","html-button-response","184","372664","0.0-3.0-1.0-1.0-3.0","5783f7dd25cb7100012884a7","E1","batch5","","2120.100000143051","<p class = block-text>True or False: You should try to match your board with the target board with fewest moves possible. <br></p>","0","tol_quiz","true","","","","","","","","","","","","","","","","","","","","","","","",""
"","","","","","html-button-response","185","373288","0.0-3.0-1.0-1.0-4.0","5783f7dd25cb7100012884a7","E1","batch5","","623.2000000476837","<p class = block-text>Correct! </p>","0","tol_quiz_feedback","","","","","","","","","","","","","","","","","","","","","","","","",""
"","","","","","html-button-response","186","374224","0.0-3.0-2.0","5783f7dd25cb7100012884a7","E1","batch5","","935","<p class=block-text> Now that you've understood the game, let's practice a few easier examples before we start!<br> <br>","0","","","","","","","","","","","","","","","","","","","","","","","","","",""
"","","","","","single-stim-button","187","384074","0.0-3.0-3.0-0.0","5783f7dd25cb7100012884a7","E1","batch5","","9849","","","tol_practice","","","","","","","","","tol_peg_2","9849","9849","0","[[1,2,0],[0,0],[0]]","1","[[1,2,0],[0,0],[3]]","practice","9849","","","","","","","",""
"","","","","","single-stim-button","188","385425","0.0-3.0-3.0-1.0","5783f7dd25cb7100012884a7","E1","batch5","","1351","","","tol_practice","","","","","","","","","tol_peg_3","1351","1351","0","[[1,2,0],[0,0],[3]]","1","[[1,2,0],[0,0],[3]]","practice","1351","","","","","","","",""
"","","","","","poldrack-single-stim","189","386427","0.0-3.0-4.0","5783f7dd25cb7100012884a7","E1","batch5","","-1","","","tol_feedback","true","","","","","","","","","1000","1000","500","","","","","","-1","none","true","","0","","",""
"","","","","","single-stim-button","190","390546","0.0-3.0-5.0-0.0","5783f7dd25cb7100012884a7","E1","batch5","","4117","","","tol_practice","","","","","","","","","tol_peg_1","4117","4117","0","[[1,0,0],[3,0],[0]]","2","[[0,0,0],[3,1],[2]]","practice","4117","","","","","","","",""
"","","","","","single-stim-button","191","391481","0.0-3.0-5.0-1.0","5783f7dd25cb7100012884a7","E1","batch5","","935","","","tol_practice","","","","","","","","","tol_peg_3","935","935","0","[[1,0,0],[3,0],[2]]","2","[[0,0,0],[3,1],[2]]","practice","935","","","","","","","",""
"","","","","","single-stim-button","192","392201","0.0-3.0-5.1-0.1","5783f7dd25cb7100012884a7","E1","batch5","","719","","","tol_practice","","","","","","","","","tol_peg_1","719","719","0","[[0,0,0],[3,0],[2]]","3","[[0,0,0],[3,1],[2]]","practice","719","","","","","","","",""
"","","","","","single-stim-button","193","393298","0.0-3.0-5.1-1.1","5783f7dd25cb7100012884a7","E1","batch5","","1096","","","tol_practice","","","","","","","","","tol_peg_2","1096","1096","0","[[0,0,0],[3,1],[2]]","3","[[0,0,0],[3,1],[2]]","practice","1096","","","","","","","",""
"","","","","","poldrack-single-stim","194","394299","0.0-3.0-6.0","5783f7dd25cb7100012884a7","E1","batch5","","-1","","","tol_feedback","true","","","","","","","","","1000","1000","500","","","","","","-1","none","true","","0","","",""
"","","","","","single-stim-button","195","396691","0.0-3.0-7.0-0.0","5783f7dd25cb7100012884a7","E1","batch5","","2390","","","tol_practice","","","","","","","","","tol_peg_2","2390","2390","0","[[1,2,0],[0,0],[0]]","4","[[1,0,0],[2,0],[3]]","practice","2390","","","","","","","",""
"","","","","","single-stim-button","196","397339","0.0-3.0-7.0-1.0","5783f7dd25cb7100012884a7","E1","batch5","","648","","","tol_practice","","","","","","","","","tol_peg_3","648","648","0","[[1,2,0],[0,0],[3]]","4","[[1,0,0],[2,0],[3]]","practice","648","","","","","","","",""
"","","","","","single-stim-button","197","397915","0.0-3.0-7.1-0.1","5783f7dd25cb7100012884a7","E1","batch5","","575","","","tol_practice","","","","","","","","","tol_peg_1","575","575","0","[[1,0,0],[0,0],[3]]","5","[[1,0,0],[2,0],[3]]","practice","575","","","","","","","",""
"","","","","","single-stim-button","198","398891","0.0-3.0-7.1-1.1","5783f7dd25cb7100012884a7","E1","batch5","","974","","","tol_practice","","","","","","","","","tol_peg_2","974","974","0","[[1,0,0],[2,0],[3]]","5","[[1,0,0],[2,0],[3]]","practice","974","","","","","","","",""
"","","","","","poldrack-single-stim","199","399904","0.0-3.0-8.0","5783f7dd25cb7100012884a7","E1","batch5","","-1","","","tol_feedback","true","","","","","","","","","1000","1000","500","","","","","","-1","none","true","","0","","",""
"","","","","","html-button-response","200","404228","0.0-3.0-9.0","5783f7dd25cb7100012884a7","E1","batch5","","4323.600000143051","<div class = centerbox><p class = center-block-text>Great job! You are done with practice trials<br>You are about to start official trials.<br> <br> Problem <strong>1</strong> out of 25 problems</p></div>","0","tol_instruction","","","","","","","","","","","","","","","","","","","","","","","","",""
"","","","","","single-stim-button","201","409925","0.0-3.0-10.0-0.0","5783f7dd25cb7100012884a7","E1","batch5","","4683","","","tol_tohand","","","","","","","","","tol_peg_2","4683","4683","0","[[1,2,0],[0,0],[0]]","1","[[1,3,0],[2,0],[0]]","0","0","","","","","","3","",""
"","","","","","single-stim-button","202","410700","0.0-3.0-10.0-1.0","5783f7dd25cb7100012884a7","E1","batch5","","775","","","tol_toboard","","","","","","","","","tol_peg_3","775","775","0","[[1,2,0],[0,0],[3]]","1","[[1,3,0],[2,0],[0]]","0","0","","","","","","3","",""
"","","","","","single-stim-button","203","411620","0.0-3.0-10.1-0.1","5783f7dd25cb7100012884a7","E1","batch5","","920","","","tol_tohand","","","","","","","","","tol_peg_1","920","920","0","[[1,0,0],[0,0],[3]]","2","[[1,3,0],[2,0],[0]]","0","0","","","","","","3","",""
"","","","","","single-stim-button","204","412349","0.0-3.0-10.1-1.1","5783f7dd25cb7100012884a7","E1","batch5","","728","","","tol_toboard","","","","","","","","","tol_peg_2","728","728","0","[[1,0,0],[2,0],[3]]","2","[[1,3,0],[2,0],[0]]","0","0","","","","","","3","",""
"","","","","","single-stim-button","205","412940","0.0-3.0-10.2-0.2","5783f7dd25cb7100012884a7","E1","batch5","","590","","","tol_tohand","","","","","","","","","tol_peg_3","590","590","0","[[1,0,0],[2,0],[0]]","3","[[1,3,0],[2,0],[0]]","0","0","","","","","","3","",""
"","","","","","single-stim-button","206","413748","0.0-3.0-10.2-1.2","5783f7dd25cb7100012884a7","E1","batch5","","807","","","tol_toboard","","","","","","","","","tol_peg_1","807","807","0","[[1,3,0],[2,0],[0]]","3","[[1,3,0],[2,0],[0]]","0","0","","","","","","3","",""
"","","","","","poldrack-single-stim","207","414750","0.0-3.0-11.0","5783f7dd25cb7100012884a7","E1","batch5","","-1","","","tol_feedback","true","","","","","","","","","1000","1000","500","","","","","","-1","none","true","4683","6193","","",""
"","","","","","html-button-response","208","415573","0.0-3.0-12.0","5783f7dd25cb7100012884a7","E1","batch5","","822.5","<div class = centerbox><p class = center-block-text>problem <strong>2</strong> out of 25 problems</p></div>","0","tol_trial_num","","","","","","","","","","","","","","","","","","","","","","","","",""
"","","","","","single-stim-button","209","422831","0.0-3.0-13.0-0.0","5783f7dd25cb7100012884a7","E1","batch5","","7256","","","tol_tohand","","","","","","","","","tol_peg_2","7256","7256","0","[[1,2,0],[0,0],[0]]","1","[[2,1,3],[0,0],[0]]","1","0","","","","","","5","",""
"","","","","","single-stim-button","210","424406","0.0-3.0-13.0-1.0","5783f7dd25cb7100012884a7","E1","batch5","","1575","","","tol_toboard","","","","","","","","","tol_peg_3","1575","1575","0","[[1,2,0],[0,0],[3]]","1","[[2,1,3],[0,0],[0]]","1","0","","","","","","5","",""
"","","","","","single-stim-button","211","424974","0.0-3.0-13.1-0.1","5783f7dd25cb7100012884a7","E1","batch5","","567","","","tol_tohand","","","","","","","","","tol_peg_1","567","567","0","[[1,0,0],[0,0],[3]]","2","[[2,1,3],[0,0],[0]]","1","0","","","","","","5","",""
"","","","","","single-stim-button","212","425535","0.0-3.0-13.1-1.1","5783f7dd25cb7100012884a7","E1","batch5","","560","","","tol_toboard","","","","","","","","","tol_peg_2","560","560","0","[[1,0,0],[2,0],[3]]","2","[[2,1,3],[0,0],[0]]","1","0","","","","","","5","",""
"","","","","","single-stim-button","213","426191","0.0-3.0-13.2-0.2","5783f7dd25cb7100012884a7","E1","batch5","","655","","","tol_tohand","","","","","","","","","tol_peg_1","655","655","0","[[0,0,0],[2,0],[3]]","3","[[2,1,3],[0,0],[0]]","1","0","","","","","","5","",""
"","","","","","single-stim-button","214","426791","0.0-3.0-13.2-1.2","5783f7dd25cb7100012884a7","E1","batch5","","599","","","tol_toboard","","","","","","","","","tol_peg_2","599","599","0","[[0,0,0],[2,1],[3]]","3","[[2,1,3],[0,0],[0]]","1","0","","","","","","5","",""
"","","","","","single-stim-button","215","427671","0.0-3.0-13.3-0.3","5783f7dd25cb7100012884a7","E1","batch5","","880","","","tol_tohand","","","","","","","","","tol_peg_3","880","880","0","[[0,0,0],[2,1],[0]]","4","[[2,1,3],[0,0],[0]]","1","0","","","","","","5","",""
"","","","","","single-stim-button","216","429486","0.0-3.0-13.3-1.3","5783f7dd25cb7100012884a7","E1","batch5","","1815","","","tol_toboard","","","","","","","","","tol_peg_3","1815","1815","0","[[0,0,0],[2,1],[3]]","4","[[2,1,3],[0,0],[0]]","1","0","","","","","","5","",""
"","","","","","single-stim-button","217","434288","0.0-3.0-13.4-0.4","5783f7dd25cb7100012884a7","E1","batch5","","4800","","","tol_tohand","","","","","","","","","tol_peg_2","4800","4800","0","[[0,0,0],[2,0],[3]]","5","[[2,1,3],[0,0],[0]]","1","0","","","","","","5","",""
"","","","","","single-stim-button","218","434832","0.0-3.0-13.4-1.4","5783f7dd25cb7100012884a7","E1","batch5","","543","","","tol_toboard","","","","","","","","","tol_peg_1","543","543","0","[[1,0,0],[2,0],[3]]","5","[[2,1,3],[0,0],[0]]","1","0","","","","","","5","",""
"","","","","","single-stim-button","219","435480","0.0-3.0-13.5-0.5","5783f7dd25cb7100012884a7","E1","batch5","","648","","","tol_tohand","","","","","","","","","tol_peg_3","648","648","0","[[1,0,0],[2,0],[0]]","6","[[2,1,3],[0,0],[0]]","1","0","","","","","","5","",""
"","","","","","single-stim-button","220","436192","0.0-3.0-13.5-1.5","5783f7dd25cb7100012884a7","E1","batch5","","711","","","tol_toboard","","","","","","","","","tol_peg_2","711","711","0","[[1,0,0],[2,3],[0]]","6","[[2,1,3],[0,0],[0]]","1","0","","","","","","5","",""
"","","","","","single-stim-button","221","437761","0.0-3.0-13.6-0.6","5783f7dd25cb7100012884a7","E1","batch5","","1569","","","tol_tohand","","","","","","","","","tol_peg_1","1569","1569","0","[[0,0,0],[2,3],[0]]","7","[[2,1,3],[0,0],[0]]","1","0","","","","","","5","",""
"","","","","","single-stim-button","222","441016","0.0-3.0-13.6-1.6","5783f7dd25cb7100012884a7","E1","batch5","","3255","","","tol_toboard","","","","","","","","","tol_peg_1","3255","3255","0","[[1,0,0],[2,3],[0]]","7","[[2,1,3],[0,0],[0]]","1","0","","","","","","5","",""
"","","","","","single-stim-button","223","442553","0.0-3.0-13.7-0.7","5783f7dd25cb7100012884a7","E1","batch5","","1537","","","tol_tohand","","","","","","","","","tol_peg_2","1537","1537","0","[[1,0,0],[2,0],[0]]","8","[[2,1,3],[0,0],[0]]","1","0","","","","","","5","",""
"","","","","","single-stim-button","224","444505","0.0-3.0-13.7-1.7","5783f7dd25cb7100012884a7","E1","batch5","","1952","","","tol_toboard","","","","","","","","","tol_peg_1","1952","1952","0","[[1,3,0],[2,0],[0]]","8","[[2,1,3],[0,0],[0]]","1","0","","","","","","5","",""
"","","","","","single-stim-button","225","444969","0.0-3.0-13.8-0.8","5783f7dd25cb7100012884a7","E1","batch5","","464","","","tol_tohand","","","","","","","","","tol_peg_2","464","464","0","[[1,3,0],[0,0],[0]]","9","[[2,1,3],[0,0],[0]]","1","0","","","","","","5","",""
"","","","","","single-stim-button","226","445626","0.0-3.0-13.8-1.8","5783f7dd25cb7100012884a7","E1","batch5","","657","","","tol_toboard","","","","","","","","","tol_peg_3","657","657","0","[[1,3,0],[0,0],[2]]","9","[[2,1,3],[0,0],[0]]","1","0","","","","","","5","",""
"","","","","","single-stim-button","227","447657","0.0-3.0-13.9-0.9","5783f7dd25cb7100012884a7","E1","batch5","","2031","","","tol_tohand","","","","","","","","","tol_peg_1","2031","2031","0","[[1,0,0],[0,0],[2]]","10","[[2,1,3],[0,0],[0]]","1","0","","","","","","5","",""
"","","","","","single-stim-button","228","448450","0.0-3.0-13.9-1.9","5783f7dd25cb7100012884a7","E1","batch5","","792","","","tol_toboard","","","","","","","","","tol_peg_2","792","792","0","[[1,0,0],[3,0],[2]]","10","[[2,1,3],[0,0],[0]]","1","0","","","","","","5","",""
"","","","","","single-stim-button","229","448857","0.0-3.0-13.10-0.10","5783f7dd25cb7100012884a7","E1","batch5","","407","","","tol_tohand","","","","","","","","","tol_peg_1","407","407","0","[[0,0,0],[3,0],[2]]","11","[[2,1,3],[0,0],[0]]","1","0","","","","","","5","",""
"","","","","","single-stim-button","230","449385","0.0-3.0-13.10-1.10","5783f7dd25cb7100012884a7","E1","batch5","","528","","","tol_toboard","","","","","","","","","tol_peg_2","528","528","0","[[0,0,0],[3,1],[2]]","11","[[2,1,3],[0,0],[0]]","1","0","","","","","","5","",""
"","","","","","single-stim-button","231","449874","0.0-3.0-13.11-0.11","5783f7dd25cb7100012884a7","E1","batch5","","489","","","tol_tohand","","","","","","","","","tol_peg_3","489","489","0","[[0,0,0],[3,1],[0]]","12","[[2,1,3],[0,0],[0]]","1","0","","","","","","5","",""
"","","","","","single-stim-button","232","450465","0.0-3.0-13.11-1.11","5783f7dd25cb7100012884a7","E1","batch5","","590","","","tol_toboard","","","","","","","","","tol_peg_1","590","590","0","[[2,0,0],[3,1],[0]]","12","[[2,1,3],[0,0],[0]]","1","0","","","","","","5","",""
"","","","","","single-stim-button","233","451482","0.0-3.0-13.12-0.12","5783f7dd25cb7100012884a7","E1","batch5","","1016","","","tol_tohand","","","","","","","","","tol_peg_2","1016","1016","0","[[2,0,0],[3,0],[0]]","13","[[2,1,3],[0,0],[0]]","1","0","","","","","","5","",""
"","","","","","single-stim-button","234","452162","0.0-3.0-13.12-1.12","5783f7dd25cb7100012884a7","E1","batch5","","680","","","tol_toboard","","","","","","","","","tol_peg_1","680","680","0","[[2,1,0],[3,0],[0]]","13","[[2,1,3],[0,0],[0]]","1","0","","","","","","5","",""
"","","","","","single-stim-button","235","452595","0.0-3.0-13.13-0.13","5783f7dd25cb7100012884a7","E1","batch5","","432","","","tol_tohand","","","","","","","","","tol_peg_2","432","432","0","[[2,1,0],[0,0],[0]]","14","[[2,1,3],[0,0],[0]]","1","0","","","","","","5","",""
"","","","","","single-stim-button","236","453154","0.0-3.0-13.13-1.13","5783f7dd25cb7100012884a7","E1","batch5","","558","","","tol_toboard","","","","","","","","","tol_peg_1","558","558","0","[[2,1,3],[0,0],[0]]","14","[[2,1,3],[0,0],[0]]","1","0","","","","","","5","",""
"","","","","","poldrack-single-stim","237","454171","0.0-3.0-14.0","5783f7dd25cb7100012884a7","E1","batch5","","-1","","","tol_feedback","true","","","","","","","","","1000","1000","500","","","","","","-1","none","true","7256","22751","","",""
"","","","","","html-button-response","238","455147","0.0-3.0-15.0","5783f7dd25cb7100012884a7","E1","batch5","","975.2999999523163","<div class = centerbox><p class = center-block-text>problem <strong>3</strong> out of 25 problems</p></div>","0","tol_trial_num","","","","","","","","","","","","","","","","","","","","","","","","",""
"","","","","","single-stim-button","239","460675","0.0-3.0-16.0-0.0","5783f7dd25cb7100012884a7","E1","batch5","","5527","","","tol_tohand","","","","","","","","","tol_peg_1","5527","5527","0","[[2,0,0],[0,0],[1]]","1","[[1,2,0],[3,0],[0]]","2","0","","","","","","4","",""
"","","","","","single-stim-button","240","461203","0.0-3.0-16.0-1.0","5783f7dd25cb7100012884a7","E1","batch5","","527","","","tol_toboard","","","","","","","","","tol_peg_2","527","527","0","[[2,0,0],[3,0],[1]]","1","[[1,2,0],[3,0],[0]]","2","0","","","","","","4","",""
"","","","","","single-stim-button","241","461660","0.0-3.0-16.1-0.1","5783f7dd25cb7100012884a7","E1","batch5","","455","","","tol_tohand","","","","","","","","","tol_peg_1","455","455","0","[[0,0,0],[3,0],[1]]","2","[[1,2,0],[3,0],[0]]","2","0","","","","","","4","",""
"","","","","","single-stim-button","242","462116","0.0-3.0-16.1-1.1","5783f7dd25cb7100012884a7","E1","batch5","","456","","","tol_toboard","","","","","","","","","tol_peg_2","456","456","0","[[0,0,0],[3,2],[1]]","2","[[1,2,0],[3,0],[0]]","2","0","","","","","","4","",""
"","","","","","single-stim-button","243","462741","0.0-3.0-16.2-0.2","5783f7dd25cb7100012884a7","E1","batch5","","623","","","tol_tohand","","","","","","","","","tol_peg_3","623","623","0","[[0,0,0],[3,2],[0]]","3","[[1,2,0],[3,0],[0]]","2","0","","","","","","4","",""
"","","","","","single-stim-button","244","463459","0.0-3.0-16.2-1.2","5783f7dd25cb7100012884a7","E1","batch5","","718","","","tol_toboard","","","","","","","","","tol_peg_1","718","718","0","[[1,0,0],[3,2],[0]]","3","[[1,2,0],[3,0],[0]]","2","0","","","","","","4","",""
"","","","","","single-stim-button","245","463963","0.0-3.0-16.3-0.3","5783f7dd25cb7100012884a7","E1","batch5","","503","","","tol_tohand","","","","","","","","","tol_peg_2","503","503","0","[[1,0,0],[3,0],[0]]","4","[[1,2,0],[3,0],[0]]","2","0","","","","","","4","",""
"","","","","","single-stim-button","246","464348","0.0-3.0-16.3-1.3","5783f7dd25cb7100012884a7","E1","batch5","","384","","","tol_toboard","","","","","","","","","tol_peg_1","384","384","0","[[1,2,0],[3,0],[0]]","4","[[1,2,0],[3,0],[0]]","2","0","","","","","","4","",""
"","","","","","poldrack-single-stim","247","465363","0.0-3.0-17.0","5783f7dd25cb7100012884a7","E1","batch5","","-1","","","tol_feedback","true","","","","","","","","","1000","1000","500","","","","","","-1","none","true","5527","7108","","",""
"","","","","","html-button-response","248","466083","0.0-3.0-18.0","5783f7dd25cb7100012884a7","E1","batch5","","720.2000000476837","<div class = centerbox><p class = center-block-text>problem <strong>4</strong> out of 25 problems</p></div>","0","tol_trial_num","","","","","","","","","","","","","","","","","","","","","","","","",""
"","","","","","single-stim-button","249","474063","0.0-3.0-19.0-0.0","5783f7dd25cb7100012884a7","E1","batch5","","7978","","","tol_tohand","","","","","","","","","tol_peg_2","7978","7978","0","[[3,0,0],[2,0],[0]]","1","[[3,0,0],[1,0],[2]]","3","0","","","","","","3","",""
"","","","","","single-stim-button","250","474510","0.0-3.0-19.0-1.0","5783f7dd25cb7100012884a7","E1","batch5","","447","","","tol_toboard","","","","","","","","","tol_peg_1","447","447","0","[[3,1,0],[2,0],[0]]","1","[[3,0,0],[1,0],[2]]","3","0","","","","","","3","",""
"","","","","","single-stim-button","251","475062","0.0-3.0-19.1-0.1","5783f7dd25cb7100012884a7","E1","batch5","","552","","","tol_tohand","","","","","","","","","tol_peg_2","552","552","0","[[3,1,0],[0,0],[0]]","2","[[3,0,0],[1,0],[2]]","3","0","","","","","","3","",""
"","","","","","single-stim-button","252","475462","0.0-3.0-19.1-1.1","5783f7dd25cb7100012884a7","E1","batch5","","399","","","tol_toboard","","","","","","","","","tol_peg_3","399","399","0","[[3,1,0],[0,0],[2]]","2","[[3,0,0],[1,0],[2]]","3","0","","","","","","3","",""
"","","","","","single-stim-button","253","476014","0.0-3.0-19.2-0.2","5783f7dd25cb7100012884a7","E1","batch5","","551","","","tol_tohand","","","","","","","","","tol_peg_1","551","551","0","[[3,0,0],[0,0],[2]]","3","[[3,0,0],[1,0],[2]]","3","0","","","","","","3","",""
"","","","","","single-stim-button","254","476422","0.0-3.0-19.2-1.2","5783f7dd25cb7100012884a7","E1","batch5","","408","","","tol_toboard","","","","","","","","","tol_peg_2","408","408","0","[[3,0,0],[1,0],[2]]","3","[[3,0,0],[1,0],[2]]","3","0","","","","","","3","",""
"","","","","","poldrack-single-stim","255","477438","0.0-3.0-20.0","5783f7dd25cb7100012884a7","E1","batch5","","-1","","","tol_feedback","true","","","","","","","","","1000","1000","500","","","","","","-1","none","true","7978","9081","","",""
"","","","","","html-button-response","256","478222","0.0-3.0-21.0","5783f7dd25cb7100012884a7","E1","batch5","","783.5999999046326","<div class = centerbox><p class = center-block-text>problem <strong>5</strong> out of 25 problems</p></div>","0","tol_trial_num","","","","","","","","","","","","","","","","","","","","","","","","",""
"","","","","","single-stim-button","257","504226","0.0-3.0-22.0-0.0","5783f7dd25cb7100012884a7","E1","batch5","","26003","","","tol_tohand","","","","","","","","","tol_peg_3","26003","26003","0","[[1,0,0],[2,0],[0]]","1","[[0,0,0],[1,2],[3]]","4","0","","","","","","7","",""
"","","","","","single-stim-button","258","504794","0.0-3.0-22.0-1.0","5783f7dd25cb7100012884a7","E1","batch5","","567","","","tol_toboard","","","","","","","","","tol_peg_2","567","567","0","[[1,0,0],[2,3],[0]]","1","[[0,0,0],[1,2],[3]]","4","0","","","","","","7","",""
"","","","","","single-stim-button","259","505323","0.0-3.0-22.1-0.1","5783f7dd25cb7100012884a7","E1","batch5","","528","","","tol_tohand","","","","","","","","","tol_peg_1","528","528","0","[[0,0,0],[2,3],[0]]","2","[[0,0,0],[1,2],[3]]","4","0","","","","","","7","",""
"","","","","","single-stim-button","260","506067","0.0-3.0-22.1-1.1","5783f7dd25cb7100012884a7","E1","batch5","","744","","","tol_toboard","","","","","","","","","tol_peg_3","744","744","0","[[0,0,0],[2,3],[1]]","2","[[0,0,0],[1,2],[3]]","4","0","","","","","","7","",""
"","","","","","single-stim-button","261","508419","0.0-3.0-22.2-0.2","5783f7dd25cb7100012884a7","E1","batch5","","2351","","","tol_tohand","","","","","","","","","tol_peg_2","2351","2351","0","[[0,0,0],[2,0],[1]]","3","[[0,0,0],[1,2],[3]]","4","0","","","","","","7","",""
"","","","","","single-stim-button","262","509051","0.0-3.0-22.2-1.2","5783f7dd25cb7100012884a7","E1","batch5","","632","","","tol_toboard","","","","","","","","","tol_peg_1","632","632","0","[[3,0,0],[2,0],[1]]","3","[[0,0,0],[1,2],[3]]","4","0","","","","","","7","",""
"","","","","","single-stim-button","263","509531","0.0-3.0-22.3-0.3","5783f7dd25cb7100012884a7","E1","batch5","","480","","","tol_tohand","","","","","","","","","tol_peg_2","480","480","0","[[3,0,0],[0,0],[1]]","4","[[0,0,0],[1,2],[3]]","4","0","","","","","","7","",""
"","","","","","single-stim-button","264","510139","0.0-3.0-22.3-1.3","5783f7dd25cb7100012884a7","E1","batch5","","608","","","tol_toboard","","","","","","","","","tol_peg_1","608","608","0","[[3,2,0],[0,0],[1]]","4","[[0,0,0],[1,2],[3]]","4","0","","","","","","7","",""
"","","","","","single-stim-button","265","511115","0.0-3.0-22.4-0.4","5783f7dd25cb7100012884a7","E1","batch5","","975","","","tol_tohand","","","","","","","","","tol_peg_3","975","975","0","[[3,2,0],[0,0],[0]]","5","[[0,0,0],[1,2],[3]]","4","0","","","","","","7","",""
"","","","","","single-stim-button","266","511612","0.0-3.0-22.4-1.4","5783f7dd25cb7100012884a7","E1","batch5","","497","","","tol_toboard","","","","","","","","","tol_peg_2","497","497","0","[[3,2,0],[1,0],[0]]","5","[[0,0,0],[1,2],[3]]","4","0","","","","","","7","",""
"","","","","","single-stim-button","267","512187","0.0-3.0-22.5-0.5","5783f7dd25cb7100012884a7","E1","batch5","","575","","","tol_tohand","","","","","","","","","tol_peg_1","575","575","0","[[3,0,0],[1,0],[0]]","6","[[0,0,0],[1,2],[3]]","4","0","","","","","","7","",""
"","","","","","single-stim-button","268","512627","0.0-3.0-22.5-1.5","5783f7dd25cb7100012884a7","E1","batch5","","440","","","tol_toboard","","","","","","","","","tol_peg_2","440","440","0","[[3,0,0],[1,2],[0]]","6","[[0,0,0],[1,2],[3]]","4","0","","","","","","7","",""
"","","","","","single-stim-button","269","513100","0.0-3.0-22.6-0.6","5783f7dd25cb7100012884a7","E1","batch5","","473","","","tol_tohand","","","","","","","","","tol_peg_1","473","473","0","[[0,0,0],[1,2],[0]]","7","[[0,0,0],[1,2],[3]]","4","0","","","","","","7","",""
"","","","","","single-stim-button","270","513771","0.0-3.0-22.6-1.6","5783f7dd25cb7100012884a7","E1","batch5","","670","","","tol_toboard","","","","","","","","","tol_peg_3","670","670","0","[[0,0,0],[1,2],[3]]","7","[[0,0,0],[1,2],[3]]","4","0","","","","","","7","",""
"","","","","","poldrack-single-stim","271","514773","0.0-3.0-23.0","5783f7dd25cb7100012884a7","E1","batch5","","-1","","","tol_feedback","true","","","","","","","","","1000","1000","500","","","","","","-1","none","true","26003","31385","","",""
"","","","","","html-button-response","272","515540","0.0-3.0-24.0","5783f7dd25cb7100012884a7","E1","batch5","","765.9000000953674","<div class = centerbox><p class = center-block-text>problem <strong>6</strong> out of 25 problems</p></div>","0","tol_trial_num","","","","","","","","","","","","","","","","","","","","","","","","",""
"","","","","","single-stim-button","273","527797","0.0-3.0-25.0-0.0","5783f7dd25cb7100012884a7","E1","batch5","","12257","","","tol_tohand","","","","","","","","","tol_peg_3","12257","12257","0","[[0,0,0],[1,2],[0]]","1","[[1,0,0],[2,3],[0]]","5","0","","","","","","6","",""
"","","","","","single-stim-button","274","528454","0.0-3.0-25.0-1.0","5783f7dd25cb7100012884a7","E1","batch5","","656","","","tol_toboard","","","","","","","","","tol_peg_1","656","656","0","[[3,0,0],[1,2],[0]]","1","[[1,0,0],[2,3],[0]]","5","0","","","","","","6","",""
"","","","","","single-stim-button","275","528966","0.0-3.0-25.1-0.1","5783f7dd25cb7100012884a7","E1","batch5","","511","","","tol_tohand","","","","","","","","","tol_peg_2","511","511","0","[[3,0,0],[1,0],[0]]","2","[[1,0,0],[2,3],[0]]","5","0","","","","","","6","",""
"","","","","","single-stim-button","276","529374","0.0-3.0-25.1-1.1","5783f7dd25cb7100012884a7","E1","batch5","","407","","","tol_toboard","","","","","","","","","tol_peg_1","407","407","0","[[3,2,0],[1,0],[0]]","2","[[1,0,0],[2,3],[0]]","5","0","","","","","","6","",""
"","","","","","single-stim-button","277","529998","0.0-3.0-25.2-0.2","5783f7dd25cb7100012884a7","E1","batch5","","623","","","tol_tohand","","","","","","","","","tol_peg_2","623","623","0","[[3,2,0],[0,0],[0]]","3","[[1,0,0],[2,3],[0]]","5","0","","","","","","6","",""
"","","","","","single-stim-button","278","530502","0.0-3.0-25.2-1.2","5783f7dd25cb7100012884a7","E1","batch5","","503","","","tol_toboard","","","","","","","","","tol_peg_3","503","503","0","[[3,2,0],[0,0],[1]]","3","[[1,0,0],[2,3],[0]]","5","0","","","","","","6","",""
"","","","","","single-stim-button","279","531350","0.0-3.0-25.3-0.3","5783f7dd25cb7100012884a7","E1","batch5","","847","","","tol_tohand","","","","","","","","","tol_peg_1","847","847","0","[[3,0,0],[0,0],[1]]","4","[[1,0,0],[2,3],[0]]","5","0","","","","","","6","",""
"","","","","","single-stim-button","280","531797","0.0-3.0-25.3-1.3","5783f7dd25cb7100012884a7","E1","batch5","","447","","","tol_toboard","","","","","","","","","tol_peg_2","447","447","0","[[3,0,0],[2,0],[1]]","4","[[1,0,0],[2,3],[0]]","5","0","","","","","","6","",""
"","","","","","single-stim-button","281","532190","0.0-3.0-25.4-0.4","5783f7dd25cb7100012884a7","E1","batch5","","392","","","tol_tohand","","","","","","","","","tol_peg_1","392","392","0","[[0,0,0],[2,0],[1]]","5","[[1,0,0],[2,3],[0]]","5","0","","","","","","6","",""
"","","","","","single-stim-button","282","532855","0.0-3.0-25.4-1.4","5783f7dd25cb7100012884a7","E1","batch5","","664","","","tol_toboard","","","","","","","","","tol_peg_2","664","664","0","[[0,0,0],[2,3],[1]]","5","[[1,0,0],[2,3],[0]]","5","0","","","","","","6","",""
"","","","","","single-stim-button","283","533502","0.0-3.0-25.5-0.5","5783f7dd25cb7100012884a7","E1","batch5","","647","","","tol_tohand","","","","","","","","","tol_peg_3","647","647","0","[[0,0,0],[2,3],[0]]","6","[[1,0,0],[2,3],[0]]","5","0","","","","","","6","",""
"","","","","","single-stim-button","284","534151","0.0-3.0-25.5-1.5","5783f7dd25cb7100012884a7","E1","batch5","","647","","","tol_toboard","","","","","","","","","tol_peg_1","647","647","0","[[1,0,0],[2,3],[0]]","6","[[1,0,0],[2,3],[0]]","5","0","","","","","","6","",""
"","","","","","poldrack-single-stim","285","535165","0.0-3.0-26.0","5783f7dd25cb7100012884a7","E1","batch5","","-1","","","tol_feedback","true","","","","","","","","","1000","1000","500","","","","","","-1","none","true","12257","15277","","",""
"","","","","","html-button-response","286","535782","0.0-3.0-27.0","5783f7dd25cb7100012884a7","E1","batch5","","616.2000000476837","<div class = centerbox><p class = center-block-text>problem <strong>7</strong> out of 25 problems</p></div>","0","tol_trial_num","","","","","","","","","","","","","","","","","","","","","","","","",""
"","","","","","single-stim-button","287","541936","0.0-3.0-28.0-0.0","5783f7dd25cb7100012884a7","E1","batch5","","6153","","","tol_tohand","","","","","","","","","tol_peg_3","6153","6153","0","[[2,1,0],[0,0],[0]]","1","[[1,2,0],[3,0],[0]]","6","0","","","","","","5","",""
"","","","","","single-stim-button","288","542480","0.0-3.0-28.0-1.0","5783f7dd25cb7100012884a7","E1","batch5","","544","","","tol_toboard","","","","","","","","","tol_peg_2","544","544","0","[[2,1,0],[3,0],[0]]","1","[[1,2,0],[3,0],[0]]","6","0","","","","","","5","",""
"","","","","","single-stim-button","289","542984","0.0-3.0-28.1-0.1","5783f7dd25cb7100012884a7","E1","batch5","","504","","","tol_tohand","","","","","","","","","tol_peg_1","504","504","0","[[2,0,0],[3,0],[0]]","2","[[1,2,0],[3,0],[0]]","6","0","","","","","","5","",""
"","","","","","single-stim-button","290","543815","0.0-3.0-28.1-1.1","5783f7dd25cb7100012884a7","E1","batch5","","831","","","tol_toboard","","","","","","","","","tol_peg_3","831","831","0","[[2,0,0],[3,0],[1]]","2","[[1,2,0],[3,0],[0]]","6","0","","","","","","5","",""
"","","","","","single-stim-button","291","544552","0.0-3.0-28.2-0.2","5783f7dd25cb7100012884a7","E1","batch5","","735","","","tol_tohand","","","","","","","","","tol_peg_1","735","735","0","[[0,0,0],[3,0],[1]]","3","[[1,2,0],[3,0],[0]]","6","0","","","","","","5","",""
"","","","","","single-stim-button","292","545081","0.0-3.0-28.2-1.2","5783f7dd25cb7100012884a7","E1","batch5","","528","","","tol_toboard","","","","","","","","","tol_peg_2","528","528","0","[[0,0,0],[3,2],[1]]","3","[[1,2,0],[3,0],[0]]","6","0","","","","","","5","",""
"","","","","","single-stim-button","293","545592","0.0-3.0-28.3-0.3","5783f7dd25cb7100012884a7","E1","batch5","","511","","","tol_tohand","","","","","","","","","tol_peg_3","511","511","0","[[0,0,0],[3,2],[0]]","4","[[1,2,0],[3,0],[0]]","6","0","","","","","","5","",""
"","","","","","single-stim-button","294","546233","0.0-3.0-28.3-1.3","5783f7dd25cb7100012884a7","E1","batch5","","639","","","tol_toboard","","","","","","","","","tol_peg_1","639","639","0","[[1,0,0],[3,2],[0]]","4","[[1,2,0],[3,0],[0]]","6","0","","","","","","5","",""
"","","","","","single-stim-button","295","546681","0.0-3.0-28.4-0.4","5783f7dd25cb7100012884a7","E1","batch5","","447","","","tol_tohand","","","","","","","","","tol_peg_2","447","447","0","[[1,0,0],[3,0],[0]]","5","[[1,2,0],[3,0],[0]]","6","0","","","","","","5","",""
"","","","","","single-stim-button","296","547216","0.0-3.0-28.4-1.4","5783f7dd25cb7100012884a7","E1","batch5","","535","","","tol_toboard","","","","","","","","","tol_peg_1","535","535","0","[[1,2,0],[3,0],[0]]","5","[[1,2,0],[3,0],[0]]","6","0","","","","","","5","",""
"","","","","","poldrack-single-stim","297","548217","0.0-3.0-29.0","5783f7dd25cb7100012884a7","E1","batch5","","-1","","","tol_feedback","true","","","","","","","","","1000","1000","500","","","","","","-1","none","true","6153","8350","","",""
"","","","","","html-button-response","298","548921","0.0-3.0-30.0","5783f7dd25cb7100012884a7","E1","batch5","","702.5","<div class = centerbox><p class = center-block-text>problem <strong>8</strong> out of 25 problems</p></div>","0","tol_trial_num","","","","","","","","","","","","","","","","","","","","","","","","",""
"","","","","","single-stim-button","299","558218","0.0-3.0-31.0-0.0","5783f7dd25cb7100012884a7","E1","batch5","","9297","","","tol_tohand","","","","","","","","","tol_peg_3","9297","9297","0","[[0,0,0],[2,3],[0]]","1","[[1,2,0],[3,0],[0]]","7","0","","","","","","4","",""
"","","","","","single-stim-button","300","558898","0.0-3.0-31.0-1.0","5783f7dd25cb7100012884a7","E1","batch5","","679","","","tol_toboard","","","","","","","","","tol_peg_1","679","679","0","[[1,0,0],[2,3],[0]]","1","[[1,2,0],[3,0],[0]]","7","0","","","","","","4","",""
"","","","","","single-stim-button","301","559370","0.0-3.0-31.1-0.1","5783f7dd25cb7100012884a7","E1","batch5","","472","","","tol_tohand","","","","","","","","","tol_peg_2","472","472","0","[[1,0,0],[2,0],[0]]","2","[[1,2,0],[3,0],[0]]","7","0","","","","","","4","",""
"","","","","","single-stim-button","302","559874","0.0-3.0-31.1-1.1","5783f7dd25cb7100012884a7","E1","batch5","","503","","","tol_toboard","","","","","","","","","tol_peg_3","503","503","0","[[1,0,0],[2,0],[3]]","2","[[1,2,0],[3,0],[0]]","7","0","","","","","","4","",""
"","","","","","single-stim-button","303","560258","0.0-3.0-31.2-0.2","5783f7dd25cb7100012884a7","E1","batch5","","384","","","tol_tohand","","","","","","","","","tol_peg_2","384","384","0","[[1,0,0],[0,0],[3]]","3","[[1,2,0],[3,0],[0]]","7","0","","","","","","4","",""
"","","","","","single-stim-button","304","560922","0.0-3.0-31.2-1.2","5783f7dd25cb7100012884a7","E1","batch5","","663","","","tol_toboard","","","","","","","","","tol_peg_1","663","663","0","[[1,2,0],[0,0],[3]]","3","[[1,2,0],[3,0],[0]]","7","0","","","","","","4","",""
"","","","","","single-stim-button","305","561402","0.0-3.0-31.3-0.3","5783f7dd25cb7100012884a7","E1","batch5","","480","","","tol_tohand","","","","","","","","","tol_peg_3","480","480","0","[[1,2,0],[0,0],[0]]","4","[[1,2,0],[3,0],[0]]","7","0","","","","","","4","",""
"","","","","","single-stim-button","306","562026","0.0-3.0-31.3-1.3","5783f7dd25cb7100012884a7","E1","batch5","","623","","","tol_toboard","","","","","","","","","tol_peg_2","623","623","0","[[1,2,0],[3,0],[0]]","4","[[1,2,0],[3,0],[0]]","7","0","","","","","","4","",""
"","","","","","poldrack-single-stim","307","563035","0.0-3.0-32.0","5783f7dd25cb7100012884a7","E1","batch5","","-1","","","tol_feedback","true","","","","","","","","","1000","1000","500","","","","","","-1","none","true","9297","10633","","",""
"","","","","","html-button-response","308","563883","0.0-3.0-33.0","5783f7dd25cb7100012884a7","E1","batch5","","847.5","<div class = centerbox><p class = center-block-text>problem <strong>9</strong> out of 25 problems</p></div>","0","tol_trial_num","","","","","","","","","","","","","","","","","","","","","","","","",""
"","","","","","single-stim-button","309","570828","0.0-3.0-34.0-0.0","5783f7dd25cb7100012884a7","E1","batch5","","6944","","","tol_tohand","","","","","","","","","tol_peg_3","6944","6944","0","[[3,2,0],[0,0],[0]]","1","[[2,1,0],[3,0],[0]]","8","0","","","","","","6","",""
"","","","","","single-stim-button","310","571580","0.0-3.0-34.0-1.0","5783f7dd25cb7100012884a7","E1","batch5","","751","","","tol_toboard","","","","","","","","","tol_peg_2","751","751","0","[[3,2,0],[1,0],[0]]","1","[[2,1,0],[3,0],[0]]","8","0","","","","","","6","",""
"","","","","","single-stim-button","311","572107","0.0-3.0-34.1-0.1","5783f7dd25cb7100012884a7","E1","batch5","","526","","","tol_tohand","","","","","","","","","tol_peg_1","526","526","0","[[3,0,0],[1,0],[0]]","2","[[2,1,0],[3,0],[0]]","8","0","","","","","","6","",""
"","","","","","single-stim-button","312","572628","0.0-3.0-34.1-1.1","5783f7dd25cb7100012884a7","E1","batch5","","519","","","tol_toboard","","","","","","","","","tol_peg_2","519","519","0","[[3,0,0],[1,2],[0]]","2","[[2,1,0],[3,0],[0]]","8","0","","","","","","6","",""
"","","","","","single-stim-button","313","573084","0.0-3.0-34.2-0.2","5783f7dd25cb7100012884a7","E1","batch5","","455","","","tol_tohand","","","","","","","","","tol_peg_1","455","455","0","[[0,0,0],[1,2],[0]]","3","[[2,1,0],[3,0],[0]]","8","0","","","","","","6","",""
"","","","","","single-stim-button","314","573724","0.0-3.0-34.2-1.2","5783f7dd25cb7100012884a7","E1","batch5","","640","","","tol_toboard","","","","","","","","","tol_peg_3","640","640","0","[[0,0,0],[1,2],[3]]","3","[[2,1,0],[3,0],[0]]","8","0","","","","","","6","",""
"","","","","","single-stim-button","315","574365","0.0-3.0-34.3-0.3","5783f7dd25cb7100012884a7","E1","batch5","","639","","","tol_tohand","","","","","","","","","tol_peg_2","639","639","0","[[0,0,0],[1,0],[3]]","4","[[2,1,0],[3,0],[0]]","8","0","","","","","","6","",""
"","","","","","single-stim-button","316","574860","0.0-3.0-34.3-1.3","5783f7dd25cb7100012884a7","E1","batch5","","495","","","tol_toboard","","","","","","","","","tol_peg_1","495","495","0","[[2,0,0],[1,0],[3]]","4","[[2,1,0],[3,0],[0]]","8","0","","","","","","6","",""
"","","","","","single-stim-button","317","575300","0.0-3.0-34.4-0.4","5783f7dd25cb7100012884a7","E1","batch5","","439","","","tol_tohand","","","","","","","","","tol_peg_2","439","439","0","[[2,0,0],[0,0],[3]]","5","[[2,1,0],[3,0],[0]]","8","0","","","","","","6","",""
"","","","","","single-stim-button","318","575733","0.0-3.0-34.4-1.4","5783f7dd25cb7100012884a7","E1","batch5","","431","","","tol_toboard","","","","","","","","","tol_peg_1","431","431","0","[[2,1,0],[0,0],[3]]","5","[[2,1,0],[3,0],[0]]","8","0","","","","","","6","",""
"","","","","","single-stim-button","319","576229","0.0-3.0-34.5-0.5","5783f7dd25cb7100012884a7","E1","batch5","","496","","","tol_tohand","","","","","","","","","tol_peg_3","496","496","0","[[2,1,0],[0,0],[0]]","6","[[2,1,0],[3,0],[0]]","8","0","","","","","","6","",""
"","","","","","single-stim-button","320","576589","0.0-3.0-34.5-1.5","5783f7dd25cb7100012884a7","E1","batch5","","358","","","tol_toboard","","","","","","","","","tol_peg_2","358","358","0","[[2,1,0],[3,0],[0]]","6","[[2,1,0],[3,0],[0]]","8","0","","","","","","6","",""
"","","","","","poldrack-single-stim","321","577604","0.0-3.0-35.0","5783f7dd25cb7100012884a7","E1","batch5","","-1","","","tol_feedback","true","","","","","","","","","1000","1000","500","","","","","","-1","none","true","6944","9499","","",""
"","","","","","html-button-response","322","578389","0.0-3.0-36.0","5783f7dd25cb7100012884a7","E1","batch5","","784.5","<div class = centerbox><p class = center-block-text>problem <strong>10</strong> out of 25 problems</p></div>","0","tol_trial_num","","","","","","","","","","","","","","","","","","","","","","","","",""
"","","","","","single-stim-button","323","582629","0.0-3.0-37.0-0.0","5783f7dd25cb7100012884a7","E1","batch5","","4239","","","tol_tohand","","","","","","","","","tol_peg_2","4239","4239","0","[[3,0,0],[0,0],[2]]","1","[[3,0,0],[2,1],[0]]","9","0","","","","","","3","",""
"","","","","","single-stim-button","324","583230","0.0-3.0-37.0-1.0","5783f7dd25cb7100012884a7","E1","batch5","","599","","","tol_toboard","","","","","","","","","tol_peg_1","599","599","0","[[3,1,0],[0,0],[2]]","1","[[3,0,0],[2,1],[0]]","9","0","","","","","","3","",""
"","","","","","single-stim-button","325","583774","0.0-3.0-37.1-0.1","5783f7dd25cb7100012884a7","E1","batch5","","544","","","tol_tohand","","","","","","","","","tol_peg_3","544","544","0","[[3,1,0],[0,0],[0]]","2","[[3,0,0],[2,1],[0]]","9","0","","","","","","3","",""
"","","","","","single-stim-button","326","584149","0.0-3.0-37.1-1.1","5783f7dd25cb7100012884a7","E1","batch5","","375","","","tol_toboard","","","","","","","","","tol_peg_2","375","375","0","[[3,1,0],[2,0],[0]]","2","[[3,0,0],[2,1],[0]]","9","0","","","","","","3","",""
"","","","","","single-stim-button","327","584686","0.0-3.0-37.2-0.2","5783f7dd25cb7100012884a7","E1","batch5","","535","","","tol_tohand","","","","","","","","","tol_peg_1","535","535","0","[[3,0,0],[2,0],[0]]","3","[[3,0,0],[2,1],[0]]","9","0","","","","","","3","",""
"","","","","","single-stim-button","328","585069","0.0-3.0-37.2-1.2","5783f7dd25cb7100012884a7","E1","batch5","","383","","","tol_toboard","","","","","","","","","tol_peg_2","383","383","0","[[3,0,0],[2,1],[0]]","3","[[3,0,0],[2,1],[0]]","9","0","","","","","","3","",""
"","","","","","poldrack-single-stim","329","586070","0.0-3.0-38.0","5783f7dd25cb7100012884a7","E1","batch5","","-1","","","tol_feedback","true","","","","","","","","","1000","1000","500","","","","","","-1","none","true","4239","5318","","",""
"","","","","","html-button-response","330","586807","0.0-3.0-39.0","5783f7dd25cb7100012884a7","E1","batch5","","735.3999998569489","<div class = centerbox><p class = center-block-text>problem <strong>11</strong> out of 25 problems</p></div>","0","tol_trial_num","","","","","","","","","","","","","","","","","","","","","","","","",""
"","","","","","single-stim-button","331","598800","0.0-3.0-40.0-0.0","5783f7dd25cb7100012884a7","E1","batch5","","11993","","","tol_tohand","","","","","","","","","tol_peg_2","11993","11993","0","[[1,2,0],[0,0],[0]]","1","[[2,0,0],[1,3],[0]]","10","0","","","","","","6","",""
"","","","","","single-stim-button","332","599648","0.0-3.0-40.0-1.0","5783f7dd25cb7100012884a7","E1","batch5","","847","","","tol_toboard","","","","","","","","","tol_peg_3","847","847","0","[[1,2,0],[0,0],[3]]","1","[[2,0,0],[1,3],[0]]","10","0","","","","","","6","",""
"","","","","","single-stim-button","333","604896","0.0-3.0-40.1-0.1","5783f7dd25cb7100012884a7","E1","batch5","","5247","","","tol_tohand","","","","","","","","","tol_peg_1","5247","5247","0","[[1,0,0],[0,0],[3]]","2","[[2,0,0],[1,3],[0]]","10","0","","","","","","6","",""
"","","","","","single-stim-button","334","605305","0.0-3.0-40.1-1.1","5783f7dd25cb7100012884a7","E1","batch5","","408","","","tol_toboard","","","","","","","","","tol_peg_2","408","408","0","[[1,0,0],[2,0],[3]]","2","[[2,0,0],[1,3],[0]]","10","0","","","","","","6","",""
"","","","","","single-stim-button","335","605849","0.0-3.0-40.2-0.2","5783f7dd25cb7100012884a7","E1","batch5","","543","","","tol_tohand","","","","","","","","","tol_peg_3","543","543","0","[[1,0,0],[2,0],[0]]","3","[[2,0,0],[1,3],[0]]","10","0","","","","","","6","",""
"","","","","","single-stim-button","336","606289","0.0-3.0-40.2-1.2","5783f7dd25cb7100012884a7","E1","batch5","","439","","","tol_toboard","","","","","","","","","tol_peg_2","439","439","0","[[1,0,0],[2,3],[0]]","3","[[2,0,0],[1,3],[0]]","10","0","","","","","","6","",""
"","","","","","single-stim-button","337","606770","0.0-3.0-40.3-0.3","5783f7dd25cb7100012884a7","E1","batch5","","479","","","tol_tohand","","","","","","","","","tol_peg_1","479","479","0","[[0,0,0],[2,3],[0]]","4","[[2,0,0],[1,3],[0]]","10","0","","","","","","6","",""
"","","","","","single-stim-button","338","607410","0.0-3.0-40.3-1.3","5783f7dd25cb7100012884a7","E1","batch5","","639","","","tol_toboard","","","","","","","","","tol_peg_3","639","639","0","[[0,0,0],[2,3],[1]]","4","[[2,0,0],[1,3],[0]]","10","0","","","","","","6","",""
"","","","","","single-stim-button","339","608810","0.0-3.0-40.4-0.4","5783f7dd25cb7100012884a7","E1","batch5","","1399","","","tol_tohand","","","","","","","","","tol_peg_2","1399","1399","0","[[0,0,0],[2,0],[1]]","5","[[2,0,0],[1,3],[0]]","10","0","","","","","","6","",""
"","","","","","single-stim-button","340","612402","0.0-3.0-40.4-1.4","5783f7dd25cb7100012884a7","E1","batch5","","3592","","","tol_toboard","","","","","","","","","tol_peg_1","3592","3592","0","[[3,0,0],[2,0],[1]]","5","[[2,0,0],[1,3],[0]]","10","0","","","","","","6","",""
"","","","","","single-stim-button","341","612843","0.0-3.0-40.5-0.5","5783f7dd25cb7100012884a7","E1","batch5","","439","","","tol_tohand","","","","","","","","","tol_peg_3","439","439","0","[[3,0,0],[2,0],[0]]","6","[[2,0,0],[1,3],[0]]","10","0","","","","","","6","",""
"","","","","","single-stim-button","342","613243","0.0-3.0-40.5-1.5","5783f7dd25cb7100012884a7","E1","batch5","","399","","","tol_toboard","","","","","","","","","tol_peg_2","399","399","0","[[3,0,0],[2,1],[0]]","6","[[2,0,0],[1,3],[0]]","10","0","","","","","","6","",""
"","","","","","single-stim-button","343","613651","0.0-3.0-40.6-0.6","5783f7dd25cb7100012884a7","E1","batch5","","407","","","tol_tohand","","","","","","","","","tol_peg_1","407","407","0","[[0,0,0],[2,1],[0]]","7","[[2,0,0],[1,3],[0]]","10","0","","","","","","6","",""
"","","","","","single-stim-button","344","614362","0.0-3.0-40.6-1.6","5783f7dd25cb7100012884a7","E1","batch5","","710","","","tol_toboard","","","","","","","","","tol_peg_3","710","710","0","[[0,0,0],[2,1],[3]]","7","[[2,0,0],[1,3],[0]]","10","0","","","","","","6","",""
"","","","","","single-stim-button","345","618547","0.0-3.0-40.7-0.7","5783f7dd25cb7100012884a7","E1","batch5","","4184","","","tol_tohand","","","","","","","","","tol_peg_2","4184","4184","0","[[0,0,0],[2,0],[3]]","8","[[2,0,0],[1,3],[0]]","10","0","","","","","","6","",""
"","","","","","single-stim-button","346","619068","0.0-3.0-40.7-1.7","5783f7dd25cb7100012884a7","E1","batch5","","521","","","tol_toboard","","","","","","","","","tol_peg_1","521","521","0","[[1,0,0],[2,0],[3]]","8","[[2,0,0],[1,3],[0]]","10","0","","","","","","6","",""
"","","","","","single-stim-button","347","621836","0.0-3.0-40.8-0.8","5783f7dd25cb7100012884a7","E1","batch5","","2768","","","tol_tohand","","","","","","","","","tol_peg_3","2768","2768","0","[[1,0,0],[2,0],[0]]","9","[[2,0,0],[1,3],[0]]","10","0","","","","","","6","",""
"","","","","","single-stim-button","348","622339","0.0-3.0-40.8-1.8","5783f7dd25cb7100012884a7","E1","batch5","","503","","","tol_toboard","","","","","","","","","tol_peg_1","503","503","0","[[1,3,0],[2,0],[0]]","9","[[2,0,0],[1,3],[0]]","10","0","","","","","","6","",""
"","","","","","single-stim-button","349","622675","0.0-3.0-40.9-0.9","5783f7dd25cb7100012884a7","E1","batch5","","335","","","tol_tohand","","","","","","","","","tol_peg_2","335","335","0","[[1,3,0],[0,0],[0]]","10","[[2,0,0],[1,3],[0]]","10","0","","","","","","6","",""
