"success","timeout","failed_images","failed_audio","failed_video","trial_type","trial_index","time_elapsed","internal_node_id","subject_id","study_id","session_id","task","rt","stimulus","response","item","answer","correct","spm_correct","spm_rt","view_history","fiar_detect_rt","fiar_detect_correct","total_correct_fiar_detect","post_trial_gap","choices","mouse_click","stim_duration","block_duration","timing_post_trial","current_position","tol_num_moves_made","tol_target","tol_problem_id","tol_rt","key_press","possible_responses","tol_correct","preplanning","tol_rt_per_trial","tol_min_moves"
"true","false","[]","[]","[]","preload","0","2297","0.0-0.0","578bcb2c09fb91000133750e","C3","batch3","","","","","","","","","","","","","","","","","","","","","","","","","","","","","",""
"true","","","","","fullscreen","1","14131","0.0-1.0-0.0","578bcb2c09fb91000133750e","C3","batch3","","","","","","","","","","","","","","","","","","","","","","","","","","","","","",""
"true","","","","","fullscreen","2","18343","0.0-2.0-0.0","578bcb2c09fb91000133750e","C3","batch3","spm_fullscreen","","","","","","","","","","","","","","","","","","","","","","","","","","","","",""
"","","","","","html-button-response","3","30540","0.0-2.0-1.0","578bcb2c09fb91000133750e","C3","batch3","","12194","<p class = block-text><b>Instructions</b> <br>This is a widely used intelligence test in research. <br>In this test, a figure with a missing piece will be presented.<br>Below the figure are alternative pieces to complete the figure, only one of which is correct.<br> Different figures might involve different principles for obtaining the missing piece<br>Your job is to select the most logical piece to complete the figure.</p>","0","","","","","","","","","","","","","","","","","","","","","","","","","",""
"","","","","","html-keyboard-response","4","31350","0.0-2.0-2.0-0.0","578bcb2c09fb91000133750e","C3","batch3","spm_show_trial_num","null","<p class=block-text>Trial 1 out of 60</p>","null","","","","","","","","","","","","","","","","","","","","","","","","","",""
"","","","","","image-button-response","5","35707","0.0-2.0-2.0-1.0","578bcb2c09fb91000133750e","C3","batch3","spm_respsonse","4350.399999976158","img/question_1_1.jpeg","3","mat_01","4","1","1","4350.399999976158","","","","","","","","","","","","","","","","","","","","",""
"","","","","","html-keyboard-response","6","36775","0.0-2.0-2.0-0.1","578bcb2c09fb91000133750e","C3","batch3","spm_show_trial_num","null","<p class=block-text>Trial 2 out of 60</p>","null","","","","","","","","","","","","","","","","","","","","","","","","","",""
"","","","","","image-button-response","7","40156","0.0-2.0-2.0-1.1","578bcb2c09fb91000133750e","C3","batch3","spm_respsonse","3378.5","img/question_1_2.jpeg","4","mat_02","5","1","1","3378.5","","","","","","","","","","","","","","","","","","","","",""
"","","","","","html-keyboard-response","8","41221","0.0-2.0-2.0-0.2","578bcb2c09fb91000133750e","C3","batch3","spm_show_trial_num","null","<p class=block-text>Trial 3 out of 60</p>","null","","","","","","","","","","","","","","","","","","","","","","","","","",""
"","","","","","image-button-response","9","43840","0.0-2.0-2.0-1.2","578bcb2c09fb91000133750e","C3","batch3","spm_respsonse","2615.2999999523163","img/question_1_3.jpeg","0","mat_03","1","1","1","2615.2999999523163","","","","","","","","","","","","","","","","","","","","",""
"","","","","","html-keyboard-response","10","44906","0.0-2.0-2.0-0.3","578bcb2c09fb91000133750e","C3","batch3","spm_show_trial_num","null","<p class=block-text>Trial 4 out of 60</p>","null","","","","","","","","","","","","","","","","","","","","","","","","","",""
"","","","","","image-button-response","11","47940","0.0-2.0-2.0-1.3","578bcb2c09fb91000133750e","C3","batch3","spm_respsonse","3030.899999976158","img/question_1_4.jpeg","1","mat_04","2","1","1","3030.899999976158","","","","","","","","","","","","","","","","","","","","",""
"","","","","","html-keyboard-response","12","49008","0.0-2.0-2.0-0.4","578bcb2c09fb91000133750e","C3","batch3","spm_show_trial_num","null","<p class=block-text>Trial 5 out of 60</p>","null","","","","","","","","","","","","","","","","","","","","","","","","","",""
"","","","","","image-button-response","13","53456","0.0-2.0-2.0-1.4","578bcb2c09fb91000133750e","C3","batch3","spm_respsonse","4445.299999952316","img/question_1_5.jpeg","5","mat_05","6","1","1","4445.299999952316","","","","","","","","","","","","","","","","","","","","",""
"","","","","","html-keyboard-response","14","54519","0.0-2.0-2.0-0.5","578bcb2c09fb91000133750e","C3","batch3","spm_show_trial_num","null","<p class=block-text>Trial 6 out of 60</p>","null","","","","","","","","","","","","","","","","","","","","","","","","","",""
"","","","","","image-button-response","15","57522","0.0-2.0-2.0-1.5","578bcb2c09fb91000133750e","C3","batch3","spm_respsonse","3000.5","img/question_1_6.jpeg","2","mat_06","3","1","1","3000.5","","","","","","","","","","","","","","","","","","","","",""
"","","","","","html-keyboard-response","16","58591","0.0-2.0-2.0-0.6","578bcb2c09fb91000133750e","C3","batch3","spm_show_trial_num","null","<p class=block-text>Trial 7 out of 60</p>","null","","","","","","","","","","","","","","","","","","","","","","","","","",""
"","","","","","image-button-response","17","61856","0.0-2.0-2.0-1.6","578bcb2c09fb91000133750e","C3","batch3","spm_respsonse","3262","img/question_1_7.jpeg","5","mat_07","6","1","1","3262","","","","","","","","","","","","","","","","","","","","",""
"","","","","","html-keyboard-response","18","62921","0.0-2.0-2.0-0.7","578bcb2c09fb91000133750e","C3","batch3","spm_show_trial_num","null","<p class=block-text>Trial 8 out of 60</p>","null","","","","","","","","","","","","","","","","","","","","","","","","","",""
"","","","","","image-button-response","19","73656","0.0-2.0-2.0-1.7","578bcb2c09fb91000133750e","C3","batch3","spm_respsonse","10731.5","img/question_1_8.jpeg","1","mat_08","2","1","1","10731.5","","","","","","","","","","","","","","","","","","","","",""
"","","","","","html-keyboard-response","20","74716","0.0-2.0-2.0-0.8","578bcb2c09fb91000133750e","C3","batch3","spm_show_trial_num","null","<p class=block-text>Trial 9 out of 60</p>","null","","","","","","","","","","","","","","","","","","","","","","","","","",""
"","","","","","image-button-response","21","80939","0.0-2.0-2.0-1.8","578bcb2c09fb91000133750e","C3","batch3","spm_respsonse","6219.200000047684","img/question_1_9.jpeg","0","mat_09","1","1","1","6219.200000047684","","","","","","","","","","","","","","","","","","","","",""
"","","","","","html-keyboard-response","22","82000","0.0-2.0-2.0-0.9","578bcb2c09fb91000133750e","C3","batch3","spm_show_trial_num","null","<p class=block-text>Trial 10 out of 60</p>","null","","","","","","","","","","","","","","","","","","","","","","","","","",""
"","","","","","image-button-response","23","90788","0.0-2.0-2.0-1.9","578bcb2c09fb91000133750e","C3","batch3","spm_respsonse","8785.100000023842","img/question_1_10.jpeg","2","mat_10","3","1","1","8785.100000023842","","","","","","","","","","","","","","","","","","","","",""
"","","","","","html-keyboard-response","24","91847","0.0-2.0-2.0-0.10","578bcb2c09fb91000133750e","C3","batch3","spm_show_trial_num","null","<p class=block-text>Trial 11 out of 60</p>","null","","","","","","","","","","","","","","","","","","","","","","","","","",""
"","","","","","image-button-response","25","105740","0.0-2.0-2.0-1.10","578bcb2c09fb91000133750e","C3","batch3","spm_respsonse","13889.400000095367","img/question_1_11.jpeg","3","mat_11","4","1","1","13889.400000095367","","","","","","","","","","","","","","","","","","","","",""
"","","","","","html-keyboard-response","26","106808","0.0-2.0-2.0-0.11","578bcb2c09fb91000133750e","C3","batch3","spm_show_trial_num","null","<p class=block-text>Trial 12 out of 60</p>","null","","","","","","","","","","","","","","","","","","","","","","","","","",""
"","","","","","image-button-response","27","117738","0.0-2.0-2.0-1.11","578bcb2c09fb91000133750e","C3","batch3","spm_respsonse","10927.200000047684","img/question_1_12.jpeg","4","mat_12","5","1","1","10927.200000047684","","","","","","","","","","","","","","","","","","","","",""
"","","","","","html-keyboard-response","28","118799","0.0-2.0-2.0-0.12","578bcb2c09fb91000133750e","C3","batch3","spm_show_trial_num","null","<p class=block-text>Trial 13 out of 60</p>","null","","","","","","","","","","","","","","","","","","","","","","","","","",""
"","","","","","image-button-response","29","122372","0.0-2.0-2.0-1.12","578bcb2c09fb91000133750e","C3","batch3","spm_respsonse","3569.100000023842","img/question_2_1.jpeg","1","mat_13","2","1","1","3569.100000023842","","","","","","","","","","","","","","","","","","","","",""
"","","","","","html-keyboard-response","30","123439","0.0-2.0-2.0-0.13","578bcb2c09fb91000133750e","C3","batch3","spm_show_trial_num","null","<p class=block-text>Trial 14 out of 60</p>","null","","","","","","","","","","","","","","","","","","","","","","","","","",""
"","","","","","image-button-response","31","128106","0.0-2.0-2.0-1.13","578bcb2c09fb91000133750e","C3","batch3","spm_respsonse","4663.200000047684","img/question_2_2.jpeg","5","mat_14","6","1","1","4663.200000047684","","","","","","","","","","","","","","","","","","","","",""
"","","","","","html-keyboard-response","32","129166","0.0-2.0-2.0-0.14","578bcb2c09fb91000133750e","C3","batch3","spm_show_trial_num","null","<p class=block-text>Trial 15 out of 60</p>","null","","","","","","","","","","","","","","","","","","","","","","","","","",""
"","","","","","image-button-response","33","133373","0.0-2.0-2.0-1.14","578bcb2c09fb91000133750e","C3","batch3","spm_respsonse","4202.899999976158","img/question_2_3.jpeg","0","mat_15","1","1","1","4202.899999976158","","","","","","","","","","","","","","","","","","","","",""
"","","","","","html-keyboard-response","34","134435","0.0-2.0-2.0-0.15","578bcb2c09fb91000133750e","C3","batch3","spm_show_trial_num","null","<p class=block-text>Trial 16 out of 60</p>","null","","","","","","","","","","","","","","","","","","","","","","","","","",""
"","","","","","image-button-response","35","140039","0.0-2.0-2.0-1.15","578bcb2c09fb91000133750e","C3","batch3","spm_respsonse","5601.899999976158","img/question_2_4.jpeg","1","mat_16","2","1","1","5601.899999976158","","","","","","","","","","","","","","","","","","","","",""
"","","","","","html-keyboard-response","36","141100","0.0-2.0-2.0-0.16","578bcb2c09fb91000133750e","C3","batch3","spm_show_trial_num","null","<p class=block-text>Trial 17 out of 60</p>","null","","","","","","","","","","","","","","","","","","","","","","","","","",""
"","","","","","image-button-response","37","145490","0.0-2.0-2.0-1.16","578bcb2c09fb91000133750e","C3","batch3","spm_respsonse","4386.200000047684","img/question_2_5.jpeg","0","mat_17","1","1","1","4386.200000047684","","","","","","","","","","","","","","","","","","","","",""
"","","","","","html-keyboard-response","38","146559","0.0-2.0-2.0-0.17","578bcb2c09fb91000133750e","C3","batch3","spm_show_trial_num","null","<p class=block-text>Trial 18 out of 60</p>","null","","","","","","","","","","","","","","","","","","","","","","","","","",""
"","","","","","image-button-response","39","153206","0.0-2.0-2.0-1.17","578bcb2c09fb91000133750e","C3","batch3","spm_respsonse","6644.5","img/question_2_6.jpeg","2","mat_18","3","1","1","6644.5","","","","","","","","","","","","","","","","","","","","",""
"","","","","","html-keyboard-response","40","154266","0.0-2.0-2.0-0.18","578bcb2c09fb91000133750e","C3","batch3","spm_show_trial_num","null","<p class=block-text>Trial 19 out of 60</p>","null","","","","","","","","","","","","","","","","","","","","","","","","","",""
"","","","","","image-button-response","41","160440","0.0-2.0-2.0-1.18","578bcb2c09fb91000133750e","C3","batch3","spm_respsonse","6169.800000071526","img/question_2_7.jpeg","4","mat_19","5","1","1","6169.800000071526","","","","","","","","","","","","","","","","","","","","",""
"","","","","","html-keyboard-response","42","161499","0.0-2.0-2.0-0.19","578bcb2c09fb91000133750e","C3","batch3","spm_show_trial_num","null","<p class=block-text>Trial 20 out of 60</p>","null","","","","","","","","","","","","","","","","","","","","","","","","","",""
"","","","","","image-button-response","43","166156","0.0-2.0-2.0-1.19","578bcb2c09fb91000133750e","C3","batch3","spm_respsonse","4652.599999904633","img/question_2_8.jpeg","2","mat_20","6","0","0","4652.599999904633","","","","","","","","","","","","","","","","","","","","",""
"","","","","","html-keyboard-response","44","167222","0.0-2.0-2.0-0.20","578bcb2c09fb91000133750e","C3","batch3","spm_show_trial_num","null","<p class=block-text>Trial 21 out of 60</p>","null","","","","","","","","","","","","","","","","","","","","","","","","","",""
"","","","","","image-button-response","45","172673","0.0-2.0-2.0-1.20","578bcb2c09fb91000133750e","C3","batch3","spm_respsonse","5446.5","img/question_2_9.jpeg","3","mat_21","4","1","1","5446.5","","","","","","","","","","","","","","","","","","","","",""
"","","","","","html-keyboard-response","46","173742","0.0-2.0-2.0-0.21","578bcb2c09fb91000133750e","C3","batch3","spm_show_trial_num","null","<p class=block-text>Trial 22 out of 60</p>","null","","","","","","","","","","","","","","","","","","","","","","","","","",""
"","","","","","image-button-response","47","178323","0.0-2.0-2.0-1.21","578bcb2c09fb91000133750e","C3","batch3","spm_respsonse","4577.400000095367","img/question_2_10.jpeg","2","mat_22","3","1","1","4577.400000095367","","","","","","","","","","","","","","","","","","","","",""
"","","","","","html-keyboard-response","48","179390","0.0-2.0-2.0-0.22","578bcb2c09fb91000133750e","C3","batch3","spm_show_trial_num","null","<p class=block-text>Trial 23 out of 60</p>","null","","","","","","","","","","","","","","","","","","","","","","","","","",""
"","","","","","image-button-response","49","184706","0.0-2.0-2.0-1.22","578bcb2c09fb91000133750e","C3","batch3","spm_respsonse","5312.200000047684","img/question_2_11.jpeg","3","mat_23","4","1","1","5312.200000047684","","","","","","","","","","","","","","","","","","","","",""
"","","","","","html-keyboard-response","50","185771","0.0-2.0-2.0-0.23","578bcb2c09fb91000133750e","C3","batch3","spm_show_trial_num","null","<p class=block-text>Trial 24 out of 60</p>","null","","","","","","","","","","","","","","","","","","","","","","","","","",""
"","","","","","image-button-response","51","194973","0.0-2.0-2.0-1.23","578bcb2c09fb91000133750e","C3","batch3","spm_respsonse","9198","img/question_2_12.jpeg","4","mat_24","5","1","1","9198","","","","","","","","","","","","","","","","","","","","",""
"","","","","","html-button-response","52","197173","0.0-2.0-3.0","578bcb2c09fb91000133750e","C3","batch3","attention_check","1946","<p class = block-text>Attention check: Please choose 1<br></p>","0","","","true","","","","","","","","","","","","","","","","","","","","","","",""
"","","","","","html-keyboard-response","53","197981","0.0-2.0-4.0-0.0","578bcb2c09fb91000133750e","C3","batch3","spm_show_trial_num","null","<p class=block-text>Trial 25 out of 60</p>","null","","","","","","","","","","","","","","","","","","","","","","","","","",""
"","","","","","image-button-response","54","205923","0.0-2.0-4.0-1.0","578bcb2c09fb91000133750e","C3","batch3","spm_respsonse","7937.5","img/question_3_1.jpeg","7","mat_25","8","1","1","7937.5","","","","","","","","","","","","","","","","","","","","",""
"","","","","","html-keyboard-response","55","206989","0.0-2.0-4.0-0.1","578bcb2c09fb91000133750e","C3","batch3","spm_show_trial_num","null","<p class=block-text>Trial 26 out of 60</p>","null","","","","","","","","","","","","","","","","","","","","","","","","","",""
"","","","","","image-button-response","56","214790","0.0-2.0-4.0-1.1","578bcb2c09fb91000133750e","C3","batch3","spm_respsonse","7796.5","img/question_3_2.jpeg","1","mat_26","2","1","1","7796.5","","","","","","","","","","","","","","","","","","","","",""
"","","","","","html-keyboard-response","57","215858","0.0-2.0-4.0-0.2","578bcb2c09fb91000133750e","C3","batch3","spm_show_trial_num","null","<p class=block-text>Trial 27 out of 60</p>","null","","","","","","","","","","","","","","","","","","","","","","","","","",""
"","","","","","image-button-response","58","223373","0.0-2.0-4.0-1.2","578bcb2c09fb91000133750e","C3","batch3","spm_respsonse","7511.199999928474","img/question_3_3.jpeg","2","mat_27","3","1","1","7511.199999928474","","","","","","","","","","","","","","","","","","","","",""
"","","","","","html-keyboard-response","59","224436","0.0-2.0-4.0-0.3","578bcb2c09fb91000133750e","C3","batch3","spm_show_trial_num","null","<p class=block-text>Trial 28 out of 60</p>","null","","","","","","","","","","","","","","","","","","","","","","","","","",""
"","","","","","image-button-response","60","234556","0.0-2.0-4.0-1.3","578bcb2c09fb91000133750e","C3","batch3","spm_respsonse","10116.700000047684","img/question_3_4.jpeg","7","mat_28","8","1","1","10116.700000047684","","","","","","","","","","","","","","","","","","","","",""
"","","","","","html-keyboard-response","61","235621","0.0-2.0-4.0-0.4","578bcb2c09fb91000133750e","C3","batch3","spm_show_trial_num","null","<p class=block-text>Trial 29 out of 60</p>","null","","","","","","","","","","","","","","","","","","","","","","","","","",""
"","","","","","image-button-response","62","261106","0.0-2.0-4.0-1.4","578bcb2c09fb91000133750e","C3","batch3","spm_respsonse","25482.099999904633","img/question_3_5.jpeg","6","mat_29","7","1","1","25482.099999904633","","","","","","","","","","","","","","","","","","","","",""
"","","","","","html-keyboard-response","63","262172","0.0-2.0-4.0-0.5","578bcb2c09fb91000133750e","C3","batch3","spm_show_trial_num","null","<p class=block-text>Trial 30 out of 60</p>","null","","","","","","","","","","","","","","","","","","","","","","","","","",""
"","","","","","image-button-response","64","275889","0.0-2.0-4.0-1.5","578bcb2c09fb91000133750e","C3","batch3","spm_respsonse","13713.799999952316","img/question_3_6.jpeg","3","mat_30","4","1","1","13713.799999952316","","","","","","","","","","","","","","","","","","","","",""
"","","","","","html-keyboard-response","65","276955","0.0-2.0-4.0-0.6","578bcb2c09fb91000133750e","C3","batch3","spm_show_trial_num","null","<p class=block-text>Trial 31 out of 60</p>","null","","","","","","","","","","","","","","","","","","","","","","","","","",""
"","","","","","image-button-response","66","288023","0.0-2.0-4.0-1.6","578bcb2c09fb91000133750e","C3","batch3","spm_respsonse","11065.5","img/question_3_7.jpeg","4","mat_31","5","1","1","11065.5","","","","","","","","","","","","","","","","","","","","",""
"","","","","","html-keyboard-response","67","289091","0.0-2.0-4.0-0.7","578bcb2c09fb91000133750e","C3","batch3","spm_show_trial_num","null","<p class=block-text>Trial 32 out of 60</p>","null","","","","","","","","","","","","","","","","","","","","","","","","","",""
"","","","","","image-button-response","68","321823","0.0-2.0-4.0-1.7","578bcb2c09fb91000133750e","C3","batch3","spm_respsonse","32728.5","img/question_3_8.jpeg","3","mat_32","1","0","0","32728.5","","","","","","","","","","","","","","","","","","","","",""
"","","","","","html-keyboard-response","69","322890","0.0-2.0-4.0-0.8","578bcb2c09fb91000133750e","C3","batch3","spm_show_trial_num","null","<p class=block-text>Trial 33 out of 60</p>","null","","","","","","","","","","","","","","","","","","","","","","","","","",""
"","","","","","image-button-response","70","332957","0.0-2.0-4.0-1.8","578bcb2c09fb91000133750e","C3","batch3","spm_respsonse","10062.200000047684","img/question_3_9.jpeg","6","mat_33","7","1","1","10062.200000047684","","","","","","","","","","","","","","","","","","","","",""
"","","","","","html-keyboard-response","71","334024","0.0-2.0-4.0-0.9","578bcb2c09fb91000133750e","C3","batch3","spm_show_trial_num","null","<p class=block-text>Trial 34 out of 60</p>","null","","","","","","","","","","","","","","","","","","","","","","","","","",""
"","","","","","image-button-response","72","356090","0.0-2.0-4.0-1.9","578bcb2c09fb91000133750e","C3","batch3","spm_respsonse","22062.200000047684","img/question_3_10.jpeg","5","mat_34","6","1","1","22062.200000047684","","","","","","","","","","","","","","","","","","","","",""
"","","","","","html-keyboard-response","73","357154","0.0-2.0-4.0-0.10","578bcb2c09fb91000133750e","C3","batch3","spm_show_trial_num","null","<p class=block-text>Trial 35 out of 60</p>","null","","","","","","","","","","","","","","","","","","","","","","","","","",""
"","","","","","image-button-response","74","379690","0.0-2.0-4.0-1.10","578bcb2c09fb91000133750e","C3","batch3","spm_respsonse","22532.199999928474","img/question_3_11.jpeg","0","mat_35","1","1","1","22532.199999928474","","","","","","","","","","","","","","","","","","","","",""
"","","","","","html-keyboard-response","75","380749","0.0-2.0-4.0-0.11","578bcb2c09fb91000133750e","C3","batch3","spm_show_trial_num","null","<p class=block-text>Trial 36 out of 60</p>","null","","","","","","","","","","","","","","","","","","","","","","","","","",""
"","","","","","image-button-response","76","398606","0.0-2.0-4.0-1.11","578bcb2c09fb91000133750e","C3","batch3","spm_respsonse","17853.399999976158","img/question_3_12.jpeg","1","mat_36","2","1","1","17853.399999976158","","","","","","","","","","","","","","","","","","","","",""
"","","","","","html-keyboard-response","77","399667","0.0-2.0-4.0-0.12","578bcb2c09fb91000133750e","C3","batch3","spm_show_trial_num","null","<p class=block-text>Trial 37 out of 60</p>","null","","","","","","","","","","","","","","","","","","","","","","","","","",""
"","","","","","image-button-response","78","404423","0.0-2.0-4.0-1.12","578bcb2c09fb91000133750e","C3","batch3","spm_respsonse","4752.5","img/question_4_1.jpeg","2","mat_37","3","1","1","4752.5","","","","","","","","","","","","","","","","","","","","",""
"","","","","","html-keyboard-response","79","405487","0.0-2.0-4.0-0.13","578bcb2c09fb91000133750e","C3","batch3","spm_show_trial_num","null","<p class=block-text>Trial 38 out of 60</p>","null","","","","","","","","","","","","","","","","","","","","","","","","","",""
"","","","","","image-button-response","80","413090","0.0-2.0-4.0-1.13","578bcb2c09fb91000133750e","C3","batch3","spm_respsonse","7599.199999928474","img/question_4_2.jpeg","3","mat_38","4","1","1","7599.199999928474","","","","","","","","","","","","","","","","","","","","",""
"","","","","","html-keyboard-response","81","414150","0.0-2.0-4.0-0.14","578bcb2c09fb91000133750e","C3","batch3","spm_show_trial_num","null","<p class=block-text>Trial 39 out of 60</p>","null","","","","","","","","","","","","","","","","","","","","","","","","","",""
"","","","","","image-button-response","82","426173","0.0-2.0-4.0-1.14","578bcb2c09fb91000133750e","C3","batch3","spm_respsonse","12019.800000071526","img/question_4_3.jpeg","2","mat_39","3","1","1","12019.800000071526","","","","","","","","","","","","","","","","","","","","",""
"","","","","","html-keyboard-response","83","427239","0.0-2.0-4.0-0.15","578bcb2c09fb91000133750e","C3","batch3","spm_show_trial_num","null","<p class=block-text>Trial 40 out of 60</p>","null","","","","","","","","","","","","","","","","","","","","","","","","","",""
"","","","","","image-button-response","84","433957","0.0-2.0-4.0-1.15","578bcb2c09fb91000133750e","C3","batch3","spm_respsonse","6712.899999976158","img/question_4_4.jpeg","6","mat_40","7","1","1","6712.899999976158","","","","","","","","","","","","","","","","","","","","",""
"","","","","","html-keyboard-response","85","435019","0.0-2.0-4.0-0.16","578bcb2c09fb91000133750e","C3","batch3","spm_show_trial_num","null","<p class=block-text>Trial 41 out of 60</p>","null","","","","","","","","","","","","","","","","","","","","","","","","","",""
"","","","","","image-button-response","86","450007","0.0-2.0-4.0-1.16","578bcb2c09fb91000133750e","C3","batch3","spm_respsonse","14983.899999976158","img/question_4_5.jpeg","7","mat_41","8","1","1","14983.899999976158","","","","","","","","","","","","","","","","","","","","",""
"","","","","","html-keyboard-response","87","451066","0.0-2.0-4.0-0.17","578bcb2c09fb91000133750e","C3","batch3","spm_show_trial_num","null","<p class=block-text>Trial 42 out of 60</p>","null","","","","","","","","","","","","","","","","","","","","","","","","","",""
"","","","","","image-button-response","88","460323","0.0-2.0-4.0-1.17","578bcb2c09fb91000133750e","C3","batch3","spm_respsonse","9253.699999928474","img/question_4_6.jpeg","5","mat_42","6","1","1","9253.699999928474","","","","","","","","","","","","","","","","","","","","",""
"","","","","","html-keyboard-response","89","461391","0.0-2.0-4.0-0.18","578bcb2c09fb91000133750e","C3","batch3","spm_show_trial_num","null","<p class=block-text>Trial 43 out of 60</p>","null","","","","","","","","","","","","","","","","","","","","","","","","","",""
"","","","","","image-button-response","90","473706","0.0-2.0-4.0-1.18","578bcb2c09fb91000133750e","C3","batch3","spm_respsonse","12311.700000047684","img/question_4_7.jpeg","4","mat_43","5","1","1","12311.700000047684","","","","","","","","","","","","","","","","","","","","",""
"","","","","","html-keyboard-response","91","474772","0.0-2.0-4.0-0.19","578bcb2c09fb91000133750e","C3","batch3","spm_show_trial_num","null","<p class=block-text>Trial 44 out of 60</p>","null","","","","","","","","","","","","","","","","","","","","","","","","","",""
"","","","","","image-button-response","92","484840","0.0-2.0-4.0-1.19","578bcb2c09fb91000133750e","C3","batch3","spm_respsonse","10064.600000023842","img/question_4_8.jpeg","3","mat_44","4","1","1","10064.600000023842","","","","","","","","","","","","","","","","","","","","",""
"","","","","","html-keyboard-response","93","485908","0.0-2.0-4.0-0.20","578bcb2c09fb91000133750e","C3","batch3","spm_show_trial_num","null","<p class=block-text>Trial 45 out of 60</p>","null","","","","","","","","","","","","","","","","","","","","","","","","","",""
"","","","","","image-button-response","94","512256","0.0-2.0-4.0-1.20","578bcb2c09fb91000133750e","C3","batch3","spm_respsonse","26345.200000047684","img/question_4_9.jpeg","0","mat_45","1","1","1","26345.200000047684","","","","","","","","","","","","","","","","","","","","",""
"","","","","","html-keyboard-response","95","513324","0.0-2.0-4.0-0.21","578bcb2c09fb91000133750e","C3","batch3","spm_show_trial_num","null","<p class=block-text>Trial 46 out of 60</p>","null","","","","","","","","","","","","","","","","","","","","","","","","","",""
"","","","","","image-button-response","96","524990","0.0-2.0-4.0-1.21","578bcb2c09fb91000133750e","C3","batch3","spm_respsonse","11661.800000071526","img/question_4_10.jpeg","1","mat_46","2","1","1","11661.800000071526","","","","","","","","","","","","","","","","","","","","",""
"","","","","","html-keyboard-response","97","526061","0.0-2.0-4.0-0.22","578bcb2c09fb91000133750e","C3","batch3","spm_show_trial_num","null","<p class=block-text>Trial 47 out of 60</p>","null","","","","","","","","","","","","","","","","","","","","","","","","","",""
"","","","","","image-button-response","98","560357","0.0-2.0-4.0-1.22","578bcb2c09fb91000133750e","C3","batch3","spm_respsonse","34292.700000047684","img/question_4_11.jpeg","2","mat_47","5","0","0","34292.700000047684","","","","","","","","","","","","","","","","","","","","",""
"","","","","","html-keyboard-response","99","561428","0.0-2.0-4.0-0.23","578bcb2c09fb91000133750e","C3","batch3","spm_show_trial_num","null","<p class=block-text>Trial 48 out of 60</p>","null","","","","","","","","","","","","","","","","","","","","","","","","","",""
"","","","","","image-button-response","100","583573","0.0-2.0-4.0-1.23","578bcb2c09fb91000133750e","C3","batch3","spm_respsonse","22141.699999928474","img/question_4_12.jpeg","7","mat_48","6","0","0","22141.699999928474","","","","","","","","","","","","","","","","","","","","",""
"","","","","","html-keyboard-response","101","584641","0.0-2.0-4.0-0.24","578bcb2c09fb91000133750e","C3","batch3","spm_show_trial_num","null","<p class=block-text>Trial 49 out of 60</p>","null","","","","","","","","","","","","","","","","","","","","","","","","","",""
"","","","","","image-button-response","102","618190","0.0-2.0-4.0-1.24","578bcb2c09fb91000133750e","C3","batch3","spm_respsonse","33545.40000009537","img/question_5_1.jpeg","0","mat_49","7","0","0","33545.40000009537","","","","","","","","","","","","","","","","","","","","",""
"","","","","","html-keyboard-response","103","619258","0.0-2.0-4.0-0.25","578bcb2c09fb91000133750e","C3","batch3","spm_show_trial_num","null","<p class=block-text>Trial 50 out of 60</p>","null","","","","","","","","","","","","","","","","","","","","","","","","","",""
"","","","","","image-button-response","104","635657","0.0-2.0-4.0-1.25","578bcb2c09fb91000133750e","C3","batch3","spm_respsonse","16394.600000023842","img/question_5_2.jpeg","5","mat_50","6","1","1","16394.600000023842","","","","","","","","","","","","","","","","","","","","",""
"","","","","","html-keyboard-response","105","636722","0.0-2.0-4.0-0.26","578bcb2c09fb91000133750e","C3","batch3","spm_show_trial_num","null","<p class=block-text>Trial 51 out of 60</p>","null","","","","","","","","","","","","","","","","","","","","","","","","","",""
"","","","","","image-button-response","106","653757","0.0-2.0-4.0-1.26","578bcb2c09fb91000133750e","C3","batch3","spm_respsonse","17032.199999928474","img/question_5_3.jpeg","3","mat_51","8","0","0","17032.199999928474","","","","","","","","","","","","","","","","","","","","",""
"","","","","","html-keyboard-response","107","654825","0.0-2.0-4.0-0.27","578bcb2c09fb91000133750e","C3","batch3","spm_show_trial_num","null","<p class=block-text>Trial 52 out of 60</p>","null","","","","","","","","","","","","","","","","","","","","","","","","","",""
"","","","","","image-button-response","108","665806","0.0-2.0-4.0-1.27","578bcb2c09fb91000133750e","C3","batch3","spm_respsonse","10977.899999976158","img/question_5_4.jpeg","1","mat_52","2","1","1","10977.899999976158","","","","","","","","","","","","","","","","","","","","",""
"","","","","","html-keyboard-response","109","666873","0.0-2.0-4.0-0.28","578bcb2c09fb91000133750e","C3","batch3","spm_show_trial_num","null","<p class=block-text>Trial 53 out of 60</p>","null","","","","","","","","","","","","","","","","","","","","","","","","","",""
"","","","","","image-button-response","110","688273","0.0-2.0-4.0-1.28","578bcb2c09fb91000133750e","C3","batch3","spm_respsonse","21396.299999952316","img/question_5_5.jpeg","6","mat_53","1","0","0","21396.299999952316","","","","","","","","","","","","","","","","","","","","",""
"","","","","","html-keyboard-response","111","689341","0.0-2.0-4.0-0.29","578bcb2c09fb91000133750e","C3","batch3","spm_show_trial_num","null","<p class=block-text>Trial 54 out of 60</p>","null","","","","","","","","","","","","","","","","","","","","","","","","","",""
"","","","","","image-button-response","112","701907","0.0-2.0-4.0-1.29","578bcb2c09fb91000133750e","C3","batch3","spm_respsonse","12561.299999952316","img/question_5_6.jpeg","4","mat_54","5","1","1","12561.299999952316","","","","","","","","","","","","","","","","","","","","",""
"","","","","","html-keyboard-response","113","702966","0.0-2.0-4.0-0.30","578bcb2c09fb91000133750e","C3","batch3","spm_show_trial_num","null","<p class=block-text>Trial 55 out of 60</p>","null","","","","","","","","","","","","","","","","","","","","","","","","","",""
"","","","","","image-button-response","114","732207","0.0-2.0-4.0-1.30","578bcb2c09fb91000133750e","C3","batch3","spm_respsonse","29236.900000095367","img/question_5_7.jpeg","4","mat_55","1","0","0","29236.900000095367","","","","","","","","","","","","","","","","","","","","",""
"","","","","","html-keyboard-response","115","733270","0.0-2.0-4.0-0.31","578bcb2c09fb91000133750e","C3","batch3","spm_show_trial_num","null","<p class=block-text>Trial 56 out of 60</p>","null","","","","","","","","","","","","","","","","","","","","","","","","","",""
"","","","","","image-button-response","116","750823","0.0-2.0-4.0-1.31","578bcb2c09fb91000133750e","C3","batch3","spm_respsonse","17548.799999952316","img/question_5_8.jpeg","5","mat_56","6","1","1","17548.799999952316","","","","","","","","","","","","","","","","","","","","",""
"","","","","","html-keyboard-response","117","751887","0.0-2.0-4.0-0.32","578bcb2c09fb91000133750e","C3","batch3","spm_show_trial_num","null","<p class=block-text>Trial 57 out of 60</p>","null","","","","","","","","","","","","","","","","","","","","","","","","","",""
"","","","","","image-button-response","118","785257","0.0-2.0-4.0-1.32","578bcb2c09fb91000133750e","C3","batch3","spm_respsonse","33366.60000002384","img/question_5_9.jpeg","7","mat_57","3","0","0","33366.60000002384","","","","","","","","","","","","","","","","","","","","",""
"","","","","","html-keyboard-response","119","786318","0.0-2.0-4.0-0.33","578bcb2c09fb91000133750e","C3","batch3","spm_show_trial_num","null","<p class=block-text>Trial 58 out of 60</p>","null","","","","","","","","","","","","","","","","","","","","","","","","","",""
"","","","","","image-button-response","120","813390","0.0-2.0-4.0-1.33","578bcb2c09fb91000133750e","C3","batch3","spm_respsonse","27068.799999952316","img/question_5_10.jpeg","3","mat_58","2","0","0","27068.799999952316","","","","","","","","","","","","","","","","","","","","",""
"","","","","","html-keyboard-response","121","814458","0.0-2.0-4.0-0.34","578bcb2c09fb91000133750e","C3","batch3","spm_show_trial_num","null","<p class=block-text>Trial 59 out of 60</p>","null","","","","","","","","","","","","","","","","","","","","","","","","","",""
"","","","","","image-button-response","122","840439","0.0-2.0-4.0-1.34","578bcb2c09fb91000133750e","C3","batch3","spm_respsonse","25978.5","img/question_5_11.jpeg","2","mat_59","4","0","0","25978.5","","","","","","","","","","","","","","","","","","","","",""
"","","","","","html-keyboard-response","123","841508","0.0-2.0-4.0-0.35","578bcb2c09fb91000133750e","C3","batch3","spm_show_trial_num","null","<p class=block-text>Trial 60 out of 60</p>","null","","","","","","","","","","","","","","","","","","","","","","","","","",""
"","","","","","image-button-response","124","878857","0.0-2.0-4.0-1.35","578bcb2c09fb91000133750e","C3","batch3","spm_respsonse","37345.10000002384","img/question_5_12.jpeg","2","mat_60","5","0","0","37345.10000002384","","","","","","","","","","","","","","","","","","","","",""
"","","","","","html-button-response","125","880923","0.0-2.0-5.0","578bcb2c09fb91000133750e","C3","batch3","spm_goodbye","1806.3000000715256","<p class= block-text>This concludes the Standard Progressive Matrix game. Thank you for your responses!<br> When you are ready, click the button continue</p>","0","","","","","","","","","","","","","","","","","","","","","","","","","",""
"true","","","","","fullscreen","126","885016","0.0-3.0-0.0","578bcb2c09fb91000133750e","C3","batch3","","","","","","","","","","","","","","","","","","","","","","","","","","","","","",""
"","","","","","instructions","127","896322","0.0-3.0-1.0-0.0","578bcb2c09fb91000133750e","C3","batch3","","11303.900000095367","","","","","","","","[{""page_index"":0,""viewing_time"":6121.700000047684},{""page_index"":1,""viewing_time"":5181.899999976158}]","","","","","","","","","","","","","","","","","","","",""
"","","","","","html-button-response","128","898573","0.0-3.0-1.0-1.0-0.0","578bcb2c09fb91000133750e","C3","batch3","pattern_enter_quiz","2249.2999999523163","<p class=block-text> Let's answer a few questions <br>","0","","","","","","","","","","","","","","","","","","","","","","","","","",""
"","","","","","html-button-response","129","900940","0.0-3.0-1.0-1.0-1.0","578bcb2c09fb91000133750e","C3","batch3","pattern_quiz","2365.399999976158","<p class = block-text>True or False: You will have as much time as you want to make each choice. <br></p>","1","","","true","","","","","","","","","","","","","","","","","","","","","","",""
"","","","","","html-button-response","130","902039","0.0-3.0-1.0-1.0-2.0","578bcb2c09fb91000133750e","C3","batch3","pattern_quiz_feedback","1097","<p class = block-text>Correct! You should make your choice <strong> as fast as you can</strong>.</p>","0","","","","","","","","","","","","","","","","","","","","","","","","","",""
"","","","","","html-button-response","131","904890","0.0-3.0-1.0-1.0-3.0","578bcb2c09fb91000133750e","C3","batch3","pattern_quiz","2848.7999999523163","<p class = block-text>True or False: You will look for 4 pieces in black or white color connected in a row either horizontally, vertically or diagonally. <br></p>","0","","","true","","","","","","","","","","","","","","","","","","","","","","",""
"","","","","","html-button-response","132","905856","0.0-3.0-1.0-1.0-4.0","578bcb2c09fb91000133750e","C3","batch3","pattern_quiz_feedback","964.1000000238419","<p class = block-text>Correct! </p>","0","","","","","","","","","","","","","","","","","","","","","","","","","",""
"","","","","","html-button-response","133","907190","0.0-3.0-2.0","578bcb2c09fb91000133750e","C3","batch3","pattern_enter_practice","1330.1000000238419","<p class=block-text> Now that you've understood the game, let's do a few practice trials before we start!<br> <br>","0","","","","","","","","","","","","","","","","","","","","","","","","","",""
"","","","","","image-keyboard-response","134","909046","0.0-3.0-3.0-0.0","578bcb2c09fb91000133750e","C3","batch3","pattern_practice","1853.7000000476837","stim/prac_yes_20_dia_b1.png","f","","f","true","","","","","","","","","","","","","","","","","","","","","","",""
"","","","","","html-keyboard-response","135","910067","0.0-3.0-3.0-1.0","578bcb2c09fb91000133750e","C3","batch3","pattern_feedback","null","<p style=""font-size:30px;color:green;"">Correct!</p>","null","","","","","","","","","","","","","","","","","","","","","","","","","",""
"","","","","","image-keyboard-response","136","911167","0.0-3.0-3.0-0.1","578bcb2c09fb91000133750e","C3","batch3","pattern_practice","1098","stim/prac_no_16_1.png","j","","j","true","","","","","","","","","","","","","","","","","","","","","","",""
"","","","","","html-keyboard-response","137","912187","0.0-3.0-3.0-1.1","578bcb2c09fb91000133750e","C3","batch3","pattern_feedback","null","<p style=""font-size:30px;color:green;"">Correct!</p>","null","","","","","","","","","","","","","","","","","","","","","","","","","",""
"","","","","","image-keyboard-response","138","912914","0.0-3.0-3.0-0.2","578bcb2c09fb91000133750e","C3","batch3","pattern_practice","724.5","stim/prac_yes_16_ver_w1.png","f","","f","true","","","","","","","","","","","","","","","","","","","","","","",""
"","","","","","html-keyboard-response","139","913938","0.0-3.0-3.0-1.2","578bcb2c09fb91000133750e","C3","batch3","pattern_feedback","null","<p style=""font-size:30px;color:green;"">Correct!</p>","null","","","","","","","","","","","","","","","","","","","","","","","","","",""
"","","","","","image-keyboard-response","140","914709","0.0-3.0-3.0-0.3","578bcb2c09fb91000133750e","C3","batch3","pattern_practice","768.2999999523163","stim/prac_no_18_1.png","j","","j","true","","","","","","","","","","","","","","","","","","","","","","",""
"","","","","","html-keyboard-response","141","915728","0.0-3.0-3.0-1.3","578bcb2c09fb91000133750e","C3","batch3","pattern_feedback","null","<p style=""font-size:30px;color:green;"">Correct!</p>","null","","","","","","","","","","","","","","","","","","","","","","","","","",""
"","","","","","image-keyboard-response","142","916393","0.0-3.0-3.0-0.4","578bcb2c09fb91000133750e","C3","batch3","pattern_practice","662.5","stim/prac_yes_18_hor_w1.png","f","","f","true","","","","","","","","","","","","","","","","","","","","","","",""
"","","","","","html-keyboard-response","143","917410","0.0-3.0-3.0-1.4","578bcb2c09fb91000133750e","C3","batch3","pattern_feedback","null","<p style=""font-size:30px;color:green;"">Correct!</p>","null","","","","","","","","","","","","","","","","","","","","","","","","","",""
"","","","","","html-button-response","144","919723","0.0-3.0-4.0","578bcb2c09fb91000133750e","C3","batch3","pattern_enter_official_trials","2310.4000000953674","<p class=block-text> Good job! You are done with practice trials!<br>
        You responded correctly on 100% of the trials.<br>
        Press the button below to start official trials. Now you won't see any feedback about your response</p>","0","","","","","","","","","","","","","","","","","","","","","","","","","",""
"","","","","","html-keyboard-response","145","920530","0.0-3.0-5.0-0.0","578bcb2c09fb91000133750e","C3","batch3","pattern_show_trial_num","null","<p class=block-text>Trial 1 out of 78</p>","null","","","","","","","","","","","","","","","","","","","","","","","","","",""
"","","","","","image-keyboard-response","146","921426","0.0-3.0-5.0-1.0","578bcb2c09fb91000133750e","C3","batch3","pattern_response","892.5999999046326","stim/no_12_1.png","j","pattern_01","j","true","","","","892.5999999046326","true","1","","","","","","","","","","","","","","","","",""
"","","","","","html-keyboard-response","147","922746","0.0-3.0-5.0-0.1","578bcb2c09fb91000133750e","C3","batch3","pattern_show_trial_num","null","<p class=block-text>Trial 2 out of 78</p>","null","","","","","","","","","","","","","","","","","","","","","","","","","",""
"","","","","","image-keyboard-response","148","923404","0.0-3.0-5.0-1.1","578bcb2c09fb91000133750e","C3","batch3","pattern_response","654.2999999523163","stim/yes_37_hor_w1_w.png","f","pattern_60","f","true","","","","654.2999999523163","true","2","","","","","","","","","","","","","","","","",""
"","","","","","html-keyboard-response","149","924722","0.0-3.0-5.0-0.2","578bcb2c09fb91000133750e","C3","batch3","pattern_show_trial_num","null","<p class=block-text>Trial 3 out of 78</p>","null","","","","","","","","","","","","","","","","","","","","","","","","","",""
"","","","","","image-keyboard-response","150","925552","0.0-3.0-5.0-1.2","578bcb2c09fb91000133750e","C3","batch3","pattern_response","827.3999999761581","stim/yes_30_ver_b1_b.png","f","pattern_54","f","true","","","","827.3999999761581","true","3","","","","","","","","","","","","","","","","",""
"","","","","","html-keyboard-response","151","926866","0.0-3.0-5.0-0.3","578bcb2c09fb91000133750e","C3","batch3","pattern_show_trial_num","null","<p class=block-text>Trial 4 out of 78</p>","null","","","","","","","","","","","","","","","","","","","","","","","","","",""
"","","","","","image-keyboard-response","152","928361","0.0-3.0-5.0-1.3","578bcb2c09fb91000133750e","C3","batch3","pattern_response","1491.8000000715256","stim/no_58_1_w.png","j","pattern_35","j","true","","","","1491.8000000715256","true","4","","","","","","","","","","","","","","","","",""
"","","","","","html-keyboard-response","153","929674","0.0-3.0-5.0-0.4","578bcb2c09fb91000133750e","C3","batch3","pattern_show_trial_num","null","<p class=block-text>Trial 5 out of 78</p>","null","","","","","","","","","","","","","","","","","","","","","","","","","",""
"","","","","","image-keyboard-response","154","930340","0.0-3.0-5.0-1.4","578bcb2c09fb91000133750e","C3","batch3","pattern_response","662.5","stim/yes_29_hor_b1_b.png","f","pattern_52","f","true","","","","662.5","true","5","","","","","","","","","","","","","","","","",""
"","","","","","html-keyboard-response","155","931658","0.0-3.0-5.0-0.5","578bcb2c09fb91000133750e","C3","batch3","pattern_show_trial_num","null","<p class=block-text>Trial 6 out of 78</p>","null","","","","","","","","","","","","","","","","","","","","","","","","","",""
"","","","","","image-keyboard-response","156","933803","0.0-3.0-5.0-1.5","578bcb2c09fb91000133750e","C3","batch3","pattern_response","2142.100000023842","stim/no_67_1.png","j","pattern_39","j","true","","","","2142.100000023842","true","6","","","","","","","","","","","","","","","","",""
"","","","","","html-keyboard-response","157","935122","0.0-3.0-5.0-0.6","578bcb2c09fb91000133750e","C3","batch3","pattern_show_trial_num","null","<p class=block-text>Trial 7 out of 78</p>","null","","","","","","","","","","","","","","","","","","","","","","","","","",""
"","","","","","image-keyboard-response","158","935989","0.0-3.0-5.0-1.6","578bcb2c09fb91000133750e","C3","batch3","pattern_response","864.1000000238419","stim/yes_36_ver_w1_w.png","f","pattern_58","f","true","","","","864.1000000238419","true","7","","","","","","","","","","","","","","","","",""
"","","","","","html-keyboard-response","159","937306","0.0-3.0-5.0-0.7","578bcb2c09fb91000133750e","C3","batch3","pattern_show_trial_num","null","<p class=block-text>Trial 8 out of 78</p>","null","","","","","","","","","","","","","","","","","","","","","","","","","",""
"","","","","","image-keyboard-response","160","938552","0.0-3.0-5.0-1.7","578bcb2c09fb91000133750e","C3","batch3","pattern_response","1243.0999999046326","stim/no_33_1_b.png","j","pattern_15","j","true","","","","1243.0999999046326","true","8","","","","","","","","","","","","","","","","",""
"","","","","","html-keyboard-response","161","939862","0.0-3.0-5.0-0.8","578bcb2c09fb91000133750e","C3","batch3","pattern_show_trial_num","null","<p class=block-text>Trial 9 out of 78</p>","null","","","","","","","","","","","","","","","","","","","","","","","","","",""
"","","","","","image-keyboard-response","162","941867","0.0-3.0-5.0-1.8","578bcb2c09fb91000133750e","C3","batch3","pattern_response","2002.3000000715256","stim/no_47_1_b.png","j","pattern_27","j","true","","","","2002.3000000715256","true","9","","","","","","","","","","","","","","","","",""
"","","","","","html-keyboard-response","163","943186","0.0-3.0-5.0-0.9","578bcb2c09fb91000133750e","C3","batch3","pattern_show_trial_num","null","<p class=block-text>Trial 10 out of 78</p>","null","","","","","","","","","","","","","","","","","","","","","","","","","",""
"","","","","","image-keyboard-response","164","943932","0.0-3.0-5.0-1.9","578bcb2c09fb91000133750e","C3","batch3","pattern_response","742.8000000715256","stim/yes_39_hor_w1_w.png","f","pattern_62","f","true","","","","742.8000000715256","true","10","","","","","","","","","","","","","","","","",""
"","","","","","html-keyboard-response","165","945247","0.0-3.0-5.0-0.10","578bcb2c09fb91000133750e","C3","batch3","pattern_show_trial_num","null","<p class=block-text>Trial 11 out of 78</p>","null","","","","","","","","","","","","","","","","","","","","","","","","","",""
"","","","","","image-keyboard-response","166","947850","0.0-3.0-5.0-1.10","578bcb2c09fb91000133750e","C3","batch3","pattern_response","2600.5","stim/no_53_1_b.png","j","pattern_33","j","true","","","","2600.5","true","11","","","","","","","","","","","","","","","","",""
"","","","","","html-keyboard-response","167","949170","0.0-3.0-5.0-0.11","578bcb2c09fb91000133750e","C3","batch3","pattern_show_trial_num","null","<p class=block-text>Trial 12 out of 78</p>","null","","","","","","","","","","","","","","","","","","","","","","","","","",""
"","","","","","image-keyboard-response","168","950803","0.0-3.0-5.0-1.11","578bcb2c09fb91000133750e","C3","batch3","pattern_response","1630.3999999761581","stim/no_43_2_b.png","j","pattern_23","j","true","","","","1630.3999999761581","true","12","","","","","","","","","","","","","","","","",""
"","","","","","html-keyboard-response","169","952122","0.0-3.0-5.0-0.12","578bcb2c09fb91000133750e","C3","batch3","pattern_show_trial_num","null","<p class=block-text>Trial 13 out of 78</p>","null","","","","","","","","","","","","","","","","","","","","","","","","","",""
"","","","","","image-keyboard-response","170","952915","0.0-3.0-5.0-1.12","578bcb2c09fb91000133750e","C3","batch3","pattern_response","791.1000000238419","stim/yes_17_ver_b1_b.png","f","pattern_46","f","true","","","","791.1000000238419","true","13","","","","","","","","","","","","","","","","",""
"","","","","","html-keyboard-response","171","954233","0.0-3.0-5.0-0.13","578bcb2c09fb91000133750e","C3","batch3","pattern_show_trial_num","null","<p class=block-text>Trial 14 out of 78</p>","null","","","","","","","","","","","","","","","","","","","","","","","","","",""
"","","","","","image-keyboard-response","172","955857","0.0-3.0-5.0-1.13","578bcb2c09fb91000133750e","C3","batch3","pattern_response","1621.1999999284744","stim/yes_51_dia_b1.png","j","pattern_72","f","false","","","","1621.1999999284744","false","13","","","","","","","","","","","","","","","","",""
"","","","","","html-keyboard-response","173","957177","0.0-3.0-5.0-0.14","578bcb2c09fb91000133750e","C3","batch3","pattern_show_trial_num","null","<p class=block-text>Trial 15 out of 78</p>","null","","","","","","","","","","","","","","","","","","","","","","","","","",""
"","","","","","image-keyboard-response","174","959029","0.0-3.0-5.0-1.14","578bcb2c09fb91000133750e","C3","batch3","pattern_response","1848.3999999761581","stim/no_49_2_b.png","j","pattern_29","j","true","","","","1848.3999999761581","true","14","","","","","","","","","","","","","","","","",""
"","","","","","html-keyboard-response","175","960345","0.0-3.0-5.0-0.15","578bcb2c09fb91000133750e","C3","batch3","pattern_show_trial_num","null","<p class=block-text>Trial 16 out of 78</p>","null","","","","","","","","","","","","","","","","","","","","","","","","","",""
"","","","","","image-keyboard-response","176","960994","0.0-3.0-5.0-1.15","578bcb2c09fb91000133750e","C3","batch3","pattern_response","646.1999999284744","stim/yes_12_hor_w1_w.png","f","pattern_42","f","true","","","","646.1999999284744","true","15","","","","","","","","","","","","","","","","",""
"","","","","","html-keyboard-response","177","962313","0.0-3.0-5.0-0.16","578bcb2c09fb91000133750e","C3","batch3","pattern_show_trial_num","null","<p class=block-text>Trial 17 out of 78</p>","null","","","","","","","","","","","","","","","","","","","","","","","","","",""
"","","","","","image-keyboard-response","178","964014","0.0-3.0-5.0-1.16","578bcb2c09fb91000133750e","C3","batch3","pattern_response","1698.7999999523163","stim/yes_42_dia_w1_w.png","j","pattern_64","f","false","","","","1698.7999999523163","false","15","","","","","","","","","","","","","","","","",""
"","","","","","html-keyboard-response","179","965325","0.0-3.0-5.0-0.17","578bcb2c09fb91000133750e","C3","batch3","pattern_show_trial_num","null","<p class=block-text>Trial 18 out of 78</p>","null","","","","","","","","","","","","","","","","","","","","","","","","","",""
"","","","","","image-keyboard-response","180","965978","0.0-3.0-5.0-1.17","578bcb2c09fb91000133750e","C3","batch3","pattern_response","650.3000000715256","stim/yes_15_dia_b1u_b.png","f","pattern_44","f","true","","","","650.3000000715256","true","16","","","","","","","","","","","","","","","","",""
"","","","","","html-keyboard-response","181","967297","0.0-3.0-5.0-0.18","578bcb2c09fb91000133750e","C3","batch3","pattern_show_trial_num","null","<p class=block-text>Trial 19 out of 78</p>","null","","","","","","","","","","","","","","","","","","","","","","","","","",""
"","","","","","image-keyboard-response","182","968308","0.0-3.0-5.0-1.18","578bcb2c09fb91000133750e","C3","batch3","pattern_response","1007.8999999761581","stim/no_22_1_b.png","j","pattern_07","j","true","","","","1007.8999999761581","true","17","","","","","","","","","","","","","","","","",""
"","","","","","html-keyboard-response","183","969625","0.0-3.0-5.0-0.19","578bcb2c09fb91000133750e","C3","batch3","pattern_show_trial_num","null","<p class=block-text>Trial 20 out of 78</p>","null","","","","","","","","","","","","","","","","","","","","","","","","","",""
"","","","","","image-keyboard-response","184","970770","0.0-3.0-5.0-1.19","578bcb2c09fb91000133750e","C3","batch3","pattern_response","1142.6000000238419","stim/no_39_1_w.png","j","pattern_21","j","true","","","","1142.6000000238419","true","18","","","","","","","","","","","","","","","","",""
"","","","","","html-keyboard-response","185","972089","0.0-3.0-5.0-0.20","578bcb2c09fb91000133750e","C3","batch3","pattern_show_trial_num","null","<p class=block-text>Trial 21 out of 78</p>","null","","","","","","","","","","","","","","","","","","","","","","","","","",""
"","","","","","image-keyboard-response","186","973211","0.0-3.0-5.0-1.20","578bcb2c09fb91000133750e","C3","batch3","pattern_response","1119.6000000238419","stim/yes_49_hor_w1_b.png","f","pattern_70","f","true","","","","1119.6000000238419","true","19","","","","","","","","","","","","","","","","",""
"","","","","","html-keyboard-response","187","974529","0.0-3.0-5.0-0.21","578bcb2c09fb91000133750e","C3","batch3","pattern_show_trial_num","null","<p class=block-text>Trial 22 out of 78</p>","null","","","","","","","","","","","","","","","","","","","","","","","","","",""
"","","","","","image-keyboard-response","188","976037","0.0-3.0-5.0-1.21","578bcb2c09fb91000133750e","C3","batch3","pattern_response","1505.2999999523163","stim/yes_70_ver_b1.png","f","pattern_80","f","true","","","","1505.2999999523163","true","20","","","","","","","","","","","","","","","","",""
"","","","","","html-keyboard-response","189","977349","0.0-3.0-5.0-0.22","578bcb2c09fb91000133750e","C3","batch3","pattern_show_trial_num","null","<p class=block-text>Trial 23 out of 78</p>","null","","","","","","","","","","","","","","","","","","","","","","","","","",""
"","","","","","image-keyboard-response","190","978001","0.0-3.0-5.0-1.22","578bcb2c09fb91000133750e","C3","batch3","pattern_response","649.5","stim/no_15_1_w.png","j","pattern_03","j","true","","","","649.5","true","21","","","","","","","","","","","","","","","","",""
"","","","","","html-keyboard-response","191","979321","0.0-3.0-5.0-0.23","578bcb2c09fb91000133750e","C3","batch3","pattern_show_trial_num","null","<p class=block-text>Trial 24 out of 78</p>","null","","","","","","","","","","","","","","","","","","","","","","","","","",""
"","","","","","image-keyboard-response","192","980396","0.0-3.0-5.0-1.23","578bcb2c09fb91000133750e","C3","batch3","pattern_response","1072.5","stim/no_25_1_b.png","j","pattern_09","j","true","","","","1072.5","true","22","","","","","","","","","","","","","","","","",""
"","","","","","html-keyboard-response","193","981713","0.0-3.0-5.0-0.24","578bcb2c09fb91000133750e","C3","batch3","pattern_show_trial_num","null","<p class=block-text>Trial 25 out of 78</p>","null","","","","","","","","","","","","","","","","","","","","","","","","","",""
"","","","","","image-keyboard-response","194","983059","0.0-3.0-5.0-1.24","578bcb2c09fb91000133750e","C3","batch3","pattern_response","1343.8999999761581","stim/no_37_2_w.png","j","pattern_19","j","true","","","","1343.8999999761581","true","23","","","","","","","","","","","","","","","","",""
"","","","","","html-keyboard-response","195","984377","0.0-3.0-5.0-0.25","578bcb2c09fb91000133750e","C3","batch3","pattern_show_trial_num","null","<p class=block-text>Trial 26 out of 78</p>","null","","","","","","","","","","","","","","","","","","","","","","","","","",""
"","","","","","image-keyboard-response","196","985449","0.0-3.0-5.0-1.25","578bcb2c09fb91000133750e","C3","batch3","pattern_response","1069.6999999284744","stim/no_28_2.png","j","pattern_11","j","true","","","","1069.6999999284744","true","24","","","","","","","","","","","","","","","","",""
"","","","","","html-keyboard-response","197","986769","0.0-3.0-5.0-0.26","578bcb2c09fb91000133750e","C3","batch3","pattern_show_trial_num","null","<p class=block-text>Trial 27 out of 78</p>","null","","","","","","","","","","","","","","","","","","","","","","","","","",""
"","","","","","image-keyboard-response","198","988835","0.0-3.0-5.0-1.26","578bcb2c09fb91000133750e","C3","batch3","pattern_response","2064.2999999523163","stim/yes_63_dia_b1.png","j","pattern_78","f","false","","","","2064.2999999523163","false","24","","","","","","","","","","","","","","","","",""
"","","","","","html-keyboard-response","199","990153","0.0-3.0-5.0-0.27","578bcb2c09fb91000133750e","C3","batch3","pattern_show_trial_num","null","<p class=block-text>Trial 28 out of 78</p>","null","","","","","","","","","","","","","","","","","","","","","","","","","",""
"","","","","","image-keyboard-response","200","991678","0.0-3.0-5.0-1.27","578bcb2c09fb91000133750e","C3","batch3","pattern_response","1522.1000000238419","stim/no_45_1_w.png","j","pattern_25","j","true","","","","1522.1000000238419","true","25","","","","","","","","","","","","","","","","",""
"","","","","","html-keyboard-response","201","992988","0.0-3.0-5.0-0.28","578bcb2c09fb91000133750e","C3","batch3","pattern_show_trial_num","null","<p class=block-text>Trial 29 out of 78</p>","null","","","","","","","","","","","","","","","","","","","","","","","","","",""
"","","","","","image-keyboard-response","202","994955","0.0-3.0-5.0-1.28","578bcb2c09fb91000133750e","C3","batch3","pattern_response","1964.7000000476837","stim/yes_46_ver_b1_b.png","f","pattern_68","f","true","","","","1964.7000000476837","true","26","","","","","","","","","","","","","","","","",""
"","","","","","html-keyboard-response","203","996272","0.0-3.0-5.0-0.29","578bcb2c09fb91000133750e","C3","batch3","pattern_show_trial_num","null","<p class=block-text>Trial 30 out of 78</p>","null","","","","","","","","","","","","","","","","","","","","","","","","","",""
"","","","","","image-keyboard-response","204","997247","0.0-3.0-5.0-1.29","578bcb2c09fb91000133750e","C3","batch3","pattern_response","972.5","stim/no_18_1_b.png","j","pattern_05","j","true","","","","972.5","true","27","","","","","","","","","","","","","","","","",""
"","","","","","html-keyboard-response","205","998560","0.0-3.0-5.0-0.30","578bcb2c09fb91000133750e","C3","batch3","pattern_show_trial_num","null","<p class=block-text>Trial 31 out of 78</p>","null","","","","","","","","","","","","","","","","","","","","","","","","","",""
"","","","","","image-keyboard-response","206","1000917","0.0-3.0-5.0-1.30","578bcb2c09fb91000133750e","C3","batch3","pattern_response","2354.5","stim/no_51_1.png","j","pattern_31","j","true","","","","2354.5","true","28","","","","","","","","","","","","","","","","",""
"","","","","","html-keyboard-response","207","1002232","0.0-3.0-5.0-0.31","578bcb2c09fb91000133750e","C3","batch3","pattern_show_trial_num","null","<p class=block-text>Trial 32 out of 78</p>","null","","","","","","","","","","","","","","","","","","","","","","","","","",""
"","","","","","image-keyboard-response","208","1004395","0.0-3.0-5.0-1.31","578bcb2c09fb91000133750e","C3","batch3","pattern_response","2159.2999999523163","stim/yes_33_dia_w1_w.png","f","pattern_56","f","true","","","","2159.2999999523163","true","29","","","","","","","","","","","","","","","","",""
"","","","","","html-keyboard-response","209","1005709","0.0-3.0-5.0-0.32","578bcb2c09fb91000133750e","C3","batch3","pattern_show_trial_num","null","<p class=block-text>Trial 33 out of 78</p>","null","","","","","","","","","","","","","","","","","","","","","","","","","",""
"","","","","","image-keyboard-response","210","1007408","0.0-3.0-5.0-1.32","578bcb2c09fb91000133750e","C3","batch3","pattern_response","1696.3999999761581","stim/yes_53_ver_b1_b.png","f","pattern_74","f","true","","","","1696.3999999761581","true","30","","","","","","","","","","","","","","","","",""
"","","","","","html-keyboard-response","211","1008728","0.0-3.0-5.0-0.33","578bcb2c09fb91000133750e","C3","batch3","pattern_show_trial_num","null","<p class=block-text>Trial 34 out of 78</p>","null","","","","","","","","","","","","","","","","","","","","","","","","","",""
"","","","","","image-keyboard-response","212","1010733","0.0-3.0-5.0-1.33","578bcb2c09fb91000133750e","C3","batch3","pattern_response","2002.5","stim/no_36_1_b.png","j","pattern_17","j","true","","","","2002.5","true","31","","","","","","","","","","","","","","","","",""
"","","","","","html-keyboard-response","213","1012047","0.0-3.0-5.0-0.34","578bcb2c09fb91000133750e","C3","batch3","pattern_show_trial_num","null","<p class=block-text>Trial 35 out of 78</p>","null","","","","","","","","","","","","","","","","","","","","","","","","","",""
"","","","","","image-keyboard-response","214","1015277","0.0-3.0-5.0-1.34","578bcb2c09fb91000133750e","C3","batch3","pattern_response","3227.399999976158","stim/yes_58_dia_w1_w.png","j","pattern_76","f","false","","","","3227.399999976158","false","31","","","","","","","","","","","","","","","","",""
"","","","","","html-keyboard-response","215","1016592","0.0-3.0-5.0-0.35","578bcb2c09fb91000133750e","C3","batch3","pattern_show_trial_num","null","<p class=block-text>Trial 36 out of 78</p>","null","","","","","","","","","","","","","","","","","","","","","","","","","",""
"","","","","","image-keyboard-response","216","1017628","0.0-3.0-5.0-1.35","578bcb2c09fb91000133750e","C3","batch3","pattern_response","1022.7999999523163","stim/yes_26_dia_w2_w.png","f","pattern_50","f","true","","","","1022.7999999523163","true","32","","","","","","","","","","","","","","","","",""
"","","","","","html-keyboard-response","217","1018944","0.0-3.0-5.0-0.36","578bcb2c09fb91000133750e","C3","batch3","pattern_show_trial_num","null","<p class=block-text>Trial 37 out of 78</p>","null","","","","","","","","","","","","","","","","","","","","","","","","","",""
"","","","","","image-keyboard-response","218","1019827","0.0-3.0-5.0-1.36","578bcb2c09fb91000133750e","C3","batch3","pattern_response","881.2999999523163","stim/yes_23_ver_b1.png","f","pattern_48","f","true","","","","881.2999999523163","true","33","","","","","","","","","","","","","","","","",""
"","","","","","html-keyboard-response","219","1021144","0.0-3.0-5.0-0.37","578bcb2c09fb91000133750e","C3","batch3","pattern_show_trial_num","null","<p class=block-text>Trial 38 out of 78</p>","null","","","","","","","","","","","","","","","","","","","","","","","","","",""
"","","","","","image-keyboard-response","220","1022618","0.0-3.0-5.0-1.37","578bcb2c09fb91000133750e","C3","batch3","pattern_response","1471.6000000238419","stim/no_30_1_b.png","j","pattern_13","j","true","","","","1471.6000000238419","true","34","","","","","","","","","","","","","","","","",""
"","","","","","html-keyboard-response","221","1023935","0.0-3.0-5.0-0.38","578bcb2c09fb91000133750e","C3","batch3","pattern_show_trial_num","null","<p class=block-text>Trial 39 out of 78</p>","null","","","","","","","","","","","","","","","","","","","","","","","","","",""
"","","","","","image-keyboard-response","222","1028174","0.0-3.0-5.0-1.38","578bcb2c09fb91000133750e","C3","batch3","pattern_response","4237.100000023842","stim/yes_44_ver_w1_w.png","j","pattern_66","f","false","","","","4237.100000023842","false","34","","","","","","","","","","","","","","","","",""
"","","","","","image-keyboard-response","223","1030822","0.0-3.0-6.0","578bcb2c09fb91000133750e","C3","batch3","attention_check","2140.6999999284744","stim/empty_board.png","j","","j","true","","","","","","","500","[""f"",""j""]","","","","","","","","","","","","","","",""
"","","","","","html-keyboard-response","224","1031631","0.0-3.0-7.0-0.0","578bcb2c09fb91000133750e","C3","batch3","pattern_show_trial_num","null","<p class=block-text>Trial 40 out of 78</p>","null","","","","","","","","","","","","","","","","","","","","","","","","","",""
"","","","","","image-keyboard-response","225","1033867","0.0-3.0-7.0-1.0","578bcb2c09fb91000133750e","C3","batch3","pattern_response","2232.5999999046326","stim/yes_45_hor_b2_b.png","f","pattern_67","f","true","","","","2232.5999999046326","true","35","","","","","","","","","","","","","","","","",""
"","","","","","html-keyboard-response","226","1035183","0.0-3.0-7.0-0.1","578bcb2c09fb91000133750e","C3","batch3","pattern_show_trial_num","null","<p class=block-text>Trial 41 out of 78</p>","null","","","","","","","","","","","","","","","","","","","","","","","","","",""
"","","","","","image-keyboard-response","227","1035838","0.0-3.0-7.0-1.1","578bcb2c09fb91000133750e","C3","batch3","pattern_response","652.2999999523163","stim/yes_14_hor_b1_w.png","f","pattern_43","f","true","","","","652.2999999523163","true","36","","","","","","","","","","","","","","","","",""
"","","","","","html-keyboard-response","228","1037151","0.0-3.0-7.0-0.2","578bcb2c09fb91000133750e","C3","batch3","pattern_show_trial_num","null","<p class=block-text>Trial 42 out of 78</p>","null","","","","","","","","","","","","","","","","","","","","","","","","","",""
"","","","","","image-keyboard-response","229","1042410","0.0-3.0-7.0-1.2","578bcb2c09fb91000133750e","C3","batch3","pattern_response","5256.600000023842","stim/no_62_1_w.png","j","pattern_36","j","true","","","","5256.600000023842","true","37","","","","","","","","","","","","","","","","",""
"","","","","","html-keyboard-response","230","1043727","0.0-3.0-7.0-0.3","578bcb2c09fb91000133750e","C3","batch3","pattern_show_trial_num","null","<p class=block-text>Trial 43 out of 78</p>","null","","","","","","","","","","","","","","","","","","","","","","","","","",""
"","","","","","image-keyboard-response","231","1047018","0.0-3.0-7.0-1.3","578bcb2c09fb91000133750e","C3","batch3","pattern_response","3287.7999999523163","stim/yes_50_dia_w1.png","j","pattern_71","f","false","","","","3287.7999999523163","false","37","","","","","","","","","","","","","","","","",""
"","","","","","html-keyboard-response","232","1048332","0.0-3.0-7.0-0.4","578bcb2c09fb91000133750e","C3","batch3","pattern_show_trial_num","null","<p class=block-text>Trial 44 out of 78</p>","null","","","","","","","","","","","","","","","","","","","","","","","","","",""
"","","","","","image-keyboard-response","233","1049262","0.0-3.0-7.0-1.4","578bcb2c09fb91000133750e","C3","batch3","pattern_response","927.2999999523163","stim/yes_28_ver_b1.png","f","pattern_51","f","true","","","","927.2999999523163","true","38","","","","","","","","","","","","","","","","",""
"","","","","","html-keyboard-response","234","1050571","0.0-3.0-7.0-0.5","578bcb2c09fb91000133750e","C3","batch3","pattern_show_trial_num","null","<p class=block-text>Trial 45 out of 78</p>","null","","","","","","","","","","","","","","","","","","","","","","","","","",""
"","","","","","image-keyboard-response","235","1054352","0.0-3.0-7.0-1.5","578bcb2c09fb91000133750e","C3","batch3","pattern_response","3779.100000023842","stim/no_65_1_b.png","f","pattern_38","j","false","","","","3779.100000023842","false","38","","","","","","","","","","","","","","","","",""
"","","","","","html-keyboard-response","236","1055667","0.0-3.0-7.0-0.6","578bcb2c09fb91000133750e","C3","batch3","pattern_show_trial_num","null","<p class=block-text>Trial 46 out of 78</p>","null","","","","","","","","","","","","","","","","","","","","","","","","","",""
"","","","","","image-keyboard-response","237","1058538","0.0-3.0-7.0-1.6","578bcb2c09fb91000133750e","C3","batch3","pattern_response","2868.5","stim/no_44_1.png","j","pattern_24","j","true","","","","2868.5","true","39","","","","","","","","","","","","","","","","",""
"","","","","","html-keyboard-response","238","1059855","0.0-3.0-7.0-0.7","578bcb2c09fb91000133750e","C3","batch3","pattern_show_trial_num","null","<p class=block-text>Trial 47 out of 78</p>","null","","","","","","","","","","","","","","","","","","","","","","","","","",""
"","","","","","image-keyboard-response","239","1062170","0.0-3.0-7.0-1.7","578bcb2c09fb91000133750e","C3","batch3","pattern_response","2312","stim/yes_38_hor_b1_b.png","f","pattern_61","f","true","","","","2312","true","40","","","","","","","","","","","","","","","","",""
"","","","","","html-keyboard-response","240","1063483","0.0-3.0-7.0-0.8","578bcb2c09fb91000133750e","C3","batch3","pattern_show_trial_num","null","<p class=block-text>Trial 48 out of 78</p>","null","","","","","","","","","","","","","","","","","","","","","","","","","",""
"","","","","","image-keyboard-response","241","1065854","0.0-3.0-7.0-1.8","578bcb2c09fb91000133750e","C3","batch3","pattern_response","2368.899999976158","stim/no_34_1_b.png","j","pattern_16","j","true","","","","2368.899999976158","true","41","","","","","","","","","","","","","","","","",""
"","","","","","html-keyboard-response","242","1067170","0.0-3.0-7.0-0.9","578bcb2c09fb91000133750e","C3","batch3","pattern_show_trial_num","null","<p class=block-text>Trial 49 out of 78</p>","null","","","","","","","","","","","","","","","","","","","","","","","","","",""
"","","","","","image-keyboard-response","243","1069973","0.0-3.0-7.0-1.9","578bcb2c09fb91000133750e","C3","batch3","pattern_response","2799.7999999523163","stim/no_36_2_w.png","j","pattern_18","j","true","","","","2799.7999999523163","true","42","","","","","","","","","","","","","","","","",""
"","","","","","html-keyboard-response","244","1071282","0.0-3.0-7.0-0.10","578bcb2c09fb91000133750e","C3","batch3","pattern_show_trial_num","null","<p class=block-text>Trial 50 out of 78</p>","null","","","","","","","","","","","","","","","","","","","","","","","","","",""
"","","","","","image-keyboard-response","245","1073678","0.0-3.0-7.0-1.10","578bcb2c09fb91000133750e","C3","batch3","pattern_response","2392.6999999284744","stim/no_42_1_w.png","j","pattern_22","j","true","","","","2392.6999999284744","true","43","","","","","","","","","","","","","","","","",""
"","","","","","html-keyboard-response","246","1074998","0.0-3.0-7.0-0.11","578bcb2c09fb91000133750e","C3","batch3","pattern_show_trial_num","null","<p class=block-text>Trial 51 out of 78</p>","null","","","","","","","","","","","","","","","","","","","","","","","","","",""
"","","","","","image-keyboard-response","247","1075682","0.0-3.0-7.0-1.11","578bcb2c09fb91000133750e","C3","batch3","pattern_response","681.6000000238419","stim/yes_17_dia_w1.png","f","pattern_45","f","true","","","","681.6000000238419","true","44","","","","","","","","","","","","","","","","",""
"","","","","","html-keyboard-response","248","1076994","0.0-3.0-7.0-0.12","578bcb2c09fb91000133750e","C3","batch3","pattern_show_trial_num","null","<p class=block-text>Trial 52 out of 78</p>","null","","","","","","","","","","","","","","","","","","","","","","","","","",""
"","","","","","image-keyboard-response","249","1079628","0.0-3.0-7.0-1.12","578bcb2c09fb91000133750e","C3","batch3","pattern_response","2631.100000023842","stim/no_55_1_w.png","j","pattern_34","j","true","","","","2631.100000023842","true","45","","","","","","","","","","","","","","","","",""
"","","","","","html-keyboard-response","250","1080942","0.0-3.0-7.0-0.13","578bcb2c09fb91000133750e","C3","batch3","pattern_show_trial_num","null","<p class=block-text>Trial 53 out of 78</p>","null","","","","","","","","","","","","","","","","","","","","","","","","","",""
"","","","","","image-keyboard-response","251","1083992","0.0-3.0-7.0-1.13","578bcb2c09fb91000133750e","C3","batch3","pattern_response","3046.5","stim/no_52_1.png","j","pattern_32","j","true","","","","3046.5","true","46","","","","","","","","","","","","","","","","",""
"","","","","","html-keyboard-response","252","1085310","0.0-3.0-7.0-0.14","578bcb2c09fb91000133750e","C3","batch3","pattern_show_trial_num","null","<p class=block-text>Trial 54 out of 78</p>","null","","","","","","","","","","","","","","","","","","","","","","","","","",""
"","","","","","image-keyboard-response","253","1086328","0.0-3.0-7.0-1.14","578bcb2c09fb91000133750e","C3","batch3","pattern_response","1014.6999999284744","stim/yes_60_ver_b1_b.png","f","pattern_77","f","true","","","","1014.6999999284744","true","47","","","","","","","","","","","","","","","","",""
"","","","","","html-keyboard-response","254","1087646","0.0-3.0-7.0-0.15","578bcb2c09fb91000133750e","C3","batch3","pattern_show_trial_num","null","<p class=block-text>Trial 55 out of 78</p>","null","","","","","","","","","","","","","","","","","","","","","","","","","",""
"","","","","","image-keyboard-response","255","1090627","0.0-3.0-7.0-1.15","578bcb2c09fb91000133750e","C3","batch3","pattern_response","2978.6999999284744","stim/no_48_1_w.png","j","pattern_28","j","true","","","","2978.6999999284744","true","48","","","","","","","","","","","","","","","","",""
"","","","","","html-keyboard-response","256","1091942","0.0-3.0-7.0-0.16","578bcb2c09fb91000133750e","C3","batch3","pattern_show_trial_num","null","<p class=block-text>Trial 56 out of 78</p>","null","","","","","","","","","","","","","","","","","","","","","","","","","",""
"","","","","","image-keyboard-response","257","1093990","0.0-3.0-7.0-1.16","578bcb2c09fb91000133750e","C3","batch3","pattern_response","2045.3000000715256","stim/yes_31_hor_b1.png","f","pattern_55","f","true","","","","2045.3000000715256","true","49","","","","","","","","","","","","","","","","",""
"","","","","","html-keyboard-response","258","1095310","0.0-3.0-7.0-0.17","578bcb2c09fb91000133750e","C3","batch3","pattern_show_trial_num","null","<p class=block-text>Trial 57 out of 78</p>","null","","","","","","","","","","","","","","","","","","","","","","","","","",""
"","","","","","image-keyboard-response","259","1096341","0.0-3.0-7.0-1.17","578bcb2c09fb91000133750e","C3","batch3","pattern_response","1029.1000000238419","stim/no_17_1_w.png","j","pattern_04","j","true","","","","1029.1000000238419","true","50","","","","","","","","","","","","","","","","",""
"","","","","","html-keyboard-response","260","1097662","0.0-3.0-7.0-0.18","578bcb2c09fb91000133750e","C3","batch3","pattern_show_trial_num","null","<p class=block-text>Trial 58 out of 78</p>","null","","","","","","","","","","","","","","","","","","","","","","","","","",""
"","","","","","image-keyboard-response","261","1098563","0.0-3.0-7.0-1.18","578bcb2c09fb91000133750e","C3","batch3","pattern_response","898.3000000715256","stim/yes_22_ver_w1.png","f","pattern_47","f","true","","","","898.3000000715256","true","51","","","","","","","","","","","","","","","","",""
"","","","","","html-keyboard-response","262","1099878","0.0-3.0-7.0-0.19","578bcb2c09fb91000133750e","C3","batch3","pattern_show_trial_num","null","<p class=block-text>Trial 59 out of 78</p>","null","","","","","","","","","","","","","","","","","","","","","","","","","",""
"","","","","","image-keyboard-response","263","1102165","0.0-3.0-7.0-1.19","578bcb2c09fb91000133750e","C3","batch3","pattern_response","2285.2999999523163","stim/no_20_1_w.png","j","pattern_06","j","true","","","","2285.2999999523163","true","52","","","","","","","","","","","","","","","","",""
"","","","","","html-keyboard-response","264","1103485","0.0-3.0-7.0-0.20","578bcb2c09fb91000133750e","C3","batch3","pattern_show_trial_num","null","<p class=block-text>Trial 60 out of 78</p>","null","","","","","","","","","","","","","","","","","","","","","","","","","",""
"","","","","","image-keyboard-response","265","1109573","0.0-3.0-7.0-1.20","578bcb2c09fb91000133750e","C3","batch3","pattern_response","6080.700000047684","stim/no_70_2.png","j","pattern_40","j","true","","","","6080.700000047684","true","53","","","","","","","","","","","","","","","","",""
"","","","","","html-keyboard-response","266","1110893","0.0-3.0-7.0-0.21","578bcb2c09fb91000133750e","C3","batch3","pattern_show_trial_num","null","<p class=block-text>Trial 61 out of 78</p>","null","","","","","","","","","","","","","","","","","","","","","","","","","",""
"","","","","","image-keyboard-response","267","1113814","0.0-3.0-7.0-1.21","578bcb2c09fb91000133750e","C3","batch3","pattern_response","2917.7000000476837","stim/no_46_1_b.png","j","pattern_26","j","true","","","","2917.7000000476837","true","54","","","","","","","","","","","","","","","","",""
"","","","","","html-keyboard-response","268","1115133","0.0-3.0-7.0-0.22","578bcb2c09fb91000133750e","C3","batch3","pattern_show_trial_num","null","<p class=block-text>Trial 62 out of 78</p>","null","","","","","","","","","","","","","","","","","","","","","","","","","",""
"","","","","","image-keyboard-response","269","1116123","0.0-3.0-7.0-1.22","578bcb2c09fb91000133750e","C3","batch3","pattern_response","988.7999999523163","stim/yes_43_ver_w1_w.png","f","pattern_65","f","true","","","","988.7999999523163","true","55","","","","","","","","","","","","","","","","",""
"","","","","","html-keyboard-response","270","1117437","0.0-3.0-7.0-0.23","578bcb2c09fb91000133750e","C3","batch3","pattern_show_trial_num","null","<p class=block-text>Trial 63 out of 78</p>","null","","","","","","","","","","","","","","","","","","","","","","","","","",""
"","","","","","image-keyboard-response","271","1118493","0.0-3.0-7.0-1.23","578bcb2c09fb91000133750e","C3","batch3","pattern_response","1055.2999999523163","stim/no_13_2_b.png","j","pattern_02","j","true","","","","1055.2999999523163","true","56","","","","","","","","","","","","","","","","",""
"","","","","","html-keyboard-response","272","1119813","0.0-3.0-7.0-0.24","578bcb2c09fb91000133750e","C3","batch3","pattern_show_trial_num","null","<p class=block-text>Trial 64 out of 78</p>","null","","","","","","","","","","","","","","","","","","","","","","","","","",""
"","","","","","image-keyboard-response","273","1123466","0.0-3.0-7.0-1.24","578bcb2c09fb91000133750e","C3","batch3","pattern_response","3650.899999976158","stim/yes_48_dia_w1_w.png","j","pattern_69","f","false","","","","3650.899999976158","false","56","","","","","","","","","","","","","","","","",""
"","","","","","html-keyboard-response","274","1124781","0.0-3.0-7.0-0.25","578bcb2c09fb91000133750e","C3","batch3","pattern_show_trial_num","null","<p class=block-text>Trial 65 out of 78</p>","null","","","","","","","","","","","","","","","","","","","","","","","","","",""
"","","","","","image-keyboard-response","275","1127347","0.0-3.0-7.0-1.25","578bcb2c09fb91000133750e","C3","batch3","pattern_response","2562.7999999523163","stim/no_32_1_w.png","j","pattern_14","j","true","","","","2562.7999999523163","true","57","","","","","","","","","","","","","","","","",""
"","","","","","html-keyboard-response","276","1128661","0.0-3.0-7.0-0.26","578bcb2c09fb91000133750e","C3","batch3","pattern_show_trial_num","null","<p class=block-text>Trial 66 out of 78</p>","null","","","","","","","","","","","","","","","","","","","","","","","","","",""
"","","","","","image-keyboard-response","277","1129885","0.0-3.0-7.0-1.26","578bcb2c09fb91000133750e","C3","batch3","pattern_response","1221.4000000953674","stim/yes_52_ver_w1.png","f","pattern_73","f","true","","","","1221.4000000953674","true","58","","","","","","","","","","","","","","","","",""
"","","","","","html-keyboard-response","278","1131205","0.0-3.0-7.0-0.27","578bcb2c09fb91000133750e","C3","batch3","pattern_show_trial_num","null","<p class=block-text>Trial 67 out of 78</p>","null","","","","","","","","","","","","","","","","","","","","","","","","","",""
"","","","","","image-keyboard-response","279","1132964","0.0-3.0-7.0-1.27","578bcb2c09fb91000133750e","C3","batch3","pattern_response","1758.3999999761581","stim/no_26_1_w.png","j","pattern_10","j","true","","","","1758.3999999761581","true","59","","","","","","","","","","","","","","","","",""
"","","","","","html-keyboard-response","280","1134277","0.0-3.0-7.0-0.28","578bcb2c09fb91000133750e","C3","batch3","pattern_show_trial_num","null","<p class=block-text>Trial 68 out of 78</p>","null","","","","","","","","","","","","","","","","","","","","","","","","","",""
"","","","","","image-keyboard-response","281","1136070","0.0-3.0-7.0-1.28","578bcb2c09fb91000133750e","C3","batch3","pattern_response","1790.3999999761581","stim/no_29_1_b.png","j","pattern_12","j","true","","","","1790.3999999761581","true","60","","","","","","","","","","","","","","","","",""
"","","","","","html-keyboard-response","282","1137389","0.0-3.0-7.0-0.29","578bcb2c09fb91000133750e","C3","batch3","pattern_show_trial_num","null","<p class=block-text>Trial 69 out of 78</p>","null","","","","","","","","","","","","","","","","","","","","","","","","","",""
"","","","","","image-keyboard-response","283","1139693","0.0-3.0-7.0-1.29","578bcb2c09fb91000133750e","C3","batch3","pattern_response","2301.5999999046326","stim/yes_35_dia_b1.png","f","pattern_57","f","true","","","","2301.5999999046326","true","61","","","","","","","","","","","","","","","","",""
"","","","","","html-keyboard-response","284","1141012","0.0-3.0-7.0-0.30","578bcb2c09fb91000133750e","C3","batch3","pattern_show_trial_num","null","<p class=block-text>Trial 70 out of 78</p>","null","","","","","","","","","","","","","","","","","","","","","","","","","",""
"","","","","","image-keyboard-response","285","1141964","0.0-3.0-7.0-1.30","578bcb2c09fb91000133750e","C3","batch3","pattern_response","948.7999999523163","stim/yes_29_ver_w1.png","f","pattern_53","f","true","","","","948.7999999523163","true","62","","","","","","","","","","","","","","","","",""
"","","","","","html-keyboard-response","286","1143284","0.0-3.0-7.0-0.31","578bcb2c09fb91000133750e","C3","batch3","pattern_show_trial_num","null","<p class=block-text>Trial 71 out of 78</p>","null","","","","","","","","","","","","","","","","","","","","","","","","","",""
"","","","","","image-keyboard-response","287","1144111","0.0-3.0-7.0-1.31","578bcb2c09fb91000133750e","C3","batch3","pattern_response","823.4000000953674","stim/yes_25_hor_b1_b.png","f","pattern_49","f","true","","","","823.4000000953674","true","63","","","","","","","","","","","","","","","","",""
"","","","","","html-keyboard-response","288","1145428","0.0-3.0-7.0-0.32","578bcb2c09fb91000133750e","C3","batch3","pattern_show_trial_num","null","<p class=block-text>Trial 72 out of 78</p>","null","","","","","","","","","","","","","","","","","","","","","","","","","",""
"","","","","","image-keyboard-response","289","1148330","0.0-3.0-7.0-1.32","578bcb2c09fb91000133750e","C3","batch3","pattern_response","2899","stim/yes_37_dia_w1.png","f","pattern_59","f","true","","","","2899","true","64","","","","","","","","","","","","","","","","",""
"","","","","","html-keyboard-response","290","1149644","0.0-3.0-7.0-0.33","578bcb2c09fb91000133750e","C3","batch3","pattern_show_trial_num","null","<p class=block-text>Trial 73 out of 78</p>","null","","","","","","","","","","","","","","","","","","","","","","","","","",""
"","","","","","image-keyboard-response","291","1154051","0.0-3.0-7.0-1.33","578bcb2c09fb91000133750e","C3","batch3","pattern_response","4403.200000047684","stim/no_23_1.png","j","pattern_08","j","true","","","","4403.200000047684","true","65","","","","","","","","","","","","","","","","",""
"","","","","","html-keyboard-response","292","1155364","0.0-3.0-7.0-0.34","578bcb2c09fb91000133750e","C3","batch3","pattern_show_trial_num","null","<p class=block-text>Trial 74 out of 78</p>","null","","","","","","","","","","","","","","","","","","","","","","","","","",""
"","","","","","image-keyboard-response","293","1159004","0.0-3.0-7.0-1.34","578bcb2c09fb91000133750e","C3","batch3","pattern_response","3636.399999976158","stim/yes_67_hor_b1.png","f","pattern_79","f","true","","","","3636.399999976158","true","66","","","","","","","","","","","","","","","","",""
"","","","","","html-keyboard-response","294","1160321","0.0-3.0-7.0-0.35","578bcb2c09fb91000133750e","C3","batch3","pattern_show_trial_num","null","<p class=block-text>Trial 75 out of 78</p>","null","","","","","","","","","","","","","","","","","","","","","","","","","",""
"","","","","","image-keyboard-response","295","1164187","0.0-3.0-7.0-1.35","578bcb2c09fb91000133750e","C3","batch3","pattern_response","3862.899999976158","stim/no_38_1_b.png","j","pattern_20","j","true","","","","3862.899999976158","true","67","","","","","","","","","","","","","","","","",""
"","","","","","html-keyboard-response","296","1165500","0.0-3.0-7.0-0.36","578bcb2c09fb91000133750e","C3","batch3","pattern_show_trial_num","null","<p class=block-text>Trial 76 out of 78</p>","null","","","","","","","","","","","","","","","","","","","","","","","","","",""
"","","","","","image-keyboard-response","297","1166524","0.0-3.0-7.0-1.36","578bcb2c09fb91000133750e","C3","batch3","pattern_response","1020.3000000715256","stim/yes_55_hor_w1_w.png","f","pattern_75","f","true","","","","1020.3000000715256","true","68","","","","","","","","","","","","","","","","",""
"","","","","","html-keyboard-response","298","1167843","0.0-3.0-7.0-0.37","578bcb2c09fb91000133750e","C3","batch3","pattern_show_trial_num","null","<p class=block-text>Trial 77 out of 78</p>","null","","","","","","","","","","","","","","","","","","","","","","","","","",""
"","","","","","image-keyboard-response","299","1172010","0.0-3.0-7.0-1.37","578bcb2c09fb91000133750e","C3","batch3","pattern_response","4164.800000071526","stim/yes_40_dia_b1_b.png","j","pattern_63","f","false","","","","4164.800000071526","false","68","","","","","","","","","","","","","","","","",""
"","","","","","html-keyboard-response","300","1173324","0.0-3.0-7.0-0.38","578bcb2c09fb91000133750e","C3","batch3","pattern_show_trial_num","null","<p class=block-text>Trial 78 out of 78</p>","null","","","","","","","","","","","","","","","","","","","","","","","","","",""
"","","","","","image-keyboard-response","301","1177156","0.0-3.0-7.0-1.38","578bcb2c09fb91000133750e","C3","batch3","pattern_response","3828.8000000715256","stim/no_50_1.png","j","pattern_30","j","true","","","","3828.8000000715256","true","69","","","","","","","","","","","","","","","","",""
"","","","","","html-button-response","302","1180673","0.0-3.0-8.0","578bcb2c09fb91000133750e","C3","batch3","","3004","<p class = block-text>This concludes the 4-in-a-row detection game.Thank you for your responses!<br>
            You responded correctly on 88% of the trials.<br>
            When you are ready, press ""Continue"" button to continue </p>","0","","","","","","","","","","","","","","","","","","","","","","","","","",""
"true","","","","","fullscreen","303","1183347","0.0-4.0-0.0","578bcb2c09fb91000133750e","C3","batch3","","","","","","","","","","","","","","","","","","","","","","","","","","","","","",""
"","","","","","instructions","304","1230373","0.0-4.0-1.0-0.0-0.0","578bcb2c09fb91000133750e","C3","batch3","tol-instructions","47025.39999997616","","","","","","","","[{""page_index"":0,""viewing_time"":12757.599999904633},{""page_index"":1,""viewing_time"":4917.5},{""page_index"":2,""viewing_time"":3732.7000000476837},{""page_index"":3,""viewing_time"":9750.5},{""page_index"":4,""viewing_time"":5183.100000023842},{""page_index"":5,""viewing_time"":8683.600000023842},{""page_index"":6,""viewing_time"":2000.0999999046326}]","","","","","","","","","","","","","","","","","","","",""
"","","","","","html-button-response","305","1231923","0.0-4.0-1.0-1.0-0.0","578bcb2c09fb91000133750e","C3","batch3","tol_enter_quiz","1549.3000000715256","<p class=block-text> Let's answer a few questions <br>","0","","","","","","","","","","","","","","","","","","","","","","","","","",""
"","","","","","html-button-response","306","1235123","0.0-4.0-1.0-1.0-1.0","578bcb2c09fb91000133750e","C3","batch3","tol_quiz","3197.5","<p class = block-text>True or False: You can only move the ball on top of a peg. <br></p>","0","","","true","","","","","","","","","","","","","","","","","","","","","","",""
"","","","","","html-button-response","307","1236239","0.0-4.0-1.0-1.0-2.0","578bcb2c09fb91000133750e","C3","batch3","tol_quiz_feedback","1114.1000000238419","<p class = block-text>Correct! You can only move the ball on top of a peg.</p>","0","","","","","","","","","","","","","","","","","","","","","","","","","",""
"","","","","","html-button-response","308","1239690","0.0-4.0-1.0-1.0-3.0","578bcb2c09fb91000133750e","C3","batch3","tol_quiz","3449.100000023842","<p class = block-text>True or False: You should try to match your board with the target board with fewest moves possible. <br></p>","0","","","true","","","","","","","","","","","","","","","","","","","","","","",""
"","","","","","html-button-response","309","1240556","0.0-4.0-1.0-1.0-4.0","578bcb2c09fb91000133750e","C3","batch3","tol_quiz_feedback","864.3999999761581","<p class = block-text>Correct! </p>","0","","","","","","","","","","","","","","","","","","","","","","","","","",""
"","","","","","html-button-response","310","1241889","0.0-4.0-2.0","578bcb2c09fb91000133750e","C3","batch3","","1330.7999999523163","<p class=block-text> Now that you've understood the game, let's practice a few easier examples before we start!<br> <br>","0","","","","","","","","","","","","","","","","","","","","","","","","","",""
"","","","","","single-stim-button","311","1244092","0.0-4.0-3.0-0.0","578bcb2c09fb91000133750e","C3","batch3","tol_practice","2200","","","","","","","","","","","","","","tol_peg_2","2200","2200","0","[[1,2,0],[0,0],[0]]","1","[[1,2,0],[0,0],[3]]","practice","2200","","","","","",""
"","","","","","single-stim-button","312","1245024","0.0-4.0-3.0-1.0","578bcb2c09fb91000133750e","C3","batch3","tol_practice","930","","","","","","","","","","","","","","tol_peg_3","930","930","0","[[1,2,0],[0,0],[3]]","1","[[1,2,0],[0,0],[3]]","practice","930","","","","","",""
"","","","","","poldrack-single-stim","313","1246034","0.0-4.0-4.0","578bcb2c09fb91000133750e","C3","batch3","tol_feedback","-1","","","","","true","","","","","","","","","","1000","1000","500","","","","","","-1","none","true","","0",""
"","","","","","single-stim-button","314","1254040","0.0-4.0-5.0-0.0","578bcb2c09fb91000133750e","C3","batch3","tol_practice","8004","","","","","","","","","","","","","","tol_peg_1","8004","8004","0","[[1,0,0],[3,0],[0]]","2","[[0,0,0],[3,1],[2]]","practice","8004","","","","","",""
"","","","","","single-stim-button","315","1255707","0.0-4.0-5.0-1.0","578bcb2c09fb91000133750e","C3","batch3","tol_practice","1665","","","","","","","","","","","","","","tol_peg_3","1665","1665","0","[[1,0,0],[3,0],[2]]","2","[[0,0,0],[3,1],[2]]","practice","1665","","","","","",""
"","","","","","single-stim-button","316","1256624","0.0-4.0-5.1-0.1","578bcb2c09fb91000133750e","C3","batch3","tol_practice","915","","","","","","","","","","","","","","tol_peg_1","915","915","0","[[0,0,0],[3,0],[2]]","3","[[0,0,0],[3,1],[2]]","practice","915","","","","","",""
"","","","","","single-stim-button","317","1257422","0.0-4.0-5.1-1.1","578bcb2c09fb91000133750e","C3","batch3","tol_practice","797","","","","","","","","","","","","","","tol_peg_2","797","797","0","[[0,0,0],[3,1],[2]]","3","[[0,0,0],[3,1],[2]]","practice","797","","","","","",""
"","","","","","poldrack-single-stim","318","1258424","0.0-4.0-6.0","578bcb2c09fb91000133750e","C3","batch3","tol_feedback","-1","","","","","true","","","","","","","","","","1000","1000","500","","","","","","-1","none","true","","0",""
"","","","","","single-stim-button","319","1261707","0.0-4.0-7.0-0.0","578bcb2c09fb91000133750e","C3","batch3","tol_practice","3281","","","","","","","","","","","","","","tol_peg_2","3281","3281","0","[[1,2,0],[0,0],[0]]","4","[[1,0,0],[2,0],[3]]","practice","3281","","","","","",""
"","","","","","single-stim-button","320","1262440","0.0-4.0-7.0-1.0","578bcb2c09fb91000133750e","C3","batch3","tol_practice","732","","","","","","","","","","","","","","tol_peg_3","732","732","0","[[1,2,0],[0,0],[3]]","4","[[1,0,0],[2,0],[3]]","practice","732","","","","","",""
"","","","","","single-stim-button","321","1263206","0.0-4.0-7.1-0.1","578bcb2c09fb91000133750e","C3","batch3","tol_practice","764","","","","","","","","","","","","","","tol_peg_1","764","764","0","[[1,0,0],[0,0],[3]]","5","[[1,0,0],[2,0],[3]]","practice","764","","","","","",""
"","","","","","single-stim-button","322","1263940","0.0-4.0-7.1-1.1","578bcb2c09fb91000133750e","C3","batch3","tol_practice","732","","","","","","","","","","","","","","tol_peg_2","732","732","0","[[1,0,0],[2,0],[3]]","5","[[1,0,0],[2,0],[3]]","practice","732","","","","","",""
"","","","","","poldrack-single-stim","323","1264950","0.0-4.0-8.0","578bcb2c09fb91000133750e","C3","batch3","tol_feedback","-1","","","","","true","","","","","","","","","","1000","1000","500","","","","","","-1","none","true","","0",""
"","","","","","html-button-response","324","1267373","0.0-4.0-9.0","578bcb2c09fb91000133750e","C3","batch3","tol_instruction","2421.600000023842","<div class = centerbox><p class = center-block-text>Great job! You are done with practice trials<br>You are about to start official trials.<br> <br> Problem <strong>1</strong> out of 25 problems</p></div>","0","","","","","","","","","","","","","","","","","","","","","","","","","",""
"","","","","","single-stim-button","325","1271907","0.0-4.0-10.0-0.0","578bcb2c09fb91000133750e","C3","batch3","tol_tohand","3530","","","","","","","","","","","","","","tol_peg_1","3530","3530","0","[[1,0,0],[3,0],[0]]","1","[[1,3,0],[2,0],[0]]","0","0","","","","","","3"
"","","","","","single-stim-button","326","1274290","0.0-4.0-10.0-1.0","578bcb2c09fb91000133750e","C3","batch3","tol_toboard","2382","","","","","","","","","","","","","","tol_peg_2","2382","2382","0","[[1,0,0],[3,2],[0]]","1","[[1,3,0],[2,0],[0]]","0","0","","","","","","3"
"","","","","","single-stim-button","327","1279839","0.0-4.0-10.1-0.1","578bcb2c09fb91000133750e","C3","batch3","tol_tohand","5548","","","","","","","","","","","","","","tol_peg_2","5548","5548","0","[[1,0,0],[3,0],[0]]","2","[[1,3,0],[2,0],[0]]","0","0","","","","","","3"
"","","","","","single-stim-button","328","1281490","0.0-4.0-10.1-1.1","578bcb2c09fb91000133750e","C3","batch3","tol_toboard","1650","","","","","","","","","","","","","","tol_peg_3","1650","1650","0","[[1,0,0],[3,0],[2]]","2","[[1,3,0],[2,0],[0]]","0","0","","","","","","3"
"","","","","","single-stim-button","329","1282457","0.0-4.0-10.2-0.2","578bcb2c09fb91000133750e","C3","batch3","tol_tohand","966","","","","","","","","","","","","","","tol_peg_2","966","966","0","[[1,0,0],[0,0],[2]]","3","[[1,3,0],[2,0],[0]]","0","0","","","","","","3"
"","","","","","single-stim-button","330","1283807","0.0-4.0-10.2-1.2","578bcb2c09fb91000133750e","C3","batch3","tol_toboard","1349","","","","","","","","","","","","","","tol_peg_1","1349","1349","0","[[1,3,0],[0,0],[2]]","3","[[1,3,0],[2,0],[0]]","0","0","","","","","","3"
"","","","","","single-stim-button","331","1284590","0.0-4.0-10.3-0.3","578bcb2c09fb91000133750e","C3","batch3","tol_tohand","782","","","","","","","","","","","","","","tol_peg_3","782","782","0","[[1,3,0],[0,0],[0]]","4","[[1,3,0],[2,0],[0]]","0","0","","","","","","3"
"","","","","","single-stim-button","332","1285523","0.0-4.0-10.3-1.3","578bcb2c09fb91000133750e","C3","batch3","tol_toboard","932","","","","","","","","","","","","","","tol_peg_2","932","932","0","[[1,3,0],[2,0],[0]]","4","[[1,3,0],[2,0],[0]]","0","0","","","","","","3"
"","","","","","poldrack-single-stim","333","1286537","0.0-4.0-11.0","578bcb2c09fb91000133750e","C3","batch3","tol_feedback","-1","","","","","true","","","","","","","","","","1000","1000","500","","","","","","-1","none","true","3530","10826",""
"","","","","","html-button-response","334","1287907","0.0-4.0-12.0","578bcb2c09fb91000133750e","C3","batch3","tol_trial_num","1367.5","<div class = centerbox><p class = center-block-text>problem <strong>2</strong> out of 25 problems</p></div>","0","","","","","","","","","","","","","","","","","","","","","","","","","",""
"","","","","","single-stim-button","335","1295940","0.0-4.0-13.0-0.0","578bcb2c09fb91000133750e","C3","batch3","tol_tohand","8032","","","","","","","","","","","","","","tol_peg_1","8032","8032","0","[[1,0,0],[3,0],[0]]","1","[[2,1,3],[0,0],[0]]","1","0","","","","","","5"
"","","","","","single-stim-button","336","1297373","0.0-4.0-13.0-1.0","578bcb2c09fb91000133750e","C3","batch3","tol_toboard","1431","","","","","","","","","","","","","","tol_peg_3","1431","1431","0","[[1,0,0],[3,0],[2]]","1","[[2,1,3],[0,0],[0]]","1","0","","","","","","5"
"","","","","","single-stim-button","337","1298390","0.0-4.0-13.1-0.1","578bcb2c09fb91000133750e","C3","batch3","tol_tohand","1015","","","","","","","","","","","","","","tol_peg_1","1015","1015","0","[[0,0,0],[3,0],[2]]","2","[[2,1,3],[0,0],[0]]","1","0","","","","","","5"
"","","","","","single-stim-button","338","1299190","0.0-4.0-13.1-1.1","578bcb2c09fb91000133750e","C3","batch3","tol_toboard","799","","","","","","","","","","","","","","tol_peg_2","799","799","0","[[0,0,0],[3,1],[2]]","2","[[2,1,3],[0,0],[0]]","1","0","","","","","","5"
"","","","","","single-stim-button","339","1300124","0.0-4.0-13.2-0.2","578bcb2c09fb91000133750e","C3","batch3","tol_tohand","932","","","","","","","","","","","","","","tol_peg_3","932","932","0","[[0,0,0],[3,1],[0]]","3","[[2,1,3],[0,0],[0]]","1","0","","","","","","5"
"","","","","","single-stim-button","340","1301157","0.0-4.0-13.2-1.2","578bcb2c09fb91000133750e","C3","batch3","tol_toboard","1032","","","","","","","","","","","","","","tol_peg_1","1032","1032","0","[[2,0,0],[3,1],[0]]","3","[[2,1,3],[0,0],[0]]","1","0","","","","","","5"
"","","","","","single-stim-button","341","1302473","0.0-4.0-13.3-0.3","578bcb2c09fb91000133750e","C3","batch3","tol_tohand","1315","","","","","","","","","","","","","","tol_peg_2","1315","1315","0","[[2,0,0],[3,0],[0]]","4","[[2,1,3],[0,0],[0]]","1","0","","","","","","5"
"","","","","","single-stim-button","342","1303273","0.0-4.0-13.3-1.3","578bcb2c09fb91000133750e","C3","batch3","tol_toboard","798","","","","","","","","","","","","","","tol_peg_1","798","798","0","[[2,1,0],[3,0],[0]]","4","[[2,1,3],[0,0],[0]]","1","0","","","","","","5"
"","","","","","single-stim-button","343","1303906","0.0-4.0-13.4-0.4","578bcb2c09fb91000133750e","C3","batch3","tol_tohand","632","","","","","","","","","","","","","","tol_peg_2","632","632","0","[[2,1,0],[0,0],[0]]","5","[[2,1,3],[0,0],[0]]","1","0","","","","","","5"
"","","","","","single-stim-button","344","1305123","0.0-4.0-13.4-1.4","578bcb2c09fb91000133750e","C3","batch3","tol_toboard","1216","","","","","","","","","","","","","","tol_peg_1","1216","1216","0","[[2,1,3],[0,0],[0]]","5","[[2,1,3],[0,0],[0]]","1","0","","","","","","5"
"","","","","","poldrack-single-stim","345","1306133","0.0-4.0-14.0","578bcb2c09fb91000133750e","C3","batch3","tol_feedback","-1","","","","","true","","","","","","","","","","1000","1000","500","","","","","","-1","none","true","8032","11926",""
"","","","","","html-button-response","346","1307156","0.0-4.0-15.0","578bcb2c09fb91000133750e","C3","batch3","tol_trial_num","1021.3999999761581","<div class = centerbox><p class = center-block-text>problem <strong>3</strong> out of 25 problems</p></div>","0","","","","","","","","","","","","","","","","","","","","","","","","","",""
