"success","timeout","failed_images","failed_audio","failed_video","trial_type","trial_index","time_elapsed","internal_node_id","subject_id","study_id","session_id","view_history","rt","stimulus","response","task","correct","answer","item","fiar_detect_rt","fiar_detect_correct","total_correct_fiar_detect","post_trial_gap","choices","mouse_click","stim_duration","block_duration","timing_post_trial","current_position","tol_num_moves_made","tol_target","tol_problem_id","tol_rt","key_press","possible_responses","tol_correct","preplanning","tol_rt_per_trial","tol_min_moves","spm_correct","spm_rt"
"true","false","[]","[]","[]","preload","0","26272","0.0-0.0","57b60487e5b60d0001083aea","F1","batch6","","","","","","","","","","","","","","","","","","","","","","","","","","","","","",""
"true","","","","","fullscreen","1","48162","0.0-1.0-0.0","57b60487e5b60d0001083aea","F1","batch6","","","","","","","","","","","","","","","","","","","","","","","","","","","","","",""
"true","","","","","fullscreen","2","51442","0.0-2.0-0.0","57b60487e5b60d0001083aea","F1","batch6","","","","","","","","","","","","","","","","","","","","","","","","","","","","","",""
"","","","","","instructions","3","111150","0.0-2.0-1.0-0.0","57b60487e5b60d0001083aea","F1","batch6","[{""page_index"":0,""viewing_time"":42194.699999999255},{""page_index"":1,""viewing_time"":17511.900000000373}]","59706.799999999814","","","","","","","","","","","","","","","","","","","","","","","","","","","",""
"","","","","","html-button-response","4","112759","0.0-2.0-1.0-1.0-0.0","57b60487e5b60d0001083aea","F1","batch6","","1606.9000000003725","<p class=block-text> Let's answer a few questions <br>","0","pattern_enter_quiz","","","","","","","","","","","","","","","","","","","","","","","","",""
"","","","","","html-button-response","5","114735","0.0-2.0-1.0-1.0-1.0","57b60487e5b60d0001083aea","F1","batch6","","1974.199999999255","<p class = block-text>True or False: You will have as much time as you want to make each choice. <br></p>","1","pattern_quiz","true","","","","","","","","","","","","","","","","","","","","","","","",""
"","","","","","html-button-response","6","115878","0.0-2.0-1.0-1.0-2.0","57b60487e5b60d0001083aea","F1","batch6","","1142.7000000001863","<p class = block-text>Correct! You should make your choice <strong> as fast as you can</strong>.</p>","0","pattern_quiz_feedback","","","","","","","","","","","","","","","","","","","","","","","","",""
"","","","","","html-button-response","7","119078","0.0-2.0-1.0-1.0-3.0","57b60487e5b60d0001083aea","F1","batch6","","3199.399999999441","<p class = block-text>True or False: You will look for 4 pieces in black or white color connected in a row either horizontally, vertically or diagonally. <br></p>","0","pattern_quiz","true","","","","","","","","","","","","","","","","","","","","","","","",""
"","","","","","html-button-response","8","119846","0.0-2.0-1.0-1.0-4.0","57b60487e5b60d0001083aea","F1","batch6","","766.9000000003725","<p class = block-text>Correct! </p>","0","pattern_quiz_feedback","","","","","","","","","","","","","","","","","","","","","","","","",""
"","","","","","html-button-response","9","121710","0.0-2.0-2.0","57b60487e5b60d0001083aea","F1","batch6","","1862.5","<p class=block-text> Now that you've understood the game, let's do a few practice trials before we start!<br> <br>","0","pattern_enter_practice","","","","","","","","","","","","","","","","","","","","","","","","",""
"","","","","","image-keyboard-response","10","123502","0.0-2.0-3.0-0.0","57b60487e5b60d0001083aea","F1","batch6","","1780.800000000745","stim/prac_no_16_1.png","j","pattern_practice","true","j","","","","","","","","","","","","","","","","","","","","","","",""
"","","","","","html-keyboard-response","11","124531","0.0-2.0-3.0-1.0","57b60487e5b60d0001083aea","F1","batch6","","null","<p style=""font-size:30px;color:green;"">Correct!</p>","null","pattern_feedback","","","","","","","","","","","","","","","","","","","","","","","","",""
"","","","","","image-keyboard-response","12","125525","0.0-2.0-3.0-0.1","57b60487e5b60d0001083aea","F1","batch6","","993.2000000001863","stim/prac_yes_20_dia_b1.png","j","pattern_practice","false","f","","","","","","","","","","","","","","","","","","","","","","",""
"","","","","","html-keyboard-response","13","126539","0.0-2.0-3.0-1.1","57b60487e5b60d0001083aea","F1","batch6","","null","<p style=""font-size:30px;color:red;"">Wrong.</p>","null","pattern_feedback","","","","","","","","","","","","","","","","","","","","","","","","",""
"","","","","","image-keyboard-response","14","127430","0.0-2.0-3.0-0.2","57b60487e5b60d0001083aea","F1","batch6","","889.7999999998137","stim/prac_yes_18_hor_w1.png","f","pattern_practice","true","f","","","","","","","","","","","","","","","","","","","","","","",""
"","","","","","html-keyboard-response","15","128442","0.0-2.0-3.0-1.2","57b60487e5b60d0001083aea","F1","batch6","","null","<p style=""font-size:30px;color:green;"">Correct!</p>","null","pattern_feedback","","","","","","","","","","","","","","","","","","","","","","","","",""
"","","","","","image-keyboard-response","16","129030","0.0-2.0-3.0-0.3","57b60487e5b60d0001083aea","F1","batch6","","586.5","stim/prac_yes_16_ver_w1.png","f","pattern_practice","true","f","","","","","","","","","","","","","","","","","","","","","","",""
"","","","","","html-keyboard-response","17","130036","0.0-2.0-3.0-1.3","57b60487e5b60d0001083aea","F1","batch6","","null","<p style=""font-size:30px;color:green;"">Correct!</p>","null","pattern_feedback","","","","","","","","","","","","","","","","","","","","","","","","",""
"","","","","","image-keyboard-response","18","130718","0.0-2.0-3.0-0.4","57b60487e5b60d0001083aea","F1","batch6","","680.5999999996275","stim/prac_no_18_1.png","j","pattern_practice","true","j","","","","","","","","","","","","","","","","","","","","","","",""
"","","","","","html-keyboard-response","19","131733","0.0-2.0-3.0-1.4","57b60487e5b60d0001083aea","F1","batch6","","null","<p style=""font-size:30px;color:green;"">Correct!</p>","null","pattern_feedback","","","","","","","","","","","","","","","","","","","","","","","","",""
"","","","","","html-button-response","20","135726","0.0-2.0-4.0","57b60487e5b60d0001083aea","F1","batch6","","3992.5999999996275","<p class=block-text> Good job! You are done with practice trials!<br>
        You responded correctly on 80% of the trials.<br>
        Press the button below to start official trials. Now you won't see any feedback about your response</p>","0","pattern_enter_official_trials","","","","","","","","","","","","","","","","","","","","","","","","",""
"","","","","","html-keyboard-response","21","136534","0.0-2.0-5.0-0.0","57b60487e5b60d0001083aea","F1","batch6","","null","<p class=block-text>Trial 1 out of 78</p>","null","pattern_show_trial_num","","","","","","","","","","","","","","","","","","","","","","","","",""
"","","","","","image-keyboard-response","22","138390","0.0-2.0-5.0-1.0","57b60487e5b60d0001083aea","F1","batch6","","1853.5999999996275","stim/yes_46_ver_b1_b.png","j","pattern_response","false","f","pattern_68","1853.5999999996275","false","0","","","","","","","","","","","","","","","","","","",""
"","","","","","html-keyboard-response","23","139712","0.0-2.0-5.0-0.1","57b60487e5b60d0001083aea","F1","batch6","","null","<p class=block-text>Trial 2 out of 78</p>","null","pattern_show_trial_num","","","","","","","","","","","","","","","","","","","","","","","","",""
"","","","","","image-keyboard-response","24","140782","0.0-2.0-5.0-1.1","57b60487e5b60d0001083aea","F1","batch6","","1068.2000000001863","stim/yes_26_dia_w2_w.png","f","pattern_response","true","f","pattern_50","1068.2000000001863","true","1","","","","","","","","","","","","","","","","","","",""
"","","","","","html-keyboard-response","25","142094","0.0-2.0-5.0-0.2","57b60487e5b60d0001083aea","F1","batch6","","null","<p class=block-text>Trial 3 out of 78</p>","null","pattern_show_trial_num","","","","","","","","","","","","","","","","","","","","","","","","",""
"","","","","","image-keyboard-response","26","142846","0.0-2.0-5.0-1.2","57b60487e5b60d0001083aea","F1","batch6","","750.3000000007451","stim/no_12_1.png","j","pattern_response","true","j","pattern_01","750.3000000007451","true","2","","","","","","","","","","","","","","","","","","",""
"","","","","","html-keyboard-response","27","144165","0.0-2.0-5.0-0.3","57b60487e5b60d0001083aea","F1","batch6","","null","<p class=block-text>Trial 4 out of 78</p>","null","pattern_show_trial_num","","","","","","","","","","","","","","","","","","","","","","","","",""
"","","","","","image-keyboard-response","28","145398","0.0-2.0-5.0-1.3","57b60487e5b60d0001083aea","F1","batch6","","1231.6000000005588","stim/no_53_1_b.png","j","pattern_response","true","j","pattern_33","1231.6000000005588","true","3","","","","","","","","","","","","","","","","","","",""
"","","","","","html-keyboard-response","29","146714","0.0-2.0-5.0-0.4","57b60487e5b60d0001083aea","F1","batch6","","null","<p class=block-text>Trial 5 out of 78</p>","null","pattern_show_trial_num","","","","","","","","","","","","","","","","","","","","","","","","",""
"","","","","","image-keyboard-response","30","148270","0.0-2.0-5.0-1.4","57b60487e5b60d0001083aea","F1","batch6","","1554.7000000001863","stim/yes_44_ver_w1_w.png","f","pattern_response","true","f","pattern_66","1554.7000000001863","true","4","","","","","","","","","","","","","","","","","","",""
"","","","","","html-keyboard-response","31","149583","0.0-2.0-5.0-0.5","57b60487e5b60d0001083aea","F1","batch6","","null","<p class=block-text>Trial 6 out of 78</p>","null","pattern_show_trial_num","","","","","","","","","","","","","","","","","","","","","","","","",""
"","","","","","image-keyboard-response","32","150686","0.0-2.0-5.0-1.5","57b60487e5b60d0001083aea","F1","batch6","","1101.4000000003725","stim/no_39_1_w.png","j","pattern_response","true","j","pattern_21","1101.4000000003725","true","5","","","","","","","","","","","","","","","","","","",""
"","","","","","html-keyboard-response","33","151990","0.0-2.0-5.0-0.6","57b60487e5b60d0001083aea","F1","batch6","","null","<p class=block-text>Trial 7 out of 78</p>","null","pattern_show_trial_num","","","","","","","","","","","","","","","","","","","","","","","","",""
"","","","","","image-keyboard-response","34","153230","0.0-2.0-5.0-1.6","57b60487e5b60d0001083aea","F1","batch6","","1238.5","stim/no_58_1_w.png","j","pattern_response","true","j","pattern_35","1238.5","true","6","","","","","","","","","","","","","","","","","","",""
"","","","","","html-keyboard-response","35","154552","0.0-2.0-5.0-0.7","57b60487e5b60d0001083aea","F1","batch6","","null","<p class=block-text>Trial 8 out of 78</p>","null","pattern_show_trial_num","","","","","","","","","","","","","","","","","","","","","","","","",""
"","","","","","image-keyboard-response","36","155646","0.0-2.0-5.0-1.7","57b60487e5b60d0001083aea","F1","batch6","","1092.8999999994412","stim/no_28_2.png","j","pattern_response","true","j","pattern_11","1092.8999999994412","true","7","","","","","","","","","","","","","","","","","","",""
"","","","","","html-keyboard-response","37","156961","0.0-2.0-5.0-0.8","57b60487e5b60d0001083aea","F1","batch6","","null","<p class=block-text>Trial 9 out of 78</p>","null","pattern_show_trial_num","","","","","","","","","","","","","","","","","","","","","","","","",""
"","","","","","image-keyboard-response","38","158198","0.0-2.0-5.0-1.8","57b60487e5b60d0001083aea","F1","batch6","","1235.4000000003725","stim/yes_49_hor_w1_b.png","f","pattern_response","true","f","pattern_70","1235.4000000003725","true","8","","","","","","","","","","","","","","","","","","",""
"","","","","","html-keyboard-response","39","159514","0.0-2.0-5.0-0.9","57b60487e5b60d0001083aea","F1","batch6","","null","<p class=block-text>Trial 10 out of 78</p>","null","pattern_show_trial_num","","","","","","","","","","","","","","","","","","","","","","","","",""
"","","","","","image-keyboard-response","40","160238","0.0-2.0-5.0-1.9","57b60487e5b60d0001083aea","F1","batch6","","722.7000000001863","stim/yes_36_ver_w1_w.png","f","pattern_response","true","f","pattern_58","722.7000000001863","true","9","","","","","","","","","","","","","","","","","","",""
"","","","","","html-keyboard-response","41","161542","0.0-2.0-5.0-0.10","57b60487e5b60d0001083aea","F1","batch6","","null","<p class=block-text>Trial 11 out of 78</p>","null","pattern_show_trial_num","","","","","","","","","","","","","","","","","","","","","","","","",""
"","","","","","image-keyboard-response","42","162486","0.0-2.0-5.0-1.10","57b60487e5b60d0001083aea","F1","batch6","","943.2000000001863","stim/yes_42_dia_w1_w.png","f","pattern_response","true","f","pattern_64","943.2000000001863","true","10","","","","","","","","","","","","","","","","","","",""
"","","","","","html-keyboard-response","43","163797","0.0-2.0-5.0-0.11","57b60487e5b60d0001083aea","F1","batch6","","null","<p class=block-text>Trial 12 out of 78</p>","null","pattern_show_trial_num","","","","","","","","","","","","","","","","","","","","","","","","",""
"","","","","","image-keyboard-response","44","164502","0.0-2.0-5.0-1.11","57b60487e5b60d0001083aea","F1","batch6","","703.2999999998137","stim/yes_53_ver_b1_b.png","f","pattern_response","true","f","pattern_74","703.2999999998137","true","11","","","","","","","","","","","","","","","","","","",""
"","","","","","html-keyboard-response","45","165812","0.0-2.0-5.0-0.12","57b60487e5b60d0001083aea","F1","batch6","","null","<p class=block-text>Trial 13 out of 78</p>","null","pattern_show_trial_num","","","","","","","","","","","","","","","","","","","","","","","","",""
"","","","","","image-keyboard-response","46","166510","0.0-2.0-5.0-1.12","57b60487e5b60d0001083aea","F1","batch6","","696","stim/yes_30_ver_b1_b.png","j","pattern_response","false","f","pattern_54","696","false","11","","","","","","","","","","","","","","","","","","",""
"","","","","","html-keyboard-response","47","167819","0.0-2.0-5.0-0.13","57b60487e5b60d0001083aea","F1","batch6","","null","<p class=block-text>Trial 14 out of 78</p>","null","pattern_show_trial_num","","","","","","","","","","","","","","","","","","","","","","","","",""
"","","","","","image-keyboard-response","48","168734","0.0-2.0-5.0-1.13","57b60487e5b60d0001083aea","F1","batch6","","912.9000000003725","stim/no_45_1_w.png","f","pattern_response","false","j","pattern_25","912.9000000003725","false","11","","","","","","","","","","","","","","","","","","",""
"","","","","","html-keyboard-response","49","170038","0.0-2.0-5.0-0.14","57b60487e5b60d0001083aea","F1","batch6","","null","<p class=block-text>Trial 15 out of 78</p>","null","pattern_show_trial_num","","","","","","","","","","","","","","","","","","","","","","","","",""
"","","","","","image-keyboard-response","50","171478","0.0-2.0-5.0-1.14","57b60487e5b60d0001083aea","F1","batch6","","1439.0999999996275","stim/no_49_2_b.png","j","pattern_response","true","j","pattern_29","1439.0999999996275","true","12","","","","","","","","","","","","","","","","","","",""
"","","","","","html-keyboard-response","51","172798","0.0-2.0-5.0-0.15","57b60487e5b60d0001083aea","F1","batch6","","null","<p class=block-text>Trial 16 out of 78</p>","null","pattern_show_trial_num","","","","","","","","","","","","","","","","","","","","","","","","",""
"","","","","","image-keyboard-response","52","173582","0.0-2.0-5.0-1.15","57b60487e5b60d0001083aea","F1","batch6","","782.4000000003725","stim/yes_23_ver_b1.png","j","pattern_response","false","f","pattern_48","782.4000000003725","false","12","","","","","","","","","","","","","","","","","","",""
"","","","","","html-keyboard-response","53","174896","0.0-2.0-5.0-0.16","57b60487e5b60d0001083aea","F1","batch6","","null","<p class=block-text>Trial 17 out of 78</p>","null","pattern_show_trial_num","","","","","","","","","","","","","","","","","","","","","","","","",""
"","","","","","image-keyboard-response","54","175502","0.0-2.0-5.0-1.16","57b60487e5b60d0001083aea","F1","batch6","","604.8000000007451","stim/yes_39_hor_w1_w.png","f","pattern_response","true","f","pattern_62","604.8000000007451","true","13","","","","","","","","","","","","","","","","","","",""
"","","","","","html-keyboard-response","55","176819","0.0-2.0-5.0-0.17","57b60487e5b60d0001083aea","F1","batch6","","null","<p class=block-text>Trial 18 out of 78</p>","null","pattern_show_trial_num","","","","","","","","","","","","","","","","","","","","","","","","",""
"","","","","","image-keyboard-response","56","177606","0.0-2.0-5.0-1.17","57b60487e5b60d0001083aea","F1","batch6","","786.5","stim/no_25_1_b.png","j","pattern_response","true","j","pattern_09","786.5","true","14","","","","","","","","","","","","","","","","","","",""
"","","","","","html-keyboard-response","57","178920","0.0-2.0-5.0-0.18","57b60487e5b60d0001083aea","F1","batch6","","null","<p class=block-text>Trial 19 out of 78</p>","null","pattern_show_trial_num","","","","","","","","","","","","","","","","","","","","","","","","",""
"","","","","","image-keyboard-response","58","179478","0.0-2.0-5.0-1.18","57b60487e5b60d0001083aea","F1","batch6","","557.2999999998137","stim/no_15_1_w.png","j","pattern_response","true","j","pattern_03","557.2999999998137","true","15","","","","","","","","","","","","","","","","","","",""
"","","","","","html-keyboard-response","59","180797","0.0-2.0-5.0-0.19","57b60487e5b60d0001083aea","F1","batch6","","null","<p class=block-text>Trial 20 out of 78</p>","null","pattern_show_trial_num","","","","","","","","","","","","","","","","","","","","","","","","",""
"","","","","","image-keyboard-response","60","181606","0.0-2.0-5.0-1.19","57b60487e5b60d0001083aea","F1","batch6","","807.6000000005588","stim/no_47_1_b.png","j","pattern_response","true","j","pattern_27","807.6000000005588","true","16","","","","","","","","","","","","","","","","","","",""
"","","","","","html-keyboard-response","61","182935","0.0-2.0-5.0-0.20","57b60487e5b60d0001083aea","F1","batch6","","null","<p class=block-text>Trial 21 out of 78</p>","null","pattern_show_trial_num","","","","","","","","","","","","","","","","","","","","","","","","",""
"","","","","","image-keyboard-response","62","183574","0.0-2.0-5.0-1.20","57b60487e5b60d0001083aea","F1","batch6","","638.7000000001863","stim/yes_33_dia_w1_w.png","j","pattern_response","false","f","pattern_56","638.7000000001863","false","16","","","","","","","","","","","","","","","","","","",""
"","","","","","html-keyboard-response","63","184892","0.0-2.0-5.0-0.21","57b60487e5b60d0001083aea","F1","batch6","","null","<p class=block-text>Trial 22 out of 78</p>","null","pattern_show_trial_num","","","","","","","","","","","","","","","","","","","","","","","","",""
"","","","","","image-keyboard-response","64","185518","0.0-2.0-5.0-1.21","57b60487e5b60d0001083aea","F1","batch6","","625.7000000001863","stim/no_36_1_b.png","j","pattern_response","true","j","pattern_17","625.7000000001863","true","17","","","","","","","","","","","","","","","","","","",""
"","","","","","html-keyboard-response","65","186822","0.0-2.0-5.0-0.22","57b60487e5b60d0001083aea","F1","batch6","","null","<p class=block-text>Trial 23 out of 78</p>","null","pattern_show_trial_num","","","","","","","","","","","","","","","","","","","","","","","","",""
"","","","","","image-keyboard-response","66","187382","0.0-2.0-5.0-1.22","57b60487e5b60d0001083aea","F1","batch6","","559.2000000001863","stim/no_43_2_b.png","f","pattern_response","false","j","pattern_23","559.2000000001863","false","17","","","","","","","","","","","","","","","","","","",""
"","","","","","html-keyboard-response","67","188691","0.0-2.0-5.0-0.23","57b60487e5b60d0001083aea","F1","batch6","","null","<p class=block-text>Trial 24 out of 78</p>","null","pattern_show_trial_num","","","","","","","","","","","","","","","","","","","","","","","","",""
"","","","","","image-keyboard-response","68","189294","0.0-2.0-5.0-1.23","57b60487e5b60d0001083aea","F1","batch6","","602.5999999996275","stim/yes_58_dia_w1_w.png","f","pattern_response","true","f","pattern_76","602.5999999996275","true","18","","","","","","","","","","","","","","","","","","",""
"","","","","","html-keyboard-response","69","190607","0.0-2.0-5.0-0.24","57b60487e5b60d0001083aea","F1","batch6","","null","<p class=block-text>Trial 25 out of 78</p>","null","pattern_show_trial_num","","","","","","","","","","","","","","","","","","","","","","","","",""
"","","","","","image-keyboard-response","70","191294","0.0-2.0-5.0-1.24","57b60487e5b60d0001083aea","F1","batch6","","685.7000000001863","stim/yes_51_dia_b1.png","j","pattern_response","false","f","pattern_72","685.7000000001863","false","18","","","","","","","","","","","","","","","","","","",""
"","","","","","html-keyboard-response","71","192621","0.0-2.0-5.0-0.25","57b60487e5b60d0001083aea","F1","batch6","","null","<p class=block-text>Trial 26 out of 78</p>","null","pattern_show_trial_num","","","","","","","","","","","","","","","","","","","","","","","","",""
"","","","","","image-keyboard-response","72","193150","0.0-2.0-5.0-1.25","57b60487e5b60d0001083aea","F1","batch6","","528.2000000001863","stim/yes_29_hor_b1_b.png","f","pattern_response","true","f","pattern_52","528.2000000001863","true","19","","","","","","","","","","","","","","","","","","",""
"","","","","","html-keyboard-response","73","194469","0.0-2.0-5.0-0.26","57b60487e5b60d0001083aea","F1","batch6","","null","<p class=block-text>Trial 27 out of 78</p>","null","pattern_show_trial_num","","","","","","","","","","","","","","","","","","","","","","","","",""
"","","","","","image-keyboard-response","74","195030","0.0-2.0-5.0-1.26","57b60487e5b60d0001083aea","F1","batch6","","560.5999999996275","stim/no_67_1.png","f","pattern_response","false","j","pattern_39","560.5999999996275","false","19","","","","","","","","","","","","","","","","","","",""
"","","","","","html-keyboard-response","75","196357","0.0-2.0-5.0-0.27","57b60487e5b60d0001083aea","F1","batch6","","null","<p class=block-text>Trial 28 out of 78</p>","null","pattern_show_trial_num","","","","","","","","","","","","","","","","","","","","","","","","",""
"","","","","","image-keyboard-response","76","197182","0.0-2.0-5.0-1.27","57b60487e5b60d0001083aea","F1","batch6","","824.7999999998137","stim/no_30_1_b.png","j","pattern_response","true","j","pattern_13","824.7999999998137","true","20","","","","","","","","","","","","","","","","","","",""
"","","","","","html-keyboard-response","77","198486","0.0-2.0-5.0-0.28","57b60487e5b60d0001083aea","F1","batch6","","null","<p class=block-text>Trial 29 out of 78</p>","null","pattern_show_trial_num","","","","","","","","","","","","","","","","","","","","","","","","",""
"","","","","","image-keyboard-response","78","199502","0.0-2.0-5.0-1.28","57b60487e5b60d0001083aea","F1","batch6","","1015.5","stim/yes_63_dia_b1.png","f","pattern_response","true","f","pattern_78","1015.5","true","21","","","","","","","","","","","","","","","","","","",""
"","","","","","html-keyboard-response","79","200818","0.0-2.0-5.0-0.29","57b60487e5b60d0001083aea","F1","batch6","","null","<p class=block-text>Trial 30 out of 78</p>","null","pattern_show_trial_num","","","","","","","","","","","","","","","","","","","","","","","","",""
"","","","","","image-keyboard-response","80","201654","0.0-2.0-5.0-1.29","57b60487e5b60d0001083aea","F1","batch6","","835.7000000001863","stim/yes_17_ver_b1_b.png","f","pattern_response","true","f","pattern_46","835.7000000001863","true","22","","","","","","","","","","","","","","","","","","",""
"","","","","","html-keyboard-response","81","202967","0.0-2.0-5.0-0.30","57b60487e5b60d0001083aea","F1","batch6","","null","<p class=block-text>Trial 31 out of 78</p>","null","pattern_show_trial_num","","","","","","","","","","","","","","","","","","","","","","","","",""
"","","","","","image-keyboard-response","82","203694","0.0-2.0-5.0-1.30","57b60487e5b60d0001083aea","F1","batch6","","725.7999999998137","stim/no_22_1_b.png","j","pattern_response","true","j","pattern_07","725.7999999998137","true","23","","","","","","","","","","","","","","","","","","",""
"","","","","","html-keyboard-response","83","205020","0.0-2.0-5.0-0.31","57b60487e5b60d0001083aea","F1","batch6","","null","<p class=block-text>Trial 32 out of 78</p>","null","pattern_show_trial_num","","","","","","","","","","","","","","","","","","","","","","","","",""
"","","","","","image-keyboard-response","84","205622","0.0-2.0-5.0-1.31","57b60487e5b60d0001083aea","F1","batch6","","601.2999999998137","stim/yes_15_dia_b1u_b.png","f","pattern_response","true","f","pattern_44","601.2999999998137","true","24","","","","","","","","","","","","","","","","","","",""
"","","","","","html-keyboard-response","85","206933","0.0-2.0-5.0-0.32","57b60487e5b60d0001083aea","F1","batch6","","null","<p class=block-text>Trial 33 out of 78</p>","null","pattern_show_trial_num","","","","","","","","","","","","","","","","","","","","","","","","",""
"","","","","","image-keyboard-response","86","208046","0.0-2.0-5.0-1.32","57b60487e5b60d0001083aea","F1","batch6","","1112","stim/no_33_1_b.png","j","pattern_response","true","j","pattern_15","1112","true","25","","","","","","","","","","","","","","","","","","",""
"","","","","","html-keyboard-response","87","209364","0.0-2.0-5.0-0.33","57b60487e5b60d0001083aea","F1","batch6","","null","<p class=block-text>Trial 34 out of 78</p>","null","pattern_show_trial_num","","","","","","","","","","","","","","","","","","","","","","","","",""
"","","","","","image-keyboard-response","88","210350","0.0-2.0-5.0-1.33","57b60487e5b60d0001083aea","F1","batch6","","985.0999999996275","stim/yes_70_ver_b1.png","f","pattern_response","true","f","pattern_80","985.0999999996275","true","26","","","","","","","","","","","","","","","","","","",""
"","","","","","html-keyboard-response","89","211665","0.0-2.0-5.0-0.34","57b60487e5b60d0001083aea","F1","batch6","","null","<p class=block-text>Trial 35 out of 78</p>","null","pattern_show_trial_num","","","","","","","","","","","","","","","","","","","","","","","","",""
"","","","","","image-keyboard-response","90","212262","0.0-2.0-5.0-1.34","57b60487e5b60d0001083aea","F1","batch6","","596.5999999996275","stim/no_18_1_b.png","j","pattern_response","true","j","pattern_05","596.5999999996275","true","27","","","","","","","","","","","","","","","","","","",""
"","","","","","html-keyboard-response","91","213570","0.0-2.0-5.0-0.35","57b60487e5b60d0001083aea","F1","batch6","","null","<p class=block-text>Trial 36 out of 78</p>","null","pattern_show_trial_num","","","","","","","","","","","","","","","","","","","","","","","","",""
"","","","","","image-keyboard-response","92","214191","0.0-2.0-5.0-1.35","57b60487e5b60d0001083aea","F1","batch6","","619.7999999998137","stim/yes_12_hor_w1_w.png","f","pattern_response","true","f","pattern_42","619.7999999998137","true","28","","","","","","","","","","","","","","","","","","",""
"","","","","","html-keyboard-response","93","215510","0.0-2.0-5.0-0.36","57b60487e5b60d0001083aea","F1","batch6","","null","<p class=block-text>Trial 37 out of 78</p>","null","pattern_show_trial_num","","","","","","","","","","","","","","","","","","","","","","","","",""
"","","","","","image-keyboard-response","94","216222","0.0-2.0-5.0-1.36","57b60487e5b60d0001083aea","F1","batch6","","711.7000000001863","stim/no_51_1.png","j","pattern_response","true","j","pattern_31","711.7000000001863","true","29","","","","","","","","","","","","","","","","","","",""
"","","","","","html-keyboard-response","95","217540","0.0-2.0-5.0-0.37","57b60487e5b60d0001083aea","F1","batch6","","null","<p class=block-text>Trial 38 out of 78</p>","null","pattern_show_trial_num","","","","","","","","","","","","","","","","","","","","","","","","",""
"","","","","","image-keyboard-response","96","218246","0.0-2.0-5.0-1.37","57b60487e5b60d0001083aea","F1","batch6","","705.2000000001863","stim/no_37_2_w.png","j","pattern_response","true","j","pattern_19","705.2000000001863","true","30","","","","","","","","","","","","","","","","","","",""
"","","","","","html-keyboard-response","97","219573","0.0-2.0-5.0-0.38","57b60487e5b60d0001083aea","F1","batch6","","null","<p class=block-text>Trial 39 out of 78</p>","null","pattern_show_trial_num","","","","","","","","","","","","","","","","","","","","","","","","",""
"","","","","","image-keyboard-response","98","220158","0.0-2.0-5.0-1.38","57b60487e5b60d0001083aea","F1","batch6","","584.7999999998137","stim/yes_37_hor_w1_w.png","f","pattern_response","true","f","pattern_60","584.7999999998137","true","31","","","","","","","","","","","","","","","","","","",""
"","","","","","image-keyboard-response","99","221838","0.0-2.0-6.0","57b60487e5b60d0001083aea","F1","batch6","","1177.3999999994412","stim/empty_board.png","j","attention_check","true","j","","","","","500","[""f"",""j""]","","","","","","","","","","","","","","","","",""
"","","","","","html-keyboard-response","100","222640","0.0-2.0-7.0-0.0","57b60487e5b60d0001083aea","F1","batch6","","null","<p class=block-text>Trial 40 out of 78</p>","null","pattern_show_trial_num","","","","","","","","","","","","","","","","","","","","","","","","",""
"","","","","","image-keyboard-response","101","223622","0.0-2.0-7.0-1.0","57b60487e5b60d0001083aea","F1","batch6","","981.0999999996275","stim/yes_31_hor_b1.png","f","pattern_response","true","f","pattern_55","981.0999999996275","true","32","","","","","","","","","","","","","","","","","","",""
"","","","","","html-keyboard-response","102","224949","0.0-2.0-7.0-0.1","57b60487e5b60d0001083aea","F1","batch6","","null","<p class=block-text>Trial 41 out of 78</p>","null","pattern_show_trial_num","","","","","","","","","","","","","","","","","","","","","","","","",""
"","","","","","image-keyboard-response","103","225966","0.0-2.0-7.0-1.1","57b60487e5b60d0001083aea","F1","batch6","","1016.7000000001863","stim/no_36_2_w.png","j","pattern_response","true","j","pattern_18","1016.7000000001863","true","33","","","","","","","","","","","","","","","","","","",""
"","","","","","html-keyboard-response","104","227295","0.0-2.0-7.0-0.2","57b60487e5b60d0001083aea","F1","batch6","","null","<p class=block-text>Trial 42 out of 78</p>","null","pattern_show_trial_num","","","","","","","","","","","","","","","","","","","","","","","","",""
"","","","","","image-keyboard-response","105","228046","0.0-2.0-7.0-1.2","57b60487e5b60d0001083aea","F1","batch6","","750.5","stim/no_38_1_b.png","j","pattern_response","true","j","pattern_20","750.5","true","34","","","","","","","","","","","","","","","","","","",""
"","","","","","html-keyboard-response","106","229363","0.0-2.0-7.0-0.3","57b60487e5b60d0001083aea","F1","batch6","","null","<p class=block-text>Trial 43 out of 78</p>","null","pattern_show_trial_num","","","","","","","","","","","","","","","","","","","","","","","","",""
"","","","","","image-keyboard-response","107","230319","0.0-2.0-7.0-1.3","57b60487e5b60d0001083aea","F1","batch6","","954.7999999998137","stim/no_46_1_b.png","j","pattern_response","true","j","pattern_26","954.7999999998137","true","35","","","","","","","","","","","","","","","","","","",""
"","","","","","html-keyboard-response","108","231638","0.0-2.0-7.0-0.4","57b60487e5b60d0001083aea","F1","batch6","","null","<p class=block-text>Trial 44 out of 78</p>","null","pattern_show_trial_num","","","","","","","","","","","","","","","","","","","","","","","","",""
"","","","","","image-keyboard-response","109","232726","0.0-2.0-7.0-1.4","57b60487e5b60d0001083aea","F1","batch6","","1087.2999999998137","stim/no_50_1.png","j","pattern_response","true","j","pattern_30","1087.2999999998137","true","36","","","","","","","","","","","","","","","","","","",""
"","","","","","html-keyboard-response","110","234039","0.0-2.0-7.0-0.5","57b60487e5b60d0001083aea","F1","batch6","","null","<p class=block-text>Trial 45 out of 78</p>","null","pattern_show_trial_num","","","","","","","","","","","","","","","","","","","","","","","","",""
"","","","","","image-keyboard-response","111","235143","0.0-2.0-7.0-1.5","57b60487e5b60d0001083aea","F1","batch6","","1102.7999999998137","stim/yes_17_dia_w1.png","f","pattern_response","true","f","pattern_45","1102.7999999998137","true","37","","","","","","","","","","","","","","","","","","",""
"","","","","","html-keyboard-response","112","236467","0.0-2.0-7.0-0.6","57b60487e5b60d0001083aea","F1","batch6","","null","<p class=block-text>Trial 46 out of 78</p>","null","pattern_show_trial_num","","","","","","","","","","","","","","","","","","","","","","","","",""
"","","","","","image-keyboard-response","113","237254","0.0-2.0-7.0-1.6","57b60487e5b60d0001083aea","F1","batch6","","786.3000000007451","stim/yes_55_hor_w1_w.png","f","pattern_response","true","f","pattern_75","786.3000000007451","true","38","","","","","","","","","","","","","","","","","","",""
"","","","","","html-keyboard-response","114","238577","0.0-2.0-7.0-0.7","57b60487e5b60d0001083aea","F1","batch6","","null","<p class=block-text>Trial 47 out of 78</p>","null","pattern_show_trial_num","","","","","","","","","","","","","","","","","","","","","","","","",""
"","","","","","image-keyboard-response","115","239270","0.0-2.0-7.0-1.7","57b60487e5b60d0001083aea","F1","batch6","","692.5","stim/no_44_1.png","j","pattern_response","true","j","pattern_24","692.5","true","39","","","","","","","","","","","","","","","","","","",""
"","","","","","html-keyboard-response","116","240582","0.0-2.0-7.0-0.8","57b60487e5b60d0001083aea","F1","batch6","","null","<p class=block-text>Trial 48 out of 78</p>","null","pattern_show_trial_num","","","","","","","","","","","","","","","","","","","","","","","","",""
"","","","","","image-keyboard-response","117","241462","0.0-2.0-7.0-1.8","57b60487e5b60d0001083aea","F1","batch6","","878.7000000001863","stim/yes_22_ver_w1.png","f","pattern_response","true","f","pattern_47","878.7000000001863","true","40","","","","","","","","","","","","","","","","","","",""
"","","","","","html-keyboard-response","118","242786","0.0-2.0-7.0-0.9","57b60487e5b60d0001083aea","F1","batch6","","null","<p class=block-text>Trial 49 out of 78</p>","null","pattern_show_trial_num","","","","","","","","","","","","","","","","","","","","","","","","",""
"","","","","","image-keyboard-response","119","243606","0.0-2.0-7.0-1.9","57b60487e5b60d0001083aea","F1","batch6","","819.7000000001863","stim/no_26_1_w.png","j","pattern_response","true","j","pattern_10","819.7000000001863","true","41","","","","","","","","","","","","","","","","","","",""
"","","","","","html-keyboard-response","120","244926","0.0-2.0-7.0-0.10","57b60487e5b60d0001083aea","F1","batch6","","null","<p class=block-text>Trial 50 out of 78</p>","null","pattern_show_trial_num","","","","","","","","","","","","","","","","","","","","","","","","",""
"","","","","","image-keyboard-response","121","246143","0.0-2.0-7.0-1.10","57b60487e5b60d0001083aea","F1","batch6","","1215.2000000001863","stim/yes_67_hor_b1.png","j","pattern_response","false","f","pattern_79","1215.2000000001863","false","41","","","","","","","","","","","","","","","","","","",""
"","","","","","html-keyboard-response","122","247467","0.0-2.0-7.0-0.11","57b60487e5b60d0001083aea","F1","batch6","","null","<p class=block-text>Trial 51 out of 78</p>","null","pattern_show_trial_num","","","","","","","","","","","","","","","","","","","","","","","","",""
"","","","","","image-keyboard-response","123","249142","0.0-2.0-7.0-1.11","57b60487e5b60d0001083aea","F1","batch6","","1674.6000000005588","stim/yes_37_dia_w1.png","j","pattern_response","false","f","pattern_59","1674.6000000005588","false","41","","","","","","","","","","","","","","","","","","",""
"","","","","","html-keyboard-response","124","250467","0.0-2.0-7.0-0.12","57b60487e5b60d0001083aea","F1","batch6","","null","<p class=block-text>Trial 52 out of 78</p>","null","pattern_show_trial_num","","","","","","","","","","","","","","","","","","","","","","","","",""
"","","","","","image-keyboard-response","125","251310","0.0-2.0-7.0-1.12","57b60487e5b60d0001083aea","F1","batch6","","842.5","stim/no_20_1_w.png","j","pattern_response","true","j","pattern_06","842.5","true","42","","","","","","","","","","","","","","","","","","",""
"","","","","","html-keyboard-response","126","252625","0.0-2.0-7.0-0.13","57b60487e5b60d0001083aea","F1","batch6","","null","<p class=block-text>Trial 53 out of 78</p>","null","pattern_show_trial_num","","","","","","","","","","","","","","","","","","","","","","","","",""
"","","","","","image-keyboard-response","127","253494","0.0-2.0-7.0-1.13","57b60487e5b60d0001083aea","F1","batch6","","868.2999999998137","stim/no_65_1_b.png","f","pattern_response","false","j","pattern_38","868.2999999998137","false","42","","","","","","","","","","","","","","","","","","",""
"","","","","","html-keyboard-response","128","254796","0.0-2.0-7.0-0.14","57b60487e5b60d0001083aea","F1","batch6","","null","<p class=block-text>Trial 54 out of 78</p>","null","pattern_show_trial_num","","","","","","","","","","","","","","","","","","","","","","","","",""
"","","","","","image-keyboard-response","129","255510","0.0-2.0-7.0-1.14","57b60487e5b60d0001083aea","F1","batch6","","712.8999999994412","stim/yes_35_dia_b1.png","j","pattern_response","false","f","pattern_57","712.8999999994412","false","42","","","","","","","","","","","","","","","","","","",""
"","","","","","html-keyboard-response","130","256815","0.0-2.0-7.0-0.15","57b60487e5b60d0001083aea","F1","batch6","","null","<p class=block-text>Trial 55 out of 78</p>","null","pattern_show_trial_num","","","","","","","","","","","","","","","","","","","","","","","","",""
"","","","","","image-keyboard-response","131","258502","0.0-2.0-7.0-1.15","57b60487e5b60d0001083aea","F1","batch6","","1686.5999999996275","stim/yes_52_ver_w1.png","j","pattern_response","false","f","pattern_73","1686.5999999996275","false","42","","","","","","","","","","","","","","","","","","",""
"","","","","","html-keyboard-response","132","259825","0.0-2.0-7.0-0.16","57b60487e5b60d0001083aea","F1","batch6","","null","<p class=block-text>Trial 56 out of 78</p>","null","pattern_show_trial_num","","","","","","","","","","","","","","","","","","","","","","","","",""
"","","","","","image-keyboard-response","133","260991","0.0-2.0-7.0-1.16","57b60487e5b60d0001083aea","F1","batch6","","1164.4000000003725","stim/no_55_1_w.png","j","pattern_response","true","j","pattern_34","1164.4000000003725","true","43","","","","","","","","","","","","","","","","","","",""
"","","","","","html-keyboard-response","134","262295","0.0-2.0-7.0-0.17","57b60487e5b60d0001083aea","F1","batch6","","null","<p class=block-text>Trial 57 out of 78</p>","null","pattern_show_trial_num","","","","","","","","","","","","","","","","","","","","","","","","",""
"","","","","","image-keyboard-response","135","263254","0.0-2.0-7.0-1.17","57b60487e5b60d0001083aea","F1","batch6","","958.7999999998137","stim/no_34_1_b.png","j","pattern_response","true","j","pattern_16","958.7999999998137","true","44","","","","","","","","","","","","","","","","","","",""
"","","","","","html-keyboard-response","136","264571","0.0-2.0-7.0-0.18","57b60487e5b60d0001083aea","F1","batch6","","null","<p class=block-text>Trial 58 out of 78</p>","null","pattern_show_trial_num","","","","","","","","","","","","","","","","","","","","","","","","",""
"","","","","","image-keyboard-response","137","265758","0.0-2.0-7.0-1.18","57b60487e5b60d0001083aea","F1","batch6","","1186.5","stim/yes_38_hor_b1_b.png","f","pattern_response","true","f","pattern_61","1186.5","true","45","","","","","","","","","","","","","","","","","","",""
"","","","","","html-keyboard-response","138","267071","0.0-2.0-7.0-0.19","57b60487e5b60d0001083aea","F1","batch6","","null","<p class=block-text>Trial 59 out of 78</p>","null","pattern_show_trial_num","","","","","","","","","","","","","","","","","","","","","","","","",""
"","","","","","image-keyboard-response","139","269127","0.0-2.0-7.0-1.19","57b60487e5b60d0001083aea","F1","batch6","","2054.7000000001863","stim/no_17_1_w.png","j","pattern_response","true","j","pattern_04","2054.7000000001863","true","46","","","","","","","","","","","","","","","","","","",""
"","","","","","html-keyboard-response","140","270441","0.0-2.0-7.0-0.20","57b60487e5b60d0001083aea","F1","batch6","","null","<p class=block-text>Trial 60 out of 78</p>","null","pattern_show_trial_num","","","","","","","","","","","","","","","","","","","","","","","","",""
"","","","","","image-keyboard-response","141","271375","0.0-2.0-7.0-1.20","57b60487e5b60d0001083aea","F1","batch6","","926.7000000001863","stim/yes_29_ver_w1.png","f","pattern_response","true","f","pattern_53","926.7000000001863","true","47","","","","","","","","","","","","","","","","","","",""
"","","","","","html-keyboard-response","142","272695","0.0-2.0-7.0-0.21","57b60487e5b60d0001083aea","F1","batch6","","null","<p class=block-text>Trial 61 out of 78</p>","null","pattern_show_trial_num","","","","","","","","","","","","","","","","","","","","","","","","",""
"","","","","","image-keyboard-response","143","273438","0.0-2.0-7.0-1.21","57b60487e5b60d0001083aea","F1","batch6","","741.7999999998137","stim/no_13_2_b.png","j","pattern_response","true","j","pattern_02","741.7999999998137","true","48","","","","","","","","","","","","","","","","","","",""
"","","","","","html-keyboard-response","144","274748","0.0-2.0-7.0-0.22","57b60487e5b60d0001083aea","F1","batch6","","null","<p class=block-text>Trial 62 out of 78</p>","null","pattern_show_trial_num","","","","","","","","","","","","","","","","","","","","","","","","",""
"","","","","","image-keyboard-response","145","276062","0.0-2.0-7.0-1.22","57b60487e5b60d0001083aea","F1","batch6","","1313.7999999998137","stim/yes_28_ver_b1.png","f","pattern_response","true","f","pattern_51","1313.7999999998137","true","49","","","","","","","","","","","","","","","","","","",""
"","","","","","html-keyboard-response","146","277376","0.0-2.0-7.0-0.23","57b60487e5b60d0001083aea","F1","batch6","","null","<p class=block-text>Trial 63 out of 78</p>","null","pattern_show_trial_num","","","","","","","","","","","","","","","","","","","","","","","","",""
"","","","","","image-keyboard-response","147","278198","0.0-2.0-7.0-1.23","57b60487e5b60d0001083aea","F1","batch6","","821.0999999996275","stim/yes_43_ver_w1_w.png","j","pattern_response","false","f","pattern_65","821.0999999996275","false","49","","","","","","","","","","","","","","","","","","",""
"","","","","","html-keyboard-response","148","279520","0.0-2.0-7.0-0.24","57b60487e5b60d0001083aea","F1","batch6","","null","<p class=block-text>Trial 64 out of 78</p>","null","pattern_show_trial_num","","","","","","","","","","","","","","","","","","","","","","","","",""
"","","","","","image-keyboard-response","149","280622","0.0-2.0-7.0-1.24","57b60487e5b60d0001083aea","F1","batch6","","1101.5","stim/no_52_1.png","j","pattern_response","true","j","pattern_32","1101.5","true","50","","","","","","","","","","","","","","","","","","",""
"","","","","","html-keyboard-response","150","281942","0.0-2.0-7.0-0.25","57b60487e5b60d0001083aea","F1","batch6","","null","<p class=block-text>Trial 65 out of 78</p>","null","pattern_show_trial_num","","","","","","","","","","","","","","","","","","","","","","","","",""
"","","","","","image-keyboard-response","151","282622","0.0-2.0-7.0-1.25","57b60487e5b60d0001083aea","F1","batch6","","679.2999999998137","stim/no_23_1.png","j","pattern_response","true","j","pattern_08","679.2999999998137","true","51","","","","","","","","","","","","","","","","","","",""
"","","","","","html-keyboard-response","152","283942","0.0-2.0-7.0-0.26","57b60487e5b60d0001083aea","F1","batch6","","null","<p class=block-text>Trial 66 out of 78</p>","null","pattern_show_trial_num","","","","","","","","","","","","","","","","","","","","","","","","",""
"","","","","","image-keyboard-response","153","284950","0.0-2.0-7.0-1.26","57b60487e5b60d0001083aea","F1","batch6","","1007.3999999994412","stim/yes_45_hor_b2_b.png","f","pattern_response","true","f","pattern_67","1007.3999999994412","true","52","","","","","","","","","","","","","","","","","","",""
"","","","","","html-keyboard-response","154","286257","0.0-2.0-7.0-0.27","57b60487e5b60d0001083aea","F1","batch6","","null","<p class=block-text>Trial 67 out of 78</p>","null","pattern_show_trial_num","","","","","","","","","","","","","","","","","","","","","","","","",""
"","","","","","image-keyboard-response","155","287542","0.0-2.0-7.0-1.27","57b60487e5b60d0001083aea","F1","batch6","","1284.0999999996275","stim/yes_50_dia_w1.png","f","pattern_response","true","f","pattern_71","1284.0999999996275","true","53","","","","","","","","","","","","","","","","","","",""
"","","","","","html-keyboard-response","156","288854","0.0-2.0-7.0-0.28","57b60487e5b60d0001083aea","F1","batch6","","null","<p class=block-text>Trial 68 out of 78</p>","null","pattern_show_trial_num","","","","","","","","","","","","","","","","","","","","","","","","",""
"","","","","","image-keyboard-response","157","289486","0.0-2.0-7.0-1.28","57b60487e5b60d0001083aea","F1","batch6","","631.5999999996275","stim/yes_14_hor_b1_w.png","f","pattern_response","true","f","pattern_43","631.5999999996275","true","54","","","","","","","","","","","","","","","","","","",""
"","","","","","html-keyboard-response","158","290798","0.0-2.0-7.0-0.29","57b60487e5b60d0001083aea","F1","batch6","","null","<p class=block-text>Trial 69 out of 78</p>","null","pattern_show_trial_num","","","","","","","","","","","","","","","","","","","","","","","","",""
"","","","","","image-keyboard-response","159","292110","0.0-2.0-7.0-1.29","57b60487e5b60d0001083aea","F1","batch6","","1311.5","stim/yes_60_ver_b1_b.png","j","pattern_response","false","f","pattern_77","1311.5","false","54","","","","","","","","","","","","","","","","","","",""
"","","","","","html-keyboard-response","160","293432","0.0-2.0-7.0-0.30","57b60487e5b60d0001083aea","F1","batch6","","null","<p class=block-text>Trial 70 out of 78</p>","null","pattern_show_trial_num","","","","","","","","","","","","","","","","","","","","","","","","",""
"","","","","","image-keyboard-response","161","294351","0.0-2.0-7.0-1.30","57b60487e5b60d0001083aea","F1","batch6","","917.7000000001863","stim/no_48_1_w.png","j","pattern_response","true","j","pattern_28","917.7000000001863","true","55","","","","","","","","","","","","","","","","","","",""
"","","","","","html-keyboard-response","162","295671","0.0-2.0-7.0-0.31","57b60487e5b60d0001083aea","F1","batch6","","null","<p class=block-text>Trial 71 out of 78</p>","null","pattern_show_trial_num","","","","","","","","","","","","","","","","","","","","","","","","",""
"","","","","","image-keyboard-response","163","296814","0.0-2.0-7.0-1.31","57b60487e5b60d0001083aea","F1","batch6","","1142.5","stim/no_62_1_w.png","j","pattern_response","true","j","pattern_36","1142.5","true","56","","","","","","","","","","","","","","","","","","",""
"","","","","","html-keyboard-response","164","298132","0.0-2.0-7.0-0.32","57b60487e5b60d0001083aea","F1","batch6","","null","<p class=block-text>Trial 72 out of 78</p>","null","pattern_show_trial_num","","","","","","","","","","","","","","","","","","","","","","","","",""
"","","","","","image-keyboard-response","165","299142","0.0-2.0-7.0-1.32","57b60487e5b60d0001083aea","F1","batch6","","1008.2999999998137","stim/yes_48_dia_w1_w.png","j","pattern_response","false","f","pattern_69","1008.2999999998137","false","56","","","","","","","","","","","","","","","","","","",""
"","","","","","html-keyboard-response","166","300455","0.0-2.0-7.0-0.33","57b60487e5b60d0001083aea","F1","batch6","","null","<p class=block-text>Trial 73 out of 78</p>","null","pattern_show_trial_num","","","","","","","","","","","","","","","","","","","","","","","","",""
"","","","","","image-keyboard-response","167","301606","0.0-2.0-7.0-1.33","57b60487e5b60d0001083aea","F1","batch6","","1149.7999999998137","stim/no_70_2.png","f","pattern_response","false","j","pattern_40","1149.7999999998137","false","56","","","","","","","","","","","","","","","","","","",""
"","","","","","html-keyboard-response","168","302927","0.0-2.0-7.0-0.34","57b60487e5b60d0001083aea","F1","batch6","","null","<p class=block-text>Trial 74 out of 78</p>","null","pattern_show_trial_num","","","","","","","","","","","","","","","","","","","","","","","","",""
"","","","","","image-keyboard-response","169","303774","0.0-2.0-7.0-1.34","57b60487e5b60d0001083aea","F1","batch6","","845.5999999996275","stim/yes_25_hor_b1_b.png","f","pattern_response","true","f","pattern_49","845.5999999996275","true","57","","","","","","","","","","","","","","","","","","",""
"","","","","","html-keyboard-response","170","305075","0.0-2.0-7.0-0.35","57b60487e5b60d0001083aea","F1","batch6","","null","<p class=block-text>Trial 75 out of 78</p>","null","pattern_show_trial_num","","","","","","","","","","","","","","","","","","","","","","","","",""
"","","","","","image-keyboard-response","171","305958","0.0-2.0-7.0-1.35","57b60487e5b60d0001083aea","F1","batch6","","881.5","stim/no_29_1_b.png","j","pattern_response","true","j","pattern_12","881.5","true","58","","","","","","","","","","","","","","","","","","",""
"","","","","","html-keyboard-response","172","307262","0.0-2.0-7.0-0.36","57b60487e5b60d0001083aea","F1","batch6","","null","<p class=block-text>Trial 76 out of 78</p>","null","pattern_show_trial_num","","","","","","","","","","","","","","","","","","","","","","","","",""
"","","","","","image-keyboard-response","173","308102","0.0-2.0-7.0-1.36","57b60487e5b60d0001083aea","F1","batch6","","838.4000000003725","stim/no_42_1_w.png","j","pattern_response","true","j","pattern_22","838.4000000003725","true","59","","","","","","","","","","","","","","","","","","",""
"","","","","","html-keyboard-response","174","309413","0.0-2.0-7.0-0.37","57b60487e5b60d0001083aea","F1","batch6","","null","<p class=block-text>Trial 77 out of 78</p>","null","pattern_show_trial_num","","","","","","","","","","","","","","","","","","","","","","","","",""
"","","","","","image-keyboard-response","175","310550","0.0-2.0-7.0-1.37","57b60487e5b60d0001083aea","F1","batch6","","1135.2000000001863","stim/yes_40_dia_b1_b.png","j","pattern_response","false","f","pattern_63","1135.2000000001863","false","59","","","","","","","","","","","","","","","","","","",""
"","","","","","html-keyboard-response","176","311878","0.0-2.0-7.0-0.38","57b60487e5b60d0001083aea","F1","batch6","","null","<p class=block-text>Trial 78 out of 78</p>","null","pattern_show_trial_num","","","","","","","","","","","","","","","","","","","","","","","","",""
"","","","","","image-keyboard-response","177","312902","0.0-2.0-7.0-1.38","57b60487e5b60d0001083aea","F1","batch6","","1022.9000000003725","stim/no_32_1_w.png","j","pattern_response","true","j","pattern_14","1022.9000000003725","true","60","","","","","","","","","","","","","","","","","","",""
"","","","","","html-button-response","178","317887","0.0-2.0-8.0","57b60487e5b60d0001083aea","F1","batch6","","4472.100000000559","<p class = block-text>This concludes the 4-in-a-row detection game.Thank you for your responses!<br>
            You responded correctly on 77% of the trials.<br>
            When you are ready, press ""Continue"" button to continue </p>","0","","","","","","","","","","","","","","","","","","","","","","","","","",""
"true","","","","","fullscreen","179","320262","0.0-3.0-0.0","57b60487e5b60d0001083aea","F1","batch6","","","","","","","","","","","","","","","","","","","","","","","","","","","","","",""
"","","","","","instructions","180","361959","0.0-3.0-1.0-0.0-0.0","57b60487e5b60d0001083aea","F1","batch6","[{""page_index"":0,""viewing_time"":10142.700000000186},{""page_index"":1,""viewing_time"":3768},{""page_index"":2,""viewing_time"":2512},{""page_index"":3,""viewing_time"":9240.099999999627},{""page_index"":4,""viewing_time"":4607.700000000186},{""page_index"":5,""viewing_time"":8928.099999999627},{""page_index"":6,""viewing_time"":2496.100000000559}]","41694.90000000037","","","tol-instructions","","","","","","","","","","","","","","","","","","","","","","","","",""
"","","","","","html-button-response","181","362926","0.0-3.0-1.0-1.0-0.0","57b60487e5b60d0001083aea","F1","batch6","","966.8999999994412","<p class=block-text> Let's answer a few questions <br>","0","tol_enter_quiz","","","","","","","","","","","","","","","","","","","","","","","","",""
"","","","","","html-button-response","182","366806","0.0-3.0-1.0-1.0-1.0","57b60487e5b60d0001083aea","F1","batch6","","3879.2999999998137","<p class = block-text>True or False: You can only move the ball on top of a peg. <br></p>","0","tol_quiz","true","","","","","","","","","","","","","","","","","","","","","","","",""
"","","","","","html-button-response","183","367126","0.0-3.0-1.0-1.0-2.0","57b60487e5b60d0001083aea","F1","batch6","","319.3999999994412","<p class = block-text>Correct! You can only move the ball on top of a peg.</p>","0","tol_quiz_feedback","","","","","","","","","","","","","","","","","","","","","","","","",""
"","","","","","html-button-response","184","369742","0.0-3.0-1.0-1.0-3.0","57b60487e5b60d0001083aea","F1","batch6","","2615.5","<p class = block-text>True or False: You should try to match your board with the target board with fewest moves possible. <br></p>","0","tol_quiz","true","","","","","","","","","","","","","","","","","","","","","","","",""
"","","","","","html-button-response","185","370310","0.0-3.0-1.0-1.0-4.0","57b60487e5b60d0001083aea","F1","batch6","","567.2000000001863","<p class = block-text>Correct! </p>","0","tol_quiz_feedback","","","","","","","","","","","","","","","","","","","","","","","","",""
"","","","","","html-button-response","186","371551","0.0-3.0-2.0","57b60487e5b60d0001083aea","F1","batch6","","1239.7000000001863","<p class=block-text> Now that you've understood the game, let's practice a few easier examples before we start!<br> <br>","0","","","","","","","","","","","","","","","","","","","","","","","","","",""
"","","","","","single-stim-button","187","374272","0.0-3.0-3.0-0.0","57b60487e5b60d0001083aea","F1","batch6","","2720","","","tol_practice","","","","","","","","","tol_peg_2","2720","2720","0","[[1,2,0],[0,0],[0]]","1","[[1,2,0],[0,0],[3]]","practice","2720","","","","","","","",""
"","","","","","single-stim-button","188","376070","0.0-3.0-3.0-1.0","57b60487e5b60d0001083aea","F1","batch6","","1798","","","tol_practice","","","","","","","","","tol_peg_3","1798","1798","0","[[1,2,0],[0,0],[3]]","1","[[1,2,0],[0,0],[3]]","practice","1798","","","","","","","",""
"","","","","","poldrack-single-stim","189","377088","0.0-3.0-4.0","57b60487e5b60d0001083aea","F1","batch6","","-1","","","tol_feedback","true","","","","","","","","","1000","1000","500","","","","","","-1","none","true","","0","","",""
"","","","","","single-stim-button","190","380183","0.0-3.0-5.0-0.0","57b60487e5b60d0001083aea","F1","batch6","","3094","","","tol_practice","","","","","","","","","tol_peg_1","3094","3094","0","[[1,0,0],[3,0],[0]]","2","[[0,0,0],[3,1],[2]]","practice","3094","","","","","","","",""
"","","","","","single-stim-button","191","381575","0.0-3.0-5.0-1.0","57b60487e5b60d0001083aea","F1","batch6","","1391","","","tol_practice","","","","","","","","","tol_peg_3","1391","1391","0","[[1,0,0],[3,0],[2]]","2","[[0,0,0],[3,1],[2]]","practice","1391","","","","","","","",""
"","","","","","single-stim-button","192","383487","0.0-3.0-5.1-0.1","57b60487e5b60d0001083aea","F1","batch6","","1911","","","tol_practice","","","","","","","","","tol_peg_1","1911","1911","0","[[0,0,0],[3,0],[2]]","3","[[0,0,0],[3,1],[2]]","practice","1911","","","","","","","",""
"","","","","","single-stim-button","193","384927","0.0-3.0-5.1-1.1","57b60487e5b60d0001083aea","F1","batch6","","1439","","","tol_practice","","","","","","","","","tol_peg_2","1439","1439","0","[[0,0,0],[3,1],[2]]","3","[[0,0,0],[3,1],[2]]","practice","1439","","","","","","","",""
"","","","","","poldrack-single-stim","194","385940","0.0-3.0-6.0","57b60487e5b60d0001083aea","F1","batch6","","-1","","","tol_feedback","true","","","","","","","","","1000","1000","500","","","","","","-1","none","true","","0","","",""
"","","","","","single-stim-button","195","388631","0.0-3.0-7.0-0.0","57b60487e5b60d0001083aea","F1","batch6","","2691","","","tol_practice","","","","","","","","","tol_peg_2","2691","2691","0","[[1,2,0],[0,0],[0]]","4","[[1,0,0],[2,0],[3]]","practice","2691","","","","","","","",""
"","","","","","single-stim-button","196","389311","0.0-3.0-7.0-1.0","57b60487e5b60d0001083aea","F1","batch6","","680","","","tol_practice","","","","","","","","","tol_peg_3","680","680","0","[[1,2,0],[0,0],[3]]","4","[[1,0,0],[2,0],[3]]","practice","680","","","","","","","",""
"","","","","","single-stim-button","197","390047","0.0-3.0-7.1-0.1","57b60487e5b60d0001083aea","F1","batch6","","735","","","tol_practice","","","","","","","","","tol_peg_1","735","735","0","[[1,0,0],[0,0],[3]]","5","[[1,0,0],[2,0],[3]]","practice","735","","","","","","","",""
"","","","","","single-stim-button","198","390950","0.0-3.0-7.1-1.1","57b60487e5b60d0001083aea","F1","batch6","","903","","","tol_practice","","","","","","","","","tol_peg_2","903","903","0","[[1,0,0],[2,0],[3]]","5","[[1,0,0],[2,0],[3]]","practice","903","","","","","","","",""
"","","","","","poldrack-single-stim","199","391965","0.0-3.0-8.0","57b60487e5b60d0001083aea","F1","batch6","","-1","","","tol_feedback","true","","","","","","","","","1000","1000","500","","","","","","-1","none","true","","0","","",""
"","","","","","html-button-response","200","406599","0.0-3.0-9.0","57b60487e5b60d0001083aea","F1","batch6","","14633.299999999814","<div class = centerbox><p class = center-block-text>Great job! You are done with practice trials<br>You are about to start official trials.<br> <br> Problem <strong>1</strong> out of 25 problems</p></div>","0","tol_instruction","","","","","","","","","","","","","","","","","","","","","","","","",""
"","","","","","single-stim-button","201","410663","0.0-3.0-10.0-0.0","57b60487e5b60d0001083aea","F1","batch6","","3061","","","tol_tohand","","","","","","","","","tol_peg_1","3061","3061","0","[[1,0,0],[3,0],[0]]","1","[[1,3,0],[2,0],[0]]","0","0","","","","","","3","",""
"","","","","","single-stim-button","202","411711","0.0-3.0-10.0-1.0","57b60487e5b60d0001083aea","F1","batch6","","1048","","","tol_toboard","","","","","","","","","tol_peg_3","1048","1048","0","[[1,0,0],[3,0],[2]]","1","[[1,3,0],[2,0],[0]]","0","0","","","","","","3","",""
"","","","","","single-stim-button","203","412143","0.0-3.0-10.1-0.1","57b60487e5b60d0001083aea","F1","batch6","","432","","","tol_tohand","","","","","","","","","tol_peg_2","432","432","0","[[1,0,0],[0,0],[2]]","2","[[1,3,0],[2,0],[0]]","0","0","","","","","","3","",""
"","","","","","single-stim-button","204","412703","0.0-3.0-10.1-1.1","57b60487e5b60d0001083aea","F1","batch6","","559","","","tol_toboard","","","","","","","","","tol_peg_1","559","559","0","[[1,3,0],[0,0],[2]]","2","[[1,3,0],[2,0],[0]]","0","0","","","","","","3","",""
"","","","","","single-stim-button","205","413415","0.0-3.0-10.2-0.2","57b60487e5b60d0001083aea","F1","batch6","","711","","","tol_tohand","","","","","","","","","tol_peg_3","711","711","0","[[1,3,0],[0,0],[0]]","3","[[1,3,0],[2,0],[0]]","0","0","","","","","","3","",""
"","","","","","single-stim-button","206","413863","0.0-3.0-10.2-1.2","57b60487e5b60d0001083aea","F1","batch6","","447","","","tol_toboard","","","","","","","","","tol_peg_2","447","447","0","[[1,3,0],[2,0],[0]]","3","[[1,3,0],[2,0],[0]]","0","0","","","","","","3","",""
"","","","","","poldrack-single-stim","207","414864","0.0-3.0-11.0","57b60487e5b60d0001083aea","F1","batch6","","-1","","","tol_feedback","true","","","","","","","","","1000","1000","500","","","","","","-1","none","true","3061","4204","","",""
"","","","","","html-button-response","208","415815","0.0-3.0-12.0","57b60487e5b60d0001083aea","F1","batch6","","950.1000000005588","<div class = centerbox><p class = center-block-text>problem <strong>2</strong> out of 25 problems</p></div>","0","tol_trial_num","","","","","","","","","","","","","","","","","","","","","","","","",""
"","","","","","single-stim-button","209","418639","0.0-3.0-13.0-0.0","57b60487e5b60d0001083aea","F1","batch6","","2824","","","tol_tohand","","","","","","","","","tol_peg_1","2824","2824","0","[[1,0,0],[3,0],[0]]","1","[[2,1,3],[0,0],[0]]","1","0","","","","","","5","",""
"","","","","","single-stim-button","210","420295","0.0-3.0-13.0-1.0","57b60487e5b60d0001083aea","F1","batch6","","1656","","","tol_toboard","","","","","","","","","tol_peg_3","1656","1656","0","[[1,0,0],[3,0],[2]]","1","[[2,1,3],[0,0],[0]]","1","0","","","","","","5","",""
"","","","","","single-stim-button","211","420911","0.0-3.0-13.1-0.1","57b60487e5b60d0001083aea","F1","batch6","","616","","","tol_tohand","","","","","","","","","tol_peg_1","616","616","0","[[0,0,0],[3,0],[2]]","2","[[2,1,3],[0,0],[0]]","1","0","","","","","","5","",""
"","","","","","single-stim-button","212","421607","0.0-3.0-13.1-1.1","57b60487e5b60d0001083aea","F1","batch6","","696","","","tol_toboard","","","","","","","","","tol_peg_2","696","696","0","[[0,0,0],[3,1],[2]]","2","[[2,1,3],[0,0],[0]]","1","0","","","","","","5","",""
"","","","","","single-stim-button","213","422055","0.0-3.0-13.2-0.2","57b60487e5b60d0001083aea","F1","batch6","","447","","","tol_tohand","","","","","","","","","tol_peg_3","447","447","0","[[0,0,0],[3,1],[0]]","3","[[2,1,3],[0,0],[0]]","1","0","","","","","","5","",""
"","","","","","single-stim-button","214","422551","0.0-3.0-13.2-1.2","57b60487e5b60d0001083aea","F1","batch6","","495","","","tol_toboard","","","","","","","","","tol_peg_1","495","495","0","[[2,0,0],[3,1],[0]]","3","[[2,1,3],[0,0],[0]]","1","0","","","","","","5","",""
"","","","","","single-stim-button","215","423143","0.0-3.0-13.3-0.3","57b60487e5b60d0001083aea","F1","batch6","","591","","","tol_tohand","","","","","","","","","tol_peg_2","591","591","0","[[2,0,0],[3,0],[0]]","4","[[2,1,3],[0,0],[0]]","1","0","","","","","","5","",""
"","","","","","single-stim-button","216","423871","0.0-3.0-13.3-1.3","57b60487e5b60d0001083aea","F1","batch6","","727","","","tol_toboard","","","","","","","","","tol_peg_1","727","727","0","[[2,1,0],[3,0],[0]]","4","[[2,1,3],[0,0],[0]]","1","0","","","","","","5","",""
"","","","","","single-stim-button","217","424335","0.0-3.0-13.4-0.4","57b60487e5b60d0001083aea","F1","batch6","","463","","","tol_tohand","","","","","","","","","tol_peg_2","463","463","0","[[2,1,0],[0,0],[0]]","5","[[2,1,3],[0,0],[0]]","1","0","","","","","","5","",""
"","","","","","single-stim-button","218","424679","0.0-3.0-13.4-1.4","57b60487e5b60d0001083aea","F1","batch6","","344","","","tol_toboard","","","","","","","","","tol_peg_1","344","344","0","[[2,1,3],[0,0],[0]]","5","[[2,1,3],[0,0],[0]]","1","0","","","","","","5","",""
"","","","","","poldrack-single-stim","219","425680","0.0-3.0-14.0","57b60487e5b60d0001083aea","F1","batch6","","-1","","","tol_feedback","true","","","","","","","","","1000","1000","500","","","","","","-1","none","true","2824","4941","","",""
"","","","","","html-button-response","220","426942","0.0-3.0-15.0","57b60487e5b60d0001083aea","F1","batch6","","1261.6000000005588","<div class = centerbox><p class = center-block-text>problem <strong>3</strong> out of 25 problems</p></div>","0","tol_trial_num","","","","","","","","","","","","","","","","","","","","","","","","",""
"","","","","","single-stim-button","221","429431","0.0-3.0-16.0-0.0","57b60487e5b60d0001083aea","F1","batch6","","2487","","","tol_tohand","","","","","","","","","tol_peg_1","2487","2487","0","[[2,0,0],[0,0],[1]]","1","[[1,2,0],[3,0],[0]]","2","0","","","","","","4","",""
"","","","","","single-stim-button","222","430903","0.0-3.0-16.0-1.0","57b60487e5b60d0001083aea","F1","batch6","","1472","","","tol_toboard","","","","","","","","","tol_peg_2","1472","1472","0","[[2,0,0],[3,0],[1]]","1","[[1,2,0],[3,0],[0]]","2","0","","","","","","4","",""
"","","","","","single-stim-button","223","431487","0.0-3.0-16.1-0.1","57b60487e5b60d0001083aea","F1","batch6","","584","","","tol_tohand","","","","","","","","","tol_peg_3","584","584","0","[[2,0,0],[3,0],[0]]","2","[[1,2,0],[3,0],[0]]","2","0","","","","","","4","",""
"","","","","","single-stim-button","224","432863","0.0-3.0-16.1-1.1","57b60487e5b60d0001083aea","F1","batch6","","1375","","","tol_toboard","","","","","","","","","tol_peg_2","1375","1375","0","[[2,0,0],[3,1],[0]]","2","[[1,2,0],[3,0],[0]]","2","0","","","","","","4","",""
"","","","","","single-stim-button","225","433567","0.0-3.0-16.2-0.2","57b60487e5b60d0001083aea","F1","batch6","","703","","","tol_tohand","","","","","","","","","tol_peg_1","703","703","0","[[0,0,0],[3,1],[0]]","3","[[1,2,0],[3,0],[0]]","2","0","","","","","","4","",""
"","","","","","single-stim-button","226","434303","0.0-3.0-16.2-1.2","57b60487e5b60d0001083aea","F1","batch6","","736","","","tol_toboard","","","","","","","","","tol_peg_3","736","736","0","[[0,0,0],[3,1],[2]]","3","[[1,2,0],[3,0],[0]]","2","0","","","","","","4","",""
"","","","","","single-stim-button","227","434943","0.0-3.0-16.3-0.3","57b60487e5b60d0001083aea","F1","batch6","","639","","","tol_tohand","","","","","","","","","tol_peg_2","639","639","0","[[0,0,0],[3,0],[2]]","4","[[1,2,0],[3,0],[0]]","2","0","","","","","","4","",""
"","","","","","single-stim-button","228","435447","0.0-3.0-16.3-1.3","57b60487e5b60d0001083aea","F1","batch6","","503","","","tol_toboard","","","","","","","","","tol_peg_1","503","503","0","[[1,0,0],[3,0],[2]]","4","[[1,2,0],[3,0],[0]]","2","0","","","","","","4","",""
"","","","","","single-stim-button","229","436239","0.0-3.0-16.4-0.4","57b60487e5b60d0001083aea","F1","batch6","","791","","","tol_tohand","","","","","","","","","tol_peg_3","791","791","0","[[1,0,0],[3,0],[0]]","5","[[1,2,0],[3,0],[0]]","2","0","","","","","","4","",""
"","","","","","single-stim-button","230","437007","0.0-3.0-16.4-1.4","57b60487e5b60d0001083aea","F1","batch6","","768","","","tol_toboard","","","","","","","","","tol_peg_1","768","768","0","[[1,2,0],[3,0],[0]]","5","[[1,2,0],[3,0],[0]]","2","0","","","","","","4","",""
"","","","","","poldrack-single-stim","231","438011","0.0-3.0-17.0","57b60487e5b60d0001083aea","F1","batch6","","-1","","","tol_feedback","true","","","","","","","","","1000","1000","500","","","","","","-1","none","true","2487","5204","","",""
"","","","","","html-button-response","232","439023","0.0-3.0-18.0","57b60487e5b60d0001083aea","F1","batch6","","1011.3999999994412","<div class = centerbox><p class = center-block-text>problem <strong>4</strong> out of 25 problems</p></div>","0","tol_trial_num","","","","","","","","","","","","","","","","","","","","","","","","",""
"","","","","","single-stim-button","233","441663","0.0-3.0-19.0-0.0","57b60487e5b60d0001083aea","F1","batch6","","2640","","","tol_tohand","","","","","","","","","tol_peg_2","2640","2640","0","[[3,0,0],[2,0],[0]]","1","[[3,0,0],[1,0],[2]]","3","0","","","","","","3","",""
"","","","","","single-stim-button","234","442359","0.0-3.0-19.0-1.0","57b60487e5b60d0001083aea","F1","batch6","","696","","","tol_toboard","","","","","","","","","tol_peg_1","696","696","0","[[3,1,0],[2,0],[0]]","1","[[3,0,0],[1,0],[2]]","3","0","","","","","","3","",""
"","","","","","single-stim-button","235","442975","0.0-3.0-19.1-0.1","57b60487e5b60d0001083aea","F1","batch6","","616","","","tol_tohand","","","","","","","","","tol_peg_2","616","616","0","[[3,1,0],[0,0],[0]]","2","[[3,0,0],[1,0],[2]]","3","0","","","","","","3","",""
"","","","","","single-stim-button","236","443439","0.0-3.0-19.1-1.1","57b60487e5b60d0001083aea","F1","batch6","","463","","","tol_toboard","","","","","","","","","tol_peg_3","463","463","0","[[3,1,0],[0,0],[2]]","2","[[3,0,0],[1,0],[2]]","3","0","","","","","","3","",""
"","","","","","single-stim-button","237","443983","0.0-3.0-19.2-0.2","57b60487e5b60d0001083aea","F1","batch6","","543","","","tol_tohand","","","","","","","","","tol_peg_1","543","543","0","[[3,0,0],[0,0],[2]]","3","[[3,0,0],[1,0],[2]]","3","0","","","","","","3","",""
"","","","","","single-stim-button","238","444391","0.0-3.0-19.2-1.2","57b60487e5b60d0001083aea","F1","batch6","","407","","","tol_toboard","","","","","","","","","tol_peg_2","407","407","0","[[3,0,0],[1,0],[2]]","3","[[3,0,0],[1,0],[2]]","3","0","","","","","","3","",""
"","","","","","poldrack-single-stim","239","445397","0.0-3.0-20.0","57b60487e5b60d0001083aea","F1","batch6","","-1","","","tol_feedback","true","","","","","","","","","1000","1000","500","","","","","","-1","none","true","2640","3799","","",""
"","","","","","html-button-response","240","446271","0.0-3.0-21.0","57b60487e5b60d0001083aea","F1","batch6","","873","<div class = centerbox><p class = center-block-text>problem <strong>5</strong> out of 25 problems</p></div>","0","tol_trial_num","","","","","","","","","","","","","","","","","","","","","","","","",""
"","","","","","single-stim-button","241","454367","0.0-3.0-22.0-0.0","57b60487e5b60d0001083aea","F1","batch6","","8095","","","tol_tohand","","","","","","","","","tol_peg_1","8095","8095","0","[[0,0,0],[2,0],[3]]","1","[[0,0,0],[1,2],[3]]","4","0","","","","","","7","",""
"","","","","","single-stim-button","242","455015","0.0-3.0-22.0-1.0","57b60487e5b60d0001083aea","F1","batch6","","647","","","tol_toboard","","","","","","","","","tol_peg_2","647","647","0","[[0,0,0],[2,1],[3]]","1","[[0,0,0],[1,2],[3]]","4","0","","","","","","7","",""
"","","","","","single-stim-button","243","455447","0.0-3.0-22.1-0.1","57b60487e5b60d0001083aea","F1","batch6","","432","","","tol_tohand","","","","","","","","","tol_peg_3","432","432","0","[[0,0,0],[2,1],[0]]","2","[[0,0,0],[1,2],[3]]","4","0","","","","","","7","",""
"","","","","","single-stim-button","244","456303","0.0-3.0-22.1-1.1","57b60487e5b60d0001083aea","F1","batch6","","855","","","tol_toboard","","","","","","","","","tol_peg_1","855","855","0","[[3,0,0],[2,1],[0]]","2","[[0,0,0],[1,2],[3]]","4","0","","","","","","7","",""
"","","","","","single-stim-button","245","459270","0.0-3.0-22.2-0.2","57b60487e5b60d0001083aea","F1","batch6","","2967","","","tol_tohand","","","","","","","","","tol_peg_2","2967","2967","0","[[3,0,0],[2,0],[0]]","3","[[0,0,0],[1,2],[3]]","4","0","","","","","","7","",""
"","","","","","single-stim-button","246","459783","0.0-3.0-22.2-1.2","57b60487e5b60d0001083aea","F1","batch6","","512","","","tol_toboard","","","","","","","","","tol_peg_3","512","512","0","[[3,0,0],[2,0],[1]]","3","[[0,0,0],[1,2],[3]]","4","0","","","","","","7","",""
"","","","","","single-stim-button","247","460295","0.0-3.0-22.3-0.3","57b60487e5b60d0001083aea","F1","batch6","","511","","","tol_tohand","","","","","","","","","tol_peg_2","511","511","0","[[3,0,0],[0,0],[1]]","4","[[0,0,0],[1,2],[3]]","4","0","","","","","","7","",""
"","","","","","single-stim-button","248","460911","0.0-3.0-22.3-1.3","57b60487e5b60d0001083aea","F1","batch6","","615","","","tol_toboard","","","","","","","","","tol_peg_1","615","615","0","[[3,2,0],[0,0],[1]]","4","[[0,0,0],[1,2],[3]]","4","0","","","","","","7","",""
"","","","","","single-stim-button","249","461487","0.0-3.0-22.4-0.4","57b60487e5b60d0001083aea","F1","batch6","","576","","","tol_tohand","","","","","","","","","tol_peg_3","576","576","0","[[3,2,0],[0,0],[0]]","5","[[0,0,0],[1,2],[3]]","4","0","","","","","","7","",""
"","","","","","single-stim-button","250","461992","0.0-3.0-22.4-1.4","57b60487e5b60d0001083aea","F1","batch6","","504","","","tol_toboard","","","","","","","","","tol_peg_2","504","504","0","[[3,2,0],[1,0],[0]]","5","[[0,0,0],[1,2],[3]]","4","0","","","","","","7","",""
"","","","","","single-stim-button","251","462687","0.0-3.0-22.5-0.5","57b60487e5b60d0001083aea","F1","batch6","","695","","","tol_tohand","","","","","","","","","tol_peg_1","695","695","0","[[3,0,0],[1,0],[0]]","6","[[0,0,0],[1,2],[3]]","4","0","","","","","","7","",""
"","","","","","single-stim-button","252","463063","0.0-3.0-22.5-1.5","57b60487e5b60d0001083aea","F1","batch6","","376","","","tol_toboard","","","","","","","","","tol_peg_2","376","376","0","[[3,0,0],[1,2],[0]]","6","[[0,0,0],[1,2],[3]]","4","0","","","","","","7","",""
"","","","","","single-stim-button","253","463623","0.0-3.0-22.6-0.6","57b60487e5b60d0001083aea","F1","batch6","","560","","","tol_tohand","","","","","","","","","tol_peg_1","560","560","0","[[0,0,0],[1,2],[0]]","7","[[0,0,0],[1,2],[3]]","4","0","","","","","","7","",""
"","","","","","single-stim-button","254","464575","0.0-3.0-22.6-1.6","57b60487e5b60d0001083aea","F1","batch6","","952","","","tol_toboard","","","","","","","","","tol_peg_3","952","952","0","[[0,0,0],[1,2],[3]]","7","[[0,0,0],[1,2],[3]]","4","0","","","","","","7","",""
"","","","","","poldrack-single-stim","255","465579","0.0-3.0-23.0","57b60487e5b60d0001083aea","F1","batch6","","-1","","","tol_feedback","true","","","","","","","","","1000","1000","500","","","","","","-1","none","true","8095","13836","","",""
"","","","","","html-button-response","256","466439","0.0-3.0-24.0","57b60487e5b60d0001083aea","F1","batch6","","859","<div class = centerbox><p class = center-block-text>problem <strong>6</strong> out of 25 problems</p></div>","0","tol_trial_num","","","","","","","","","","","","","","","","","","","","","","","","",""
"","","","","","single-stim-button","257","469583","0.0-3.0-25.0-0.0","57b60487e5b60d0001083aea","F1","batch6","","3144","","","tol_tohand","","","","","","","","","tol_peg_2","3144","3144","0","[[0,0,0],[1,0],[3]]","1","[[1,0,0],[2,3],[0]]","5","0","","","","","","6","",""
"","","","","","single-stim-button","258","471591","0.0-3.0-25.0-1.0","57b60487e5b60d0001083aea","F1","batch6","","2007","","","tol_toboard","","","","","","","","","tol_peg_1","2007","2007","0","[[2,0,0],[1,0],[3]]","1","[[1,0,0],[2,3],[0]]","5","0","","","","","","6","",""
"","","","","","single-stim-button","259","474567","0.0-3.0-25.1-0.1","57b60487e5b60d0001083aea","F1","batch6","","2976","","","tol_tohand","","","","","","","","","tol_peg_3","2976","2976","0","[[2,0,0],[1,0],[0]]","2","[[1,0,0],[2,3],[0]]","5","0","","","","","","6","",""
"","","","","","single-stim-button","260","475751","0.0-3.0-25.1-1.1","57b60487e5b60d0001083aea","F1","batch6","","1183","","","tol_toboard","","","","","","","","","tol_peg_1","1183","1183","0","[[2,3,0],[1,0],[0]]","2","[[1,0,0],[2,3],[0]]","5","0","","","","","","6","",""
"","","","","","single-stim-button","261","476575","0.0-3.0-25.2-0.2","57b60487e5b60d0001083aea","F1","batch6","","824","","","tol_tohand","","","","","","","","","tol_peg_2","824","824","0","[[2,3,0],[0,0],[0]]","3","[[1,0,0],[2,3],[0]]","5","0","","","","","","6","",""
"","","","","","single-stim-button","262","477119","0.0-3.0-25.2-1.2","57b60487e5b60d0001083aea","F1","batch6","","544","","","tol_toboard","","","","","","","","","tol_peg_3","544","544","0","[[2,3,0],[0,0],[1]]","3","[[1,0,0],[2,3],[0]]","5","0","","","","","","6","",""
"","","","","","single-stim-button","263","479543","0.0-3.0-25.3-0.3","57b60487e5b60d0001083aea","F1","batch6","","2423","","","tol_tohand","","","","","","","","","tol_peg_1","2423","2423","0","[[2,0,0],[0,0],[1]]","4","[[1,0,0],[2,3],[0]]","5","0","","","","","","6","",""
"","","","","","single-stim-button","264","480367","0.0-3.0-25.3-1.3","57b60487e5b60d0001083aea","F1","batch6","","823","","","tol_toboard","","","","","","","","","tol_peg_2","823","823","0","[[2,0,0],[3,0],[1]]","4","[[1,0,0],[2,3],[0]]","5","0","","","","","","6","",""
"","","","","","single-stim-button","265","481078","0.0-3.0-25.4-0.4","57b60487e5b60d0001083aea","F1","batch6","","711","","","tol_tohand","","","","","","","","","tol_peg_1","711","711","0","[[0,0,0],[3,0],[1]]","5","[[1,0,0],[2,3],[0]]","5","0","","","","","","6","",""
"","","","","","single-stim-button","266","481639","0.0-3.0-25.4-1.4","57b60487e5b60d0001083aea","F1","batch6","","560","","","tol_toboard","","","","","","","","","tol_peg_2","560","560","0","[[0,0,0],[3,2],[1]]","5","[[1,0,0],[2,3],[0]]","5","0","","","","","","6","",""
"","","","","","single-stim-button","267","482215","0.0-3.0-25.5-0.5","57b60487e5b60d0001083aea","F1","batch6","","575","","","tol_tohand","","","","","","","","","tol_peg_3","575","575","0","[[0,0,0],[3,2],[0]]","6","[[1,0,0],[2,3],[0]]","5","0","","","","","","6","",""
"","","","","","single-stim-button","268","483023","0.0-3.0-25.5-1.5","57b60487e5b60d0001083aea","F1","batch6","","807","","","tol_toboard","","","","","","","","","tol_peg_1","807","807","0","[[1,0,0],[3,2],[0]]","6","[[1,0,0],[2,3],[0]]","5","0","","","","","","6","",""
"","","","","","single-stim-button","269","483895","0.0-3.0-25.6-0.6","57b60487e5b60d0001083aea","F1","batch6","","871","","","tol_tohand","","","","","","","","","tol_peg_2","871","871","0","[[1,0,0],[3,0],[0]]","7","[[1,0,0],[2,3],[0]]","5","0","","","","","","6","",""
"","","","","","single-stim-button","270","486919","0.0-3.0-25.6-1.6","57b60487e5b60d0001083aea","F1","batch6","","3023","","","tol_toboard","","","","","","","","","tol_peg_1","3023","3023","0","[[1,2,0],[3,0],[0]]","7","[[1,0,0],[2,3],[0]]","5","0","","","","","","6","",""
"","","","","","single-stim-button","271","487631","0.0-3.0-25.7-0.7","57b60487e5b60d0001083aea","F1","batch6","","711","","","tol_tohand","","","","","","","","","tol_peg_2","711","711","0","[[1,2,0],[0,0],[0]]","8","[[1,0,0],[2,3],[0]]","5","0","","","","","","6","",""
"","","","","","single-stim-button","272","488654","0.0-3.0-25.7-1.7","57b60487e5b60d0001083aea","F1","batch6","","1023","","","tol_toboard","","","","","","","","","tol_peg_3","1023","1023","0","[[1,2,0],[0,0],[3]]","8","[[1,0,0],[2,3],[0]]","5","0","","","","","","6","",""
"","","","","","single-stim-button","273","489271","0.0-3.0-25.8-0.8","57b60487e5b60d0001083aea","F1","batch6","","615","","","tol_tohand","","","","","","","","","tol_peg_1","615","615","0","[[1,0,0],[0,0],[3]]","9","[[1,0,0],[2,3],[0]]","5","0","","","","","","6","",""
"","","","","","single-stim-button","274","489847","0.0-3.0-25.8-1.8","57b60487e5b60d0001083aea","F1","batch6","","576","","","tol_toboard","","","","","","","","","tol_peg_2","576","576","0","[[1,0,0],[2,0],[3]]","9","[[1,0,0],[2,3],[0]]","5","0","","","","","","6","",""
"","","","","","single-stim-button","275","490839","0.0-3.0-25.9-0.9","57b60487e5b60d0001083aea","F1","batch6","","991","","","tol_tohand","","","","","","","","","tol_peg_3","991","991","0","[[1,0,0],[2,0],[0]]","10","[[1,0,0],[2,3],[0]]","5","0","","","","","","6","",""
"","","","","","single-stim-button","276","491615","0.0-3.0-25.9-1.9","57b60487e5b60d0001083aea","F1","batch6","","775","","","tol_toboard","","","","","","","","","tol_peg_2","775","775","0","[[1,0,0],[2,3],[0]]","10","[[1,0,0],[2,3],[0]]","5","0","","","","","","6","",""
"","","","","","poldrack-single-stim","277","492631","0.0-3.0-26.0","57b60487e5b60d0001083aea","F1","batch6","","-1","","","tol_feedback","true","","","","","","","","","1000","1000","500","","","","","","-1","none","true","3144","13841","","",""
"","","","","","html-button-response","278","494608","0.0-3.0-27.0","57b60487e5b60d0001083aea","F1","batch6","","1975","<div class = centerbox><p class = center-block-text>problem <strong>7</strong> out of 25 problems</p></div>","0","tol_trial_num","","","","","","","","","","","","","","","","","","","","","","","","",""
"","","","","","single-stim-button","279","497807","0.0-3.0-28.0-0.0","57b60487e5b60d0001083aea","F1","batch6","","3198","","","tol_tohand","","","","","","","","","tol_peg_1","3198","3198","0","[[2,0,0],[0,0],[3]]","1","[[1,2,0],[3,0],[0]]","6","0","","","","","","5","",""
"","","","","","single-stim-button","280","498431","0.0-3.0-28.0-1.0","57b60487e5b60d0001083aea","F1","batch6","","623","","","tol_toboard","","","","","","","","","tol_peg_2","623","623","0","[[2,0,0],[1,0],[3]]","1","[[1,2,0],[3,0],[0]]","6","0","","","","","","5","",""
"","","","","","single-stim-button","281","499023","0.0-3.0-28.1-0.1","57b60487e5b60d0001083aea","F1","batch6","","591","","","tol_tohand","","","","","","","","","tol_peg_1","591","591","0","[[0,0,0],[1,0],[3]]","2","[[1,2,0],[3,0],[0]]","6","0","","","","","","5","",""
"","","","","","single-stim-button","282","499535","0.0-3.0-28.1-1.1","57b60487e5b60d0001083aea","F1","batch6","","511","","","tol_toboard","","","","","","","","","tol_peg_2","511","511","0","[[0,0,0],[1,2],[3]]","2","[[1,2,0],[3,0],[0]]","6","0","","","","","","5","",""
"","","","","","single-stim-button","283","500151","0.0-3.0-28.2-0.2","57b60487e5b60d0001083aea","F1","batch6","","615","","","tol_tohand","","","","","","","","","tol_peg_3","615","615","0","[[0,0,0],[1,2],[0]]","3","[[1,2,0],[3,0],[0]]","6","0","","","","","","5","",""
"","","","","","single-stim-button","284","500815","0.0-3.0-28.2-1.2","57b60487e5b60d0001083aea","F1","batch6","","664","","","tol_toboard","","","","","","","","","tol_peg_1","664","664","0","[[3,0,0],[1,2],[0]]","3","[[1,2,0],[3,0],[0]]","6","0","","","","","","5","",""
"","","","","","single-stim-button","285","501350","0.0-3.0-28.3-0.3","57b60487e5b60d0001083aea","F1","batch6","","535","","","tol_tohand","","","","","","","","","tol_peg_2","535","535","0","[[3,0,0],[1,0],[0]]","4","[[1,2,0],[3,0],[0]]","6","0","","","","","","5","",""
"","","","","","single-stim-button","286","501991","0.0-3.0-28.3-1.3","57b60487e5b60d0001083aea","F1","batch6","","639","","","tol_toboard","","","","","","","","","tol_peg_3","639","639","0","[[3,0,0],[1,0],[2]]","4","[[1,2,0],[3,0],[0]]","6","0","","","","","","5","",""
"","","","","","single-stim-button","287","505439","0.0-3.0-28.4-0.4","57b60487e5b60d0001083aea","F1","batch6","","3447","","","tol_tohand","","","","","","","","","tol_peg_3","3447","3447","0","[[3,0,0],[1,0],[0]]","5","[[1,2,0],[3,0],[0]]","6","0","","","","","","5","",""
"","","","","","single-stim-button","288","506815","0.0-3.0-28.4-1.4","57b60487e5b60d0001083aea","F1","batch6","","1375","","","tol_toboard","","","","","","","","","tol_peg_2","1375","1375","0","[[3,0,0],[1,2],[0]]","5","[[1,2,0],[3,0],[0]]","6","0","","","","","","5","",""
"","","","","","single-stim-button","289","507319","0.0-3.0-28.5-0.5","57b60487e5b60d0001083aea","F1","batch6","","503","","","tol_tohand","","","","","","","","","tol_peg_1","503","503","0","[[0,0,0],[1,2],[0]]","6","[[1,2,0],[3,0],[0]]","6","0","","","","","","5","",""
"","","","","","single-stim-button","290","508542","0.0-3.0-28.5-1.5","57b60487e5b60d0001083aea","F1","batch6","","1222","","","tol_toboard","","","","","","","","","tol_peg_3","1222","1222","0","[[0,0,0],[1,2],[3]]","6","[[1,2,0],[3,0],[0]]","6","0","","","","","","5","",""
"","","","","","single-stim-button","291","511911","0.0-3.0-28.6-0.6","57b60487e5b60d0001083aea","F1","batch6","","3367","","","tol_tohand","","","","","","","","","tol_peg_3","3367","3367","0","[[0,0,0],[1,2],[0]]","7","[[1,2,0],[3,0],[0]]","6","0","","","","","","5","",""
"","","","","","single-stim-button","292","514303","0.0-3.0-28.6-1.6","57b60487e5b60d0001083aea","F1","batch6","","2391","","","tol_toboard","","","","","","","","","tol_peg_3","2391","2391","0","[[0,0,0],[1,2],[3]]","7","[[1,2,0],[3,0],[0]]","6","0","","","","","","5","",""
"","","","","","single-stim-button","293","515511","0.0-3.0-28.7-0.7","57b60487e5b60d0001083aea","F1","batch6","","1207","","","tol_tohand","","","","","","","","","tol_peg_2","1207","1207","0","[[0,0,0],[1,0],[3]]","8","[[1,2,0],[3,0],[0]]","6","0","","","","","","5","",""
"","","","","","single-stim-button","294","517038","0.0-3.0-28.7-1.7","57b60487e5b60d0001083aea","F1","batch6","","1527","","","tol_toboard","","","","","","","","","tol_peg_1","1527","1527","0","[[2,0,0],[1,0],[3]]","8","[[1,2,0],[3,0],[0]]","6","0","","","","","","5","",""
"","","","","","single-stim-button","295","520726","0.0-3.0-28.8-0.8","57b60487e5b60d0001083aea","F1","batch6","","3687","","","tol_tohand","","","","","","","","","tol_peg_2","3687","3687","0","[[2,0,0],[0,0],[3]]","9","[[1,2,0],[3,0],[0]]","6","0","","","","","","5","",""
"","","","","","single-stim-button","296","521559","0.0-3.0-28.8-1.8","57b60487e5b60d0001083aea","F1","batch6","","831","","","tol_toboard","","","","","","","","","tol_peg_1","831","831","0","[[2,1,0],[0,0],[3]]","9","[[1,2,0],[3,0],[0]]","6","0","","","","","","5","",""
"","","","","","single-stim-button","297","522311","0.0-3.0-28.9-0.9","57b60487e5b60d0001083aea","F1","batch6","","751","","","tol_tohand","","","","","","","","","tol_peg_3","751","751","0","[[2,1,0],[0,0],[0]]","10","[[1,2,0],[3,0],[0]]","6","0","","","","","","5","",""
"","","","","","single-stim-button","298","522871","0.0-3.0-28.9-1.9","57b60487e5b60d0001083aea","F1","batch6","","560","","","tol_toboard","","","","","","","","","tol_peg_2","560","560","0","[[2,1,0],[3,0],[0]]","10","[[1,2,0],[3,0],[0]]","6","0","","","","","","5","",""
"","","","","","single-stim-button","299","524231","0.0-3.0-28.10-0.10","57b60487e5b60d0001083aea","F1","batch6","","1359","","","tol_tohand","","","","","","","","","tol_peg_1","1359","1359","0","[[2,0,0],[3,0],[0]]","11","[[1,2,0],[3,0],[0]]","6","0","","","","","","5","",""
"","","","","","single-stim-button","300","525143","0.0-3.0-28.10-1.10","57b60487e5b60d0001083aea","F1","batch6","","911","","","tol_toboard","","","","","","","","","tol_peg_3","911","911","0","[[2,0,0],[3,0],[1]]","11","[[1,2,0],[3,0],[0]]","6","0","","","","","","5","",""
"","","","","","single-stim-button","301","525879","0.0-3.0-28.11-0.11","57b60487e5b60d0001083aea","F1","batch6","","735","","","tol_tohand","","","","","","","","","tol_peg_1","735","735","0","[[0,0,0],[3,0],[1]]","12","[[1,2,0],[3,0],[0]]","6","0","","","","","","5","",""
"","","","","","single-stim-button","302","526383","0.0-3.0-28.11-1.11","57b60487e5b60d0001083aea","F1","batch6","","503","","","tol_toboard","","","","","","","","","tol_peg_2","503","503","0","[[0,0,0],[3,2],[1]]","12","[[1,2,0],[3,0],[0]]","6","0","","","","","","5","",""
"","","","","","single-stim-button","303","526951","0.0-3.0-28.12-0.12","57b60487e5b60d0001083aea","F1","batch6","","567","","","tol_tohand","","","","","","","","","tol_peg_3","567","567","0","[[0,0,0],[3,2],[0]]","13","[[1,2,0],[3,0],[0]]","6","0","","","","","","5","",""
"","","","","","single-stim-button","304","527975","0.0-3.0-28.12-1.12","57b60487e5b60d0001083aea","F1","batch6","","1023","","","tol_toboard","","","","","","","","","tol_peg_1","1023","1023","0","[[1,0,0],[3,2],[0]]","13","[[1,2,0],[3,0],[0]]","6","0","","","","","","5","",""
"","","","","","single-stim-button","305","528647","0.0-3.0-28.13-0.13","57b60487e5b60d0001083aea","F1","batch6","","671","","","tol_tohand","","","","","","","","","tol_peg_2","671","671","0","[[1,0,0],[3,0],[0]]","14","[[1,2,0],[3,0],[0]]","6","0","","","","","","5","",""
"","","","","","single-stim-button","306","529279","0.0-3.0-28.13-1.13","57b60487e5b60d0001083aea","F1","batch6","","631","","","tol_toboard","","","","","","","","","tol_peg_1","631","631","0","[[1,2,0],[3,0],[0]]","14","[[1,2,0],[3,0],[0]]","6","0","","","","","","5","",""
"","","","","","poldrack-single-stim","307","530285","0.0-3.0-29.0","57b60487e5b60d0001083aea","F1","batch6","","-1","","","tol_feedback","true","","","","","","","","","1000","1000","500","","","","","","-1","none","true","3198","21233","","",""
"","","","","","html-button-response","308","531439","0.0-3.0-30.0","57b60487e5b60d0001083aea","F1","batch6","","1153.1000000005588","<div class = centerbox><p class = center-block-text>problem <strong>8</strong> out of 25 problems</p></div>","0","tol_trial_num","","","","","","","","","","","","","","","","","","","","","","","","",""
"","","","","","single-stim-button","309","533527","0.0-3.0-31.0-0.0","57b60487e5b60d0001083aea","F1","batch6","","2087","","","tol_tohand","","","","","","","","","tol_peg_3","2087","2087","0","[[0,0,0],[2,3],[0]]","1","[[1,2,0],[3,0],[0]]","7","0","","","","","","4","",""
"","","","","","single-stim-button","310","534463","0.0-3.0-31.0-1.0","57b60487e5b60d0001083aea","F1","batch6","","935","","","tol_toboard","","","","","","","","","tol_peg_1","935","935","0","[[1,0,0],[2,3],[0]]","1","[[1,2,0],[3,0],[0]]","7","0","","","","","","4","",""
"","","","","","single-stim-button","311","535295","0.0-3.0-31.1-0.1","57b60487e5b60d0001083aea","F1","batch6","","831","","","tol_tohand","","","","","","","","","tol_peg_2","831","831","0","[[1,0,0],[2,0],[0]]","2","[[1,2,0],[3,0],[0]]","7","0","","","","","","4","",""
"","","","","","single-stim-button","312","535879","0.0-3.0-31.1-1.1","57b60487e5b60d0001083aea","F1","batch6","","584","","","tol_toboard","","","","","","","","","tol_peg_3","584","584","0","[[1,0,0],[2,0],[3]]","2","[[1,2,0],[3,0],[0]]","7","0","","","","","","4","",""
"","","","","","single-stim-button","313","536511","0.0-3.0-31.2-0.2","57b60487e5b60d0001083aea","F1","batch6","","631","","","tol_tohand","","","","","","","","","tol_peg_2","631","631","0","[[1,0,0],[0,0],[3]]","3","[[1,2,0],[3,0],[0]]","7","0","","","","","","4","",""
"","","","","","single-stim-button","314","537671","0.0-3.0-31.2-1.2","57b60487e5b60d0001083aea","F1","batch6","","1159","","","tol_toboard","","","","","","","","","tol_peg_1","1159","1159","0","[[1,2,0],[0,0],[3]]","3","[[1,2,0],[3,0],[0]]","7","0","","","","","","4","",""
"","","","","","single-stim-button","315","538327","0.0-3.0-31.3-0.3","57b60487e5b60d0001083aea","F1","batch6","","655","","","tol_tohand","","","","","","","","","tol_peg_3","655","655","0","[[1,2,0],[0,0],[0]]","4","[[1,2,0],[3,0],[0]]","7","0","","","","","","4","",""
"","","","","","single-stim-button","316","538799","0.0-3.0-31.3-1.3","57b60487e5b60d0001083aea","F1","batch6","","471","","","tol_toboard","","","","","","","","","tol_peg_2","471","471","0","[[1,2,0],[3,0],[0]]","4","[[1,2,0],[3,0],[0]]","7","0","","","","","","4","",""
"","","","","","poldrack-single-stim","317","539814","0.0-3.0-32.0","57b60487e5b60d0001083aea","F1","batch6","","-1","","","tol_feedback","true","","","","","","","","","1000","1000","500","","","","","","-1","none","true","2087","4204","","",""
"","","","","","html-button-response","318","540799","0.0-3.0-33.0","57b60487e5b60d0001083aea","F1","batch6","","984.5","<div class = centerbox><p class = center-block-text>problem <strong>9</strong> out of 25 problems</p></div>","0","tol_trial_num","","","","","","","","","","","","","","","","","","","","","","","","",""
"","","","","","single-stim-button","319","544608","0.0-3.0-34.0-0.0","57b60487e5b60d0001083aea","F1","batch6","","3807","","","tol_tohand","","","","","","","","","tol_peg_1","3807","3807","0","[[3,0,0],[0,0],[1]]","1","[[2,1,0],[3,0],[0]]","8","0","","","","","","6","",""
"","","","","","single-stim-button","320","545351","0.0-3.0-34.0-1.0","57b60487e5b60d0001083aea","F1","batch6","","743","","","tol_toboard","","","","","","","","","tol_peg_2","743","743","0","[[3,0,0],[2,0],[1]]","1","[[2,1,0],[3,0],[0]]","8","0","","","","","","6","",""
"","","","","","single-stim-button","321","548375","0.0-3.0-34.1-0.1","57b60487e5b60d0001083aea","F1","batch6","","3024","","","tol_tohand","","","","","","","","","tol_peg_1","3024","3024","0","[[0,0,0],[2,0],[1]]","2","[[2,1,0],[3,0],[0]]","8","0","","","","","","6","",""
"","","","","","single-stim-button","322","549799","0.0-3.0-34.1-1.1","57b60487e5b60d0001083aea","F1","batch6","","1424","","","tol_toboard","","","","","","","","","tol_peg_1","1424","1424","0","[[3,0,0],[2,0],[1]]","2","[[2,1,0],[3,0],[0]]","8","0","","","","","","6","",""
"","","","","","single-stim-button","323","551423","0.0-3.0-34.2-0.2","57b60487e5b60d0001083aea","F1","batch6","","1624","","","tol_tohand","","","","","","","","","tol_peg_1","1624","1624","0","[[0,0,0],[2,0],[1]]","3","[[2,1,0],[3,0],[0]]","8","0","","","","","","6","",""
"","","","","","single-stim-button","324","552823","0.0-3.0-34.2-1.2","57b60487e5b60d0001083aea","F1","batch6","","1399","","","tol_toboard","","","","","","","","","tol_peg_1","1399","1399","0","[[3,0,0],[2,0],[1]]","3","[[2,1,0],[3,0],[0]]","8","0","","","","","","6","",""
"","","","","","single-stim-button","325","553983","0.0-3.0-34.3-0.3","57b60487e5b60d0001083aea","F1","batch6","","1160","","","tol_tohand","","","","","","","","","tol_peg_3","1160","1160","0","[[3,0,0],[2,0],[0]]","4","[[2,1,0],[3,0],[0]]","8","0","","","","","","6","",""
"","","","","","single-stim-button","326","554927","0.0-3.0-34.3-1.3","57b60487e5b60d0001083aea","F1","batch6","","943","","","tol_toboard","","","","","","","","","tol_peg_1","943","943","0","[[3,1,0],[2,0],[0]]","4","[[2,1,0],[3,0],[0]]","8","0","","","","","","6","",""
"","","","","","single-stim-button","327","555767","0.0-3.0-34.4-0.4","57b60487e5b60d0001083aea","F1","batch6","","838","","","tol_tohand","","","","","","","","","tol_peg_2","838","838","0","[[3,1,0],[0,0],[0]]","5","[[2,1,0],[3,0],[0]]","8","0","","","","","","6","",""
"","","","","","single-stim-button","328","556320","0.0-3.0-34.4-1.4","57b60487e5b60d0001083aea","F1","batch6","","552","","","tol_toboard","","","","","","","","","tol_peg_3","552","552","0","[[3,1,0],[0,0],[2]]","5","[[2,1,0],[3,0],[0]]","8","0","","","","","","6","",""
"","","","","","single-stim-button","329","557031","0.0-3.0-34.5-0.5","57b60487e5b60d0001083aea","F1","batch6","","711","","","tol_tohand","","","","","","","","","tol_peg_1","711","711","0","[[3,0,0],[0,0],[2]]","6","[[2,1,0],[3,0],[0]]","8","0","","","","","","6","",""
"","","","","","single-stim-button","330","557887","0.0-3.0-34.5-1.5","57b60487e5b60d0001083aea","F1","batch6","","856","","","tol_toboard","","","","","","","","","tol_peg_2","856","856","0","[[3,0,0],[1,0],[2]]","6","[[2,1,0],[3,0],[0]]","8","0","","","","","","6","",""
"","","","","","single-stim-button","331","558407","0.0-3.0-34.6-0.6","57b60487e5b60d0001083aea","F1","batch6","","520","","","tol_tohand","","","","","","","","","tol_peg_1","520","520","0","[[0,0,0],[1,0],[2]]","7","[[2,1,0],[3,0],[0]]","8","0","","","","","","6","",""
"","","","","","single-stim-button","332","558975","0.0-3.0-34.6-1.6","57b60487e5b60d0001083aea","F1","batch6","","568","","","tol_toboard","","","","","","","","","tol_peg_2","568","568","0","[[0,0,0],[1,3],[2]]","7","[[2,1,0],[3,0],[0]]","8","0","","","","","","6","",""
"","","","","","single-stim-button","333","559535","0.0-3.0-34.7-0.7","57b60487e5b60d0001083aea","F1","batch6","","560","","","tol_tohand","","","","","","","","","tol_peg_3","560","560","0","[[0,0,0],[1,3],[0]]","8","[[2,1,0],[3,0],[0]]","8","0","","","","","","6","",""
"","","","","","single-stim-button","334","560359","0.0-3.0-34.7-1.7","57b60487e5b60d0001083aea","F1","batch6","","823","","","tol_toboard","","","","","","","","","tol_peg_1","823","823","0","[[2,0,0],[1,3],[0]]","8","[[2,1,0],[3,0],[0]]","8","0","","","","","","6","",""
"","","","","","single-stim-button","335","560807","0.0-3.0-34.8-0.8","57b60487e5b60d0001083aea","F1","batch6","","448","","","tol_tohand","","","","","","","","","tol_peg_2","448","448","0","[[2,0,0],[1,0],[0]]","9","[[2,1,0],[3,0],[0]]","8","0","","","","","","6","",""
"","","","","","single-stim-button","336","561279","0.0-3.0-34.8-1.8","57b60487e5b60d0001083aea","F1","batch6","","471","","","tol_toboard","","","","","","","","","tol_peg_3","471","471","0","[[2,0,0],[1,0],[3]]","9","[[2,1,0],[3,0],[0]]","8","0","","","","","","6","",""
"","","","","","single-stim-button","337","561719","0.0-3.0-34.9-0.9","57b60487e5b60d0001083aea","F1","batch6","","440","","","tol_tohand","","","","","","","","","tol_peg_2","440","440","0","[[2,0,0],[0,0],[3]]","10","[[2,1,0],[3,0],[0]]","8","0","","","","","","6","",""
"","","","","","single-stim-button","338","562095","0.0-3.0-34.9-1.9","57b60487e5b60d0001083aea","F1","batch6","","376","","","tol_toboard","","","","","","","","","tol_peg_1","376","376","0","[[2,1,0],[0,0],[3]]","10","[[2,1,0],[3,0],[0]]","8","0","","","","","","6","",""
"","","","","","single-stim-button","339","562607","0.0-3.0-34.10-0.10","57b60487e5b60d0001083aea","F1","batch6","","512","","","tol_tohand","","","","","","","","","tol_peg_3","512","512","0","[[2,1,0],[0,0],[0]]","11","[[2,1,0],[3,0],[0]]","8","0","","","","","","6","",""
"","","","","","single-stim-button","340","562927","0.0-3.0-34.10-1.10","57b60487e5b60d0001083aea","F1","batch6","","320","","","tol_toboard","","","","","","","","","tol_peg_2","320","320","0","[[2,1,0],[3,0],[0]]","11","[[2,1,0],[3,0],[0]]","8","0","","","","","","6","",""
"","","","","","poldrack-single-stim","341","563939","0.0-3.0-35.0","57b60487e5b60d0001083aea","F1","batch6","","-1","","","tol_feedback","true","","","","","","","","","1000","1000","500","","","","","","-1","none","true","3807","13644","","",""
"","","","","","html-button-response","342","565215","0.0-3.0-36.0","57b60487e5b60d0001083aea","F1","batch6","","1275.3999999994412","<div class = centerbox><p class = center-block-text>problem <strong>10</strong> out of 25 problems</p></div>","0","tol_trial_num","","","","","","","","","","","","","","","","","","","","","","","","",""
"","","","","","single-stim-button","343","569583","0.0-3.0-37.0-0.0","57b60487e5b60d0001083aea","F1","batch6","","4368","","","tol_tohand","","","","","","","","","tol_peg_2","4368","4368","0","[[3,0,0],[0,0],[2]]","1","[[3,0,0],[2,1],[0]]","9","0","","","","","","3","",""
"","","","","","single-stim-button","344","571039","0.0-3.0-37.0-1.0","57b60487e5b60d0001083aea","F1","batch6","","1455","","","tol_toboard","","","","","","","","","tol_peg_1","1455","1455","0","[[3,1,0],[0,0],[2]]","1","[[3,0,0],[2,1],[0]]","9","0","","","","","","3","",""
"","","","","","single-stim-button","345","571695","0.0-3.0-37.1-0.1","57b60487e5b60d0001083aea","F1","batch6","","656","","","tol_tohand","","","","","","","","","tol_peg_3","656","656","0","[[3,1,0],[0,0],[0]]","2","[[3,0,0],[2,1],[0]]","9","0","","","","","","3","",""
"","","","","","single-stim-button","346","572127","0.0-3.0-37.1-1.1","57b60487e5b60d0001083aea","F1","batch6","","432","","","tol_toboard","","","","","","","","","tol_peg_2","432","432","0","[[3,1,0],[2,0],[0]]","2","[[3,0,0],[2,1],[0]]","9","0","","","","","","3","",""
"","","","","","single-stim-button","347","572511","0.0-3.0-37.2-0.2","57b60487e5b60d0001083aea","F1","batch6","","384","","","tol_tohand","","","","","","","","","tol_peg_1","384","384","0","[[3,0,0],[2,0],[0]]","3","[[3,0,0],[2,1],[0]]","9","0","","","","","","3","",""
"","","","","","single-stim-button","348","572895","0.0-3.0-37.2-1.2","57b60487e5b60d0001083aea","F1","batch6","","384","","","tol_toboard","","","","","","","","","tol_peg_2","384","384","0","[[3,0,0],[2,1],[0]]","3","[[3,0,0],[2,1],[0]]","9","0","","","","","","3","",""
"","","","","","poldrack-single-stim","349","573896","0.0-3.0-38.0","57b60487e5b60d0001083aea","F1","batch6","","-1","","","tol_feedback","true","","","","","","","","","1000","1000","500","","","","","","-1","none","true","4368","5408","","",""
