"success","timeout","failed_images","failed_audio","failed_video","trial_type","trial_index","time_elapsed","internal_node_id","subject_id","study_id","session_id","view_history","rt","task","stimulus","response","correct","mouse_click","stim_duration","block_duration","timing_post_trial","current_position","tol_num_moves_made","tol_target","tol_problem_id","tol_rt","key_press","possible_responses","tol_correct","preplanning","tol_rt_per_trial","tol_min_moves","answer","item","fiar_detect_rt","fiar_detect_correct","total_correct_fiar_detect","post_trial_gap","choices","spm_correct","spm_rt"
"true","false","[]","[]","[]","preload","0","1867","0.0-0.0","57be89f4c7fcbf0001c39491","A3","batch1","","","","","","","","","","","","","","","","","","","","","","","","","","","","","",""
"true","","","","","fullscreen","1","10304","0.0-1.0-0.0","57be89f4c7fcbf0001c39491","A3","batch1","","","","","","","","","","","","","","","","","","","","","","","","","","","","","",""
"true","","","","","fullscreen","2","13115","0.0-2.0-0.0","57be89f4c7fcbf0001c39491","A3","batch1","","","","","","","","","","","","","","","","","","","","","","","","","","","","","",""
"","","","","","instructions","3","78465","0.0-2.0-1.0-0.0-0.0","57be89f4c7fcbf0001c39491","A3","batch1","[{""page_index"":0,""viewing_time"":13150.100000023842},{""page_index"":1,""viewing_time"":7184.5},{""page_index"":2,""viewing_time"":8075.899999976158},{""page_index"":3,""viewing_time"":11881.700000047684},{""page_index"":4,""viewing_time"":6832.699999988079},{""page_index"":5,""viewing_time"":15250},{""page_index"":6,""viewing_time"":2970.199999988079}]","65345.60000002384","tol-instructions","","","","","","","","","","","","","","","","","","","","","","","","","","",""
"","","","","","html-button-response","4","79951","0.0-2.0-1.0-1.0-0.0","57be89f4c7fcbf0001c39491","A3","batch1","","1482.8999999761581","tol_enter_quiz","<p class=block-text> Let's answer a few questions <br>","0","","","","","","","","","","","","","","","","","","","","","","","","",""
"","","","","","html-button-response","5","94477","0.0-2.0-1.0-1.0-1.0","57be89f4c7fcbf0001c39491","A3","batch1","","14523.699999988079","tol_quiz","<p class = block-text>True or False: You can only move the ball on top of a peg. <br></p>","0","true","","","","","","","","","","","","","","","","","","","","","","","",""
"","","","","","html-button-response","6","96107","0.0-2.0-1.0-1.0-2.0","57be89f4c7fcbf0001c39491","A3","batch1","","1626.0999999642372","tol_quiz_feedback","<p class = block-text>Correct! You can only move the ball on top of a peg.</p>","0","","","","","","","","","","","","","","","","","","","","","","","","",""
"","","","","","html-button-response","7","99076","0.0-2.0-1.0-1.0-3.0","57be89f4c7fcbf0001c39491","A3","batch1","","2965.899999976158","tol_quiz","<p class = block-text>True or False: You should try to match your board with the target board with fewest moves possible. <br></p>","0","true","","","","","","","","","","","","","","","","","","","","","","","",""
"","","","","","html-button-response","8","100344","0.0-2.0-1.0-1.0-4.0","57be89f4c7fcbf0001c39491","A3","batch1","","1265.699999988079","tol_quiz_feedback","<p class = block-text>Correct! </p>","0","","","","","","","","","","","","","","","","","","","","","","","","",""
"","","","","","html-button-response","9","102625","0.0-2.0-2.0","57be89f4c7fcbf0001c39491","A3","batch1","","2278.5","","<p class=block-text> Now that you've understood the game, let's practice a few easier examples before we start!<br> <br>","0","","","","","","","","","","","","","","","","","","","","","","","","",""
"","","","","","single-stim-button","10","106262","0.0-2.0-3.0-0.0","57be89f4c7fcbf0001c39491","A3","batch1","","3633","tol_practice","","","","tol_peg_2","3633","3633","0","[[1,2,0],[0,0],[0]]","1","[[1,2,0],[0,0],[3]]","practice","3633","","","","","","","","","","","","","","",""
"","","","","","single-stim-button","11","108081","0.0-2.0-3.0-1.0","57be89f4c7fcbf0001c39491","A3","batch1","","1817","tol_practice","","","","tol_peg_3","1817","1817","0","[[1,2,0],[0,0],[3]]","1","[[1,2,0],[0,0],[3]]","practice","1817","","","","","","","","","","","","","","",""
"","","","","","poldrack-single-stim","12","109087","0.0-2.0-4.0","57be89f4c7fcbf0001c39491","A3","batch1","","-1","tol_feedback","","","true","","1000","1000","500","","","","","","-1","none","true","","0","","","","","","","","","",""
"","","","","","single-stim-button","13","114403","0.0-2.0-5.0-0.0","57be89f4c7fcbf0001c39491","A3","batch1","","5313","tol_practice","","","","tol_peg_1","5313","5313","0","[[1,0,0],[3,0],[0]]","2","[[0,0,0],[3,1],[2]]","practice","5313","","","","","","","","","","","","","","",""
"","","","","","single-stim-button","14","116403","0.0-2.0-5.0-1.0","57be89f4c7fcbf0001c39491","A3","batch1","","1998","tol_practice","","","","tol_peg_3","1998","1998","0","[[1,0,0],[3,0],[2]]","2","[[0,0,0],[3,1],[2]]","practice","1998","","","","","","","","","","","","","","",""
"","","","","","single-stim-button","15","118115","0.0-2.0-5.1-0.1","57be89f4c7fcbf0001c39491","A3","batch1","","1710","tol_practice","","","","tol_peg_1","1710","1710","0","[[0,0,0],[3,0],[2]]","3","[[0,0,0],[3,1],[2]]","practice","1710","","","","","","","","","","","","","","",""
"","","","","","single-stim-button","16","119581","0.0-2.0-5.1-1.1","57be89f4c7fcbf0001c39491","A3","batch1","","1464","tol_practice","","","","tol_peg_2","1464","1464","0","[[0,0,0],[3,1],[2]]","3","[[0,0,0],[3,1],[2]]","practice","1464","","","","","","","","","","","","","","",""
"","","","","","poldrack-single-stim","17","120598","0.0-2.0-6.0","57be89f4c7fcbf0001c39491","A3","batch1","","-1","tol_feedback","","","true","","1000","1000","500","","","","","","-1","none","true","","0","","","","","","","","","",""
"","","","","","single-stim-button","18","125620","0.0-2.0-7.0-0.0","57be89f4c7fcbf0001c39491","A3","batch1","","5021","tol_practice","","","","tol_peg_2","5021","5021","0","[[1,2,0],[0,0],[0]]","4","[[1,0,0],[2,0],[3]]","practice","5021","","","","","","","","","","","","","","",""
"","","","","","single-stim-button","19","127252","0.0-2.0-7.0-1.0","57be89f4c7fcbf0001c39491","A3","batch1","","1630","tol_practice","","","","tol_peg_3","1630","1630","0","[[1,2,0],[0,0],[3]]","4","[[1,0,0],[2,0],[3]]","practice","1630","","","","","","","","","","","","","","",""
"","","","","","single-stim-button","20","128352","0.0-2.0-7.1-0.1","57be89f4c7fcbf0001c39491","A3","batch1","","1098","tol_practice","","","","tol_peg_1","1098","1098","0","[[1,0,0],[0,0],[3]]","5","[[1,0,0],[2,0],[3]]","practice","1098","","","","","","","","","","","","","","",""
"","","","","","single-stim-button","21","129731","0.0-2.0-7.1-1.1","57be89f4c7fcbf0001c39491","A3","batch1","","1377","tol_practice","","","","tol_peg_2","1377","1377","0","[[1,0,0],[2,0],[3]]","5","[[1,0,0],[2,0],[3]]","practice","1377","","","","","","","","","","","","","","",""
"","","","","","poldrack-single-stim","22","130734","0.0-2.0-8.0","57be89f4c7fcbf0001c39491","A3","batch1","","-1","tol_feedback","","","true","","1000","1000","500","","","","","","-1","none","true","","0","","","","","","","","","",""
"","","","","","html-button-response","23","134225","0.0-2.0-9.0","57be89f4c7fcbf0001c39491","A3","batch1","","3489.699999988079","tol_instruction","<div class = centerbox><p class = center-block-text>Great job! You are done with practice trials<br>You are about to start official trials.<br> <br> Problem <strong>1</strong> out of 25 problems</p></div>","0","","","","","","","","","","","","","","","","","","","","","","","","",""
"","","","","","single-stim-button","24","143227","0.0-2.0-10.0-0.0","57be89f4c7fcbf0001c39491","A3","batch1","","7995","tol_tohand","","","","tol_peg_1","7995","7995","0","[[1,0,0],[3,0],[0]]","1","[[1,3,0],[2,0],[0]]","0","0","","","","","","3","","","","","","","","",""
"","","","","","single-stim-button","25","144859","0.0-2.0-10.0-1.0","57be89f4c7fcbf0001c39491","A3","batch1","","1629","tol_toboard","","","","tol_peg_3","1629","1629","0","[[1,0,0],[3,0],[2]]","1","[[1,3,0],[2,0],[0]]","0","0","","","","","","3","","","","","","","","",""
"","","","","","single-stim-button","26","146140","0.0-2.0-10.1-0.1","57be89f4c7fcbf0001c39491","A3","batch1","","1279","tol_tohand","","","","tol_peg_2","1279","1279","0","[[1,0,0],[0,0],[2]]","2","[[1,3,0],[2,0],[0]]","0","0","","","","","","3","","","","","","","","",""
"","","","","","single-stim-button","27","148046","0.0-2.0-10.1-1.1","57be89f4c7fcbf0001c39491","A3","batch1","","1905","tol_toboard","","","","tol_peg_1","1905","1905","0","[[1,3,0],[0,0],[2]]","2","[[1,3,0],[2,0],[0]]","0","0","","","","","","3","","","","","","","","",""
"","","","","","single-stim-button","28","149434","0.0-2.0-10.2-0.2","57be89f4c7fcbf0001c39491","A3","batch1","","1386","tol_tohand","","","","tol_peg_3","1386","1386","0","[[1,3,0],[0,0],[0]]","3","[[1,3,0],[2,0],[0]]","0","0","","","","","","3","","","","","","","","",""
"","","","","","single-stim-button","29","150683","0.0-2.0-10.2-1.2","57be89f4c7fcbf0001c39491","A3","batch1","","1247","tol_toboard","","","","tol_peg_2","1247","1247","0","[[1,3,0],[2,0],[0]]","3","[[1,3,0],[2,0],[0]]","0","0","","","","","","3","","","","","","","","",""
"","","","","","poldrack-single-stim","30","151694","0.0-2.0-11.0","57be89f4c7fcbf0001c39491","A3","batch1","","-1","tol_feedback","","","true","","1000","1000","500","","","","","","-1","none","true","7995","10660","","","","","","","","","",""
"","","","","","html-button-response","31","153387","0.0-2.0-12.0","57be89f4c7fcbf0001c39491","A3","batch1","","1690.6000000238419","tol_trial_num","<div class = centerbox><p class = center-block-text>problem <strong>2</strong> out of 25 problems</p></div>","0","","","","","","","","","","","","","","","","","","","","","","","","",""
"","","","","","single-stim-button","32","166243","0.0-2.0-13.0-0.0","57be89f4c7fcbf0001c39491","A3","batch1","","12854","tol_tohand","","","","tol_peg_1","12854","12854","0","[[1,0,0],[3,0],[0]]","1","[[2,1,3],[0,0],[0]]","1","0","","","","","","5","","","","","","","","",""
"","","","","","single-stim-button","33","168027","0.0-2.0-13.0-1.0","57be89f4c7fcbf0001c39491","A3","batch1","","1781","tol_toboard","","","","tol_peg_3","1781","1781","0","[[1,0,0],[3,0],[2]]","1","[[2,1,3],[0,0],[0]]","1","0","","","","","","5","","","","","","","","",""
"","","","","","single-stim-button","34","171078","0.0-2.0-13.1-0.1","57be89f4c7fcbf0001c39491","A3","batch1","","3050","tol_tohand","","","","tol_peg_1","3050","3050","0","[[0,0,0],[3,0],[2]]","2","[[2,1,3],[0,0],[0]]","1","0","","","","","","5","","","","","","","","",""
"","","","","","single-stim-button","35","174941","0.0-2.0-13.1-1.1","57be89f4c7fcbf0001c39491","A3","batch1","","3860","tol_toboard","","","","tol_peg_2","3860","3860","0","[[0,0,0],[3,1],[2]]","2","[[2,1,3],[0,0],[0]]","1","0","","","","","","5","","","","","","","","",""
"","","","","","single-stim-button","36","176344","0.0-2.0-13.2-0.2","57be89f4c7fcbf0001c39491","A3","batch1","","1400","tol_tohand","","","","tol_peg_3","1400","1400","0","[[0,0,0],[3,1],[0]]","3","[[2,1,3],[0,0],[0]]","1","0","","","","","","5","","","","","","","","",""
"","","","","","single-stim-button","37","177846","0.0-2.0-13.2-1.2","57be89f4c7fcbf0001c39491","A3","batch1","","1500","tol_toboard","","","","tol_peg_1","1500","1500","0","[[2,0,0],[3,1],[0]]","3","[[2,1,3],[0,0],[0]]","1","0","","","","","","5","","","","","","","","",""
"","","","","","single-stim-button","38","180260","0.0-2.0-13.3-0.3","57be89f4c7fcbf0001c39491","A3","batch1","","2413","tol_tohand","","","","tol_peg_2","2413","2413","0","[[2,0,0],[3,0],[0]]","4","[[2,1,3],[0,0],[0]]","1","0","","","","","","5","","","","","","","","",""
"","","","","","single-stim-button","39","182129","0.0-2.0-13.3-1.3","57be89f4c7fcbf0001c39491","A3","batch1","","1868","tol_toboard","","","","tol_peg_1","1868","1868","0","[[2,1,0],[3,0],[0]]","4","[[2,1,3],[0,0],[0]]","1","0","","","","","","5","","","","","","","","",""
"","","","","","single-stim-button","40","183317","0.0-2.0-13.4-0.4","57be89f4c7fcbf0001c39491","A3","batch1","","1186","tol_tohand","","","","tol_peg_2","1186","1186","0","[[2,1,0],[0,0],[0]]","5","[[2,1,3],[0,0],[0]]","1","0","","","","","","5","","","","","","","","",""
"","","","","","single-stim-button","41","185040","0.0-2.0-13.4-1.4","57be89f4c7fcbf0001c39491","A3","batch1","","1721","tol_toboard","","","","tol_peg_1","1721","1721","0","[[2,1,3],[0,0],[0]]","5","[[2,1,3],[0,0],[0]]","1","0","","","","","","5","","","","","","","","",""
"","","","","","poldrack-single-stim","42","186043","0.0-2.0-14.0","57be89f4c7fcbf0001c39491","A3","batch1","","-1","tol_feedback","","","true","","1000","1000","500","","","","","","-1","none","true","12854","20903","","","","","","","","","",""
"","","","","","html-button-response","43","187704","0.0-2.0-15.0","57be89f4c7fcbf0001c39491","A3","batch1","","1659.7000000476837","tol_trial_num","<div class = centerbox><p class = center-block-text>problem <strong>3</strong> out of 25 problems</p></div>","0","","","","","","","","","","","","","","","","","","","","","","","","",""
"","","","","","single-stim-button","44","199692","0.0-2.0-16.0-0.0","57be89f4c7fcbf0001c39491","A3","batch1","","11985","tol_tohand","","","","tol_peg_1","11985","11985","0","[[2,0,0],[0,0],[1]]","1","[[1,2,0],[3,0],[0]]","2","0","","","","","","4","","","","","","","","",""
"","","","","","single-stim-button","45","201340","0.0-2.0-16.0-1.0","57be89f4c7fcbf0001c39491","A3","batch1","","1646","tol_toboard","","","","tol_peg_2","1646","1646","0","[[2,0,0],[3,0],[1]]","1","[[1,2,0],[3,0],[0]]","2","0","","","","","","4","","","","","","","","",""
"","","","","","single-stim-button","46","203937","0.0-2.0-16.1-0.1","57be89f4c7fcbf0001c39491","A3","batch1","","2596","tol_tohand","","","","tol_peg_1","2596","2596","0","[[0,0,0],[3,0],[1]]","2","[[1,2,0],[3,0],[0]]","2","0","","","","","","4","","","","","","","","",""
"","","","","","single-stim-button","47","205968","0.0-2.0-16.1-1.1","57be89f4c7fcbf0001c39491","A3","batch1","","2028","tol_toboard","","","","tol_peg_2","2028","2028","0","[[0,0,0],[3,2],[1]]","2","[[1,2,0],[3,0],[0]]","2","0","","","","","","4","","","","","","","","",""
"","","","","","single-stim-button","48","207379","0.0-2.0-16.2-0.2","57be89f4c7fcbf0001c39491","A3","batch1","","1409","tol_tohand","","","","tol_peg_3","1409","1409","0","[[0,0,0],[3,2],[0]]","3","[[1,2,0],[3,0],[0]]","2","0","","","","","","4","","","","","","","","",""
"","","","","","single-stim-button","49","209118","0.0-2.0-16.2-1.2","57be89f4c7fcbf0001c39491","A3","batch1","","1737","tol_toboard","","","","tol_peg_1","1737","1737","0","[[1,0,0],[3,2],[0]]","3","[[1,2,0],[3,0],[0]]","2","0","","","","","","4","","","","","","","","",""
"","","","","","single-stim-button","50","210502","0.0-2.0-16.3-0.3","57be89f4c7fcbf0001c39491","A3","batch1","","1381","tol_tohand","","","","tol_peg_2","1381","1381","0","[[1,0,0],[3,0],[0]]","4","[[1,2,0],[3,0],[0]]","2","0","","","","","","4","","","","","","","","",""
"","","","","","single-stim-button","51","211696","0.0-2.0-16.3-1.3","57be89f4c7fcbf0001c39491","A3","batch1","","1192","tol_toboard","","","","tol_peg_1","1192","1192","0","[[1,2,0],[3,0],[0]]","4","[[1,2,0],[3,0],[0]]","2","0","","","","","","4","","","","","","","","",""
"","","","","","poldrack-single-stim","52","212708","0.0-2.0-17.0","57be89f4c7fcbf0001c39491","A3","batch1","","-1","tol_feedback","","","true","","1000","1000","500","","","","","","-1","none","true","11985","17371","","","","","","","","","",""
"","","","","","html-button-response","53","219855","0.0-2.0-18.0","57be89f4c7fcbf0001c39491","A3","batch1","","7145.400000035763","tol_trial_num","<div class = centerbox><p class = center-block-text>problem <strong>4</strong> out of 25 problems</p></div>","0","","","","","","","","","","","","","","","","","","","","","","","","",""
"","","","","","single-stim-button","54","229199","0.0-2.0-19.0-0.0","57be89f4c7fcbf0001c39491","A3","batch1","","9341","tol_tohand","","","","tol_peg_2","9341","9341","0","[[3,0,0],[2,0],[0]]","1","[[3,0,0],[1,0],[2]]","3","0","","","","","","3","","","","","","","","",""
"","","","","","single-stim-button","55","230568","0.0-2.0-19.0-1.0","57be89f4c7fcbf0001c39491","A3","batch1","","1366","tol_toboard","","","","tol_peg_1","1366","1366","0","[[3,1,0],[2,0],[0]]","1","[[3,0,0],[1,0],[2]]","3","0","","","","","","3","","","","","","","","",""
"","","","","","single-stim-button","56","231860","0.0-2.0-19.1-0.1","57be89f4c7fcbf0001c39491","A3","batch1","","1292","tol_tohand","","","","tol_peg_2","1292","1292","0","[[3,1,0],[0,0],[0]]","2","[[3,0,0],[1,0],[2]]","3","0","","","","","","3","","","","","","","","",""
"","","","","","single-stim-button","57","233908","0.0-2.0-19.1-1.1","57be89f4c7fcbf0001c39491","A3","batch1","","2046","tol_toboard","","","","tol_peg_3","2046","2046","0","[[3,1,0],[0,0],[2]]","2","[[3,0,0],[1,0],[2]]","3","0","","","","","","3","","","","","","","","",""
"","","","","","single-stim-button","58","235055","0.0-2.0-19.2-0.2","57be89f4c7fcbf0001c39491","A3","batch1","","1146","tol_tohand","","","","tol_peg_1","1146","1146","0","[[3,0,0],[0,0],[2]]","3","[[3,0,0],[1,0],[2]]","3","0","","","","","","3","","","","","","","","",""
"","","","","","single-stim-button","59","236614","0.0-2.0-19.2-1.2","57be89f4c7fcbf0001c39491","A3","batch1","","1558","tol_toboard","","","","tol_peg_2","1558","1558","0","[[3,0,0],[1,0],[2]]","3","[[3,0,0],[1,0],[2]]","3","0","","","","","","3","","","","","","","","",""
"","","","","","poldrack-single-stim","60","237623","0.0-2.0-20.0","57be89f4c7fcbf0001c39491","A3","batch1","","-1","tol_feedback","","","true","","1000","1000","500","","","","","","-1","none","true","9341","11779","","","","","","","","","",""
"","","","","","html-button-response","61","240068","0.0-2.0-21.0","57be89f4c7fcbf0001c39491","A3","batch1","","2445.300000011921","tol_trial_num","<div class = centerbox><p class = center-block-text>problem <strong>5</strong> out of 25 problems</p></div>","0","","","","","","","","","","","","","","","","","","","","","","","","",""
"","","","","","single-stim-button","62","252572","0.0-2.0-22.0-0.0","57be89f4c7fcbf0001c39491","A3","batch1","","12503","tol_tohand","","","","tol_peg_3","12503","12503","0","[[1,0,0],[2,0],[0]]","1","[[0,0,0],[1,2],[3]]","4","0","","","","","","7","","","","","","","","",""
"","","","","","single-stim-button","63","254591","0.0-2.0-22.0-1.0","57be89f4c7fcbf0001c39491","A3","batch1","","2017","tol_toboard","","","","tol_peg_1","2017","2017","0","[[1,3,0],[2,0],[0]]","1","[[0,0,0],[1,2],[3]]","4","0","","","","","","7","","","","","","","","",""
"","","","","","single-stim-button","64","256189","0.0-2.0-22.1-0.1","57be89f4c7fcbf0001c39491","A3","batch1","","1596","tol_tohand","","","","tol_peg_2","1596","1596","0","[[1,3,0],[0,0],[0]]","2","[[0,0,0],[1,2],[3]]","4","0","","","","","","7","","","","","","","","",""
"","","","","","single-stim-button","65","258220","0.0-2.0-22.1-1.1","57be89f4c7fcbf0001c39491","A3","batch1","","2028","tol_toboard","","","","tol_peg_3","2028","2028","0","[[1,3,0],[0,0],[2]]","2","[[0,0,0],[1,2],[3]]","4","0","","","","","","7","","","","","","","","",""
"","","","","","single-stim-button","66","261963","0.0-2.0-22.2-0.2","57be89f4c7fcbf0001c39491","A3","batch1","","3742","tol_tohand","","","","tol_peg_1","3742","3742","0","[[1,0,0],[0,0],[2]]","3","[[0,0,0],[1,2],[3]]","4","0","","","","","","7","","","","","","","","",""
"","","","","","single-stim-button","67","263987","0.0-2.0-22.2-1.2","57be89f4c7fcbf0001c39491","A3","batch1","","2023","tol_toboard","","","","tol_peg_2","2023","2023","0","[[1,0,0],[3,0],[2]]","3","[[0,0,0],[1,2],[3]]","4","0","","","","","","7","","","","","","","","",""
"","","","","","single-stim-button","68","265642","0.0-2.0-22.3-0.3","57be89f4c7fcbf0001c39491","A3","batch1","","1652","tol_tohand","","","","tol_peg_1","1652","1652","0","[[0,0,0],[3,0],[2]]","4","[[0,0,0],[1,2],[3]]","4","0","","","","","","7","","","","","","","","",""
"","","","","","single-stim-button","69","267007","0.0-2.0-22.3-1.3","57be89f4c7fcbf0001c39491","A3","batch1","","1363","tol_toboard","","","","tol_peg_2","1363","1363","0","[[0,0,0],[3,1],[2]]","4","[[0,0,0],[1,2],[3]]","4","0","","","","","","7","","","","","","","","",""
"","","","","","single-stim-button","70","268222","0.0-2.0-22.4-0.4","57be89f4c7fcbf0001c39491","A3","batch1","","1213","tol_tohand","","","","tol_peg_3","1213","1213","0","[[0,0,0],[3,1],[0]]","5","[[0,0,0],[1,2],[3]]","4","0","","","","","","7","","","","","","","","",""
"","","","","","single-stim-button","71","275365","0.0-2.0-22.4-1.4","57be89f4c7fcbf0001c39491","A3","batch1","","7142","tol_toboard","","","","tol_peg_1","7142","7142","0","[[2,0,0],[3,1],[0]]","5","[[0,0,0],[1,2],[3]]","4","0","","","","","","7","","","","","","","","",""
"","","","","","single-stim-button","72","277075","0.0-2.0-22.5-0.5","57be89f4c7fcbf0001c39491","A3","batch1","","1708","tol_tohand","","","","tol_peg_2","1708","1708","0","[[2,0,0],[3,0],[0]]","6","[[0,0,0],[1,2],[3]]","4","0","","","","","","7","","","","","","","","",""
"","","","","","single-stim-button","73","280427","0.0-2.0-22.5-1.5","57be89f4c7fcbf0001c39491","A3","batch1","","3350","tol_toboard","","","","tol_peg_1","3350","3350","0","[[2,1,0],[3,0],[0]]","6","[[0,0,0],[1,2],[3]]","4","0","","","","","","7","","","","","","","","",""
"","","","","","single-stim-button","74","281567","0.0-2.0-22.6-0.6","57be89f4c7fcbf0001c39491","A3","batch1","","1139","tol_tohand","","","","tol_peg_2","1139","1139","0","[[2,1,0],[0,0],[0]]","7","[[0,0,0],[1,2],[3]]","4","0","","","","","","7","","","","","","","","",""
"","","","","","single-stim-button","75","283064","0.0-2.0-22.6-1.6","57be89f4c7fcbf0001c39491","A3","batch1","","1495","tol_toboard","","","","tol_peg_3","1495","1495","0","[[2,1,0],[0,0],[3]]","7","[[0,0,0],[1,2],[3]]","4","0","","","","","","7","","","","","","","","",""
"","","","","","single-stim-button","76","284505","0.0-2.0-22.7-0.7","57be89f4c7fcbf0001c39491","A3","batch1","","1440","tol_tohand","","","","tol_peg_1","1440","1440","0","[[2,0,0],[0,0],[3]]","8","[[0,0,0],[1,2],[3]]","4","0","","","","","","7","","","","","","","","",""
"","","","","","single-stim-button","77","285760","0.0-2.0-22.7-1.7","57be89f4c7fcbf0001c39491","A3","batch1","","1254","tol_toboard","","","","tol_peg_2","1254","1254","0","[[2,0,0],[1,0],[3]]","8","[[0,0,0],[1,2],[3]]","4","0","","","","","","7","","","","","","","","",""
"","","","","","single-stim-button","78","286993","0.0-2.0-22.8-0.8","57be89f4c7fcbf0001c39491","A3","batch1","","1230","tol_tohand","","","","tol_peg_1","1230","1230","0","[[0,0,0],[1,0],[3]]","9","[[0,0,0],[1,2],[3]]","4","0","","","","","","7","","","","","","","","",""
"","","","","","single-stim-button","79","288366","0.0-2.0-22.8-1.8","57be89f4c7fcbf0001c39491","A3","batch1","","1370","tol_toboard","","","","tol_peg_2","1370","1370","0","[[0,0,0],[1,2],[3]]","9","[[0,0,0],[1,2],[3]]","4","0","","","","","","7","","","","","","","","",""
"","","","","","poldrack-single-stim","80","289387","0.0-2.0-23.0","57be89f4c7fcbf0001c39491","A3","batch1","","-1","tol_feedback","","","true","","1000","1000","500","","","","","","-1","none","true","12503","26223","","","","","","","","","",""
"","","","","","html-button-response","81","290912","0.0-2.0-24.0","57be89f4c7fcbf0001c39491","A3","batch1","","1523.3999999761581","tol_trial_num","<div class = centerbox><p class = center-block-text>problem <strong>6</strong> out of 25 problems</p></div>","0","","","","","","","","","","","","","","","","","","","","","","","","",""
"","","","","","single-stim-button","82","321093","0.0-2.0-25.0-0.0","57be89f4c7fcbf0001c39491","A3","batch1","","30180","tol_tohand","","","","tol_peg_3","30180","30180","0","[[0,0,0],[1,2],[0]]","1","[[1,0,0],[2,3],[0]]","5","0","","","","","","6","","","","","","","","",""
"","","","","","single-stim-button","83","323040","0.0-2.0-25.0-1.0","57be89f4c7fcbf0001c39491","A3","batch1","","1944","tol_toboard","","","","tol_peg_1","1944","1944","0","[[3,0,0],[1,2],[0]]","1","[[1,0,0],[2,3],[0]]","5","0","","","","","","6","","","","","","","","",""
"","","","","","single-stim-button","84","324205","0.0-2.0-25.1-0.1","57be89f4c7fcbf0001c39491","A3","batch1","","1164","tol_tohand","","","","tol_peg_2","1164","1164","0","[[3,0,0],[1,0],[0]]","2","[[1,0,0],[2,3],[0]]","5","0","","","","","","6","","","","","","","","",""
"","","","","","single-stim-button","85","326053","0.0-2.0-25.1-1.1","57be89f4c7fcbf0001c39491","A3","batch1","","1846","tol_toboard","","","","tol_peg_3","1846","1846","0","[[3,0,0],[1,0],[2]]","2","[[1,0,0],[2,3],[0]]","5","0","","","","","","6","","","","","","","","",""
"","","","","","single-stim-button","86","337136","0.0-2.0-25.2-0.2","57be89f4c7fcbf0001c39491","A3","batch1","","11082","tol_tohand","","","","tol_peg_3","11082","11082","0","[[3,0,0],[1,0],[0]]","3","[[1,0,0],[2,3],[0]]","5","0","","","","","","6","","","","","","","","",""
"","","","","","single-stim-button","87","339082","0.0-2.0-25.2-1.2","57be89f4c7fcbf0001c39491","A3","batch1","","1943","tol_toboard","","","","tol_peg_1","1943","1943","0","[[3,2,0],[1,0],[0]]","3","[[1,0,0],[2,3],[0]]","5","0","","","","","","6","","","","","","","","",""
"","","","","","single-stim-button","88","340168","0.0-2.0-25.3-0.3","57be89f4c7fcbf0001c39491","A3","batch1","","1084","tol_tohand","","","","tol_peg_2","1084","1084","0","[[3,2,0],[0,0],[0]]","4","[[1,0,0],[2,3],[0]]","5","0","","","","","","6","","","","","","","","",""
"","","","","","single-stim-button","89","341245","0.0-2.0-25.3-1.3","57be89f4c7fcbf0001c39491","A3","batch1","","1076","tol_toboard","","","","tol_peg_3","1076","1076","0","[[3,2,0],[0,0],[1]]","4","[[1,0,0],[2,3],[0]]","5","0","","","","","","6","","","","","","","","",""
"","","","","","single-stim-button","90","342828","0.0-2.0-25.4-0.4","57be89f4c7fcbf0001c39491","A3","batch1","","1580","tol_tohand","","","","tol_peg_1","1580","1580","0","[[3,0,0],[0,0],[1]]","5","[[1,0,0],[2,3],[0]]","5","0","","","","","","6","","","","","","","","",""
"","","","","","single-stim-button","91","344293","0.0-2.0-25.4-1.4","57be89f4c7fcbf0001c39491","A3","batch1","","1463","tol_toboard","","","","tol_peg_2","1463","1463","0","[[3,0,0],[2,0],[1]]","5","[[1,0,0],[2,3],[0]]","5","0","","","","","","6","","","","","","","","",""
"","","","","","single-stim-button","92","345390","0.0-2.0-25.5-0.5","57be89f4c7fcbf0001c39491","A3","batch1","","1095","tol_tohand","","","","tol_peg_1","1095","1095","0","[[0,0,0],[2,0],[1]]","6","[[1,0,0],[2,3],[0]]","5","0","","","","","","6","","","","","","","","",""
"","","","","","single-stim-button","93","346471","0.0-2.0-25.5-1.5","57be89f4c7fcbf0001c39491","A3","batch1","","1079","tol_toboard","","","","tol_peg_2","1079","1079","0","[[0,0,0],[2,3],[1]]","6","[[1,0,0],[2,3],[0]]","5","0","","","","","","6","","","","","","","","",""
"","","","","","single-stim-button","94","347585","0.0-2.0-25.6-0.6","57be89f4c7fcbf0001c39491","A3","batch1","","1112","tol_tohand","","","","tol_peg_3","1112","1112","0","[[0,0,0],[2,3],[0]]","7","[[1,0,0],[2,3],[0]]","5","0","","","","","","6","","","","","","","","",""
"","","","","","single-stim-button","95","349024","0.0-2.0-25.6-1.6","57be89f4c7fcbf0001c39491","A3","batch1","","1437","tol_toboard","","","","tol_peg_1","1437","1437","0","[[1,0,0],[2,3],[0]]","7","[[1,0,0],[2,3],[0]]","5","0","","","","","","6","","","","","","","","",""
"","","","","","poldrack-single-stim","96","350039","0.0-2.0-26.0","57be89f4c7fcbf0001c39491","A3","batch1","","-1","tol_feedback","","","true","","1000","1000","500","","","","","","-1","none","true","30180","47297","","","","","","","","","",""
"","","","","","html-button-response","97","351657","0.0-2.0-27.0","57be89f4c7fcbf0001c39491","A3","batch1","","1616.800000011921","tol_trial_num","<div class = centerbox><p class = center-block-text>problem <strong>7</strong> out of 25 problems</p></div>","0","","","","","","","","","","","","","","","","","","","","","","","","",""
"","","","","","single-stim-button","98","355225","0.0-2.0-28.0-0.0","57be89f4c7fcbf0001c39491","A3","batch1","","3566","tol_tohand","","","","tol_peg_3","3566","3566","0","[[2,1,0],[0,0],[0]]","1","[[1,2,0],[3,0],[0]]","6","0","","","","","","5","","","","","","","","",""
"","","","","","single-stim-button","99","357444","0.0-2.0-28.0-1.0","57be89f4c7fcbf0001c39491","A3","batch1","","2218","tol_toboard","","","","tol_peg_2","2218","2218","0","[[2,1,0],[3,0],[0]]","1","[[1,2,0],[3,0],[0]]","6","0","","","","","","5","","","","","","","","",""
"","","","","","single-stim-button","100","359037","0.0-2.0-28.1-0.1","57be89f4c7fcbf0001c39491","A3","batch1","","1591","tol_tohand","","","","tol_peg_1","1591","1591","0","[[2,0,0],[3,0],[0]]","2","[[1,2,0],[3,0],[0]]","6","0","","","","","","5","","","","","","","","",""
"","","","","","single-stim-button","101","362797","0.0-2.0-28.1-1.1","57be89f4c7fcbf0001c39491","A3","batch1","","3758","tol_toboard","","","","tol_peg_2","3758","3758","0","[[2,0,0],[3,1],[0]]","2","[[1,2,0],[3,0],[0]]","6","0","","","","","","5","","","","","","","","",""
"","","","","","single-stim-button","102","364412","0.0-2.0-28.2-0.2","57be89f4c7fcbf0001c39491","A3","batch1","","1613","tol_tohand","","","","tol_peg_1","1613","1613","0","[[0,0,0],[3,1],[0]]","3","[[1,2,0],[3,0],[0]]","6","0","","","","","","5","","","","","","","","",""
"","","","","","single-stim-button","103","366658","0.0-2.0-28.2-1.2","57be89f4c7fcbf0001c39491","A3","batch1","","2243","tol_toboard","","","","tol_peg_3","2243","2243","0","[[0,0,0],[3,1],[2]]","3","[[1,2,0],[3,0],[0]]","6","0","","","","","","5","","","","","","","","",""
"","","","","","single-stim-button","104","368955","0.0-2.0-28.3-0.3","57be89f4c7fcbf0001c39491","A3","batch1","","2295","tol_tohand","","","","tol_peg_2","2295","2295","0","[[0,0,0],[3,0],[2]]","4","[[1,2,0],[3,0],[0]]","6","0","","","","","","5","","","","","","","","",""
"","","","","","single-stim-button","105","370768","0.0-2.0-28.3-1.3","57be89f4c7fcbf0001c39491","A3","batch1","","1812","tol_toboard","","","","tol_peg_1","1812","1812","0","[[1,0,0],[3,0],[2]]","4","[[1,2,0],[3,0],[0]]","6","0","","","","","","5","","","","","","","","",""
"","","","","","single-stim-button","106","371950","0.0-2.0-28.4-0.4","57be89f4c7fcbf0001c39491","A3","batch1","","1180","tol_tohand","","","","tol_peg_3","1180","1180","0","[[1,0,0],[3,0],[0]]","5","[[1,2,0],[3,0],[0]]","6","0","","","","","","5","","","","","","","","",""
"","","","","","single-stim-button","107","373315","0.0-2.0-28.4-1.4","57be89f4c7fcbf0001c39491","A3","batch1","","1363","tol_toboard","","","","tol_peg_1","1363","1363","0","[[1,2,0],[3,0],[0]]","5","[[1,2,0],[3,0],[0]]","6","0","","","","","","5","","","","","","","","",""
"","","","","","poldrack-single-stim","108","374330","0.0-2.0-29.0","57be89f4c7fcbf0001c39491","A3","batch1","","-1","tol_feedback","","","true","","1000","1000","500","","","","","","-1","none","true","3566","10245","","","","","","","","","",""
"","","","","","html-button-response","109","375755","0.0-2.0-30.0","57be89f4c7fcbf0001c39491","A3","batch1","","1422.800000011921","tol_trial_num","<div class = centerbox><p class = center-block-text>problem <strong>8</strong> out of 25 problems</p></div>","0","","","","","","","","","","","","","","","","","","","","","","","","",""
"","","","","","single-stim-button","110","386910","0.0-2.0-31.0-0.0","57be89f4c7fcbf0001c39491","A3","batch1","","11154","tol_tohand","","","","tol_peg_2","11154","11154","0","[[0,0,0],[2,0],[1]]","1","[[1,2,0],[3,0],[0]]","7","0","","","","","","4","","","","","","","","",""
"","","","","","single-stim-button","111","388442","0.0-2.0-31.0-1.0","57be89f4c7fcbf0001c39491","A3","batch1","","1529","tol_toboard","","","","tol_peg_1","1529","1529","0","[[3,0,0],[2,0],[1]]","1","[[1,2,0],[3,0],[0]]","7","0","","","","","","4","","","","","","","","",""
"","","","","","single-stim-button","112","407413","0.0-2.0-31.1-0.1","57be89f4c7fcbf0001c39491","A3","batch1","","18969","tol_tohand","","","","tol_peg_1","18969","18969","0","[[0,0,0],[2,0],[1]]","2","[[1,2,0],[3,0],[0]]","7","0","","","","","","4","","","","","","","","",""
"","","","","","single-stim-button","113","408894","0.0-2.0-31.1-1.1","57be89f4c7fcbf0001c39491","A3","batch1","","1480","tol_toboard","","","","tol_peg_2","1480","1480","0","[[0,0,0],[2,3],[1]]","2","[[1,2,0],[3,0],[0]]","7","0","","","","","","4","","","","","","","","",""
"","","","","","single-stim-button","114","409960","0.0-2.0-31.2-0.2","57be89f4c7fcbf0001c39491","A3","batch1","","1064","tol_tohand","","","","tol_peg_3","1064","1064","0","[[0,0,0],[2,3],[0]]","3","[[1,2,0],[3,0],[0]]","7","0","","","","","","4","","","","","","","","",""
"","","","","","single-stim-button","115","411694","0.0-2.0-31.2-1.2","57be89f4c7fcbf0001c39491","A3","batch1","","1733","tol_toboard","","","","tol_peg_1","1733","1733","0","[[1,0,0],[2,3],[0]]","3","[[1,2,0],[3,0],[0]]","7","0","","","","","","4","","","","","","","","",""
"","","","","","single-stim-button","116","413072","0.0-2.0-31.3-0.3","57be89f4c7fcbf0001c39491","A3","batch1","","1376","tol_tohand","","","","tol_peg_2","1376","1376","0","[[1,0,0],[2,0],[0]]","4","[[1,2,0],[3,0],[0]]","7","0","","","","","","4","","","","","","","","",""
"","","","","","single-stim-button","117","414652","0.0-2.0-31.3-1.3","57be89f4c7fcbf0001c39491","A3","batch1","","1579","tol_toboard","","","","tol_peg_3","1579","1579","0","[[1,0,0],[2,0],[3]]","4","[[1,2,0],[3,0],[0]]","7","0","","","","","","4","","","","","","","","",""
"","","","","","single-stim-button","118","415685","0.0-2.0-31.4-0.4","57be89f4c7fcbf0001c39491","A3","batch1","","1030","tol_tohand","","","","tol_peg_2","1030","1030","0","[[1,0,0],[0,0],[3]]","5","[[1,2,0],[3,0],[0]]","7","0","","","","","","4","","","","","","","","",""
"","","","","","single-stim-button","119","417564","0.0-2.0-31.4-1.4","57be89f4c7fcbf0001c39491","A3","batch1","","1878","tol_toboard","","","","tol_peg_1","1878","1878","0","[[1,2,0],[0,0],[3]]","5","[[1,2,0],[3,0],[0]]","7","0","","","","","","4","","","","","","","","",""
"","","","","","single-stim-button","120","420728","0.0-2.0-31.5-0.5","57be89f4c7fcbf0001c39491","A3","batch1","","3161","tol_tohand","","","","tol_peg_3","3161","3161","0","[[1,2,0],[0,0],[0]]","6","[[1,2,0],[3,0],[0]]","7","0","","","","","","4","","","","","","","","",""
"","","","","","single-stim-button","121","422391","0.0-2.0-31.5-1.5","57be89f4c7fcbf0001c39491","A3","batch1","","1661","tol_toboard","","","","tol_peg_2","1661","1661","0","[[1,2,0],[3,0],[0]]","6","[[1,2,0],[3,0],[0]]","7","0","","","","","","4","","","","","","","","",""
"","","","","","poldrack-single-stim","122","423401","0.0-2.0-32.0","57be89f4c7fcbf0001c39491","A3","batch1","","-1","tol_feedback","","","true","","1000","1000","500","","","","","","-1","none","true","11154","36754","","","","","","","","","",""
"","","","","","html-button-response","123","424797","0.0-2.0-33.0","57be89f4c7fcbf0001c39491","A3","batch1","","1393.9000000357628","tol_trial_num","<div class = centerbox><p class = center-block-text>problem <strong>9</strong> out of 25 problems</p></div>","0","","","","","","","","","","","","","","","","","","","","","","","","",""
"","","","","","single-stim-button","124","453621","0.0-2.0-34.0-0.0","57be89f4c7fcbf0001c39491","A3","batch1","","28822","tol_tohand","","","","tol_peg_3","28822","28822","0","[[3,2,0],[0,0],[0]]","1","[[2,1,0],[3,0],[0]]","8","0","","","","","","6","","","","","","","","",""
"","","","","","single-stim-button","125","455163","0.0-2.0-34.0-1.0","57be89f4c7fcbf0001c39491","A3","batch1","","1541","tol_toboard","","","","tol_peg_2","1541","1541","0","[[3,2,0],[1,0],[0]]","1","[[2,1,0],[3,0],[0]]","8","0","","","","","","6","","","","","","","","",""
"","","","","","single-stim-button","126","456241","0.0-2.0-34.1-0.1","57be89f4c7fcbf0001c39491","A3","batch1","","1076","tol_tohand","","","","tol_peg_1","1076","1076","0","[[3,0,0],[1,0],[0]]","2","[[2,1,0],[3,0],[0]]","8","0","","","","","","6","","","","","","","","",""
"","","","","","single-stim-button","127","457622","0.0-2.0-34.1-1.1","57be89f4c7fcbf0001c39491","A3","batch1","","1379","tol_toboard","","","","tol_peg_2","1379","1379","0","[[3,0,0],[1,2],[0]]","2","[[2,1,0],[3,0],[0]]","8","0","","","","","","6","","","","","","","","",""
"","","","","","single-stim-button","128","458756","0.0-2.0-34.2-0.2","57be89f4c7fcbf0001c39491","A3","batch1","","1134","tol_tohand","","","","tol_peg_1","1134","1134","0","[[0,0,0],[1,2],[0]]","3","[[2,1,0],[3,0],[0]]","8","0","","","","","","6","","","","","","","","",""
"","","","","","single-stim-button","129","459917","0.0-2.0-34.2-1.2","57be89f4c7fcbf0001c39491","A3","batch1","","1160","tol_toboard","","","","tol_peg_3","1160","1160","0","[[0,0,0],[1,2],[3]]","3","[[2,1,0],[3,0],[0]]","8","0","","","","","","6","","","","","","","","",""
"","","","","","single-stim-button","130","460967","0.0-2.0-34.3-0.3","57be89f4c7fcbf0001c39491","A3","batch1","","1048","tol_tohand","","","","tol_peg_2","1048","1048","0","[[0,0,0],[1,0],[3]]","4","[[2,1,0],[3,0],[0]]","8","0","","","","","","6","","","","","","","","",""
"","","","","","single-stim-button","131","462457","0.0-2.0-34.3-1.3","57be89f4c7fcbf0001c39491","A3","batch1","","1488","tol_toboard","","","","tol_peg_1","1488","1488","0","[[2,0,0],[1,0],[3]]","4","[[2,1,0],[3,0],[0]]","8","0","","","","","","6","","","","","","","","",""
"","","","","","single-stim-button","132","463712","0.0-2.0-34.4-0.4","57be89f4c7fcbf0001c39491","A3","batch1","","1253","tol_tohand","","","","tol_peg_2","1253","1253","0","[[2,0,0],[0,0],[3]]","5","[[2,1,0],[3,0],[0]]","8","0","","","","","","6","","","","","","","","",""
"","","","","","single-stim-button","133","465193","0.0-2.0-34.4-1.4","57be89f4c7fcbf0001c39491","A3","batch1","","1481","tol_toboard","","","","tol_peg_1","1481","1481","0","[[2,1,0],[0,0],[3]]","5","[[2,1,0],[3,0],[0]]","8","0","","","","","","6","","","","","","","","",""
"","","","","","single-stim-button","134","466464","0.0-2.0-34.5-0.5","57be89f4c7fcbf0001c39491","A3","batch1","","1269","tol_tohand","","","","tol_peg_3","1269","1269","0","[[2,1,0],[0,0],[0]]","6","[[2,1,0],[3,0],[0]]","8","0","","","","","","6","","","","","","","","",""
"","","","","","single-stim-button","135","467686","0.0-2.0-34.5-1.5","57be89f4c7fcbf0001c39491","A3","batch1","","1220","tol_toboard","","","","tol_peg_2","1220","1220","0","[[2,1,0],[3,0],[0]]","6","[[2,1,0],[3,0],[0]]","8","0","","","","","","6","","","","","","","","",""
"","","","","","poldrack-single-stim","136","468693","0.0-2.0-35.0","57be89f4c7fcbf0001c39491","A3","batch1","","-1","tol_feedback","","","true","","1000","1000","500","","","","","","-1","none","true","28822","34602","","","","","","","","","",""
"","","","","","html-button-response","137","470193","0.0-2.0-36.0","57be89f4c7fcbf0001c39491","A3","batch1","","1498.5999999642372","tol_trial_num","<div class = centerbox><p class = center-block-text>problem <strong>10</strong> out of 25 problems</p></div>","0","","","","","","","","","","","","","","","","","","","","","","","","",""
"","","","","","single-stim-button","138","475344","0.0-2.0-37.0-0.0","57be89f4c7fcbf0001c39491","A3","batch1","","5149","tol_tohand","","","","tol_peg_2","5149","5149","0","[[3,0,0],[0,0],[2]]","1","[[3,0,0],[2,1],[0]]","9","0","","","","","","3","","","","","","","","",""
"","","","","","single-stim-button","139","476693","0.0-2.0-37.0-1.0","57be89f4c7fcbf0001c39491","A3","batch1","","1347","tol_toboard","","","","tol_peg_1","1347","1347","0","[[3,1,0],[0,0],[2]]","1","[[3,0,0],[2,1],[0]]","9","0","","","","","","3","","","","","","","","",""
"","","","","","single-stim-button","140","478044","0.0-2.0-37.1-0.1","57be89f4c7fcbf0001c39491","A3","batch1","","1349","tol_tohand","","","","tol_peg_3","1349","1349","0","[[3,1,0],[0,0],[0]]","2","[[3,0,0],[2,1],[0]]","9","0","","","","","","3","","","","","","","","",""
"","","","","","single-stim-button","141","479173","0.0-2.0-37.1-1.1","57be89f4c7fcbf0001c39491","A3","batch1","","1127","tol_toboard","","","","tol_peg_2","1127","1127","0","[[3,1,0],[2,0],[0]]","2","[[3,0,0],[2,1],[0]]","9","0","","","","","","3","","","","","","","","",""
"","","","","","single-stim-button","142","480555","0.0-2.0-37.2-0.2","57be89f4c7fcbf0001c39491","A3","batch1","","1380","tol_tohand","","","","tol_peg_1","1380","1380","0","[[3,0,0],[2,0],[0]]","3","[[3,0,0],[2,1],[0]]","9","0","","","","","","3","","","","","","","","",""
"","","","","","single-stim-button","143","481618","0.0-2.0-37.2-1.2","57be89f4c7fcbf0001c39491","A3","batch1","","1061","tol_toboard","","","","tol_peg_2","1061","1061","0","[[3,0,0],[2,1],[0]]","3","[[3,0,0],[2,1],[0]]","9","0","","","","","","3","","","","","","","","",""
"","","","","","poldrack-single-stim","144","482630","0.0-2.0-38.0","57be89f4c7fcbf0001c39491","A3","batch1","","-1","tol_feedback","","","true","","1000","1000","500","","","","","","-1","none","true","5149","7878","","","","","","","","","",""
"","","","","","html-button-response","145","484209","0.0-2.0-39.0","57be89f4c7fcbf0001c39491","A3","batch1","","1578.199999988079","tol_trial_num","<div class = centerbox><p class = center-block-text>problem <strong>11</strong> out of 25 problems</p></div>","0","","","","","","","","","","","","","","","","","","","","","","","","",""
"","","","","","single-stim-button","146","516983","0.0-2.0-40.0-0.0","57be89f4c7fcbf0001c39491","A3","batch1","","32772","tol_tohand","","","","tol_peg_1","32772","32772","0","[[1,0,0],[3,0],[0]]","1","[[2,0,0],[1,3],[0]]","10","0","","","","","","6","","","","","","","","",""
"","","","","","single-stim-button","147","519162","0.0-2.0-40.0-1.0","57be89f4c7fcbf0001c39491","A3","batch1","","2178","tol_toboard","","","","tol_peg_2","2178","2178","0","[[1,0,0],[3,2],[0]]","1","[[2,0,0],[1,3],[0]]","10","0","","","","","","6","","","","","","","","",""
"","","","","","single-stim-button","148","521593","0.0-2.0-40.1-0.1","57be89f4c7fcbf0001c39491","A3","batch1","","2429","tol_tohand","","","","tol_peg_1","2429","2429","0","[[0,0,0],[3,2],[0]]","2","[[2,0,0],[1,3],[0]]","10","0","","","","","","6","","","","","","","","",""
"","","","","","single-stim-button","149","522973","0.0-2.0-40.1-1.1","57be89f4c7fcbf0001c39491","A3","batch1","","1378","tol_toboard","","","","tol_peg_3","1378","1378","0","[[0,0,0],[3,2],[1]]","2","[[2,0,0],[1,3],[0]]","10","0","","","","","","6","","","","","","","","",""
"","","","","","single-stim-button","150","524397","0.0-2.0-40.2-0.2","57be89f4c7fcbf0001c39491","A3","batch1","","1422","tol_tohand","","","","tol_peg_2","1422","1422","0","[[0,0,0],[3,0],[1]]","3","[[2,0,0],[1,3],[0]]","10","0","","","","","","6","","","","","","","","",""
"","","","","","single-stim-button","151","526085","0.0-2.0-40.2-1.2","57be89f4c7fcbf0001c39491","A3","batch1","","1686","tol_toboard","","","","tol_peg_1","1686","1686","0","[[2,0,0],[3,0],[1]]","3","[[2,0,0],[1,3],[0]]","10","0","","","","","","6","","","","","","","","",""
"","","","","","single-stim-button","152","528830","0.0-2.0-40.3-0.3","57be89f4c7fcbf0001c39491","A3","batch1","","2744","tol_tohand","","","","tol_peg_2","2744","2744","0","[[2,0,0],[0,0],[1]]","4","[[2,0,0],[1,3],[0]]","10","0","","","","","","6","","","","","","","","",""
"","","","","","single-stim-button","153","530230","0.0-2.0-40.3-1.3","57be89f4c7fcbf0001c39491","A3","batch1","","1398","tol_toboard","","","","tol_peg_1","1398","1398","0","[[2,3,0],[0,0],[1]]","4","[[2,0,0],[1,3],[0]]","10","0","","","","","","6","","","","","","","","",""
"","","","","","single-stim-button","154","531361","0.0-2.0-40.4-0.4","57be89f4c7fcbf0001c39491","A3","batch1","","1130","tol_tohand","","","","tol_peg_3","1130","1130","0","[[2,3,0],[0,0],[0]]","5","[[2,0,0],[1,3],[0]]","10","0","","","","","","6","","","","","","","","",""
"","","","","","single-stim-button","155","532608","0.0-2.0-40.4-1.4","57be89f4c7fcbf0001c39491","A3","batch1","","1246","tol_toboard","","","","tol_peg_2","1246","1246","0","[[2,3,0],[1,0],[0]]","5","[[2,0,0],[1,3],[0]]","10","0","","","","","","6","","","","","","","","",""
"","","","","","single-stim-button","156","533634","0.0-2.0-40.5-0.5","57be89f4c7fcbf0001c39491","A3","batch1","","1024","tol_tohand","","","","tol_peg_1","1024","1024","0","[[2,0,0],[1,0],[0]]","6","[[2,0,0],[1,3],[0]]","10","0","","","","","","6","","","","","","","","",""
"","","","","","single-stim-button","157","534672","0.0-2.0-40.5-1.5","57be89f4c7fcbf0001c39491","A3","batch1","","1036","tol_toboard","","","","tol_peg_2","1036","1036","0","[[2,0,0],[1,3],[0]]","6","[[2,0,0],[1,3],[0]]","10","0","","","","","","6","","","","","","","","",""
"","","","","","poldrack-single-stim","158","535677","0.0-2.0-41.0","57be89f4c7fcbf0001c39491","A3","batch1","","-1","tol_feedback","","","true","","1000","1000","500","","","","","","-1","none","true","32772","41521","","","","","","","","","",""
"","","","","","html-button-response","159","537159","0.0-2.0-42.0","57be89f4c7fcbf0001c39491","A3","batch1","","1480.5","tol_trial_num","<div class = centerbox><p class = center-block-text>problem <strong>12</strong> out of 25 problems</p></div>","0","","","","","","","","","","","","","","","","","","","","","","","","",""
"","","","","","single-stim-button","160","542975","0.0-2.0-43.0-0.0","57be89f4c7fcbf0001c39491","A3","batch1","","5814","tol_tohand","","","","tol_peg_1","5814","5814","0","[[1,0,0],[3,0],[0]]","1","[[2,3,0],[0,0],[1]]","11","0","","","","","","4","","","","","","","","",""
"","","","","","single-stim-button","161","543976","0.0-2.0-43.0-1.0","57be89f4c7fcbf0001c39491","A3","batch1","","998","tol_toboard","","","","tol_peg_2","998","998","0","[[1,0,0],[3,2],[0]]","1","[[2,3,0],[0,0],[1]]","11","0","","","","","","4","","","","","","","","",""
"","","","","","single-stim-button","162","545306","0.0-2.0-43.1-0.1","57be89f4c7fcbf0001c39491","A3","batch1","","1329","tol_tohand","","","","tol_peg_1","1329","1329","0","[[0,0,0],[3,2],[0]]","2","[[2,3,0],[0,0],[1]]","11","0","","","","","","4","","","","","","","","",""
"","","","","","single-stim-button","163","546704","0.0-2.0-43.1-1.1","57be89f4c7fcbf0001c39491","A3","batch1","","1396","tol_toboard","","","","tol_peg_3","1396","1396","0","[[0,0,0],[3,2],[1]]","2","[[2,3,0],[0,0],[1]]","11","0","","","","","","4","","","","","","","","",""
"","","","","","single-stim-button","164","547926","0.0-2.0-43.2-0.2","57be89f4c7fcbf0001c39491","A3","batch1","","1221","tol_tohand","","","","tol_peg_2","1221","1221","0","[[0,0,0],[3,0],[1]]","3","[[2,3,0],[0,0],[1]]","11","0","","","","","","4","","","","","","","","",""
"","","","","","single-stim-button","165","549134","0.0-2.0-43.2-1.2","57be89f4c7fcbf0001c39491","A3","batch1","","1206","tol_toboard","","","","tol_peg_1","1206","1206","0","[[2,0,0],[3,0],[1]]","3","[[2,3,0],[0,0],[1]]","11","0","","","","","","4","","","","","","","","",""
"","","","","","single-stim-button","166","550166","0.0-2.0-43.3-0.3","57be89f4c7fcbf0001c39491","A3","batch1","","1031","tol_tohand","","","","tol_peg_2","1031","1031","0","[[2,0,0],[0,0],[1]]","4","[[2,3,0],[0,0],[1]]","11","0","","","","","","4","","","","","","","","",""
"","","","","","single-stim-button","167","551464","0.0-2.0-43.3-1.3","57be89f4c7fcbf0001c39491","A3","batch1","","1297","tol_toboard","","","","tol_peg_1","1297","1297","0","[[2,3,0],[0,0],[1]]","4","[[2,3,0],[0,0],[1]]","11","0","","","","","","4","","","","","","","","",""
"","","","","","poldrack-single-stim","168","552476","0.0-2.0-44.0","57be89f4c7fcbf0001c39491","A3","batch1","","-1","tol_feedback","","","true","","1000","1000","500","","","","","","-1","none","true","5814","9395","","","","","","","","","",""
"","","","","","html-button-response","169","554199","0.0-2.0-45.0","57be89f4c7fcbf0001c39491","A3","batch1","","1722.300000011921","tol_trial_num","<div class = centerbox><p class = center-block-text>problem <strong>13</strong> out of 25 problems</p></div>","0","","","","","","","","","","","","","","","","","","","","","","","","",""
"","","","","","single-stim-button","170","571434","0.0-2.0-46.0-0.0","57be89f4c7fcbf0001c39491","A3","batch1","","17232","tol_tohand","","","","tol_peg_1","17232","17232","0","[[1,0,0],[3,0],[0]]","1","[[0,0,0],[2,3],[1]]","12","0","","","","","","4","","","","","","","","",""
"","","","","","single-stim-button","171","572648","0.0-2.0-46.0-1.0","57be89f4c7fcbf0001c39491","A3","batch1","","1211","tol_toboard","","","","tol_peg_2","1211","1211","0","[[1,0,0],[3,2],[0]]","1","[[0,0,0],[2,3],[1]]","12","0","","","","","","4","","","","","","","","",""
"","","","","","single-stim-button","172","573895","0.0-2.0-46.1-0.1","57be89f4c7fcbf0001c39491","A3","batch1","","1246","tol_tohand","","","","tol_peg_1","1246","1246","0","[[0,0,0],[3,2],[0]]","2","[[0,0,0],[2,3],[1]]","12","0","","","","","","4","","","","","","","","",""
"","","","","","single-stim-button","173","575129","0.0-2.0-46.1-1.1","57be89f4c7fcbf0001c39491","A3","batch1","","1232","tol_toboard","","","","tol_peg_3","1232","1232","0","[[0,0,0],[3,2],[1]]","2","[[0,0,0],[2,3],[1]]","12","0","","","","","","4","","","","","","","","",""
"","","","","","single-stim-button","174","576205","0.0-2.0-46.2-0.2","57be89f4c7fcbf0001c39491","A3","batch1","","1074","tol_tohand","","","","tol_peg_2","1074","1074","0","[[0,0,0],[3,0],[1]]","3","[[0,0,0],[2,3],[1]]","12","0","","","","","","4","","","","","","","","",""
"","","","","","single-stim-button","175","578568","0.0-2.0-46.2-1.2","57be89f4c7fcbf0001c39491","A3","batch1","","2362","tol_toboard","","","","tol_peg_1","2362","2362","0","[[2,0,0],[3,0],[1]]","3","[[0,0,0],[2,3],[1]]","12","0","","","","","","4","","","","","","","","",""
"","","","","","single-stim-button","176","587107","0.0-2.0-46.3-0.3","57be89f4c7fcbf0001c39491","A3","batch1","","8536","tol_tohand","","","","tol_peg_3","8536","8536","0","[[2,0,0],[3,0],[0]]","4","[[0,0,0],[2,3],[1]]","12","0","","","","","","4","","","","","","","","",""
"","","","","","single-stim-button","177","588055","0.0-2.0-46.3-1.3","57be89f4c7fcbf0001c39491","A3","batch1","","947","tol_toboard","","","","tol_peg_2","947","947","0","[[2,0,0],[3,1],[0]]","4","[[0,0,0],[2,3],[1]]","12","0","","","","","","4","","","","","","","","",""
"","","","","","single-stim-button","178","590934","0.0-2.0-46.4-0.4","57be89f4c7fcbf0001c39491","A3","batch1","","2878","tol_tohand","","","","tol_peg_2","2878","2878","0","[[2,0,0],[3,0],[0]]","5","[[0,0,0],[2,3],[1]]","12","0","","","","","","4","","","","","","","","",""
"","","","","","single-stim-button","179","592098","0.0-2.0-46.4-1.4","57be89f4c7fcbf0001c39491","A3","batch1","","1162","tol_toboard","","","","tol_peg_1","1162","1162","0","[[2,1,0],[3,0],[0]]","5","[[0,0,0],[2,3],[1]]","12","0","","","","","","4","","","","","","","","",""
"","","","","","single-stim-button","180","594012","0.0-2.0-46.5-0.5","57be89f4c7fcbf0001c39491","A3","batch1","","1912","tol_tohand","","","","tol_peg_2","1912","1912","0","[[2,1,0],[0,0],[0]]","6","[[0,0,0],[2,3],[1]]","12","0","","","","","","4","","","","","","","","",""
"","","","","","single-stim-button","181","595297","0.0-2.0-46.5-1.5","57be89f4c7fcbf0001c39491","A3","batch1","","1284","tol_toboard","","","","tol_peg_3","1284","1284","0","[[2,1,0],[0,0],[3]]","6","[[0,0,0],[2,3],[1]]","12","0","","","","","","4","","","","","","","","",""
"","","","","","single-stim-button","182","599387","0.0-2.0-46.6-0.6","57be89f4c7fcbf0001c39491","A3","batch1","","4088","tol_tohand","","","","tol_peg_1","4088","4088","0","[[2,0,0],[0,0],[3]]","7","[[0,0,0],[2,3],[1]]","12","0","","","","","","4","","","","","","","","",""
"","","","","","single-stim-button","183","605944","0.0-2.0-46.6-1.6","57be89f4c7fcbf0001c39491","A3","batch1","","6555","tol_toboard","","","","tol_peg_2","6555","6555","0","[[2,0,0],[1,0],[3]]","7","[[0,0,0],[2,3],[1]]","12","0","","","","","","4","","","","","","","","",""
"","","","","","single-stim-button","184","618143","0.0-2.0-46.7-0.7","57be89f4c7fcbf0001c39491","A3","batch1","","12196","tol_tohand","","","","tol_peg_1","12196","12196","0","[[0,0,0],[1,0],[3]]","8","[[0,0,0],[2,3],[1]]","12","0","","","","","","4","","","","","","","","",""
"","","","","","single-stim-button","185","619534","0.0-2.0-46.7-1.7","57be89f4c7fcbf0001c39491","A3","batch1","","1389","tol_toboard","","","","tol_peg_2","1389","1389","0","[[0,0,0],[1,2],[3]]","8","[[0,0,0],[2,3],[1]]","12","0","","","","","","4","","","","","","","","",""
"","","","","","single-stim-button","186","620540","0.0-2.0-46.8-0.8","57be89f4c7fcbf0001c39491","A3","batch1","","1004","tol_tohand","","","","tol_peg_3","1004","1004","0","[[0,0,0],[1,2],[0]]","9","[[0,0,0],[2,3],[1]]","12","0","","","","","","4","","","","","","","","",""
"","","","","","single-stim-button","187","622375","0.0-2.0-46.8-1.8","57be89f4c7fcbf0001c39491","A3","batch1","","1834","tol_toboard","","","","tol_peg_1","1834","1834","0","[[3,0,0],[1,2],[0]]","9","[[0,0,0],[2,3],[1]]","12","0","","","","","","4","","","","","","","","",""
"","","","","","single-stim-button","188","623491","0.0-2.0-46.9-0.9","57be89f4c7fcbf0001c39491","A3","batch1","","1114","tol_tohand","","","","tol_peg_2","1114","1114","0","[[3,0,0],[1,0],[0]]","10","[[0,0,0],[2,3],[1]]","12","0","","","","","","4","","","","","","","","",""
"","","","","","single-stim-button","189","624699","0.0-2.0-46.9-1.9","57be89f4c7fcbf0001c39491","A3","batch1","","1207","tol_toboard","","","","tol_peg_1","1207","1207","0","[[3,2,0],[1,0],[0]]","10","[[0,0,0],[2,3],[1]]","12","0","","","","","","4","","","","","","","","",""
"","","","","","single-stim-button","190","625764","0.0-2.0-46.10-0.10","57be89f4c7fcbf0001c39491","A3","batch1","","1062","tol_tohand","","","","tol_peg_2","1062","1062","0","[[3,2,0],[0,0],[0]]","11","[[0,0,0],[2,3],[1]]","12","0","","","","","","4","","","","","","","","",""
"","","","","","single-stim-button","191","626863","0.0-2.0-46.10-1.10","57be89f4c7fcbf0001c39491","A3","batch1","","1097","tol_toboard","","","","tol_peg_3","1097","1097","0","[[3,2,0],[0,0],[1]]","11","[[0,0,0],[2,3],[1]]","12","0","","","","","","4","","","","","","","","",""
"","","","","","single-stim-button","192","628445","0.0-2.0-46.11-0.11","57be89f4c7fcbf0001c39491","A3","batch1","","1580","tol_tohand","","","","tol_peg_1","1580","1580","0","[[3,0,0],[0,0],[1]]","12","[[0,0,0],[2,3],[1]]","12","0","","","","","","4","","","","","","","","",""
"","","","","","single-stim-button","193","629941","0.0-2.0-46.11-1.11","57be89f4c7fcbf0001c39491","A3","batch1","","1495","tol_toboard","","","","tol_peg_2","1495","1495","0","[[3,0,0],[2,0],[1]]","12","[[0,0,0],[2,3],[1]]","12","0","","","","","","4","","","","","","","","",""
"","","","","","single-stim-button","194","630965","0.0-2.0-46.12-0.12","57be89f4c7fcbf0001c39491","A3","batch1","","1021","tol_tohand","","","","tol_peg_1","1021","1021","0","[[0,0,0],[2,0],[1]]","13","[[0,0,0],[2,3],[1]]","12","0","","","","","","4","","","","","","","","",""
"","","","","","single-stim-button","195","632139","0.0-2.0-46.12-1.12","57be89f4c7fcbf0001c39491","A3","batch1","","1172","tol_toboard","","","","tol_peg_2","1172","1172","0","[[0,0,0],[2,3],[1]]","13","[[0,0,0],[2,3],[1]]","12","0","","","","","","4","","","","","","","","",""
"","","","","","poldrack-single-stim","196","633148","0.0-2.0-47.0","57be89f4c7fcbf0001c39491","A3","batch1","","-1","tol_feedback","","","true","","1000","1000","500","","","","","","-1","none","true","17232","54943","","","","","","","","","",""
"","","","","","html-button-response","197","636273","0.0-2.0-48.0","57be89f4c7fcbf0001c39491","A3","batch1","","3124.7999999523163","attention_check","<p class = block-text>How many balls are in your board<br></p>","1","true","","","","","","","","","","","","","","","","","","","","","","","",""
"","","","","","html-button-response","198","637701","0.0-2.0-49.0","57be89f4c7fcbf0001c39491","A3","batch1","","1426.1000000238419","tol_trial_num","<div class = centerbox><p class = center-block-text>problem <strong>14</strong> out of 25 problems</p></div>","0","","","","","","","","","","","","","","","","","","","","","","","","",""
"","","","","","single-stim-button","199","643236","0.0-2.0-50.0-0.0","57be89f4c7fcbf0001c39491","A3","batch1","","5531","tol_tohand","","","","tol_peg_1","5531","5531","0","[[2,0,0],[3,0],[0]]","1","[[1,2,0],[3,0],[0]]","13","0","","","","","","4","","","","","","","","",""
"","","","","","single-stim-button","200","645332","0.0-2.0-50.0-1.0","57be89f4c7fcbf0001c39491","A3","batch1","","2094","tol_toboard","","","","tol_peg_3","2094","2094","0","[[2,0,0],[3,0],[1]]","1","[[1,2,0],[3,0],[0]]","13","0","","","","","","4","","","","","","","","",""
"","","","","","single-stim-button","201","646721","0.0-2.0-50.1-0.1","57be89f4c7fcbf0001c39491","A3","batch1","","1388","tol_tohand","","","","tol_peg_1","1388","1388","0","[[0,0,0],[3,0],[1]]","2","[[1,2,0],[3,0],[0]]","13","0","","","","","","4","","","","","","","","",""
"","","","","","single-stim-button","202","648021","0.0-2.0-50.1-1.1","57be89f4c7fcbf0001c39491","A3","batch1","","1297","tol_toboard","","","","tol_peg_2","1297","1297","0","[[0,0,0],[3,2],[1]]","2","[[1,2,0],[3,0],[0]]","13","0","","","","","","4","","","","","","","","",""
"","","","","","single-stim-button","203","649181","0.0-2.0-50.2-0.2","57be89f4c7fcbf0001c39491","A3","batch1","","1158","tol_tohand","","","","tol_peg_3","1158","1158","0","[[0,0,0],[3,2],[0]]","3","[[1,2,0],[3,0],[0]]","13","0","","","","","","4","","","","","","","","",""
"","","","","","single-stim-button","204","650532","0.0-2.0-50.2-1.2","57be89f4c7fcbf0001c39491","A3","batch1","","1349","tol_toboard","","","","tol_peg_1","1349","1349","0","[[1,0,0],[3,2],[0]]","3","[[1,2,0],[3,0],[0]]","13","0","","","","","","4","","","","","","","","",""
"","","","","","single-stim-button","205","651728","0.0-2.0-50.3-0.3","57be89f4c7fcbf0001c39491","A3","batch1","","1193","tol_tohand","","","","tol_peg_2","1193","1193","0","[[1,0,0],[3,0],[0]]","4","[[1,2,0],[3,0],[0]]","13","0","","","","","","4","","","","","","","","",""
"","","","","","single-stim-button","206","652885","0.0-2.0-50.3-1.3","57be89f4c7fcbf0001c39491","A3","batch1","","1155","tol_toboard","","","","tol_peg_1","1155","1155","0","[[1,2,0],[3,0],[0]]","4","[[1,2,0],[3,0],[0]]","13","0","","","","","","4","","","","","","","","",""
"","","","","","poldrack-single-stim","207","653899","0.0-2.0-51.0","57be89f4c7fcbf0001c39491","A3","batch1","","-1","tol_feedback","","","true","","1000","1000","500","","","","","","-1","none","true","5531","9270","","","","","","","","","",""
"","","","","","html-button-response","208","655479","0.0-2.0-52.0","57be89f4c7fcbf0001c39491","A3","batch1","","1578.0999999642372","tol_trial_num","<div class = centerbox><p class = center-block-text>problem <strong>15</strong> out of 25 problems</p></div>","0","","","","","","","","","","","","","","","","","","","","","","","","",""
"","","","","","single-stim-button","209","660160","0.0-2.0-53.0-0.0","57be89f4c7fcbf0001c39491","A3","batch1","","4680","tol_tohand","","","","tol_peg_1","4680","4680","0","[[1,0,0],[3,0],[0]]","1","[[2,0,0],[3,0],[1]]","14","0","","","","","","3","","","","","","","","",""
"","","","","","single-stim-button","210","661592","0.0-2.0-53.0-1.0","57be89f4c7fcbf0001c39491","A3","batch1","","1430","tol_toboard","","","","tol_peg_2","1430","1430","0","[[1,0,0],[3,2],[0]]","1","[[2,0,0],[3,0],[1]]","14","0","","","","","","3","","","","","","","","",""
"","","","","","single-stim-button","211","662699","0.0-2.0-53.1-0.1","57be89f4c7fcbf0001c39491","A3","batch1","","1105","tol_tohand","","","","tol_peg_1","1105","1105","0","[[0,0,0],[3,2],[0]]","2","[[2,0,0],[3,0],[1]]","14","0","","","","","","3","","","","","","","","",""
"","","","","","single-stim-button","212","664056","0.0-2.0-53.1-1.1","57be89f4c7fcbf0001c39491","A3","batch1","","1354","tol_toboard","","","","tol_peg_3","1354","1354","0","[[0,0,0],[3,2],[1]]","2","[[2,0,0],[3,0],[1]]","14","0","","","","","","3","","","","","","","","",""
"","","","","","single-stim-button","213","665254","0.0-2.0-53.2-0.2","57be89f4c7fcbf0001c39491","A3","batch1","","1196","tol_tohand","","","","tol_peg_2","1196","1196","0","[[0,0,0],[3,0],[1]]","3","[[2,0,0],[3,0],[1]]","14","0","","","","","","3","","","","","","","","",""
"","","","","","single-stim-button","214","666833","0.0-2.0-53.2-1.2","57be89f4c7fcbf0001c39491","A3","batch1","","1578","tol_toboard","","","","tol_peg_1","1578","1578","0","[[2,0,0],[3,0],[1]]","3","[[2,0,0],[3,0],[1]]","14","0","","","","","","3","","","","","","","","",""
"","","","","","poldrack-single-stim","215","667847","0.0-2.0-54.0","57be89f4c7fcbf0001c39491","A3","batch1","","-1","tol_feedback","","","true","","1000","1000","500","","","","","","-1","none","true","4680","6981","","","","","","","","","",""
"","","","","","html-button-response","216","669306","0.0-2.0-55.0","57be89f4c7fcbf0001c39491","A3","batch1","","1458","tol_trial_num","<div class = centerbox><p class = center-block-text>problem <strong>16</strong> out of 25 problems</p></div>","0","","","","","","","","","","","","","","","","","","","","","","","","",""
"","","","","","single-stim-button","217","686937","0.0-2.0-56.0-0.0","57be89f4c7fcbf0001c39491","A3","batch1","","17628","tol_tohand","","","","tol_peg_2","17628","17628","0","[[0,0,0],[2,0],[1]]","1","[[2,3,0],[1,0],[0]]","15","0","","","","","","7","","","","","","","","",""
"","","","","","single-stim-button","218","688869","0.0-2.0-56.0-1.0","57be89f4c7fcbf0001c39491","A3","batch1","","1930","tol_toboard","","","","tol_peg_1","1930","1930","0","[[3,0,0],[2,0],[1]]","1","[[2,3,0],[1,0],[0]]","15","0","","","","","","7","","","","","","","","",""
"","","","","","single-stim-button","219","689949","0.0-2.0-56.1-0.1","57be89f4c7fcbf0001c39491","A3","batch1","","1078","tol_tohand","","","","tol_peg_2","1078","1078","0","[[3,0,0],[0,0],[1]]","2","[[2,3,0],[1,0],[0]]","15","0","","","","","","7","","","","","","","","",""
"","","","","","single-stim-button","220","691181","0.0-2.0-56.1-1.1","57be89f4c7fcbf0001c39491","A3","batch1","","1230","tol_toboard","","","","tol_peg_1","1230","1230","0","[[3,2,0],[0,0],[1]]","2","[[2,3,0],[1,0],[0]]","15","0","","","","","","7","","","","","","","","",""
"","","","","","single-stim-button","221","692295","0.0-2.0-56.2-0.2","57be89f4c7fcbf0001c39491","A3","batch1","","1112","tol_tohand","","","","tol_peg_3","1112","1112","0","[[3,2,0],[0,0],[0]]","3","[[2,3,0],[1,0],[0]]","15","0","","","","","","7","","","","","","","","",""
"","","","","","single-stim-button","222","693793","0.0-2.0-56.2-1.2","57be89f4c7fcbf0001c39491","A3","batch1","","1497","tol_toboard","","","","tol_peg_2","1497","1497","0","[[3,2,0],[1,0],[0]]","3","[[2,3,0],[1,0],[0]]","15","0","","","","","","7","","","","","","","","",""
"","","","","","single-stim-button","223","697193","0.0-2.0-56.3-0.3","57be89f4c7fcbf0001c39491","A3","batch1","","3399","tol_tohand","","","","tol_peg_1","3399","3399","0","[[3,0,0],[1,0],[0]]","4","[[2,3,0],[1,0],[0]]","15","0","","","","","","7","","","","","","","","",""
"","","","","","single-stim-button","224","698394","0.0-2.0-56.3-1.3","57be89f4c7fcbf0001c39491","A3","batch1","","1198","tol_toboard","","","","tol_peg_2","1198","1198","0","[[3,0,0],[1,2],[0]]","4","[[2,3,0],[1,0],[0]]","15","0","","","","","","7","","","","","","","","",""
"","","","","","single-stim-button","225","699540","0.0-2.0-56.4-0.4","57be89f4c7fcbf0001c39491","A3","batch1","","1145","tol_tohand","","","","tol_peg_1","1145","1145","0","[[0,0,0],[1,2],[0]]","5","[[2,3,0],[1,0],[0]]","15","0","","","","","","7","","","","","","","","",""
"","","","","","single-stim-button","226","700934","0.0-2.0-56.4-1.4","57be89f4c7fcbf0001c39491","A3","batch1","","1391","tol_toboard","","","","tol_peg_3","1391","1391","0","[[0,0,0],[1,2],[3]]","5","[[2,3,0],[1,0],[0]]","15","0","","","","","","7","","","","","","","","",""
"","","","","","single-stim-button","227","702138","0.0-2.0-56.5-0.5","57be89f4c7fcbf0001c39491","A3","batch1","","1202","tol_tohand","","","","tol_peg_2","1202","1202","0","[[0,0,0],[1,0],[3]]","6","[[2,3,0],[1,0],[0]]","15","0","","","","","","7","","","","","","","","",""
"","","","","","single-stim-button","228","703841","0.0-2.0-56.5-1.5","57be89f4c7fcbf0001c39491","A3","batch1","","1701","tol_toboard","","","","tol_peg_1","1701","1701","0","[[2,0,0],[1,0],[3]]","6","[[2,3,0],[1,0],[0]]","15","0","","","","","","7","","","","","","","","",""
"","","","","","single-stim-button","229","704852","0.0-2.0-56.6-0.6","57be89f4c7fcbf0001c39491","A3","batch1","","1007","tol_tohand","","","","tol_peg_3","1007","1007","0","[[2,0,0],[1,0],[0]]","7","[[2,3,0],[1,0],[0]]","15","0","","","","","","7","","","","","","","","",""
"","","","","","single-stim-button","230","706081","0.0-2.0-56.6-1.6","57be89f4c7fcbf0001c39491","A3","batch1","","1227","tol_toboard","","","","tol_peg_1","1227","1227","0","[[2,3,0],[1,0],[0]]","7","[[2,3,0],[1,0],[0]]","15","0","","","","","","7","","","","","","","","",""
"","","","","","poldrack-single-stim","231","707088","0.0-2.0-57.0","57be89f4c7fcbf0001c39491","A3","batch1","","-1","tol_feedback","","","true","","1000","1000","500","","","","","","-1","none","true","17628","26571","","","","","","","","","",""
"","","","","","html-button-response","232","708894","0.0-2.0-58.0","57be89f4c7fcbf0001c39491","A3","batch1","","1804.5","tol_trial_num","<div class = centerbox><p class = center-block-text>problem <strong>17</strong> out of 25 problems</p></div>","0","","","","","","","","","","","","","","","","","","","","","","","","",""
"","","","","","single-stim-button","233","715617","0.0-2.0-59.0-0.0","57be89f4c7fcbf0001c39491","A3","batch1","","6722","tol_tohand","","","","tol_peg_2","6722","6722","0","[[1,2,0],[0,0],[0]]","1","[[3,1,0],[2,0],[0]]","16","0","","","","","","5","","","","","","","","",""
"","","","","","single-stim-button","234","716924","0.0-2.0-59.0-1.0","57be89f4c7fcbf0001c39491","A3","batch1","","1305","tol_toboard","","","","tol_peg_3","1305","1305","0","[[1,2,0],[0,0],[3]]","1","[[3,1,0],[2,0],[0]]","16","0","","","","","","5","","","","","","","","",""
"","","","","","single-stim-button","235","718130","0.0-2.0-59.1-0.1","57be89f4c7fcbf0001c39491","A3","batch1","","1204","tol_tohand","","","","tol_peg_1","1204","1204","0","[[1,0,0],[0,0],[3]]","2","[[3,1,0],[2,0],[0]]","16","0","","","","","","5","","","","","","","","",""
"","","","","","single-stim-button","236","719427","0.0-2.0-59.1-1.1","57be89f4c7fcbf0001c39491","A3","batch1","","1296","tol_toboard","","","","tol_peg_2","1296","1296","0","[[1,0,0],[2,0],[3]]","2","[[3,1,0],[2,0],[0]]","16","0","","","","","","5","","","","","","","","",""
"","","","","","single-stim-button","237","721759","0.0-2.0-59.2-0.2","57be89f4c7fcbf0001c39491","A3","batch1","","2329","tol_tohand","","","","tol_peg_1","2329","2329","0","[[0,0,0],[2,0],[3]]","3","[[3,1,0],[2,0],[0]]","16","0","","","","","","5","","","","","","","","",""
"","","","","","single-stim-button","238","723289","0.0-2.0-59.2-1.2","57be89f4c7fcbf0001c39491","A3","batch1","","1528","tol_toboard","","","","tol_peg_2","1528","1528","0","[[0,0,0],[2,1],[3]]","3","[[3,1,0],[2,0],[0]]","16","0","","","","","","5","","","","","","","","",""
"","","","","","single-stim-button","239","724479","0.0-2.0-59.3-0.3","57be89f4c7fcbf0001c39491","A3","batch1","","1187","tol_tohand","","","","tol_peg_3","1187","1187","0","[[0,0,0],[2,1],[0]]","4","[[3,1,0],[2,0],[0]]","16","0","","","","","","5","","","","","","","","",""
"","","","","","single-stim-button","240","726201","0.0-2.0-59.3-1.3","57be89f4c7fcbf0001c39491","A3","batch1","","1720","tol_toboard","","","","tol_peg_1","1720","1720","0","[[3,0,0],[2,1],[0]]","4","[[3,1,0],[2,0],[0]]","16","0","","","","","","5","","","","","","","","",""
"","","","","","single-stim-button","241","727140","0.0-2.0-59.4-0.4","57be89f4c7fcbf0001c39491","A3","batch1","","937","tol_tohand","","","","tol_peg_2","937","937","0","[[3,0,0],[2,0],[0]]","5","[[3,1,0],[2,0],[0]]","16","0","","","","","","5","","","","","","","","",""
"","","","","","single-stim-button","242","728515","0.0-2.0-59.4-1.4","57be89f4c7fcbf0001c39491","A3","batch1","","1372","tol_toboard","","","","tol_peg_1","1372","1372","0","[[3,1,0],[2,0],[0]]","5","[[3,1,0],[2,0],[0]]","16","0","","","","","","5","","","","","","","","",""
"","","","","","poldrack-single-stim","243","729530","0.0-2.0-60.0","57be89f4c7fcbf0001c39491","A3","batch1","","-1","tol_feedback","","","true","","1000","1000","500","","","","","","-1","none","true","6722","12379","","","","","","","","","",""
"","","","","","html-button-response","244","730979","0.0-2.0-61.0","57be89f4c7fcbf0001c39491","A3","batch1","","1447.5","tol_trial_num","<div class = centerbox><p class = center-block-text>problem <strong>18</strong> out of 25 problems</p></div>","0","","","","","","","","","","","","","","","","","","","","","","","","",""
"","","","","","single-stim-button","245","739547","0.0-2.0-62.0-0.0","57be89f4c7fcbf0001c39491","A3","batch1","","8566","tol_tohand","","","","tol_peg_2","8566","8566","0","[[1,2,0],[0,0],[0]]","1","[[3,0,0],[2,0],[1]]","17","0","","","","","","5","","","","","","","","",""
"","","","","","single-stim-button","246","740697","0.0-2.0-62.0-1.0","57be89f4c7fcbf0001c39491","A3","batch1","","1147","tol_toboard","","","","tol_peg_3","1147","1147","0","[[1,2,0],[0,0],[3]]","1","[[3,0,0],[2,0],[1]]","17","0","","","","","","5","","","","","","","","",""
"","","","","","single-stim-button","247","742110","0.0-2.0-62.1-0.1","57be89f4c7fcbf0001c39491","A3","batch1","","1412","tol_tohand","","","","tol_peg_1","1412","1412","0","[[1,0,0],[0,0],[3]]","2","[[3,0,0],[2,0],[1]]","17","0","","","","","","5","","","","","","","","",""
"","","","","","single-stim-button","248","743542","0.0-2.0-62.1-1.1","57be89f4c7fcbf0001c39491","A3","batch1","","1430","tol_toboard","","","","tol_peg_2","1430","1430","0","[[1,0,0],[2,0],[3]]","2","[[3,0,0],[2,0],[1]]","17","0","","","","","","5","","","","","","","","",""
"","","","","","single-stim-button","249","745388","0.0-2.0-62.2-0.2","57be89f4c7fcbf0001c39491","A3","batch1","","1845","tol_tohand","","","","tol_peg_1","1845","1845","0","[[0,0,0],[2,0],[3]]","3","[[3,0,0],[2,0],[1]]","17","0","","","","","","5","","","","","","","","",""
"","","","","","single-stim-button","250","746945","0.0-2.0-62.2-1.2","57be89f4c7fcbf0001c39491","A3","batch1","","1555","tol_toboard","","","","tol_peg_2","1555","1555","0","[[0,0,0],[2,1],[3]]","3","[[3,0,0],[2,0],[1]]","17","0","","","","","","5","","","","","","","","",""
"","","","","","single-stim-button","251","748020","0.0-2.0-62.3-0.3","57be89f4c7fcbf0001c39491","A3","batch1","","1073","tol_tohand","","","","tol_peg_3","1073","1073","0","[[0,0,0],[2,1],[0]]","4","[[3,0,0],[2,0],[1]]","17","0","","","","","","5","","","","","","","","",""
"","","","","","single-stim-button","252","749515","0.0-2.0-62.3-1.3","57be89f4c7fcbf0001c39491","A3","batch1","","1493","tol_toboard","","","","tol_peg_1","1493","1493","0","[[3,0,0],[2,1],[0]]","4","[[3,0,0],[2,0],[1]]","17","0","","","","","","5","","","","","","","","",""
"","","","","","single-stim-button","253","750515","0.0-2.0-62.4-0.4","57be89f4c7fcbf0001c39491","A3","batch1","","998","tol_tohand","","","","tol_peg_2","998","998","0","[[3,0,0],[2,0],[0]]","5","[[3,0,0],[2,0],[1]]","17","0","","","","","","5","","","","","","","","",""
"","","","","","single-stim-button","254","751714","0.0-2.0-62.4-1.4","57be89f4c7fcbf0001c39491","A3","batch1","","1197","tol_toboard","","","","tol_peg_3","1197","1197","0","[[3,0,0],[2,0],[1]]","5","[[3,0,0],[2,0],[1]]","17","0","","","","","","5","","","","","","","","",""
"","","","","","poldrack-single-stim","255","752719","0.0-2.0-63.0","57be89f4c7fcbf0001c39491","A3","batch1","","-1","tol_feedback","","","true","","1000","1000","500","","","","","","-1","none","true","8566","13894","","","","","","","","","",""
"","","","","","html-button-response","256","754159","0.0-2.0-64.0","57be89f4c7fcbf0001c39491","A3","batch1","","1437.699999988079","tol_trial_num","<div class = centerbox><p class = center-block-text>problem <strong>19</strong> out of 25 problems</p></div>","0","","","","","","","","","","","","","","","","","","","","","","","","",""
"","","","","","single-stim-button","257","783331","0.0-2.0-65.0-0.0","57be89f4c7fcbf0001c39491","A3","batch1","","29170","tol_tohand","","","","tol_peg_1","29170","29170","0","[[1,0,0],[3,0],[0]]","1","[[0,0,0],[1,2],[3]]","18","0","","","","","","7","","","","","","","","",""
"","","","","","single-stim-button","258","784887","0.0-2.0-65.0-1.0","57be89f4c7fcbf0001c39491","A3","batch1","","1554","tol_toboard","","","","tol_peg_2","1554","1554","0","[[1,0,0],[3,2],[0]]","1","[[0,0,0],[1,2],[3]]","18","0","","","","","","7","","","","","","","","",""
"","","","","","single-stim-button","259","786877","0.0-2.0-65.1-0.1","57be89f4c7fcbf0001c39491","A3","batch1","","1988","tol_tohand","","","","tol_peg_1","1988","1988","0","[[0,0,0],[3,2],[0]]","2","[[0,0,0],[1,2],[3]]","18","0","","","","","","7","","","","","","","","",""
"","","","","","single-stim-button","260","788722","0.0-2.0-65.1-1.1","57be89f4c7fcbf0001c39491","A3","batch1","","1843","tol_toboard","","","","tol_peg_3","1843","1843","0","[[0,0,0],[3,2],[1]]","2","[[0,0,0],[1,2],[3]]","18","0","","","","","","7","","","","","","","","",""
"","","","","","single-stim-button","261","790054","0.0-2.0-65.2-0.2","57be89f4c7fcbf0001c39491","A3","batch1","","1330","tol_tohand","","","","tol_peg_2","1330","1330","0","[[0,0,0],[3,0],[1]]","3","[[0,0,0],[1,2],[3]]","18","0","","","","","","7","","","","","","","","",""
"","","","","","single-stim-button","262","791802","0.0-2.0-65.2-1.2","57be89f4c7fcbf0001c39491","A3","batch1","","1746","tol_toboard","","","","tol_peg_1","1746","1746","0","[[2,0,0],[3,0],[1]]","3","[[0,0,0],[1,2],[3]]","18","0","","","","","","7","","","","","","","","",""
"","","","","","single-stim-button","263","793067","0.0-2.0-65.3-0.3","57be89f4c7fcbf0001c39491","A3","batch1","","1263","tol_tohand","","","","tol_peg_3","1263","1263","0","[[2,0,0],[3,0],[0]]","4","[[0,0,0],[1,2],[3]]","18","0","","","","","","7","","","","","","","","",""
"","","","","","single-stim-button","264","794631","0.0-2.0-65.3-1.3","57be89f4c7fcbf0001c39491","A3","batch1","","1563","tol_toboard","","","","tol_peg_1","1563","1563","0","[[2,1,0],[3,0],[0]]","4","[[0,0,0],[1,2],[3]]","18","0","","","","","","7","","","","","","","","",""
"","","","","","single-stim-button","265","795946","0.0-2.0-65.4-0.4","57be89f4c7fcbf0001c39491","A3","batch1","","1312","tol_tohand","","","","tol_peg_2","1312","1312","0","[[2,1,0],[0,0],[0]]","5","[[0,0,0],[1,2],[3]]","18","0","","","","","","7","","","","","","","","",""
"","","","","","single-stim-button","266","797243","0.0-2.0-65.4-1.4","57be89f4c7fcbf0001c39491","A3","batch1","","1295","tol_toboard","","","","tol_peg_3","1295","1295","0","[[2,1,0],[0,0],[3]]","5","[[0,0,0],[1,2],[3]]","18","0","","","","","","7","","","","","","","","",""
"","","","","","single-stim-button","267","798441","0.0-2.0-65.5-0.5","57be89f4c7fcbf0001c39491","A3","batch1","","1197","tol_tohand","","","","tol_peg_1","1197","1197","0","[[2,0,0],[0,0],[3]]","6","[[0,0,0],[1,2],[3]]","18","0","","","","","","7","","","","","","","","",""
"","","","","","single-stim-button","268","799672","0.0-2.0-65.5-1.5","57be89f4c7fcbf0001c39491","A3","batch1","","1229","tol_toboard","","","","tol_peg_2","1229","1229","0","[[2,0,0],[1,0],[3]]","6","[[0,0,0],[1,2],[3]]","18","0","","","","","","7","","","","","","","","",""
"","","","","","single-stim-button","269","800719","0.0-2.0-65.6-0.6","57be89f4c7fcbf0001c39491","A3","batch1","","1045","tol_tohand","","","","tol_peg_1","1045","1045","0","[[0,0,0],[1,0],[3]]","7","[[0,0,0],[1,2],[3]]","18","0","","","","","","7","","","","","","","","",""
"","","","","","single-stim-button","270","801869","0.0-2.0-65.6-1.6","57be89f4c7fcbf0001c39491","A3","batch1","","1147","tol_toboard","","","","tol_peg_2","1147","1147","0","[[0,0,0],[1,2],[3]]","7","[[0,0,0],[1,2],[3]]","18","0","","","","","","7","","","","","","","","",""
"","","","","","poldrack-single-stim","271","802886","0.0-2.0-66.0","57be89f4c7fcbf0001c39491","A3","batch1","","-1","tol_feedback","","","true","","1000","1000","500","","","","","","-1","none","true","29170","37305","","","","","","","","","",""
"","","","","","html-button-response","272","804223","0.0-2.0-67.0","57be89f4c7fcbf0001c39491","A3","batch1","","1335.699999988079","tol_trial_num","<div class = centerbox><p class = center-block-text>problem <strong>20</strong> out of 25 problems</p></div>","0","","","","","","","","","","","","","","","","","","","","","","","","",""
"","","","","","single-stim-button","273","815940","0.0-2.0-68.0-0.0","57be89f4c7fcbf0001c39491","A3","batch1","","11713","tol_tohand","","","","tol_peg_1","11713","11713","0","[[1,0,0],[3,0],[0]]","1","[[2,1,0],[0,0],[3]]","19","0","","","","","","5","","","","","","","","",""
"","","","","","single-stim-button","274","818790","0.0-2.0-68.0-1.0","57be89f4c7fcbf0001c39491","A3","batch1","","2848","tol_toboard","","","","tol_peg_2","2848","2848","0","[[1,0,0],[3,2],[0]]","1","[[2,1,0],[0,0],[3]]","19","0","","","","","","5","","","","","","","","",""
"","","","","","single-stim-button","275","820636","0.0-2.0-68.1-0.1","57be89f4c7fcbf0001c39491","A3","batch1","","1845","tol_tohand","","","","tol_peg_1","1845","1845","0","[[0,0,0],[3,2],[0]]","2","[[2,1,0],[0,0],[3]]","19","0","","","","","","5","","","","","","","","",""
"","","","","","single-stim-button","276","821934","0.0-2.0-68.1-1.1","57be89f4c7fcbf0001c39491","A3","batch1","","1296","tol_toboard","","","","tol_peg_3","1296","1296","0","[[0,0,0],[3,2],[1]]","2","[[2,1,0],[0,0],[3]]","19","0","","","","","","5","","","","","","","","",""
"","","","","","single-stim-button","277","823198","0.0-2.0-68.2-0.2","57be89f4c7fcbf0001c39491","A3","batch1","","1262","tol_tohand","","","","tol_peg_2","1262","1262","0","[[0,0,0],[3,0],[1]]","3","[[2,1,0],[0,0],[3]]","19","0","","","","","","5","","","","","","","","",""
"","","","","","single-stim-button","278","824929","0.0-2.0-68.2-1.2","57be89f4c7fcbf0001c39491","A3","batch1","","1730","tol_toboard","","","","tol_peg_1","1730","1730","0","[[2,0,0],[3,0],[1]]","3","[[2,1,0],[0,0],[3]]","19","0","","","","","","5","","","","","","","","",""
"","","","","","single-stim-button","279","826011","0.0-2.0-68.3-0.3","57be89f4c7fcbf0001c39491","A3","batch1","","1080","tol_tohand","","","","tol_peg_3","1080","1080","0","[[2,0,0],[3,0],[0]]","4","[[2,1,0],[0,0],[3]]","19","0","","","","","","5","","","","","","","","",""
"","","","","","single-stim-button","280","827293","0.0-2.0-68.3-1.3","57be89f4c7fcbf0001c39491","A3","batch1","","1280","tol_toboard","","","","tol_peg_1","1280","1280","0","[[2,1,0],[3,0],[0]]","4","[[2,1,0],[0,0],[3]]","19","0","","","","","","5","","","","","","","","",""
"","","","","","single-stim-button","281","828425","0.0-2.0-68.4-0.4","57be89f4c7fcbf0001c39491","A3","batch1","","1131","tol_tohand","","","","tol_peg_2","1131","1131","0","[[2,1,0],[0,0],[0]]","5","[[2,1,0],[0,0],[3]]","19","0","","","","","","5","","","","","","","","",""
"","","","","","single-stim-button","282","829735","0.0-2.0-68.4-1.4","57be89f4c7fcbf0001c39491","A3","batch1","","1309","tol_toboard","","","","tol_peg_3","1309","1309","0","[[2,1,0],[0,0],[3]]","5","[[2,1,0],[0,0],[3]]","19","0","","","","","","5","","","","","","","","",""
"","","","","","poldrack-single-stim","283","830741","0.0-2.0-69.0","57be89f4c7fcbf0001c39491","A3","batch1","","-1","tol_feedback","","","true","","1000","1000","500","","","","","","-1","none","true","11713","17031","","","","","","","","","",""
"","","","","","html-button-response","284","832009","0.0-2.0-70.0","57be89f4c7fcbf0001c39491","A3","batch1","","1266","tol_trial_num","<div class = centerbox><p class = center-block-text>problem <strong>21</strong> out of 25 problems</p></div>","0","","","","","","","","","","","","","","","","","","","","","","","","",""
"","","","","","single-stim-button","285","837461","0.0-2.0-71.0-0.0","57be89f4c7fcbf0001c39491","A3","batch1","","5449","tol_tohand","","","","tol_peg_1","5449","5449","0","[[1,0,0],[3,0],[0]]","1","[[3,2,0],[0,0],[1]]","20","0","","","","","","6","","","","","","","","",""
"","","","","","single-stim-button","286","861124","0.0-2.0-71.0-1.0","57be89f4c7fcbf0001c39491","A3","batch1","","23662","tol_toboard","","","","tol_peg_2","23662","23662","0","[[1,0,0],[3,2],[0]]","1","[[3,2,0],[0,0],[1]]","20","0","","","","","","6","","","","","","","","",""
"","","","","","single-stim-button","287","862489","0.0-2.0-71.1-0.1","57be89f4c7fcbf0001c39491","A3","batch1","","1362","tol_tohand","","","","tol_peg_1","1362","1362","0","[[0,0,0],[3,2],[0]]","2","[[3,2,0],[0,0],[1]]","20","0","","","","","","6","","","","","","","","",""
"","","","","","single-stim-button","288","867431","0.0-2.0-71.1-1.1","57be89f4c7fcbf0001c39491","A3","batch1","","4940","tol_toboard","","","","tol_peg_3","4940","4940","0","[[0,0,0],[3,2],[1]]","2","[[3,2,0],[0,0],[1]]","20","0","","","","","","6","","","","","","","","",""
"","","","","","single-stim-button","289","873472","0.0-2.0-71.2-0.2","57be89f4c7fcbf0001c39491","A3","batch1","","6039","tol_tohand","","","","tol_peg_2","6039","6039","0","[[0,0,0],[3,0],[1]]","3","[[3,2,0],[0,0],[1]]","20","0","","","","","","6","","","","","","","","",""
"","","","","","single-stim-button","290","876800","0.0-2.0-71.2-1.2","57be89f4c7fcbf0001c39491","A3","batch1","","3327","tol_toboard","","","","tol_peg_1","3327","3327","0","[[2,0,0],[3,0],[1]]","3","[[3,2,0],[0,0],[1]]","20","0","","","","","","6","","","","","","","","",""
"","","","","","single-stim-button","291","878754","0.0-2.0-71.3-0.3","57be89f4c7fcbf0001c39491","A3","batch1","","1952","tol_tohand","","","","tol_peg_3","1952","1952","0","[[2,0,0],[3,0],[0]]","4","[[3,2,0],[0,0],[1]]","20","0","","","","","","6","","","","","","","","",""
"","","","","","single-stim-button","292","889115","0.0-2.0-71.3-1.3","57be89f4c7fcbf0001c39491","A3","batch1","","10359","tol_toboard","","","","tol_peg_2","10359","10359","0","[[2,0,0],[3,1],[0]]","4","[[3,2,0],[0,0],[1]]","20","0","","","","","","6","","","","","","","","",""
"","","","","","single-stim-button","293","892718","0.0-2.0-71.4-0.4","57be89f4c7fcbf0001c39491","A3","batch1","","3600","tol_tohand","","","","tol_peg_1","3600","3600","0","[[0,0,0],[3,1],[0]]","5","[[3,2,0],[0,0],[1]]","20","0","","","","","","6","","","","","","","","",""
"","","","","","single-stim-button","294","894331","0.0-2.0-71.4-1.4","57be89f4c7fcbf0001c39491","A3","batch1","","1611","tol_toboard","","","","tol_peg_3","1611","1611","0","[[0,0,0],[3,1],[2]]","5","[[3,2,0],[0,0],[1]]","20","0","","","","","","6","","","","","","","","",""
"","","","","","single-stim-button","295","896051","0.0-2.0-71.5-0.5","57be89f4c7fcbf0001c39491","A3","batch1","","1718","tol_tohand","","","","tol_peg_2","1718","1718","0","[[0,0,0],[3,0],[2]]","6","[[3,2,0],[0,0],[1]]","20","0","","","","","","6","","","","","","","","",""
"","","","","","single-stim-button","296","897926","0.0-2.0-71.5-1.5","57be89f4c7fcbf0001c39491","A3","batch1","","1873","tol_toboard","","","","tol_peg_1","1873","1873","0","[[1,0,0],[3,0],[2]]","6","[[3,2,0],[0,0],[1]]","20","0","","","","","","6","","","","","","","","",""
"","","","","","single-stim-button","297","904764","0.0-2.0-71.6-0.6","57be89f4c7fcbf0001c39491","A3","batch1","","6836","tol_tohand","","","","tol_peg_2","6836","6836","0","[[1,0,0],[0,0],[2]]","7","[[3,2,0],[0,0],[1]]","20","0","","","","","","6","","","","","","","","",""
"","","","","","single-stim-button","298","906495","0.0-2.0-71.6-1.6","57be89f4c7fcbf0001c39491","A3","batch1","","1730","tol_toboard","","","","tol_peg_1","1730","1730","0","[[1,3,0],[0,0],[2]]","7","[[3,2,0],[0,0],[1]]","20","0","","","","","","6","","","","","","","","",""
"","","","","","single-stim-button","299","907526","0.0-2.0-71.7-0.7","57be89f4c7fcbf0001c39491","A3","batch1","","1029","tol_tohand","","","","tol_peg_3","1029","1029","0","[[1,3,0],[0,0],[0]]","8","[[3,2,0],[0,0],[1]]","20","0","","","","","","6","","","","","","","","",""
"","","","","","single-stim-button","300","908826","0.0-2.0-71.7-1.7","57be89f4c7fcbf0001c39491","A3","batch1","","1298","tol_toboard","","","","tol_peg_2","1298","1298","0","[[1,3,0],[2,0],[0]]","8","[[3,2,0],[0,0],[1]]","20","0","","","","","","6","","","","","","","","",""
"","","","","","single-stim-button","301","909909","0.0-2.0-71.8-0.8","57be89f4c7fcbf0001c39491","A3","batch1","","1081","tol_tohand","","","","tol_peg_1","1081","1081","0","[[1,0,0],[2,0],[0]]","9","[[3,2,0],[0,0],[1]]","20","0","","","","","","6","","","","","","","","",""
"","","","","","single-stim-button","302","911287","0.0-2.0-71.8-1.8","57be89f4c7fcbf0001c39491","A3","batch1","","1377","tol_toboard","","","","tol_peg_2","1377","1377","0","[[1,0,0],[2,3],[0]]","9","[[3,2,0],[0,0],[1]]","20","0","","","","","","6","","","","","","","","",""
"","","","","","single-stim-button","303","912389","0.0-2.0-71.9-0.9","57be89f4c7fcbf0001c39491","A3","batch1","","1100","tol_tohand","","","","tol_peg_1","1100","1100","0","[[0,0,0],[2,3],[0]]","10","[[3,2,0],[0,0],[1]]","20","0","","","","","","6","","","","","","","","",""
"","","","","","single-stim-button","304","913802","0.0-2.0-71.9-1.9","57be89f4c7fcbf0001c39491","A3","batch1","","1410","tol_toboard","","","","tol_peg_3","1410","1410","0","[[0,0,0],[2,3],[1]]","10","[[3,2,0],[0,0],[1]]","20","0","","","","","","6","","","","","","","","",""
"","","","","","single-stim-button","305","914927","0.0-2.0-71.10-0.10","57be89f4c7fcbf0001c39491","A3","batch1","","1123","tol_tohand","","","","tol_peg_2","1123","1123","0","[[0,0,0],[2,0],[1]]","11","[[3,2,0],[0,0],[1]]","20","0","","","","","","6","","","","","","","","",""
"","","","","","single-stim-button","306","915965","0.0-2.0-71.10-1.10","57be89f4c7fcbf0001c39491","A3","batch1","","1036","tol_toboard","","","","tol_peg_1","1036","1036","0","[[3,0,0],[2,0],[1]]","11","[[3,2,0],[0,0],[1]]","20","0","","","","","","6","","","","","","","","",""
"","","","","","single-stim-button","307","917065","0.0-2.0-71.11-0.11","57be89f4c7fcbf0001c39491","A3","batch1","","1097","tol_tohand","","","","tol_peg_2","1097","1097","0","[[3,0,0],[0,0],[1]]","12","[[3,2,0],[0,0],[1]]","20","0","","","","","","6","","","","","","","","",""
"","","","","","single-stim-button","308","918211","0.0-2.0-71.11-1.11","57be89f4c7fcbf0001c39491","A3","batch1","","1144","tol_toboard","","","","tol_peg_1","1144","1144","0","[[3,2,0],[0,0],[1]]","12","[[3,2,0],[0,0],[1]]","20","0","","","","","","6","","","","","","","","",""
"","","","","","poldrack-single-stim","309","919223","0.0-2.0-72.0","57be89f4c7fcbf0001c39491","A3","batch1","","-1","tol_feedback","","","true","","1000","1000","500","","","","","","-1","none","true","5449","32386","","","","","","","","","",""
"","","","","","html-button-response","310","920634","0.0-2.0-73.0","57be89f4c7fcbf0001c39491","A3","batch1","","1409.2000000476837","tol_trial_num","<div class = centerbox><p class = center-block-text>problem <strong>22</strong> out of 25 problems</p></div>","0","","","","","","","","","","","","","","","","","","","","","","","","",""
"","","","","","single-stim-button","311","943159","0.0-2.0-74.0-0.0","57be89f4c7fcbf0001c39491","A3","batch1","","22523","tol_tohand","","","","tol_peg_2","22523","22523","0","[[1,0,0],[2,0],[0]]","1","[[0,0,0],[1,2],[3]]","21","0","","","","","","6","","","","","","","","",""
"","","","","","single-stim-button","312","944648","0.0-2.0-74.0-1.0","57be89f4c7fcbf0001c39491","A3","batch1","","1488","tol_toboard","","","","tol_peg_1","1488","1488","0","[[1,3,0],[2,0],[0]]","1","[[0,0,0],[1,2],[3]]","21","0","","","","","","6","","","","","","","","",""
"","","","","","single-stim-button","313","945654","0.0-2.0-74.1-0.1","57be89f4c7fcbf0001c39491","A3","batch1","","1004","tol_tohand","","","","tol_peg_2","1004","1004","0","[[1,3,0],[0,0],[0]]","2","[[0,0,0],[1,2],[3]]","21","0","","","","","","6","","","","","","","","",""
"","","","","","single-stim-button","314","947184","0.0-2.0-74.1-1.1","57be89f4c7fcbf0001c39491","A3","batch1","","1528","tol_toboard","","","","tol_peg_3","1528","1528","0","[[1,3,0],[0,0],[2]]","2","[[0,0,0],[1,2],[3]]","21","0","","","","","","6","","","","","","","","",""
"","","","","","single-stim-button","315","949632","0.0-2.0-74.2-0.2","57be89f4c7fcbf0001c39491","A3","batch1","","2446","tol_tohand","","","","tol_peg_1","2446","2446","0","[[1,0,0],[0,0],[2]]","3","[[0,0,0],[1,2],[3]]","21","0","","","","","","6","","","","","","","","",""
"","","","","","single-stim-button","316","951702","0.0-2.0-74.2-1.2","57be89f4c7fcbf0001c39491","A3","batch1","","2068","tol_toboard","","","","tol_peg_2","2068","2068","0","[[1,0,0],[3,0],[2]]","3","[[0,0,0],[1,2],[3]]","21","0","","","","","","6","","","","","","","","",""
"","","","","","single-stim-button","317","987663","0.0-2.0-74.3-0.3","57be89f4c7fcbf0001c39491","A3","batch1","","35958","tol_tohand","","","","tol_peg_1","35958","35958","0","[[0,0,0],[3,0],[2]]","4","[[0,0,0],[1,2],[3]]","21","0","","","","","","6","","","","","","","","",""
"","","","","","single-stim-button","318","989081","0.0-2.0-74.3-1.3","57be89f4c7fcbf0001c39491","A3","batch1","","1416","tol_toboard","","","","tol_peg_2","1416","1416","0","[[0,0,0],[3,1],[2]]","4","[[0,0,0],[1,2],[3]]","21","0","","","","","","6","","","","","","","","",""
"","","","","","single-stim-button","319","990103","0.0-2.0-74.4-0.4","57be89f4c7fcbf0001c39491","A3","batch1","","1020","tol_tohand","","","","tol_peg_3","1020","1020","0","[[0,0,0],[3,1],[0]]","5","[[0,0,0],[1,2],[3]]","21","0","","","","","","6","","","","","","","","",""
"","","","","","single-stim-button","320","991651","0.0-2.0-74.4-1.4","57be89f4c7fcbf0001c39491","A3","batch1","","1547","tol_toboard","","","","tol_peg_1","1547","1547","0","[[2,0,0],[3,1],[0]]","5","[[0,0,0],[1,2],[3]]","21","0","","","","","","6","","","","","","","","",""
"","","","","","single-stim-button","321","994573","0.0-2.0-74.5-0.5","57be89f4c7fcbf0001c39491","A3","batch1","","2918","tol_tohand","","","","tol_peg_2","2918","2918","0","[[2,0,0],[3,0],[0]]","6","[[0,0,0],[1,2],[3]]","21","0","","","","","","6","","","","","","","","",""
"","","","","","single-stim-button","322","995822","0.0-2.0-74.5-1.5","57be89f4c7fcbf0001c39491","A3","batch1","","1247","tol_toboard","","","","tol_peg_1","1247","1247","0","[[2,1,0],[3,0],[0]]","6","[[0,0,0],[1,2],[3]]","21","0","","","","","","6","","","","","","","","",""
"","","","","","single-stim-button","323","996738","0.0-2.0-74.6-0.6","57be89f4c7fcbf0001c39491","A3","batch1","","914","tol_tohand","","","","tol_peg_2","914","914","0","[[2,1,0],[0,0],[0]]","7","[[0,0,0],[1,2],[3]]","21","0","","","","","","6","","","","","","","","",""
"","","","","","single-stim-button","324","997893","0.0-2.0-74.6-1.6","57be89f4c7fcbf0001c39491","A3","batch1","","1154","tol_toboard","","","","tol_peg_3","1154","1154","0","[[2,1,0],[0,0],[3]]","7","[[0,0,0],[1,2],[3]]","21","0","","","","","","6","","","","","","","","",""
"","","","","","single-stim-button","325","999133","0.0-2.0-74.7-0.7","57be89f4c7fcbf0001c39491","A3","batch1","","1237","tol_tohand","","","","tol_peg_1","1237","1237","0","[[2,0,0],[0,0],[3]]","8","[[0,0,0],[1,2],[3]]","21","0","","","","","","6","","","","","","","","",""
"","","","","","single-stim-button","326","1000371","0.0-2.0-74.7-1.7","57be89f4c7fcbf0001c39491","A3","batch1","","1237","tol_toboard","","","","tol_peg_2","1237","1237","0","[[2,0,0],[1,0],[3]]","8","[[0,0,0],[1,2],[3]]","21","0","","","","","","6","","","","","","","","",""
"","","","","","single-stim-button","327","1001360","0.0-2.0-74.8-0.8","57be89f4c7fcbf0001c39491","A3","batch1","","987","tol_tohand","","","","tol_peg_1","987","987","0","[[0,0,0],[1,0],[3]]","9","[[0,0,0],[1,2],[3]]","21","0","","","","","","6","","","","","","","","",""
"","","","","","single-stim-button","328","1002783","0.0-2.0-74.8-1.8","57be89f4c7fcbf0001c39491","A3","batch1","","1422","tol_toboard","","","","tol_peg_2","1422","1422","0","[[0,0,0],[1,2],[3]]","9","[[0,0,0],[1,2],[3]]","21","0","","","","","","6","","","","","","","","",""
"","","","","","poldrack-single-stim","329","1003788","0.0-2.0-75.0","57be89f4c7fcbf0001c39491","A3","batch1","","-1","tol_feedback","","","true","","1000","1000","500","","","","","","-1","none","true","22523","69007","","","","","","","","","",""
"","","","","","html-button-response","330","1005367","0.0-2.0-76.0","57be89f4c7fcbf0001c39491","A3","batch1","","1577.2999999523163","tol_trial_num","<div class = centerbox><p class = center-block-text>problem <strong>23</strong> out of 25 problems</p></div>","0","","","","","","","","","","","","","","","","","","","","","","","","",""
"","","","","","single-stim-button","331","1009592","0.0-2.0-77.0-0.0","57be89f4c7fcbf0001c39491","A3","batch1","","4224","tol_tohand","","","","tol_peg_1","4224","4224","0","[[1,0,0],[3,0],[0]]","1","[[1,3,2],[0,0],[0]]","22","0","","","","","","3","","","","","","","","",""
"","","","","","single-stim-button","332","1011007","0.0-2.0-77.0-1.0","57be89f4c7fcbf0001c39491","A3","batch1","","1412","tol_toboard","","","","tol_peg_3","1412","1412","0","[[1,0,0],[3,0],[2]]","1","[[1,3,2],[0,0],[0]]","22","0","","","","","","3","","","","","","","","",""
"","","","","","single-stim-button","333","1011975","0.0-2.0-77.1-0.1","57be89f4c7fcbf0001c39491","A3","batch1","","966","tol_tohand","","","","tol_peg_2","966","966","0","[[1,0,0],[0,0],[2]]","2","[[1,3,2],[0,0],[0]]","22","0","","","","","","3","","","","","","","","",""
"","","","","","single-stim-button","334","1013153","0.0-2.0-77.1-1.1","57be89f4c7fcbf0001c39491","A3","batch1","","1176","tol_toboard","","","","tol_peg_1","1176","1176","0","[[1,3,0],[0,0],[2]]","2","[[1,3,2],[0,0],[0]]","22","0","","","","","","3","","","","","","","","",""
"","","","","","single-stim-button","335","1014455","0.0-2.0-77.2-0.2","57be89f4c7fcbf0001c39491","A3","batch1","","1300","tol_tohand","","","","tol_peg_3","1300","1300","0","[[1,3,0],[0,0],[0]]","3","[[1,3,2],[0,0],[0]]","22","0","","","","","","3","","","","","","","","",""
"","","","","","single-stim-button","336","1015716","0.0-2.0-77.2-1.2","57be89f4c7fcbf0001c39491","A3","batch1","","1259","tol_toboard","","","","tol_peg_1","1259","1259","0","[[1,3,2],[0,0],[0]]","3","[[1,3,2],[0,0],[0]]","22","0","","","","","","3","","","","","","","","",""
"","","","","","poldrack-single-stim","337","1016726","0.0-2.0-78.0","57be89f4c7fcbf0001c39491","A3","batch1","","-1","tol_feedback","","","true","","1000","1000","500","","","","","","-1","none","true","4224","6490","","","","","","","","","",""
"","","","","","html-button-response","338","1018215","0.0-2.0-79.0","57be89f4c7fcbf0001c39491","A3","batch1","","1487.699999988079","tol_trial_num","<div class = centerbox><p class = center-block-text>problem <strong>24</strong> out of 25 problems</p></div>","0","","","","","","","","","","","","","","","","","","","","","","","","",""
"","","","","","single-stim-button","339","1027613","0.0-2.0-80.0-0.0","57be89f4c7fcbf0001c39491","A3","batch1","","9396","tol_tohand","","","","tol_peg_3","9396","9396","0","[[0,0,0],[2,3],[0]]","1","[[2,0,0],[3,0],[1]]","23","0","","","","","","7","","","","","","","","",""
"","","","","","single-stim-button","340","1029202","0.0-2.0-80.0-1.0","57be89f4c7fcbf0001c39491","A3","batch1","","1586","tol_toboard","","","","tol_peg_1","1586","1586","0","[[1,0,0],[2,3],[0]]","1","[[2,0,0],[3,0],[1]]","23","0","","","","","","7","","","","","","","","",""
"","","","","","single-stim-button","341","1030198","0.0-2.0-80.1-0.1","57be89f4c7fcbf0001c39491","A3","batch1","","994","tol_tohand","","","","tol_peg_2","994","994","0","[[1,0,0],[2,0],[0]]","2","[[2,0,0],[3,0],[1]]","23","0","","","","","","7","","","","","","","","",""
"","","","","","single-stim-button","342","1031375","0.0-2.0-80.1-1.1","57be89f4c7fcbf0001c39491","A3","batch1","","1175","tol_toboard","","","","tol_peg_1","1175","1175","0","[[1,3,0],[2,0],[0]]","2","[[2,0,0],[3,0],[1]]","23","0","","","","","","7","","","","","","","","",""
"","","","","","single-stim-button","343","1036751","0.0-2.0-80.2-0.2","57be89f4c7fcbf0001c39491","A3","batch1","","5374","tol_tohand","","","","tol_peg_2","5374","5374","0","[[1,3,0],[0,0],[0]]","3","[[2,0,0],[3,0],[1]]","23","0","","","","","","7","","","","","","","","",""
"","","","","","single-stim-button","344","1038165","0.0-2.0-80.2-1.2","57be89f4c7fcbf0001c39491","A3","batch1","","1412","tol_toboard","","","","tol_peg_3","1412","1412","0","[[1,3,0],[0,0],[2]]","3","[[2,0,0],[3,0],[1]]","23","0","","","","","","7","","","","","","","","",""
"","","","","","single-stim-button","345","1039297","0.0-2.0-80.3-0.3","57be89f4c7fcbf0001c39491","A3","batch1","","1131","tol_tohand","","","","tol_peg_1","1131","1131","0","[[1,0,0],[0,0],[2]]","4","[[2,0,0],[3,0],[1]]","23","0","","","","","","7","","","","","","","","",""
"","","","","","single-stim-button","346","1040394","0.0-2.0-80.3-1.3","57be89f4c7fcbf0001c39491","A3","batch1","","1096","tol_toboard","","","","tol_peg_2","1096","1096","0","[[1,0,0],[3,0],[2]]","4","[[2,0,0],[3,0],[1]]","23","0","","","","","","7","","","","","","","","",""
"","","","","","single-stim-button","347","1041393","0.0-2.0-80.4-0.4","57be89f4c7fcbf0001c39491","A3","batch1","","998","tol_tohand","","","","tol_peg_3","998","998","0","[[1,0,0],[3,0],[0]]","5","[[2,0,0],[3,0],[1]]","23","0","","","","","","7","","","","","","","","",""
"","","","","","single-stim-button","348","1042907","0.0-2.0-80.4-1.4","57be89f4c7fcbf0001c39491","A3","batch1","","1512","tol_toboard","","","","tol_peg_2","1512","1512","0","[[1,0,0],[3,2],[0]]","5","[[2,0,0],[3,0],[1]]","23","0","","","","","","7","","","","","","","","",""
"","","","","","single-stim-button","349","1044023","0.0-2.0-80.5-0.5","57be89f4c7fcbf0001c39491","A3","batch1","","1115","tol_tohand","","","","tol_peg_1","1115","1115","0","[[0,0,0],[3,2],[0]]","6","[[2,0,0],[3,0],[1]]","23","0","","","","","","7","","","","","","","","",""
"","","","","","single-stim-button","350","1045303","0.0-2.0-80.5-1.5","57be89f4c7fcbf0001c39491","A3","batch1","","1279","tol_toboard","","","","tol_peg_3","1279","1279","0","[[0,0,0],[3,2],[1]]","6","[[2,0,0],[3,0],[1]]","23","0","","","","","","7","","","","","","","","",""
"","","","","","single-stim-button","351","1046384","0.0-2.0-80.6-0.6","57be89f4c7fcbf0001c39491","A3","batch1","","1079","tol_tohand","","","","tol_peg_2","1079","1079","0","[[0,0,0],[3,0],[1]]","7","[[2,0,0],[3,0],[1]]","23","0","","","","","","7","","","","","","","","",""
"","","","","","single-stim-button","352","1047798","0.0-2.0-80.6-1.6","57be89f4c7fcbf0001c39491","A3","batch1","","1412","tol_toboard","","","","tol_peg_1","1412","1412","0","[[2,0,0],[3,0],[1]]","7","[[2,0,0],[3,0],[1]]","23","0","","","","","","7","","","","","","","","",""
"","","","","","poldrack-single-stim","353","1048811","0.0-2.0-81.0","57be89f4c7fcbf0001c39491","A3","batch1","","-1","tol_feedback","","","true","","1000","1000","500","","","","","","-1","none","true","9396","20087","","","","","","","","","",""
