"success","timeout","failed_images","failed_audio","failed_video","trial_type","trial_index","time_elapsed","internal_node_id","subject_id","study_id","session_id","view_history","rt","task","stimulus","response","correct","mouse_click","stim_duration","block_duration","timing_post_trial","current_position","tol_num_moves_made","tol_target","tol_problem_id","tol_rt","key_press","possible_responses","tol_correct","preplanning","tol_rt_per_trial","tol_min_moves","answer","item","fiar_detect_rt","fiar_detect_correct","total_correct_fiar_detect","post_trial_gap","choices","spm_correct","spm_rt"
"true","false","[]","[]","[]","preload","0","1059","0.0-0.0","57ce74a271536c00015f12ed","B2","batch2","","","","","","","","","","","","","","","","","","","","","","","","","","","","","",""
"true","","","","","fullscreen","1","28390","0.0-1.0-0.0","57ce74a271536c00015f12ed","B2","batch2","","","","","","","","","","","","","","","","","","","","","","","","","","","","","",""
"true","","","","","fullscreen","2","32130","0.0-2.0-0.0","57ce74a271536c00015f12ed","B2","batch2","","","","","","","","","","","","","","","","","","","","","","","","","","","","","",""
"","","","","","instructions","3","255087","0.0-2.0-1.0-0.0-0.0","57ce74a271536c00015f12ed","B2","batch2","[{""page_index"":0,""viewing_time"":58179.80000001192},{""page_index"":1,""viewing_time"":9725.799999982119},{""page_index"":2,""viewing_time"":6540.200000017881},{""page_index"":3,""viewing_time"":11335.699999988079},{""page_index"":4,""viewing_time"":124910.09999999404},{""page_index"":5,""viewing_time"":10257.800000011921},{""page_index"":6,""viewing_time"":2007.9000000059605}]","222957.59999999404","tol-instructions","","","","","","","","","","","","","","","","","","","","","","","","","","",""
"","","","","","html-button-response","4","256001","0.0-2.0-1.0-1.0-0.0","57ce74a271536c00015f12ed","B2","batch2","","913.3999999761581","tol_enter_quiz","<p class=block-text> Let's answer a few questions <br>","0","","","","","","","","","","","","","","","","","","","","","","","","",""
"","","","","","html-button-response","5","260539","0.0-2.0-1.0-1.0-1.0","57ce74a271536c00015f12ed","B2","batch2","","4536.5999999940395","tol_quiz","<p class = block-text>True or False: You can only move the ball on top of a peg. <br></p>","0","true","","","","","","","","","","","","","","","","","","","","","","","",""
"","","","","","html-button-response","6","261499","0.0-2.0-1.0-1.0-2.0","57ce74a271536c00015f12ed","B2","batch2","","958.7999999821186","tol_quiz_feedback","<p class = block-text>Correct! You can only move the ball on top of a peg.</p>","0","","","","","","","","","","","","","","","","","","","","","","","","",""
"","","","","","html-button-response","7","264625","0.0-2.0-1.0-1.0-3.0","57ce74a271536c00015f12ed","B2","batch2","","3124.9000000059605","tol_quiz","<p class = block-text>True or False: You should try to match your board with the target board with fewest moves possible. <br></p>","0","true","","","","","","","","","","","","","","","","","","","","","","","",""
"","","","","","html-button-response","8","265414","0.0-2.0-1.0-1.0-4.0","57ce74a271536c00015f12ed","B2","batch2","","787.5","tol_quiz_feedback","<p class = block-text>Correct! </p>","0","","","","","","","","","","","","","","","","","","","","","","","","",""
"","","","","","html-button-response","9","266983","0.0-2.0-2.0","57ce74a271536c00015f12ed","B2","batch2","","1568.300000011921","","<p class=block-text> Now that you've understood the game, let's practice a few easier examples before we start!<br> <br>","0","","","","","","","","","","","","","","","","","","","","","","","","",""
"","","","","","single-stim-button","10","271884","0.0-2.0-3.0-0.0","57ce74a271536c00015f12ed","B2","batch2","","4900","tol_practice","","","","tol_peg_2","4900","4900","0","[[1,2,0],[0,0],[0]]","1","[[1,2,0],[0,0],[3]]","practice","4900","","","","","","","","","","","","","","",""
"","","","","","single-stim-button","11","273420","0.0-2.0-3.0-1.0","57ce74a271536c00015f12ed","B2","batch2","","1533","tol_practice","","","","tol_peg_3","1533","1533","0","[[1,2,0],[0,0],[3]]","1","[[1,2,0],[0,0],[3]]","practice","1533","","","","","","","","","","","","","","",""
"","","","","","poldrack-single-stim","12","274423","0.0-2.0-4.0","57ce74a271536c00015f12ed","B2","batch2","","-1","tol_feedback","","","true","","1000","1000","500","","","","","","-1","none","true","","0","","","","","","","","","",""
"","","","","","single-stim-button","13","278169","0.0-2.0-5.0-0.0","57ce74a271536c00015f12ed","B2","batch2","","3746","tol_practice","","","","tol_peg_1","3746","3746","0","[[1,0,0],[3,0],[0]]","2","[[0,0,0],[3,1],[2]]","practice","3746","","","","","","","","","","","","","","",""
"","","","","","single-stim-button","14","279138","0.0-2.0-5.0-1.0","57ce74a271536c00015f12ed","B2","batch2","","968","tol_practice","","","","tol_peg_3","968","968","0","[[1,0,0],[3,0],[2]]","2","[[0,0,0],[3,1],[2]]","practice","968","","","","","","","","","","","","","","",""
"","","","","","single-stim-button","15","280426","0.0-2.0-5.1-0.1","57ce74a271536c00015f12ed","B2","batch2","","1287","tol_practice","","","","tol_peg_1","1287","1287","0","[[0,0,0],[3,0],[2]]","3","[[0,0,0],[3,1],[2]]","practice","1287","","","","","","","","","","","","","","",""
"","","","","","single-stim-button","16","281050","0.0-2.0-5.1-1.1","57ce74a271536c00015f12ed","B2","batch2","","624","tol_practice","","","","tol_peg_2","624","624","0","[[0,0,0],[3,1],[2]]","3","[[0,0,0],[3,1],[2]]","practice","624","","","","","","","","","","","","","","",""
"","","","","","poldrack-single-stim","17","282054","0.0-2.0-6.0","57ce74a271536c00015f12ed","B2","batch2","","-1","tol_feedback","","","true","","1000","1000","500","","","","","","-1","none","true","","0","","","","","","","","","",""
"","","","","","single-stim-button","18","287198","0.0-2.0-7.0-0.0","57ce74a271536c00015f12ed","B2","batch2","","5143","tol_practice","","","","tol_peg_2","5143","5143","0","[[1,2,0],[0,0],[0]]","4","[[1,0,0],[2,0],[3]]","practice","5143","","","","","","","","","","","","","","",""
"","","","","","single-stim-button","19","287902","0.0-2.0-7.0-1.0","57ce74a271536c00015f12ed","B2","batch2","","703","tol_practice","","","","tol_peg_3","703","703","0","[[1,2,0],[0,0],[3]]","4","[[1,0,0],[2,0],[3]]","practice","703","","","","","","","","","","","","","","",""
"","","","","","single-stim-button","20","288925","0.0-2.0-7.1-0.1","57ce74a271536c00015f12ed","B2","batch2","","1023","tol_practice","","","","tol_peg_1","1023","1023","0","[[1,0,0],[0,0],[3]]","5","[[1,0,0],[2,0],[3]]","practice","1023","","","","","","","","","","","","","","",""
"","","","","","single-stim-button","21","289534","0.0-2.0-7.1-1.1","57ce74a271536c00015f12ed","B2","batch2","","607","tol_practice","","","","tol_peg_2","607","607","0","[[1,0,0],[2,0],[3]]","5","[[1,0,0],[2,0],[3]]","practice","607","","","","","","","","","","","","","","",""
"","","","","","poldrack-single-stim","22","290545","0.0-2.0-8.0","57ce74a271536c00015f12ed","B2","batch2","","-1","tol_feedback","","","true","","1000","1000","500","","","","","","-1","none","true","","0","","","","","","","","","",""
"","","","","","html-button-response","23","292080","0.0-2.0-9.0","57ce74a271536c00015f12ed","B2","batch2","","1533.800000011921","tol_instruction","<div class = centerbox><p class = center-block-text>Great job! You are done with practice trials<br>You are about to start official trials.<br> <br> Problem <strong>1</strong> out of 25 problems</p></div>","0","","","","","","","","","","","","","","","","","","","","","","","","",""
"","","","","","single-stim-button","24","315014","0.0-2.0-10.0-0.0","57ce74a271536c00015f12ed","B2","batch2","","21918","tol_tohand","","","","tol_peg_1","21918","21918","0","[[1,0,0],[3,0],[0]]","1","[[1,3,0],[2,0],[0]]","0","0","","","","","","3","","","","","","","","",""
"","","","","","single-stim-button","25","317935","0.0-2.0-10.0-1.0","57ce74a271536c00015f12ed","B2","batch2","","2920","tol_toboard","","","","tol_peg_3","2920","2920","0","[[1,0,0],[3,0],[2]]","1","[[1,3,0],[2,0],[0]]","0","0","","","","","","3","","","","","","","","",""
"","","","","","single-stim-button","26","318668","0.0-2.0-10.1-0.1","57ce74a271536c00015f12ed","B2","batch2","","732","tol_tohand","","","","tol_peg_2","732","732","0","[[1,0,0],[0,0],[2]]","2","[[1,3,0],[2,0],[0]]","0","0","","","","","","3","","","","","","","","",""
"","","","","","single-stim-button","27","319496","0.0-2.0-10.1-1.1","57ce74a271536c00015f12ed","B2","batch2","","827","tol_toboard","","","","tol_peg_1","827","827","0","[[1,3,0],[0,0],[2]]","2","[[1,3,0],[2,0],[0]]","0","0","","","","","","3","","","","","","","","",""
"","","","","","single-stim-button","28","322018","0.0-2.0-10.2-0.2","57ce74a271536c00015f12ed","B2","batch2","","2521","tol_tohand","","","","tol_peg_3","2521","2521","0","[[1,3,0],[0,0],[0]]","3","[[1,3,0],[2,0],[0]]","0","0","","","","","","3","","","","","","","","",""
"","","","","","single-stim-button","29","322814","0.0-2.0-10.2-1.2","57ce74a271536c00015f12ed","B2","batch2","","795","tol_toboard","","","","tol_peg_2","795","795","0","[[1,3,0],[2,0],[0]]","3","[[1,3,0],[2,0],[0]]","0","0","","","","","","3","","","","","","","","",""
"","","","","","poldrack-single-stim","30","323815","0.0-2.0-11.0","57ce74a271536c00015f12ed","B2","batch2","","-1","tol_feedback","","","true","","1000","1000","500","","","","","","-1","none","true","21918","25171","","","","","","","","","",""
"","","","","","html-button-response","31","324526","0.0-2.0-12.0","57ce74a271536c00015f12ed","B2","batch2","","710.2999999821186","tol_trial_num","<div class = centerbox><p class = center-block-text>problem <strong>2</strong> out of 25 problems</p></div>","0","","","","","","","","","","","","","","","","","","","","","","","","",""
"","","","","","single-stim-button","32","330804","0.0-2.0-13.0-0.0","57ce74a271536c00015f12ed","B2","batch2","","6278","tol_tohand","","","","tol_peg_1","6278","6278","0","[[1,0,0],[3,0],[0]]","1","[[2,1,3],[0,0],[0]]","1","0","","","","","","5","","","","","","","","",""
"","","","","","single-stim-button","33","331701","0.0-2.0-13.0-1.0","57ce74a271536c00015f12ed","B2","batch2","","896","tol_toboard","","","","tol_peg_3","896","896","0","[[1,0,0],[3,0],[2]]","1","[[2,1,3],[0,0],[0]]","1","0","","","","","","5","","","","","","","","",""
"","","","","","single-stim-button","34","337920","0.0-2.0-13.1-0.1","57ce74a271536c00015f12ed","B2","batch2","","6216","tol_tohand","","","","tol_peg_1","6216","6216","0","[[0,0,0],[3,0],[2]]","2","[[2,1,3],[0,0],[0]]","1","0","","","","","","5","","","","","","","","",""
"","","","","","single-stim-button","35","338623","0.0-2.0-13.1-1.1","57ce74a271536c00015f12ed","B2","batch2","","703","tol_toboard","","","","tol_peg_2","703","703","0","[[0,0,0],[3,1],[2]]","2","[[2,1,3],[0,0],[0]]","1","0","","","","","","5","","","","","","","","",""
"","","","","","single-stim-button","36","339513","0.0-2.0-13.2-0.2","57ce74a271536c00015f12ed","B2","batch2","","889","tol_tohand","","","","tol_peg_3","889","889","0","[[0,0,0],[3,1],[0]]","3","[[2,1,3],[0,0],[0]]","1","0","","","","","","5","","","","","","","","",""
"","","","","","single-stim-button","37","340443","0.0-2.0-13.2-1.2","57ce74a271536c00015f12ed","B2","batch2","","929","tol_toboard","","","","tol_peg_1","929","929","0","[[2,0,0],[3,1],[0]]","3","[[2,1,3],[0,0],[0]]","1","0","","","","","","5","","","","","","","","",""
"","","","","","single-stim-button","38","341059","0.0-2.0-13.3-0.3","57ce74a271536c00015f12ed","B2","batch2","","615","tol_tohand","","","","tol_peg_2","615","615","0","[[2,0,0],[3,0],[0]]","4","[[2,1,3],[0,0],[0]]","1","0","","","","","","5","","","","","","","","",""
"","","","","","single-stim-button","39","341756","0.0-2.0-13.3-1.3","57ce74a271536c00015f12ed","B2","batch2","","696","tol_toboard","","","","tol_peg_1","696","696","0","[[2,1,0],[3,0],[0]]","4","[[2,1,3],[0,0],[0]]","1","0","","","","","","5","","","","","","","","",""
"","","","","","single-stim-button","40","342239","0.0-2.0-13.4-0.4","57ce74a271536c00015f12ed","B2","batch2","","482","tol_tohand","","","","tol_peg_2","482","482","0","[[2,1,0],[0,0],[0]]","5","[[2,1,3],[0,0],[0]]","1","0","","","","","","5","","","","","","","","",""
"","","","","","single-stim-button","41","342864","0.0-2.0-13.4-1.4","57ce74a271536c00015f12ed","B2","batch2","","623","tol_toboard","","","","tol_peg_1","623","623","0","[[2,1,3],[0,0],[0]]","5","[[2,1,3],[0,0],[0]]","1","0","","","","","","5","","","","","","","","",""
"","","","","","poldrack-single-stim","42","343866","0.0-2.0-14.0","57ce74a271536c00015f12ed","B2","batch2","","-1","tol_feedback","","","true","","1000","1000","500","","","","","","-1","none","true","6278","14480","","","","","","","","","",""
"","","","","","html-button-response","43","344615","0.0-2.0-15.0","57ce74a271536c00015f12ed","B2","batch2","","747.7000000178814","tol_trial_num","<div class = centerbox><p class = center-block-text>problem <strong>3</strong> out of 25 problems</p></div>","0","","","","","","","","","","","","","","","","","","","","","","","","",""
"","","","","","single-stim-button","44","356971","0.0-2.0-16.0-0.0","57ce74a271536c00015f12ed","B2","batch2","","12356","tol_tohand","","","","tol_peg_1","12356","12356","0","[[2,0,0],[0,0],[1]]","1","[[1,2,0],[3,0],[0]]","2","0","","","","","","4","","","","","","","","",""
"","","","","","single-stim-button","45","357886","0.0-2.0-16.0-1.0","57ce74a271536c00015f12ed","B2","batch2","","913","tol_toboard","","","","tol_peg_2","913","913","0","[[2,0,0],[3,0],[1]]","1","[[1,2,0],[3,0],[0]]","2","0","","","","","","4","","","","","","","","",""
"","","","","","single-stim-button","46","361423","0.0-2.0-16.1-0.1","57ce74a271536c00015f12ed","B2","batch2","","3537","tol_tohand","","","","tol_peg_1","3537","3537","0","[[0,0,0],[3,0],[1]]","2","[[1,2,0],[3,0],[0]]","2","0","","","","","","4","","","","","","","","",""
"","","","","","single-stim-button","47","362088","0.0-2.0-16.1-1.1","57ce74a271536c00015f12ed","B2","batch2","","663","tol_toboard","","","","tol_peg_2","663","663","0","[[0,0,0],[3,2],[1]]","2","[[1,2,0],[3,0],[0]]","2","0","","","","","","4","","","","","","","","",""
"","","","","","single-stim-button","48","363103","0.0-2.0-16.2-0.2","57ce74a271536c00015f12ed","B2","batch2","","1014","tol_tohand","","","","tol_peg_3","1014","1014","0","[[0,0,0],[3,2],[0]]","3","[[1,2,0],[3,0],[0]]","2","0","","","","","","4","","","","","","","","",""
"","","","","","single-stim-button","49","364321","0.0-2.0-16.2-1.2","57ce74a271536c00015f12ed","B2","batch2","","1217","tol_toboard","","","","tol_peg_1","1217","1217","0","[[1,0,0],[3,2],[0]]","3","[[1,2,0],[3,0],[0]]","2","0","","","","","","4","","","","","","","","",""
"","","","","","single-stim-button","50","364674","0.0-2.0-16.3-0.3","57ce74a271536c00015f12ed","B2","batch2","","351","tol_tohand","","","","tol_peg_2","351","351","0","[[1,0,0],[3,0],[0]]","4","[[1,2,0],[3,0],[0]]","2","0","","","","","","4","","","","","","","","",""
"","","","","","single-stim-button","51","365158","0.0-2.0-16.3-1.3","57ce74a271536c00015f12ed","B2","batch2","","483","tol_toboard","","","","tol_peg_1","483","483","0","[[1,2,0],[3,0],[0]]","4","[[1,2,0],[3,0],[0]]","2","0","","","","","","4","","","","","","","","",""
"","","","","","poldrack-single-stim","52","366160","0.0-2.0-17.0","57ce74a271536c00015f12ed","B2","batch2","","-1","tol_feedback","","","true","","1000","1000","500","","","","","","-1","none","true","12356","17258","","","","","","","","","",""
"","","","","","html-button-response","53","366830","0.0-2.0-18.0","57ce74a271536c00015f12ed","B2","batch2","","668.7999999821186","tol_trial_num","<div class = centerbox><p class = center-block-text>problem <strong>4</strong> out of 25 problems</p></div>","0","","","","","","","","","","","","","","","","","","","","","","","","",""
"","","","","","single-stim-button","54","371719","0.0-2.0-19.0-0.0","57ce74a271536c00015f12ed","B2","batch2","","4889","tol_tohand","","","","tol_peg_2","4889","4889","0","[[3,0,0],[2,0],[0]]","1","[[3,0,0],[1,0],[2]]","3","0","","","","","","3","","","","","","","","",""
"","","","","","single-stim-button","55","372954","0.0-2.0-19.0-1.0","57ce74a271536c00015f12ed","B2","batch2","","1234","tol_toboard","","","","tol_peg_1","1234","1234","0","[[3,1,0],[2,0],[0]]","1","[[3,0,0],[1,0],[2]]","3","0","","","","","","3","","","","","","","","",""
"","","","","","single-stim-button","56","373446","0.0-2.0-19.1-0.1","57ce74a271536c00015f12ed","B2","batch2","","490","tol_tohand","","","","tol_peg_2","490","490","0","[[3,1,0],[0,0],[0]]","2","[[3,0,0],[1,0],[2]]","3","0","","","","","","3","","","","","","","","",""
"","","","","","single-stim-button","57","374860","0.0-2.0-19.1-1.1","57ce74a271536c00015f12ed","B2","batch2","","1414","tol_toboard","","","","tol_peg_3","1414","1414","0","[[3,1,0],[0,0],[2]]","2","[[3,0,0],[1,0],[2]]","3","0","","","","","","3","","","","","","","","",""
"","","","","","single-stim-button","58","375345","0.0-2.0-19.2-0.2","57ce74a271536c00015f12ed","B2","batch2","","484","tol_tohand","","","","tol_peg_1","484","484","0","[[3,0,0],[0,0],[2]]","3","[[3,0,0],[1,0],[2]]","3","0","","","","","","3","","","","","","","","",""
"","","","","","single-stim-button","59","376071","0.0-2.0-19.2-1.2","57ce74a271536c00015f12ed","B2","batch2","","725","tol_toboard","","","","tol_peg_2","725","725","0","[[3,0,0],[1,0],[2]]","3","[[3,0,0],[1,0],[2]]","3","0","","","","","","3","","","","","","","","",""
"","","","","","poldrack-single-stim","60","377073","0.0-2.0-20.0","57ce74a271536c00015f12ed","B2","batch2","","-1","tol_feedback","","","true","","1000","1000","500","","","","","","-1","none","true","4889","5863","","","","","","","","","",""
"","","","","","html-button-response","61","377749","0.0-2.0-21.0","57ce74a271536c00015f12ed","B2","batch2","","675.4000000059605","tol_trial_num","<div class = centerbox><p class = center-block-text>problem <strong>5</strong> out of 25 problems</p></div>","0","","","","","","","","","","","","","","","","","","","","","","","","",""
"","","","","","single-stim-button","62","387696","0.0-2.0-22.0-0.0","57ce74a271536c00015f12ed","B2","batch2","","9945","tol_tohand","","","","tol_peg_1","9945","9945","0","[[0,0,0],[2,0],[3]]","1","[[0,0,0],[1,2],[3]]","4","0","","","","","","7","","","","","","","","",""
"","","","","","single-stim-button","63","396539","0.0-2.0-22.0-1.0","57ce74a271536c00015f12ed","B2","batch2","","8843","tol_toboard","","","","tol_peg_2","8843","8843","0","[[0,0,0],[2,1],[3]]","1","[[0,0,0],[1,2],[3]]","4","0","","","","","","7","","","","","","","","",""
"","","","","","single-stim-button","64","397195","0.0-2.0-22.1-0.1","57ce74a271536c00015f12ed","B2","batch2","","655","tol_tohand","","","","tol_peg_3","655","655","0","[[0,0,0],[2,1],[0]]","2","[[0,0,0],[1,2],[3]]","4","0","","","","","","7","","","","","","","","",""
"","","","","","single-stim-button","65","397951","0.0-2.0-22.1-1.1","57ce74a271536c00015f12ed","B2","batch2","","755","tol_toboard","","","","tol_peg_1","755","755","0","[[3,0,0],[2,1],[0]]","2","[[0,0,0],[1,2],[3]]","4","0","","","","","","7","","","","","","","","",""
"","","","","","single-stim-button","66","399655","0.0-2.0-22.2-0.2","57ce74a271536c00015f12ed","B2","batch2","","1704","tol_tohand","","","","tol_peg_2","1704","1704","0","[[3,0,0],[2,0],[0]]","3","[[0,0,0],[1,2],[3]]","4","0","","","","","","7","","","","","","","","",""
"","","","","","single-stim-button","67","400249","0.0-2.0-22.2-1.2","57ce74a271536c00015f12ed","B2","batch2","","593","tol_toboard","","","","tol_peg_3","593","593","0","[[3,0,0],[2,0],[1]]","3","[[0,0,0],[1,2],[3]]","4","0","","","","","","7","","","","","","","","",""
"","","","","","single-stim-button","68","412537","0.0-2.0-22.3-0.3","57ce74a271536c00015f12ed","B2","batch2","","12288","tol_tohand","","","","tol_peg_2","12288","12288","0","[[3,0,0],[0,0],[1]]","4","[[0,0,0],[1,2],[3]]","4","0","","","","","","7","","","","","","","","",""
"","","","","","single-stim-button","69","413553","0.0-2.0-22.3-1.3","57ce74a271536c00015f12ed","B2","batch2","","1015","tol_toboard","","","","tol_peg_1","1015","1015","0","[[3,2,0],[0,0],[1]]","4","[[0,0,0],[1,2],[3]]","4","0","","","","","","7","","","","","","","","",""
"","","","","","single-stim-button","70","414231","0.0-2.0-22.4-0.4","57ce74a271536c00015f12ed","B2","batch2","","676","tol_tohand","","","","tol_peg_3","676","676","0","[[3,2,0],[0,0],[0]]","5","[[0,0,0],[1,2],[3]]","4","0","","","","","","7","","","","","","","","",""
"","","","","","single-stim-button","71","414997","0.0-2.0-22.4-1.4","57ce74a271536c00015f12ed","B2","batch2","","766","tol_toboard","","","","tol_peg_2","766","766","0","[[3,2,0],[1,0],[0]]","5","[[0,0,0],[1,2],[3]]","4","0","","","","","","7","","","","","","","","",""
"","","","","","single-stim-button","72","416028","0.0-2.0-22.5-0.5","57ce74a271536c00015f12ed","B2","batch2","","1029","tol_tohand","","","","tol_peg_1","1029","1029","0","[[3,0,0],[1,0],[0]]","6","[[0,0,0],[1,2],[3]]","4","0","","","","","","7","","","","","","","","",""
"","","","","","single-stim-button","73","416629","0.0-2.0-22.5-1.5","57ce74a271536c00015f12ed","B2","batch2","","601","tol_toboard","","","","tol_peg_2","601","601","0","[[3,0,0],[1,2],[0]]","6","[[0,0,0],[1,2],[3]]","4","0","","","","","","7","","","","","","","","",""
"","","","","","single-stim-button","74","417191","0.0-2.0-22.6-0.6","57ce74a271536c00015f12ed","B2","batch2","","561","tol_tohand","","","","tol_peg_1","561","561","0","[[0,0,0],[1,2],[0]]","7","[[0,0,0],[1,2],[3]]","4","0","","","","","","7","","","","","","","","",""
"","","","","","single-stim-button","75","418059","0.0-2.0-22.6-1.6","57ce74a271536c00015f12ed","B2","batch2","","867","tol_toboard","","","","tol_peg_3","867","867","0","[[0,0,0],[1,2],[3]]","7","[[0,0,0],[1,2],[3]]","4","0","","","","","","7","","","","","","","","",""
"","","","","","poldrack-single-stim","76","419062","0.0-2.0-23.0","57ce74a271536c00015f12ed","B2","batch2","","-1","tol_feedback","","","true","","1000","1000","500","","","","","","-1","none","true","9945","26858","","","","","","","","","",""
"","","","","","html-button-response","77","419715","0.0-2.0-24.0","57ce74a271536c00015f12ed","B2","batch2","","652.8000000119209","tol_trial_num","<div class = centerbox><p class = center-block-text>problem <strong>6</strong> out of 25 problems</p></div>","0","","","","","","","","","","","","","","","","","","","","","","","","",""
"","","","","","single-stim-button","78","434635","0.0-2.0-25.0-0.0","57ce74a271536c00015f12ed","B2","batch2","","14919","tol_tohand","","","","tol_peg_2","14919","14919","0","[[0,0,0],[1,0],[3]]","1","[[1,0,0],[2,3],[0]]","5","0","","","","","","6","","","","","","","","",""
"","","","","","single-stim-button","79","445383","0.0-2.0-25.0-1.0","57ce74a271536c00015f12ed","B2","batch2","","10748","tol_toboard","","","","tol_peg_2","10748","10748","0","[[0,0,0],[1,2],[3]]","1","[[1,0,0],[2,3],[0]]","5","0","","","","","","6","","","","","","","","",""
"","","","","","single-stim-button","80","446171","0.0-2.0-25.1-0.1","57ce74a271536c00015f12ed","B2","batch2","","787","tol_tohand","","","","tol_peg_3","787","787","0","[[0,0,0],[1,2],[0]]","2","[[1,0,0],[2,3],[0]]","5","0","","","","","","6","","","","","","","","",""
"","","","","","single-stim-button","81","447405","0.0-2.0-25.1-1.1","57ce74a271536c00015f12ed","B2","batch2","","1233","tol_toboard","","","","tol_peg_1","1233","1233","0","[[3,0,0],[1,2],[0]]","2","[[1,0,0],[2,3],[0]]","5","0","","","","","","6","","","","","","","","",""
"","","","","","single-stim-button","82","448389","0.0-2.0-25.2-0.2","57ce74a271536c00015f12ed","B2","batch2","","983","tol_tohand","","","","tol_peg_2","983","983","0","[[3,0,0],[1,0],[0]]","3","[[1,0,0],[2,3],[0]]","5","0","","","","","","6","","","","","","","","",""
"","","","","","single-stim-button","83","449069","0.0-2.0-25.2-1.2","57ce74a271536c00015f12ed","B2","batch2","","679","tol_toboard","","","","tol_peg_3","679","679","0","[[3,0,0],[1,0],[2]]","3","[[1,0,0],[2,3],[0]]","5","0","","","","","","6","","","","","","","","",""
"","","","","","single-stim-button","84","462035","0.0-2.0-25.3-0.3","57ce74a271536c00015f12ed","B2","batch2","","12966","tol_tohand","","","","tol_peg_1","12966","12966","0","[[0,0,0],[1,0],[2]]","4","[[1,0,0],[2,3],[0]]","5","0","","","","","","6","","","","","","","","",""
"","","","","","single-stim-button","85","462732","0.0-2.0-25.3-1.3","57ce74a271536c00015f12ed","B2","batch2","","695","tol_toboard","","","","tol_peg_2","695","695","0","[[0,0,0],[1,3],[2]]","4","[[1,0,0],[2,3],[0]]","5","0","","","","","","6","","","","","","","","",""
"","","","","","single-stim-button","86","464965","0.0-2.0-25.4-0.4","57ce74a271536c00015f12ed","B2","batch2","","2233","tol_tohand","","","","tol_peg_3","2233","2233","0","[[0,0,0],[1,3],[0]]","5","[[1,0,0],[2,3],[0]]","5","0","","","","","","6","","","","","","","","",""
"","","","","","single-stim-button","87","465755","0.0-2.0-25.4-1.4","57ce74a271536c00015f12ed","B2","batch2","","789","tol_toboard","","","","tol_peg_1","789","789","0","[[2,0,0],[1,3],[0]]","5","[[1,0,0],[2,3],[0]]","5","0","","","","","","6","","","","","","","","",""
"","","","","","single-stim-button","88","472879","0.0-2.0-25.5-0.5","57ce74a271536c00015f12ed","B2","batch2","","7123","tol_tohand","","","","tol_peg_2","7123","7123","0","[[2,0,0],[1,0],[0]]","6","[[1,0,0],[2,3],[0]]","5","0","","","","","","6","","","","","","","","",""
"","","","","","single-stim-button","89","473489","0.0-2.0-25.5-1.5","57ce74a271536c00015f12ed","B2","batch2","","609","tol_toboard","","","","tol_peg_3","609","609","0","[[2,0,0],[1,0],[3]]","6","[[1,0,0],[2,3],[0]]","5","0","","","","","","6","","","","","","","","",""
"","","","","","single-stim-button","90","479855","0.0-2.0-25.6-0.6","57ce74a271536c00015f12ed","B2","batch2","","6365","tol_tohand","","","","tol_peg_1","6365","6365","0","[[0,0,0],[1,0],[3]]","7","[[1,0,0],[2,3],[0]]","5","0","","","","","","6","","","","","","","","",""
"","","","","","single-stim-button","91","483237","0.0-2.0-25.6-1.6","57ce74a271536c00015f12ed","B2","batch2","","3381","tol_toboard","","","","tol_peg_2","3381","3381","0","[[0,0,0],[1,2],[3]]","7","[[1,0,0],[2,3],[0]]","5","0","","","","","","6","","","","","","","","",""
"","","","","","single-stim-button","92","484095","0.0-2.0-25.7-0.7","57ce74a271536c00015f12ed","B2","batch2","","857","tol_tohand","","","","tol_peg_2","857","857","0","[[0,0,0],[1,0],[3]]","8","[[1,0,0],[2,3],[0]]","5","0","","","","","","6","","","","","","","","",""
"","","","","","single-stim-button","93","485399","0.0-2.0-25.7-1.7","57ce74a271536c00015f12ed","B2","batch2","","1303","tol_toboard","","","","tol_peg_2","1303","1303","0","[[0,0,0],[1,2],[3]]","8","[[1,0,0],[2,3],[0]]","5","0","","","","","","6","","","","","","","","",""
"","","","","","single-stim-button","94","488461","0.0-2.0-25.8-0.8","57ce74a271536c00015f12ed","B2","batch2","","3061","tol_tohand","","","","tol_peg_3","3061","3061","0","[[0,0,0],[1,2],[0]]","9","[[1,0,0],[2,3],[0]]","5","0","","","","","","6","","","","","","","","",""
"","","","","","single-stim-button","95","490375","0.0-2.0-25.8-1.8","57ce74a271536c00015f12ed","B2","batch2","","1913","tol_toboard","","","","tol_peg_1","1913","1913","0","[[3,0,0],[1,2],[0]]","9","[[1,0,0],[2,3],[0]]","5","0","","","","","","6","","","","","","","","",""
"","","","","","single-stim-button","96","494141","0.0-2.0-25.9-0.9","57ce74a271536c00015f12ed","B2","batch2","","3765","tol_tohand","","","","tol_peg_2","3765","3765","0","[[3,0,0],[1,0],[0]]","10","[[1,0,0],[2,3],[0]]","5","0","","","","","","6","","","","","","","","",""
"","","","","","single-stim-button","97","496047","0.0-2.0-25.9-1.9","57ce74a271536c00015f12ed","B2","batch2","","1905","tol_toboard","","","","tol_peg_3","1905","1905","0","[[3,0,0],[1,0],[2]]","10","[[1,0,0],[2,3],[0]]","5","0","","","","","","6","","","","","","","","",""
"","","","","","single-stim-button","98","496485","0.0-2.0-25.10-0.10","57ce74a271536c00015f12ed","B2","batch2","","437","tol_tohand","","","","tol_peg_2","437","437","0","[[3,0,0],[0,0],[2]]","11","[[1,0,0],[2,3],[0]]","5","0","","","","","","6","","","","","","","","",""
"","","","","","single-stim-button","99","497187","0.0-2.0-25.10-1.10","57ce74a271536c00015f12ed","B2","batch2","","701","tol_toboard","","","","tol_peg_1","701","701","0","[[3,1,0],[0,0],[2]]","11","[[1,0,0],[2,3],[0]]","5","0","","","","","","6","","","","","","","","",""
"","","","","","single-stim-button","100","498499","0.0-2.0-25.11-0.11","57ce74a271536c00015f12ed","B2","batch2","","1311","tol_tohand","","","","tol_peg_3","1311","1311","0","[[3,1,0],[0,0],[0]]","12","[[1,0,0],[2,3],[0]]","5","0","","","","","","6","","","","","","","","",""
"","","","","","single-stim-button","101","499203","0.0-2.0-25.11-1.11","57ce74a271536c00015f12ed","B2","batch2","","703","tol_toboard","","","","tol_peg_2","703","703","0","[[3,1,0],[2,0],[0]]","12","[[1,0,0],[2,3],[0]]","5","0","","","","","","6","","","","","","","","",""
"","","","","","single-stim-button","102","502094","0.0-2.0-25.12-0.12","57ce74a271536c00015f12ed","B2","batch2","","2889","tol_tohand","","","","tol_peg_1","2889","2889","0","[[3,0,0],[2,0],[0]]","13","[[1,0,0],[2,3],[0]]","5","0","","","","","","6","","","","","","","","",""
"","","","","","single-stim-button","103","503827","0.0-2.0-25.12-1.12","57ce74a271536c00015f12ed","B2","batch2","","1733","tol_toboard","","","","tol_peg_3","1733","1733","0","[[3,0,0],[2,0],[1]]","13","[[1,0,0],[2,3],[0]]","5","0","","","","","","6","","","","","","","","",""
"","","","","","single-stim-button","104","504513","0.0-2.0-25.13-0.13","57ce74a271536c00015f12ed","B2","batch2","","685","tol_tohand","","","","tol_peg_1","685","685","0","[[0,0,0],[2,0],[1]]","14","[[1,0,0],[2,3],[0]]","5","0","","","","","","6","","","","","","","","",""
"","","","","","single-stim-button","105","505326","0.0-2.0-25.13-1.13","57ce74a271536c00015f12ed","B2","batch2","","812","tol_toboard","","","","tol_peg_2","812","812","0","[[0,0,0],[2,3],[1]]","14","[[1,0,0],[2,3],[0]]","5","0","","","","","","6","","","","","","","","",""
"","","","","","single-stim-button","106","505943","0.0-2.0-25.14-0.14","57ce74a271536c00015f12ed","B2","batch2","","616","tol_tohand","","","","tol_peg_3","616","616","0","[[0,0,0],[2,3],[0]]","15","[[1,0,0],[2,3],[0]]","5","0","","","","","","6","","","","","","","","",""
"","","","","","single-stim-button","107","506669","0.0-2.0-25.14-1.14","57ce74a271536c00015f12ed","B2","batch2","","725","tol_toboard","","","","tol_peg_1","725","725","0","[[1,0,0],[2,3],[0]]","15","[[1,0,0],[2,3],[0]]","5","0","","","","","","6","","","","","","","","",""
"","","","","","poldrack-single-stim","108","507671","0.0-2.0-26.0","57ce74a271536c00015f12ed","B2","batch2","","-1","tol_feedback","","","true","","1000","1000","500","","","","","","-1","none","true","14919","58997","","","","","","","","","",""
"","","","","","html-button-response","109","508301","0.0-2.0-27.0","57ce74a271536c00015f12ed","B2","batch2","","629.7000000178814","tol_trial_num","<div class = centerbox><p class = center-block-text>problem <strong>7</strong> out of 25 problems</p></div>","0","","","","","","","","","","","","","","","","","","","","","","","","",""
"","","","","","single-stim-button","110","511433","0.0-2.0-28.0-0.0","57ce74a271536c00015f12ed","B2","batch2","","3131","tol_tohand","","","","tol_peg_3","3131","3131","0","[[2,1,0],[0,0],[0]]","1","[[1,2,0],[3,0],[0]]","6","0","","","","","","5","","","","","","","","",""
"","","","","","single-stim-button","111","512012","0.0-2.0-28.0-1.0","57ce74a271536c00015f12ed","B2","batch2","","578","tol_toboard","","","","tol_peg_2","578","578","0","[[2,1,0],[3,0],[0]]","1","[[1,2,0],[3,0],[0]]","6","0","","","","","","5","","","","","","","","",""
"","","","","","single-stim-button","112","513957","0.0-2.0-28.1-0.1","57ce74a271536c00015f12ed","B2","batch2","","1944","tol_tohand","","","","tol_peg_1","1944","1944","0","[[2,0,0],[3,0],[0]]","2","[[1,2,0],[3,0],[0]]","6","0","","","","","","5","","","","","","","","",""
"","","","","","single-stim-button","113","516278","0.0-2.0-28.1-1.1","57ce74a271536c00015f12ed","B2","batch2","","2319","tol_toboard","","","","tol_peg_3","2319","2319","0","[[2,0,0],[3,0],[1]]","2","[[1,2,0],[3,0],[0]]","6","0","","","","","","5","","","","","","","","",""
"","","","","","single-stim-button","114","516941","0.0-2.0-28.2-0.2","57ce74a271536c00015f12ed","B2","batch2","","663","tol_tohand","","","","tol_peg_1","663","663","0","[[0,0,0],[3,0],[1]]","3","[[1,2,0],[3,0],[0]]","6","0","","","","","","5","","","","","","","","",""
"","","","","","single-stim-button","115","519589","0.0-2.0-28.2-1.2","57ce74a271536c00015f12ed","B2","batch2","","2647","tol_toboard","","","","tol_peg_2","2647","2647","0","[[0,0,0],[3,2],[1]]","3","[[1,2,0],[3,0],[0]]","6","0","","","","","","5","","","","","","","","",""
"","","","","","single-stim-button","116","520199","0.0-2.0-28.3-0.3","57ce74a271536c00015f12ed","B2","batch2","","609","tol_tohand","","","","tol_peg_3","609","609","0","[[0,0,0],[3,2],[0]]","4","[[1,2,0],[3,0],[0]]","6","0","","","","","","5","","","","","","","","",""
"","","","","","single-stim-button","117","520808","0.0-2.0-28.3-1.3","57ce74a271536c00015f12ed","B2","batch2","","607","tol_toboard","","","","tol_peg_1","607","607","0","[[1,0,0],[3,2],[0]]","4","[[1,2,0],[3,0],[0]]","6","0","","","","","","5","","","","","","","","",""
"","","","","","single-stim-button","118","521901","0.0-2.0-28.4-0.4","57ce74a271536c00015f12ed","B2","batch2","","1093","tol_tohand","","","","tol_peg_2","1093","1093","0","[[1,0,0],[3,0],[0]]","5","[[1,2,0],[3,0],[0]]","6","0","","","","","","5","","","","","","","","",""
"","","","","","single-stim-button","119","522409","0.0-2.0-28.4-1.4","57ce74a271536c00015f12ed","B2","batch2","","507","tol_toboard","","","","tol_peg_1","507","507","0","[[1,2,0],[3,0],[0]]","5","[[1,2,0],[3,0],[0]]","6","0","","","","","","5","","","","","","","","",""
"","","","","","poldrack-single-stim","120","523411","0.0-2.0-29.0","57ce74a271536c00015f12ed","B2","batch2","","-1","tol_feedback","","","true","","1000","1000","500","","","","","","-1","none","true","3131","7440","","","","","","","","","",""
"","","","","","html-button-response","121","523853","0.0-2.0-30.0","57ce74a271536c00015f12ed","B2","batch2","","442","tol_trial_num","<div class = centerbox><p class = center-block-text>problem <strong>8</strong> out of 25 problems</p></div>","0","","","","","","","","","","","","","","","","","","","","","","","","",""
"","","","","","single-stim-button","122","527877","0.0-2.0-31.0-0.0","57ce74a271536c00015f12ed","B2","batch2","","4023","tol_tohand","","","","tol_peg_3","4023","4023","0","[[0,0,0],[2,3],[0]]","1","[[1,2,0],[3,0],[0]]","7","0","","","","","","4","","","","","","","","",""
"","","","","","single-stim-button","123","528493","0.0-2.0-31.0-1.0","57ce74a271536c00015f12ed","B2","batch2","","615","tol_toboard","","","","tol_peg_1","615","615","0","[[1,0,0],[2,3],[0]]","1","[[1,2,0],[3,0],[0]]","7","0","","","","","","4","","","","","","","","",""
"","","","","","single-stim-button","124","529595","0.0-2.0-31.1-0.1","57ce74a271536c00015f12ed","B2","batch2","","1101","tol_tohand","","","","tol_peg_2","1101","1101","0","[[1,0,0],[2,0],[0]]","2","[[1,2,0],[3,0],[0]]","7","0","","","","","","4","","","","","","","","",""
"","","","","","single-stim-button","125","530461","0.0-2.0-31.1-1.1","57ce74a271536c00015f12ed","B2","batch2","","865","tol_toboard","","","","tol_peg_3","865","865","0","[[1,0,0],[2,0],[3]]","2","[[1,2,0],[3,0],[0]]","7","0","","","","","","4","","","","","","","","",""
"","","","","","single-stim-button","126","531003","0.0-2.0-31.2-0.2","57ce74a271536c00015f12ed","B2","batch2","","541","tol_tohand","","","","tol_peg_2","541","541","0","[[1,0,0],[0,0],[3]]","3","[[1,2,0],[3,0],[0]]","7","0","","","","","","4","","","","","","","","",""
"","","","","","single-stim-button","127","531673","0.0-2.0-31.2-1.2","57ce74a271536c00015f12ed","B2","batch2","","670","tol_toboard","","","","tol_peg_1","670","670","0","[[1,2,0],[0,0],[3]]","3","[[1,2,0],[3,0],[0]]","7","0","","","","","","4","","","","","","","","",""
"","","","","","single-stim-button","128","532227","0.0-2.0-31.3-0.3","57ce74a271536c00015f12ed","B2","batch2","","553","tol_tohand","","","","tol_peg_3","553","553","0","[[1,2,0],[0,0],[0]]","4","[[1,2,0],[3,0],[0]]","7","0","","","","","","4","","","","","","","","",""
"","","","","","single-stim-button","129","532719","0.0-2.0-31.3-1.3","57ce74a271536c00015f12ed","B2","batch2","","491","tol_toboard","","","","tol_peg_2","491","491","0","[[1,2,0],[3,0],[0]]","4","[[1,2,0],[3,0],[0]]","7","0","","","","","","4","","","","","","","","",""
"","","","","","poldrack-single-stim","130","533722","0.0-2.0-32.0","57ce74a271536c00015f12ed","B2","batch2","","-1","tol_feedback","","","true","","1000","1000","500","","","","","","-1","none","true","4023","6218","","","","","","","","","",""
"","","","","","html-button-response","131","534351","0.0-2.0-33.0","57ce74a271536c00015f12ed","B2","batch2","","628.5","tol_trial_num","<div class = centerbox><p class = center-block-text>problem <strong>9</strong> out of 25 problems</p></div>","0","","","","","","","","","","","","","","","","","","","","","","","","",""
"","","","","","single-stim-button","132","540352","0.0-2.0-34.0-0.0","57ce74a271536c00015f12ed","B2","batch2","","6000","tol_tohand","","","","tol_peg_1","6000","6000","0","[[3,0,0],[0,0],[1]]","1","[[2,1,0],[3,0],[0]]","8","0","","","","","","6","","","","","","","","",""
"","","","","","single-stim-button","133","542601","0.0-2.0-34.0-1.0","57ce74a271536c00015f12ed","B2","batch2","","2248","tol_toboard","","","","tol_peg_2","2248","2248","0","[[3,0,0],[2,0],[1]]","1","[[2,1,0],[3,0],[0]]","8","0","","","","","","6","","","","","","","","",""
"","","","","","single-stim-button","134","549053","0.0-2.0-34.1-0.1","57ce74a271536c00015f12ed","B2","batch2","","6451","tol_tohand","","","","tol_peg_3","6451","6451","0","[[3,0,0],[2,0],[0]]","2","[[2,1,0],[3,0],[0]]","8","0","","","","","","6","","","","","","","","",""
"","","","","","single-stim-button","135","550467","0.0-2.0-34.1-1.1","57ce74a271536c00015f12ed","B2","batch2","","1413","tol_toboard","","","","tol_peg_2","1413","1413","0","[[3,0,0],[2,1],[0]]","2","[[2,1,0],[3,0],[0]]","8","0","","","","","","6","","","","","","","","",""
"","","","","","single-stim-button","136","550975","0.0-2.0-34.2-0.2","57ce74a271536c00015f12ed","B2","batch2","","507","tol_tohand","","","","tol_peg_1","507","507","0","[[0,0,0],[2,1],[0]]","3","[[2,1,0],[3,0],[0]]","8","0","","","","","","6","","","","","","","","",""
"","","","","","single-stim-button","137","551553","0.0-2.0-34.2-1.2","57ce74a271536c00015f12ed","B2","batch2","","577","tol_toboard","","","","tol_peg_3","577","577","0","[[0,0,0],[2,1],[3]]","3","[[2,1,0],[3,0],[0]]","8","0","","","","","","6","","","","","","","","",""
"","","","","","single-stim-button","138","556655","0.0-2.0-34.3-0.3","57ce74a271536c00015f12ed","B2","batch2","","5101","tol_tohand","","","","tol_peg_3","5101","5101","0","[[0,0,0],[2,1],[0]]","4","[[2,1,0],[3,0],[0]]","8","0","","","","","","6","","","","","","","","",""
"","","","","","single-stim-button","139","557998","0.0-2.0-34.3-1.3","57ce74a271536c00015f12ed","B2","batch2","","1342","tol_toboard","","","","tol_peg_1","1342","1342","0","[[3,0,0],[2,1],[0]]","4","[[2,1,0],[3,0],[0]]","8","0","","","","","","6","","","","","","","","",""
"","","","","","single-stim-button","140","558435","0.0-2.0-34.4-0.4","57ce74a271536c00015f12ed","B2","batch2","","436","tol_tohand","","","","tol_peg_2","436","436","0","[[3,0,0],[2,0],[0]]","5","[[2,1,0],[3,0],[0]]","8","0","","","","","","6","","","","","","","","",""
"","","","","","single-stim-button","141","577904","0.0-2.0-34.4-1.4","57ce74a271536c00015f12ed","B2","batch2","","19467","tol_toboard","","","","tol_peg_1","19467","19467","0","[[3,1,0],[2,0],[0]]","5","[[2,1,0],[3,0],[0]]","8","0","","","","","","6","","","","","","","","",""
"","","","","","single-stim-button","142","578372","0.0-2.0-34.5-0.5","57ce74a271536c00015f12ed","B2","batch2","","466","tol_tohand","","","","tol_peg_2","466","466","0","[[3,1,0],[0,0],[0]]","6","[[2,1,0],[3,0],[0]]","8","0","","","","","","6","","","","","","","","",""
"","","","","","single-stim-button","143","579084","0.0-2.0-34.5-1.5","57ce74a271536c00015f12ed","B2","batch2","","711","tol_toboard","","","","tol_peg_3","711","711","0","[[3,1,0],[0,0],[2]]","6","[[2,1,0],[3,0],[0]]","8","0","","","","","","6","","","","","","","","",""
"","","","","","single-stim-button","144","580811","0.0-2.0-34.6-0.6","57ce74a271536c00015f12ed","B2","batch2","","1727","tol_tohand","","","","tol_peg_1","1727","1727","0","[[3,0,0],[0,0],[2]]","7","[[2,1,0],[3,0],[0]]","8","0","","","","","","6","","","","","","","","",""
"","","","","","single-stim-button","145","581426","0.0-2.0-34.6-1.6","57ce74a271536c00015f12ed","B2","batch2","","613","tol_toboard","","","","tol_peg_2","613","613","0","[[3,0,0],[1,0],[2]]","7","[[2,1,0],[3,0],[0]]","8","0","","","","","","6","","","","","","","","",""
"","","","","","single-stim-button","146","581903","0.0-2.0-34.7-0.7","57ce74a271536c00015f12ed","B2","batch2","","477","tol_tohand","","","","tol_peg_1","477","477","0","[[0,0,0],[1,0],[2]]","8","[[2,1,0],[3,0],[0]]","8","0","","","","","","6","","","","","","","","",""
"","","","","","single-stim-button","147","582279","0.0-2.0-34.7-1.7","57ce74a271536c00015f12ed","B2","batch2","","374","tol_toboard","","","","tol_peg_2","374","374","0","[[0,0,0],[1,3],[2]]","8","[[2,1,0],[3,0],[0]]","8","0","","","","","","6","","","","","","","","",""
"","","","","","single-stim-button","148","582872","0.0-2.0-34.8-0.8","57ce74a271536c00015f12ed","B2","batch2","","592","tol_tohand","","","","tol_peg_3","592","592","0","[[0,0,0],[1,3],[0]]","9","[[2,1,0],[3,0],[0]]","8","0","","","","","","6","","","","","","","","",""
"","","","","","single-stim-button","149","583659","0.0-2.0-34.8-1.8","57ce74a271536c00015f12ed","B2","batch2","","786","tol_toboard","","","","tol_peg_1","786","786","0","[[2,0,0],[1,3],[0]]","9","[[2,1,0],[3,0],[0]]","8","0","","","","","","6","","","","","","","","",""
"","","","","","single-stim-button","150","584536","0.0-2.0-34.9-0.9","57ce74a271536c00015f12ed","B2","batch2","","875","tol_tohand","","","","tol_peg_2","875","875","0","[[2,0,0],[1,0],[0]]","10","[[2,1,0],[3,0],[0]]","8","0","","","","","","6","","","","","","","","",""
"","","","","","single-stim-button","151","585347","0.0-2.0-34.9-1.9","57ce74a271536c00015f12ed","B2","batch2","","810","tol_toboard","","","","tol_peg_3","810","810","0","[[2,0,0],[1,0],[3]]","10","[[2,1,0],[3,0],[0]]","8","0","","","","","","6","","","","","","","","",""
"","","","","","single-stim-button","152","585754","0.0-2.0-34.10-0.10","57ce74a271536c00015f12ed","B2","batch2","","405","tol_tohand","","","","tol_peg_2","405","405","0","[[2,0,0],[0,0],[3]]","11","[[2,1,0],[3,0],[0]]","8","0","","","","","","6","","","","","","","","",""
"","","","","","single-stim-button","153","586504","0.0-2.0-34.10-1.10","57ce74a271536c00015f12ed","B2","batch2","","750","tol_toboard","","","","tol_peg_1","750","750","0","[[2,1,0],[0,0],[3]]","11","[[2,1,0],[3,0],[0]]","8","0","","","","","","6","","","","","","","","",""
"","","","","","single-stim-button","154","587307","0.0-2.0-34.11-0.11","57ce74a271536c00015f12ed","B2","batch2","","803","tol_tohand","","","","tol_peg_3","803","803","0","[[2,1,0],[0,0],[0]]","12","[[2,1,0],[3,0],[0]]","8","0","","","","","","6","","","","","","","","",""
"","","","","","single-stim-button","155","587815","0.0-2.0-34.11-1.11","57ce74a271536c00015f12ed","B2","batch2","","507","tol_toboard","","","","tol_peg_2","507","507","0","[[2,1,0],[3,0],[0]]","12","[[2,1,0],[3,0],[0]]","8","0","","","","","","6","","","","","","","","",""
"","","","","","poldrack-single-stim","156","588818","0.0-2.0-35.0","57ce74a271536c00015f12ed","B2","batch2","","-1","tol_feedback","","","true","","1000","1000","500","","","","","","-1","none","true","6000","23840","","","","","","","","","",""
"","","","","","html-button-response","157","589559","0.0-2.0-36.0","57ce74a271536c00015f12ed","B2","batch2","","741","tol_trial_num","<div class = centerbox><p class = center-block-text>problem <strong>10</strong> out of 25 problems</p></div>","0","","","","","","","","","","","","","","","","","","","","","","","","",""
"","","","","","single-stim-button","158","592588","0.0-2.0-37.0-0.0","57ce74a271536c00015f12ed","B2","batch2","","3027","tol_tohand","","","","tol_peg_2","3027","3027","0","[[3,0,0],[0,0],[2]]","1","[[3,0,0],[2,1],[0]]","9","0","","","","","","3","","","","","","","","",""
"","","","","","single-stim-button","159","594657","0.0-2.0-37.0-1.0","57ce74a271536c00015f12ed","B2","batch2","","2069","tol_toboard","","","","tol_peg_1","2069","2069","0","[[3,1,0],[0,0],[2]]","1","[[3,0,0],[2,1],[0]]","9","0","","","","","","3","","","","","","","","",""
"","","","","","single-stim-button","160","595370","0.0-2.0-37.1-0.1","57ce74a271536c00015f12ed","B2","batch2","","711","tol_tohand","","","","tol_peg_3","711","711","0","[[3,1,0],[0,0],[0]]","2","[[3,0,0],[2,1],[0]]","9","0","","","","","","3","","","","","","","","",""
"","","","","","single-stim-button","161","596027","0.0-2.0-37.1-1.1","57ce74a271536c00015f12ed","B2","batch2","","656","tol_toboard","","","","tol_peg_2","656","656","0","[[3,1,0],[2,0],[0]]","2","[[3,0,0],[2,1],[0]]","9","0","","","","","","3","","","","","","","","",""
"","","","","","single-stim-button","162","596486","0.0-2.0-37.2-0.2","57ce74a271536c00015f12ed","B2","batch2","","458","tol_tohand","","","","tol_peg_1","458","458","0","[[3,0,0],[2,0],[0]]","3","[[3,0,0],[2,1],[0]]","9","0","","","","","","3","","","","","","","","",""
"","","","","","single-stim-button","163","596870","0.0-2.0-37.2-1.2","57ce74a271536c00015f12ed","B2","batch2","","384","tol_toboard","","","","tol_peg_2","384","384","0","[[3,0,0],[2,1],[0]]","3","[[3,0,0],[2,1],[0]]","9","0","","","","","","3","","","","","","","","",""
"","","","","","poldrack-single-stim","164","597872","0.0-2.0-38.0","57ce74a271536c00015f12ed","B2","batch2","","-1","tol_feedback","","","true","","1000","1000","500","","","","","","-1","none","true","3027","4196","","","","","","","","","",""
"","","","","","html-button-response","165","598424","0.0-2.0-39.0","57ce74a271536c00015f12ed","B2","batch2","","551.0999999940395","tol_trial_num","<div class = centerbox><p class = center-block-text>problem <strong>11</strong> out of 25 problems</p></div>","0","","","","","","","","","","","","","","","","","","","","","","","","",""
"","","","","","single-stim-button","166","607742","0.0-2.0-40.0-0.0","57ce74a271536c00015f12ed","B2","batch2","","9316","tol_tohand","","","","tol_peg_1","9316","9316","0","[[1,0,0],[3,0],[0]]","1","[[2,0,0],[1,3],[0]]","10","0","","","","","","6","","","","","","","","",""
"","","","","","single-stim-button","167","609008","0.0-2.0-40.0-1.0","57ce74a271536c00015f12ed","B2","batch2","","1264","tol_toboard","","","","tol_peg_2","1264","1264","0","[[1,0,0],[3,2],[0]]","1","[[2,0,0],[1,3],[0]]","10","0","","","","","","6","","","","","","","","",""
"","","","","","single-stim-button","168","610263","0.0-2.0-40.1-0.1","57ce74a271536c00015f12ed","B2","batch2","","1255","tol_tohand","","","","tol_peg_1","1255","1255","0","[[0,0,0],[3,2],[0]]","2","[[2,0,0],[1,3],[0]]","10","0","","","","","","6","","","","","","","","",""
"","","","","","single-stim-button","169","611772","0.0-2.0-40.1-1.1","57ce74a271536c00015f12ed","B2","batch2","","1508","tol_toboard","","","","tol_peg_3","1508","1508","0","[[0,0,0],[3,2],[1]]","2","[[2,0,0],[1,3],[0]]","10","0","","","","","","6","","","","","","","","",""
"","","","","","single-stim-button","170","613177","0.0-2.0-40.2-0.2","57ce74a271536c00015f12ed","B2","batch2","","1405","tol_tohand","","","","tol_peg_2","1405","1405","0","[[0,0,0],[3,0],[1]]","3","[[2,0,0],[1,3],[0]]","10","0","","","","","","6","","","","","","","","",""
"","","","","","single-stim-button","171","613989","0.0-2.0-40.2-1.2","57ce74a271536c00015f12ed","B2","batch2","","811","tol_toboard","","","","tol_peg_1","811","811","0","[[2,0,0],[3,0],[1]]","3","[[2,0,0],[1,3],[0]]","10","0","","","","","","6","","","","","","","","",""
"","","","","","single-stim-button","172","616396","0.0-2.0-40.3-0.3","57ce74a271536c00015f12ed","B2","batch2","","2405","tol_tohand","","","","tol_peg_2","2405","2405","0","[[2,0,0],[0,0],[1]]","4","[[2,0,0],[1,3],[0]]","10","0","","","","","","6","","","","","","","","",""
"","","","","","single-stim-button","173","616755","0.0-2.0-40.3-1.3","57ce74a271536c00015f12ed","B2","batch2","","359","tol_toboard","","","","tol_peg_1","359","359","0","[[2,3,0],[0,0],[1]]","4","[[2,0,0],[1,3],[0]]","10","0","","","","","","6","","","","","","","","",""
"","","","","","single-stim-button","174","617146","0.0-2.0-40.4-0.4","57ce74a271536c00015f12ed","B2","batch2","","389","tol_tohand","","","","tol_peg_3","389","389","0","[[2,3,0],[0,0],[0]]","5","[[2,0,0],[1,3],[0]]","10","0","","","","","","6","","","","","","","","",""
"","","","","","single-stim-button","175","617645","0.0-2.0-40.4-1.4","57ce74a271536c00015f12ed","B2","batch2","","498","tol_toboard","","","","tol_peg_2","498","498","0","[[2,3,0],[1,0],[0]]","5","[[2,0,0],[1,3],[0]]","10","0","","","","","","6","","","","","","","","",""
"","","","","","single-stim-button","176","618044","0.0-2.0-40.5-0.5","57ce74a271536c00015f12ed","B2","batch2","","398","tol_tohand","","","","tol_peg_1","398","398","0","[[2,0,0],[1,0],[0]]","6","[[2,0,0],[1,3],[0]]","10","0","","","","","","6","","","","","","","","",""
"","","","","","single-stim-button","177","618840","0.0-2.0-40.5-1.5","57ce74a271536c00015f12ed","B2","batch2","","795","tol_toboard","","","","tol_peg_2","795","795","0","[[2,0,0],[1,3],[0]]","6","[[2,0,0],[1,3],[0]]","10","0","","","","","","6","","","","","","","","",""
"","","","","","poldrack-single-stim","178","619841","0.0-2.0-41.0","57ce74a271536c00015f12ed","B2","batch2","","-1","tol_feedback","","","true","","1000","1000","500","","","","","","-1","none","true","9316","15168","","","","","","","","","",""
"","","","","","html-button-response","179","620387","0.0-2.0-42.0","57ce74a271536c00015f12ed","B2","batch2","","546.0999999940395","tol_trial_num","<div class = centerbox><p class = center-block-text>problem <strong>12</strong> out of 25 problems</p></div>","0","","","","","","","","","","","","","","","","","","","","","","","","",""
"","","","","","single-stim-button","180","627098","0.0-2.0-43.0-0.0","57ce74a271536c00015f12ed","B2","batch2","","6709","tol_tohand","","","","tol_peg_2","6709","6709","0","[[1,2,0],[0,0],[0]]","1","[[2,3,0],[0,0],[1]]","11","0","","","","","","4","","","","","","","","",""
"","","","","","single-stim-button","181","628011","0.0-2.0-43.0-1.0","57ce74a271536c00015f12ed","B2","batch2","","912","tol_toboard","","","","tol_peg_3","912","912","0","[[1,2,0],[0,0],[3]]","1","[[2,3,0],[0,0],[1]]","11","0","","","","","","4","","","","","","","","",""
"","","","","","single-stim-button","182","631159","0.0-2.0-43.1-0.1","57ce74a271536c00015f12ed","B2","batch2","","3147","tol_tohand","","","","tol_peg_1","3147","3147","0","[[1,0,0],[0,0],[3]]","2","[[2,3,0],[0,0],[1]]","11","0","","","","","","4","","","","","","","","",""
"","","","","","single-stim-button","183","631692","0.0-2.0-43.1-1.1","57ce74a271536c00015f12ed","B2","batch2","","531","tol_toboard","","","","tol_peg_2","531","531","0","[[1,0,0],[2,0],[3]]","2","[[2,3,0],[0,0],[1]]","11","0","","","","","","4","","","","","","","","",""
"","","","","","single-stim-button","184","633433","0.0-2.0-43.2-0.2","57ce74a271536c00015f12ed","B2","batch2","","1741","tol_tohand","","","","tol_peg_1","1741","1741","0","[[0,0,0],[2,0],[3]]","3","[[2,3,0],[0,0],[1]]","11","0","","","","","","4","","","","","","","","",""
"","","","","","single-stim-button","185","636246","0.0-2.0-43.2-1.2","57ce74a271536c00015f12ed","B2","batch2","","2812","tol_toboard","","","","tol_peg_2","2812","2812","0","[[0,0,0],[2,1],[3]]","3","[[2,3,0],[0,0],[1]]","11","0","","","","","","4","","","","","","","","",""
"","","","","","single-stim-button","186","636767","0.0-2.0-43.3-0.3","57ce74a271536c00015f12ed","B2","batch2","","520","tol_tohand","","","","tol_peg_3","520","520","0","[[0,0,0],[2,1],[0]]","4","[[2,3,0],[0,0],[1]]","11","0","","","","","","4","","","","","","","","",""
"","","","","","single-stim-button","187","641652","0.0-2.0-43.3-1.3","57ce74a271536c00015f12ed","B2","batch2","","4884","tol_toboard","","","","tol_peg_1","4884","4884","0","[[3,0,0],[2,1],[0]]","4","[[2,3,0],[0,0],[1]]","11","0","","","","","","4","","","","","","","","",""
"","","","","","single-stim-button","188","642050","0.0-2.0-43.4-0.4","57ce74a271536c00015f12ed","B2","batch2","","396","tol_tohand","","","","tol_peg_2","396","396","0","[[3,0,0],[2,0],[0]]","5","[[2,3,0],[0,0],[1]]","11","0","","","","","","4","","","","","","","","",""
"","","","","","single-stim-button","189","642759","0.0-2.0-43.4-1.4","57ce74a271536c00015f12ed","B2","batch2","","709","tol_toboard","","","","tol_peg_3","709","709","0","[[3,0,0],[2,0],[1]]","5","[[2,3,0],[0,0],[1]]","11","0","","","","","","4","","","","","","","","",""
"","","","","","single-stim-button","190","651735","0.0-2.0-43.5-0.5","57ce74a271536c00015f12ed","B2","batch2","","8975","tol_tohand","","","","tol_peg_3","8975","8975","0","[[3,0,0],[2,0],[0]]","6","[[2,3,0],[0,0],[1]]","11","0","","","","","","4","","","","","","","","",""
"","","","","","single-stim-button","191","652533","0.0-2.0-43.5-1.5","57ce74a271536c00015f12ed","B2","batch2","","796","tol_toboard","","","","tol_peg_1","796","796","0","[[3,1,0],[2,0],[0]]","6","[[2,3,0],[0,0],[1]]","11","0","","","","","","4","","","","","","","","",""
"","","","","","single-stim-button","192","653329","0.0-2.0-43.6-0.6","57ce74a271536c00015f12ed","B2","batch2","","796","tol_tohand","","","","tol_peg_2","796","796","0","[[3,1,0],[0,0],[0]]","7","[[2,3,0],[0,0],[1]]","11","0","","","","","","4","","","","","","","","",""
"","","","","","single-stim-button","193","654289","0.0-2.0-43.6-1.6","57ce74a271536c00015f12ed","B2","batch2","","959","tol_toboard","","","","tol_peg_3","959","959","0","[[3,1,0],[0,0],[2]]","7","[[2,3,0],[0,0],[1]]","11","0","","","","","","4","","","","","","","","",""
"","","","","","single-stim-button","194","655305","0.0-2.0-43.7-0.7","57ce74a271536c00015f12ed","B2","batch2","","1015","tol_tohand","","","","tol_peg_1","1015","1015","0","[[3,0,0],[0,0],[2]]","8","[[2,3,0],[0,0],[1]]","11","0","","","","","","4","","","","","","","","",""
"","","","","","single-stim-button","195","656265","0.0-2.0-43.7-1.7","57ce74a271536c00015f12ed","B2","batch2","","960","tol_toboard","","","","tol_peg_2","960","960","0","[[3,0,0],[1,0],[2]]","8","[[2,3,0],[0,0],[1]]","11","0","","","","","","4","","","","","","","","",""
"","","","","","single-stim-button","196","656978","0.0-2.0-43.8-0.8","57ce74a271536c00015f12ed","B2","batch2","","712","tol_tohand","","","","tol_peg_1","712","712","0","[[0,0,0],[1,0],[2]]","9","[[2,3,0],[0,0],[1]]","11","0","","","","","","4","","","","","","","","",""
"","","","","","single-stim-button","197","657555","0.0-2.0-43.8-1.8","57ce74a271536c00015f12ed","B2","batch2","","576","tol_toboard","","","","tol_peg_2","576","576","0","[[0,0,0],[1,3],[2]]","9","[[2,3,0],[0,0],[1]]","11","0","","","","","","4","","","","","","","","",""
"","","","","","single-stim-button","198","658243","0.0-2.0-43.9-0.9","57ce74a271536c00015f12ed","B2","batch2","","688","tol_tohand","","","","tol_peg_3","688","688","0","[[0,0,0],[1,3],[0]]","10","[[2,3,0],[0,0],[1]]","11","0","","","","","","4","","","","","","","","",""
"","","","","","single-stim-button","199","658797","0.0-2.0-43.9-1.9","57ce74a271536c00015f12ed","B2","batch2","","554","tol_toboard","","","","tol_peg_1","554","554","0","[[2,0,0],[1,3],[0]]","10","[[2,3,0],[0,0],[1]]","11","0","","","","","","4","","","","","","","","",""
"","","","","","single-stim-button","200","659500","0.0-2.0-43.10-0.10","57ce74a271536c00015f12ed","B2","batch2","","702","tol_tohand","","","","tol_peg_2","702","702","0","[[2,0,0],[1,0],[0]]","11","[[2,3,0],[0,0],[1]]","11","0","","","","","","4","","","","","","","","",""
"","","","","","single-stim-button","201","660141","0.0-2.0-43.10-1.10","57ce74a271536c00015f12ed","B2","batch2","","640","tol_toboard","","","","tol_peg_1","640","640","0","[[2,3,0],[1,0],[0]]","11","[[2,3,0],[0,0],[1]]","11","0","","","","","","4","","","","","","","","",""
"","","","","","single-stim-button","202","660593","0.0-2.0-43.11-0.11","57ce74a271536c00015f12ed","B2","batch2","","451","tol_tohand","","","","tol_peg_2","451","451","0","[[2,3,0],[0,0],[0]]","12","[[2,3,0],[0,0],[1]]","11","0","","","","","","4","","","","","","","","",""
"","","","","","single-stim-button","203","661024","0.0-2.0-43.11-1.11","57ce74a271536c00015f12ed","B2","batch2","","429","tol_toboard","","","","tol_peg_3","429","429","0","[[2,3,0],[0,0],[1]]","12","[[2,3,0],[0,0],[1]]","11","0","","","","","","4","","","","","","","","",""
"","","","","","poldrack-single-stim","204","662026","0.0-2.0-44.0","57ce74a271536c00015f12ed","B2","batch2","","-1","tol_feedback","","","true","","1000","1000","500","","","","","","-1","none","true","6709","25852","","","","","","","","","",""
"","","","","","html-button-response","205","662526","0.0-2.0-45.0","57ce74a271536c00015f12ed","B2","batch2","","498.80000001192093","tol_trial_num","<div class = centerbox><p class = center-block-text>problem <strong>13</strong> out of 25 problems</p></div>","0","","","","","","","","","","","","","","","","","","","","","","","","",""
"","","","","","single-stim-button","206","666233","0.0-2.0-46.0-0.0","57ce74a271536c00015f12ed","B2","batch2","","3707","tol_tohand","","","","tol_peg_2","3707","3707","0","[[1,2,0],[0,0],[0]]","1","[[0,0,0],[2,3],[1]]","12","0","","","","","","4","","","","","","","","",""
"","","","","","single-stim-button","207","668349","0.0-2.0-46.0-1.0","57ce74a271536c00015f12ed","B2","batch2","","2115","tol_toboard","","","","tol_peg_3","2115","2115","0","[[1,2,0],[0,0],[3]]","1","[[0,0,0],[2,3],[1]]","12","0","","","","","","4","","","","","","","","",""
"","","","","","single-stim-button","208","668936","0.0-2.0-46.1-0.1","57ce74a271536c00015f12ed","B2","batch2","","587","tol_tohand","","","","tol_peg_1","587","587","0","[[1,0,0],[0,0],[3]]","2","[[0,0,0],[2,3],[1]]","12","0","","","","","","4","","","","","","","","",""
"","","","","","single-stim-button","209","669725","0.0-2.0-46.1-1.1","57ce74a271536c00015f12ed","B2","batch2","","788","tol_toboard","","","","tol_peg_2","788","788","0","[[1,0,0],[2,0],[3]]","2","[[0,0,0],[2,3],[1]]","12","0","","","","","","4","","","","","","","","",""
"","","","","","single-stim-button","210","670817","0.0-2.0-46.2-0.2","57ce74a271536c00015f12ed","B2","batch2","","1091","tol_tohand","","","","tol_peg_3","1091","1091","0","[[1,0,0],[2,0],[0]]","3","[[0,0,0],[2,3],[1]]","12","0","","","","","","4","","","","","","","","",""
"","","","","","single-stim-button","211","671841","0.0-2.0-46.2-1.2","57ce74a271536c00015f12ed","B2","batch2","","1024","tol_toboard","","","","tol_peg_2","1024","1024","0","[[1,0,0],[2,3],[0]]","3","[[0,0,0],[2,3],[1]]","12","0","","","","","","4","","","","","","","","",""
"","","","","","single-stim-button","212","672248","0.0-2.0-46.3-0.3","57ce74a271536c00015f12ed","B2","batch2","","406","tol_tohand","","","","tol_peg_1","406","406","0","[[0,0,0],[2,3],[0]]","4","[[0,0,0],[2,3],[1]]","12","0","","","","","","4","","","","","","","","",""
"","","","","","single-stim-button","213","672865","0.0-2.0-46.3-1.3","57ce74a271536c00015f12ed","B2","batch2","","617","tol_toboard","","","","tol_peg_3","617","617","0","[[0,0,0],[2,3],[1]]","4","[[0,0,0],[2,3],[1]]","12","0","","","","","","4","","","","","","","","",""
"","","","","","poldrack-single-stim","214","673868","0.0-2.0-47.0","57ce74a271536c00015f12ed","B2","batch2","","-1","tol_feedback","","","true","","1000","1000","500","","","","","","-1","none","true","3707","5791","","","","","","","","","",""
"","","","","","html-button-response","215","677637","0.0-2.0-48.0","57ce74a271536c00015f12ed","B2","batch2","","3768.9000000059605","attention_check","<p class = block-text>How many balls are in your board<br></p>","1","true","","","","","","","","","","","","","","","","","","","","","","","",""
"","","","","","html-button-response","216","678504","0.0-2.0-49.0","57ce74a271536c00015f12ed","B2","batch2","","865.9000000059605","tol_trial_num","<div class = centerbox><p class = center-block-text>problem <strong>14</strong> out of 25 problems</p></div>","0","","","","","","","","","","","","","","","","","","","","","","","","",""
"","","","","","single-stim-button","217","682603","0.0-2.0-50.0-0.0","57ce74a271536c00015f12ed","B2","batch2","","4099","tol_tohand","","","","tol_peg_1","4099","4099","0","[[2,0,0],[3,0],[0]]","1","[[1,2,0],[3,0],[0]]","13","0","","","","","","4","","","","","","","","",""
"","","","","","single-stim-button","218","683931","0.0-2.0-50.0-1.0","57ce74a271536c00015f12ed","B2","batch2","","1327","tol_toboard","","","","tol_peg_3","1327","1327","0","[[2,0,0],[3,0],[1]]","1","[[1,2,0],[3,0],[0]]","13","0","","","","","","4","","","","","","","","",""
"","","","","","single-stim-button","219","685165","0.0-2.0-50.1-0.1","57ce74a271536c00015f12ed","B2","batch2","","1233","tol_tohand","","","","tol_peg_1","1233","1233","0","[[0,0,0],[3,0],[1]]","2","[[1,2,0],[3,0],[0]]","13","0","","","","","","4","","","","","","","","",""
"","","","","","single-stim-button","220","685657","0.0-2.0-50.1-1.1","57ce74a271536c00015f12ed","B2","batch2","","491","tol_toboard","","","","tol_peg_2","491","491","0","[[0,0,0],[3,2],[1]]","2","[[1,2,0],[3,0],[0]]","13","0","","","","","","4","","","","","","","","",""
"","","","","","single-stim-button","221","685993","0.0-2.0-50.2-0.2","57ce74a271536c00015f12ed","B2","batch2","","336","tol_tohand","","","","tol_peg_3","336","336","0","[[0,0,0],[3,2],[0]]","3","[[1,2,0],[3,0],[0]]","13","0","","","","","","4","","","","","","","","",""
"","","","","","single-stim-button","222","686751","0.0-2.0-50.2-1.2","57ce74a271536c00015f12ed","B2","batch2","","758","tol_toboard","","","","tol_peg_1","758","758","0","[[1,0,0],[3,2],[0]]","3","[[1,2,0],[3,0],[0]]","13","0","","","","","","4","","","","","","","","",""
"","","","","","single-stim-button","223","687149","0.0-2.0-50.3-0.3","57ce74a271536c00015f12ed","B2","batch2","","398","tol_tohand","","","","tol_peg_2","398","398","0","[[1,0,0],[3,0],[0]]","4","[[1,2,0],[3,0],[0]]","13","0","","","","","","4","","","","","","","","",""
"","","","","","single-stim-button","224","687579","0.0-2.0-50.3-1.3","57ce74a271536c00015f12ed","B2","batch2","","430","tol_toboard","","","","tol_peg_1","430","430","0","[[1,2,0],[3,0],[0]]","4","[[1,2,0],[3,0],[0]]","13","0","","","","","","4","","","","","","","","",""
"","","","","","poldrack-single-stim","225","688580","0.0-2.0-51.0","57ce74a271536c00015f12ed","B2","batch2","","-1","tol_feedback","","","true","","1000","1000","500","","","","","","-1","none","true","4099","6066","","","","","","","","","",""
"","","","","","html-button-response","226","689087","0.0-2.0-52.0","57ce74a271536c00015f12ed","B2","batch2","","505.69999998807907","tol_trial_num","<div class = centerbox><p class = center-block-text>problem <strong>15</strong> out of 25 problems</p></div>","0","","","","","","","","","","","","","","","","","","","","","","","","",""
"","","","","","single-stim-button","227","692454","0.0-2.0-53.0-0.0","57ce74a271536c00015f12ed","B2","batch2","","3366","tol_tohand","","","","tol_peg_1","3366","3366","0","[[1,0,0],[3,0],[0]]","1","[[2,0,0],[3,0],[1]]","14","0","","","","","","3","","","","","","","","",""
"","","","","","single-stim-button","228","693432","0.0-2.0-53.0-1.0","57ce74a271536c00015f12ed","B2","batch2","","977","tol_toboard","","","","tol_peg_3","977","977","0","[[1,0,0],[3,0],[2]]","1","[[2,0,0],[3,0],[1]]","14","0","","","","","","3","","","","","","","","",""
"","","","","","single-stim-button","229","693938","0.0-2.0-53.1-0.1","57ce74a271536c00015f12ed","B2","batch2","","505","tol_tohand","","","","tol_peg_1","505","505","0","[[0,0,0],[3,0],[2]]","2","[[2,0,0],[3,0],[1]]","14","0","","","","","","3","","","","","","","","",""
"","","","","","single-stim-button","230","694422","0.0-2.0-53.1-1.1","57ce74a271536c00015f12ed","B2","batch2","","483","tol_toboard","","","","tol_peg_2","483","483","0","[[0,0,0],[3,1],[2]]","2","[[2,0,0],[3,0],[1]]","14","0","","","","","","3","","","","","","","","",""
"","","","","","single-stim-button","231","695064","0.0-2.0-53.2-0.2","57ce74a271536c00015f12ed","B2","batch2","","642","tol_tohand","","","","tol_peg_3","642","642","0","[[0,0,0],[3,1],[0]]","3","[[2,0,0],[3,0],[1]]","14","0","","","","","","3","","","","","","","","",""
"","","","","","single-stim-button","232","695790","0.0-2.0-53.2-1.2","57ce74a271536c00015f12ed","B2","batch2","","725","tol_toboard","","","","tol_peg_1","725","725","0","[[2,0,0],[3,1],[0]]","3","[[2,0,0],[3,0],[1]]","14","0","","","","","","3","","","","","","","","",""
"","","","","","single-stim-button","233","696195","0.0-2.0-53.3-0.3","57ce74a271536c00015f12ed","B2","batch2","","405","tol_tohand","","","","tol_peg_2","405","405","0","[[2,0,0],[3,0],[0]]","4","[[2,0,0],[3,0],[1]]","14","0","","","","","","3","","","","","","","","",""
"","","","","","single-stim-button","234","696766","0.0-2.0-53.3-1.3","57ce74a271536c00015f12ed","B2","batch2","","569","tol_toboard","","","","tol_peg_3","569","569","0","[[2,0,0],[3,0],[1]]","4","[[2,0,0],[3,0],[1]]","14","0","","","","","","3","","","","","","","","",""
"","","","","","poldrack-single-stim","235","697767","0.0-2.0-54.0","57ce74a271536c00015f12ed","B2","batch2","","-1","tol_feedback","","","true","","1000","1000","500","","","","","","-1","none","true","3366","4918","","","","","","","","","",""
"","","","","","html-button-response","236","698201","0.0-2.0-55.0","57ce74a271536c00015f12ed","B2","batch2","","433.59999999403954","tol_trial_num","<div class = centerbox><p class = center-block-text>problem <strong>16</strong> out of 25 problems</p></div>","0","","","","","","","","","","","","","","","","","","","","","","","","",""
"","","","","","single-stim-button","237","709154","0.0-2.0-56.0-0.0","57ce74a271536c00015f12ed","B2","batch2","","10952","tol_tohand","","","","tol_peg_2","10952","10952","0","[[0,0,0],[2,0],[1]]","1","[[2,3,0],[1,0],[0]]","15","0","","","","","","7","","","","","","","","",""
"","","","","","single-stim-button","238","709670","0.0-2.0-56.0-1.0","57ce74a271536c00015f12ed","B2","batch2","","515","tol_toboard","","","","tol_peg_1","515","515","0","[[3,0,0],[2,0],[1]]","1","[[2,3,0],[1,0],[0]]","15","0","","","","","","7","","","","","","","","",""
"","","","","","single-stim-button","239","710068","0.0-2.0-56.1-0.1","57ce74a271536c00015f12ed","B2","batch2","","397","tol_tohand","","","","tol_peg_2","397","397","0","[[3,0,0],[0,0],[1]]","2","[[2,3,0],[1,0],[0]]","15","0","","","","","","7","","","","","","","","",""
"","","","","","single-stim-button","240","710474","0.0-2.0-56.1-1.1","57ce74a271536c00015f12ed","B2","batch2","","405","tol_toboard","","","","tol_peg_1","405","405","0","[[3,2,0],[0,0],[1]]","2","[[2,3,0],[1,0],[0]]","15","0","","","","","","7","","","","","","","","",""
"","","","","","single-stim-button","241","711068","0.0-2.0-56.2-0.2","57ce74a271536c00015f12ed","B2","batch2","","592","tol_tohand","","","","tol_peg_3","592","592","0","[[3,2,0],[0,0],[0]]","3","[[2,3,0],[1,0],[0]]","15","0","","","","","","7","","","","","","","","",""
"","","","","","single-stim-button","242","711793","0.0-2.0-56.2-1.2","57ce74a271536c00015f12ed","B2","batch2","","725","tol_toboard","","","","tol_peg_2","725","725","0","[[3,2,0],[1,0],[0]]","3","[[2,3,0],[1,0],[0]]","15","0","","","","","","7","","","","","","","","",""
"","","","","","single-stim-button","243","714300","0.0-2.0-56.3-0.3","57ce74a271536c00015f12ed","B2","batch2","","2505","tol_tohand","","","","tol_peg_1","2505","2505","0","[[3,0,0],[1,0],[0]]","4","[[2,3,0],[1,0],[0]]","15","0","","","","","","7","","","","","","","","",""
"","","","","","single-stim-button","244","715106","0.0-2.0-56.3-1.3","57ce74a271536c00015f12ed","B2","batch2","","806","tol_toboard","","","","tol_peg_2","806","806","0","[[3,0,0],[1,2],[0]]","4","[[2,3,0],[1,0],[0]]","15","0","","","","","","7","","","","","","","","",""
"","","","","","single-stim-button","245","716910","0.0-2.0-56.4-0.4","57ce74a271536c00015f12ed","B2","batch2","","1803","tol_tohand","","","","tol_peg_1","1803","1803","0","[[0,0,0],[1,2],[0]]","5","[[2,3,0],[1,0],[0]]","15","0","","","","","","7","","","","","","","","",""
"","","","","","single-stim-button","246","717636","0.0-2.0-56.4-1.4","57ce74a271536c00015f12ed","B2","batch2","","725","tol_toboard","","","","tol_peg_3","725","725","0","[[0,0,0],[1,2],[3]]","5","[[2,3,0],[1,0],[0]]","15","0","","","","","","7","","","","","","","","",""
"","","","","","single-stim-button","247","718071","0.0-2.0-56.5-0.5","57ce74a271536c00015f12ed","B2","batch2","","435","tol_tohand","","","","tol_peg_2","435","435","0","[[0,0,0],[1,0],[3]]","6","[[2,3,0],[1,0],[0]]","15","0","","","","","","7","","","","","","","","",""
"","","","","","single-stim-button","248","718666","0.0-2.0-56.5-1.5","57ce74a271536c00015f12ed","B2","batch2","","593","tol_toboard","","","","tol_peg_1","593","593","0","[[2,0,0],[1,0],[3]]","6","[[2,3,0],[1,0],[0]]","15","0","","","","","","7","","","","","","","","",""
"","","","","","single-stim-button","249","719064","0.0-2.0-56.6-0.6","57ce74a271536c00015f12ed","B2","batch2","","397","tol_tohand","","","","tol_peg_3","397","397","0","[[2,0,0],[1,0],[0]]","7","[[2,3,0],[1,0],[0]]","15","0","","","","","","7","","","","","","","","",""
"","","","","","single-stim-button","250","719548","0.0-2.0-56.6-1.6","57ce74a271536c00015f12ed","B2","batch2","","483","tol_toboard","","","","tol_peg_1","483","483","0","[[2,3,0],[1,0],[0]]","7","[[2,3,0],[1,0],[0]]","15","0","","","","","","7","","","","","","","","",""
"","","","","","poldrack-single-stim","251","720549","0.0-2.0-57.0","57ce74a271536c00015f12ed","B2","batch2","","-1","tol_feedback","","","true","","1000","1000","500","","","","","","-1","none","true","10952","17081","","","","","","","","","",""
"","","","","","html-button-response","252","721031","0.0-2.0-58.0","57ce74a271536c00015f12ed","B2","batch2","","481.69999998807907","tol_trial_num","<div class = centerbox><p class = center-block-text>problem <strong>17</strong> out of 25 problems</p></div>","0","","","","","","","","","","","","","","","","","","","","","","","","",""
"","","","","","single-stim-button","253","724438","0.0-2.0-59.0-0.0","57ce74a271536c00015f12ed","B2","batch2","","3405","tol_tohand","","","","tol_peg_2","3405","3405","0","[[1,2,0],[0,0],[0]]","1","[[3,1,0],[2,0],[0]]","16","0","","","","","","5","","","","","","","","",""
"","","","","","single-stim-button","254","725250","0.0-2.0-59.0-1.0","57ce74a271536c00015f12ed","B2","batch2","","811","tol_toboard","","","","tol_peg_3","811","811","0","[[1,2,0],[0,0],[3]]","1","[[3,1,0],[2,0],[0]]","16","0","","","","","","5","","","","","","","","",""
"","","","","","single-stim-button","255","726140","0.0-2.0-59.1-0.1","57ce74a271536c00015f12ed","B2","batch2","","889","tol_tohand","","","","tol_peg_1","889","889","0","[[1,0,0],[0,0],[3]]","2","[[3,1,0],[2,0],[0]]","16","0","","","","","","5","","","","","","","","",""
"","","","","","single-stim-button","256","726961","0.0-2.0-59.1-1.1","57ce74a271536c00015f12ed","B2","batch2","","820","tol_toboard","","","","tol_peg_2","820","820","0","[[1,0,0],[2,0],[3]]","2","[[3,1,0],[2,0],[0]]","16","0","","","","","","5","","","","","","","","",""
"","","","","","single-stim-button","257","729108","0.0-2.0-59.2-0.2","57ce74a271536c00015f12ed","B2","batch2","","2145","tol_tohand","","","","tol_peg_1","2145","2145","0","[[0,0,0],[2,0],[3]]","3","[[3,1,0],[2,0],[0]]","16","0","","","","","","5","","","","","","","","",""
"","","","","","single-stim-button","258","729640","0.0-2.0-59.2-1.2","57ce74a271536c00015f12ed","B2","batch2","","530","tol_toboard","","","","tol_peg_2","530","530","0","[[0,0,0],[2,1],[3]]","3","[[3,1,0],[2,0],[0]]","16","0","","","","","","5","","","","","","","","",""
"","","","","","single-stim-button","259","730304","0.0-2.0-59.3-0.3","57ce74a271536c00015f12ed","B2","batch2","","663","tol_tohand","","","","tol_peg_3","663","663","0","[[0,0,0],[2,1],[0]]","4","[[3,1,0],[2,0],[0]]","16","0","","","","","","5","","","","","","","","",""
"","","","","","single-stim-button","260","730982","0.0-2.0-59.3-1.3","57ce74a271536c00015f12ed","B2","batch2","","677","tol_toboard","","","","tol_peg_1","677","677","0","[[3,0,0],[2,1],[0]]","4","[[3,1,0],[2,0],[0]]","16","0","","","","","","5","","","","","","","","",""
"","","","","","single-stim-button","261","731514","0.0-2.0-59.4-0.4","57ce74a271536c00015f12ed","B2","batch2","","531","tol_tohand","","","","tol_peg_2","531","531","0","[[3,0,0],[2,0],[0]]","5","[[3,1,0],[2,0],[0]]","16","0","","","","","","5","","","","","","","","",""
"","","","","","single-stim-button","262","732067","0.0-2.0-59.4-1.4","57ce74a271536c00015f12ed","B2","batch2","","553","tol_toboard","","","","tol_peg_1","553","553","0","[[3,1,0],[2,0],[0]]","5","[[3,1,0],[2,0],[0]]","16","0","","","","","","5","","","","","","","","",""
"","","","","","poldrack-single-stim","263","733070","0.0-2.0-60.0","57ce74a271536c00015f12ed","B2","batch2","","-1","tol_feedback","","","true","","1000","1000","500","","","","","","-1","none","true","3405","7633","","","","","","","","","",""
"","","","","","html-button-response","264","733583","0.0-2.0-61.0","57ce74a271536c00015f12ed","B2","batch2","","512.8000000119209","tol_trial_num","<div class = centerbox><p class = center-block-text>problem <strong>18</strong> out of 25 problems</p></div>","0","","","","","","","","","","","","","","","","","","","","","","","","",""
"","","","","","single-stim-button","265","737372","0.0-2.0-62.0-0.0","57ce74a271536c00015f12ed","B2","batch2","","3787","tol_tohand","","","","tol_peg_1","3787","3787","0","[[1,0,0],[3,0],[0]]","1","[[3,0,0],[2,0],[1]]","17","0","","","","","","5","","","","","","","","",""
"","","","","","single-stim-button","266","737786","0.0-2.0-62.0-1.0","57ce74a271536c00015f12ed","B2","batch2","","413","tol_toboard","","","","tol_peg_2","413","413","0","[[1,0,0],[3,2],[0]]","1","[[3,0,0],[2,0],[1]]","17","0","","","","","","5","","","","","","","","",""
"","","","","","single-stim-button","267","738410","0.0-2.0-62.1-0.1","57ce74a271536c00015f12ed","B2","batch2","","623","tol_tohand","","","","tol_peg_1","623","623","0","[[0,0,0],[3,2],[0]]","2","[[3,0,0],[2,0],[1]]","17","0","","","","","","5","","","","","","","","",""
"","","","","","single-stim-button","268","739206","0.0-2.0-62.1-1.1","57ce74a271536c00015f12ed","B2","batch2","","794","tol_toboard","","","","tol_peg_3","794","794","0","[[0,0,0],[3,2],[1]]","2","[[3,0,0],[2,0],[1]]","17","0","","","","","","5","","","","","","","","",""
"","","","","","single-stim-button","269","741878","0.0-2.0-62.2-0.2","57ce74a271536c00015f12ed","B2","batch2","","2672","tol_tohand","","","","tol_peg_2","2672","2672","0","[[0,0,0],[3,0],[1]]","3","[[3,0,0],[2,0],[1]]","17","0","","","","","","5","","","","","","","","",""
"","","","","","single-stim-button","270","744985","0.0-2.0-62.2-1.2","57ce74a271536c00015f12ed","B2","batch2","","3107","tol_toboard","","","","tol_peg_2","3107","3107","0","[[0,0,0],[3,2],[1]]","3","[[3,0,0],[2,0],[1]]","17","0","","","","","","5","","","","","","","","",""
"","","","","","single-stim-button","271","745448","0.0-2.0-62.3-0.3","57ce74a271536c00015f12ed","B2","batch2","","461","tol_tohand","","","","tol_peg_3","461","461","0","[[0,0,0],[3,2],[0]]","4","[[3,0,0],[2,0],[1]]","17","0","","","","","","5","","","","","","","","",""
"","","","","","single-stim-button","272","746198","0.0-2.0-62.3-1.3","57ce74a271536c00015f12ed","B2","batch2","","748","tol_toboard","","","","tol_peg_1","748","748","0","[[1,0,0],[3,2],[0]]","4","[[3,0,0],[2,0],[1]]","17","0","","","","","","5","","","","","","","","",""
"","","","","","single-stim-button","273","748166","0.0-2.0-62.4-0.4","57ce74a271536c00015f12ed","B2","batch2","","1967","tol_tohand","","","","tol_peg_2","1967","1967","0","[[1,0,0],[3,0],[0]]","5","[[3,0,0],[2,0],[1]]","17","0","","","","","","5","","","","","","","","",""
"","","","","","single-stim-button","274","748782","0.0-2.0-62.4-1.4","57ce74a271536c00015f12ed","B2","batch2","","616","tol_toboard","","","","tol_peg_3","616","616","0","[[1,0,0],[3,0],[2]]","5","[[3,0,0],[2,0],[1]]","17","0","","","","","","5","","","","","","","","",""
"","","","","","single-stim-button","275","749399","0.0-2.0-62.5-0.5","57ce74a271536c00015f12ed","B2","batch2","","616","tol_tohand","","","","tol_peg_2","616","616","0","[[1,0,0],[0,0],[2]]","6","[[3,0,0],[2,0],[1]]","17","0","","","","","","5","","","","","","","","",""
"","","","","","single-stim-button","276","750524","0.0-2.0-62.5-1.5","57ce74a271536c00015f12ed","B2","batch2","","1124","tol_toboard","","","","tol_peg_1","1124","1124","0","[[1,3,0],[0,0],[2]]","6","[[3,0,0],[2,0],[1]]","17","0","","","","","","5","","","","","","","","",""
"","","","","","single-stim-button","277","751094","0.0-2.0-62.6-0.6","57ce74a271536c00015f12ed","B2","batch2","","570","tol_tohand","","","","tol_peg_3","570","570","0","[[1,3,0],[0,0],[0]]","7","[[3,0,0],[2,0],[1]]","17","0","","","","","","5","","","","","","","","",""
"","","","","","single-stim-button","278","751728","0.0-2.0-62.6-1.6","57ce74a271536c00015f12ed","B2","batch2","","632","tol_toboard","","","","tol_peg_2","632","632","0","[[1,3,0],[2,0],[0]]","7","[[3,0,0],[2,0],[1]]","17","0","","","","","","5","","","","","","","","",""
"","","","","","single-stim-button","279","753142","0.0-2.0-62.7-0.7","57ce74a271536c00015f12ed","B2","batch2","","1413","tol_tohand","","","","tol_peg_1","1413","1413","0","[[1,0,0],[2,0],[0]]","8","[[3,0,0],[2,0],[1]]","17","0","","","","","","5","","","","","","","","",""
"","","","","","single-stim-button","280","753819","0.0-2.0-62.7-1.7","57ce74a271536c00015f12ed","B2","batch2","","677","tol_toboard","","","","tol_peg_2","677","677","0","[[1,0,0],[2,3],[0]]","8","[[3,0,0],[2,0],[1]]","17","0","","","","","","5","","","","","","","","",""
"","","","","","single-stim-button","281","754218","0.0-2.0-62.8-0.8","57ce74a271536c00015f12ed","B2","batch2","","398","tol_tohand","","","","tol_peg_1","398","398","0","[[0,0,0],[2,3],[0]]","9","[[3,0,0],[2,0],[1]]","17","0","","","","","","5","","","","","","","","",""
"","","","","","single-stim-button","282","755069","0.0-2.0-62.8-1.8","57ce74a271536c00015f12ed","B2","batch2","","850","tol_toboard","","","","tol_peg_3","850","850","0","[[0,0,0],[2,3],[1]]","9","[[3,0,0],[2,0],[1]]","17","0","","","","","","5","","","","","","","","",""
"","","","","","single-stim-button","283","755500","0.0-2.0-62.9-0.9","57ce74a271536c00015f12ed","B2","batch2","","430","tol_tohand","","","","tol_peg_2","430","430","0","[[0,0,0],[2,0],[1]]","10","[[3,0,0],[2,0],[1]]","17","0","","","","","","5","","","","","","","","",""
"","","","","","single-stim-button","284","756021","0.0-2.0-62.9-1.9","57ce74a271536c00015f12ed","B2","batch2","","521","tol_toboard","","","","tol_peg_1","521","521","0","[[3,0,0],[2,0],[1]]","10","[[3,0,0],[2,0],[1]]","17","0","","","","","","5","","","","","","","","",""
"","","","","","poldrack-single-stim","285","757023","0.0-2.0-63.0","57ce74a271536c00015f12ed","B2","batch2","","-1","tol_feedback","","","true","","1000","1000","500","","","","","","-1","none","true","3787","12937","","","","","","","","","",""
"","","","","","html-button-response","286","757459","0.0-2.0-64.0","57ce74a271536c00015f12ed","B2","batch2","","435.5","tol_trial_num","<div class = centerbox><p class = center-block-text>problem <strong>19</strong> out of 25 problems</p></div>","0","","","","","","","","","","","","","","","","","","","","","","","","",""
"","","","","","single-stim-button","287","759365","0.0-2.0-65.0-0.0","57ce74a271536c00015f12ed","B2","batch2","","1906","tol_tohand","","","","tol_peg_2","1906","1906","0","[[1,2,0],[0,0],[0]]","1","[[0,0,0],[1,2],[3]]","18","0","","","","","","7","","","","","","","","",""
"","","","","","single-stim-button","288","760029","0.0-2.0-65.0-1.0","57ce74a271536c00015f12ed","B2","batch2","","663","tol_toboard","","","","tol_peg_3","663","663","0","[[1,2,0],[0,0],[3]]","1","[[0,0,0],[1,2],[3]]","18","0","","","","","","7","","","","","","","","",""
"","","","","","single-stim-button","289","761107","0.0-2.0-65.1-0.1","57ce74a271536c00015f12ed","B2","batch2","","1078","tol_tohand","","","","tol_peg_1","1078","1078","0","[[1,0,0],[0,0],[3]]","2","[[0,0,0],[1,2],[3]]","18","0","","","","","","7","","","","","","","","",""
"","","","","","single-stim-button","290","765925","0.0-2.0-65.1-1.1","57ce74a271536c00015f12ed","B2","batch2","","4818","tol_toboard","","","","tol_peg_2","4818","4818","0","[[1,0,0],[2,0],[3]]","2","[[0,0,0],[1,2],[3]]","18","0","","","","","","7","","","","","","","","",""
"","","","","","single-stim-button","291","766409","0.0-2.0-65.2-0.2","57ce74a271536c00015f12ed","B2","batch2","","483","tol_tohand","","","","tol_peg_3","483","483","0","[[1,0,0],[2,0],[0]]","3","[[0,0,0],[1,2],[3]]","18","0","","","","","","7","","","","","","","","",""
"","","","","","single-stim-button","292","767675","0.0-2.0-65.2-1.2","57ce74a271536c00015f12ed","B2","batch2","","1265","tol_toboard","","","","tol_peg_1","1265","1265","0","[[1,3,0],[2,0],[0]]","3","[[0,0,0],[1,2],[3]]","18","0","","","","","","7","","","","","","","","",""
"","","","","","single-stim-button","293","768869","0.0-2.0-65.3-0.3","57ce74a271536c00015f12ed","B2","batch2","","1193","tol_tohand","","","","tol_peg_2","1193","1193","0","[[1,3,0],[0,0],[0]]","4","[[0,0,0],[1,2],[3]]","18","0","","","","","","7","","","","","","","","",""
"","","","","","single-stim-button","294","769525","0.0-2.0-65.3-1.3","57ce74a271536c00015f12ed","B2","batch2","","655","tol_toboard","","","","tol_peg_3","655","655","0","[[1,3,0],[0,0],[2]]","4","[[0,0,0],[1,2],[3]]","18","0","","","","","","7","","","","","","","","",""
"","","","","","single-stim-button","295","774252","0.0-2.0-65.4-0.4","57ce74a271536c00015f12ed","B2","batch2","","4726","tol_tohand","","","","tol_peg_1","4726","4726","0","[[1,0,0],[0,0],[2]]","5","[[0,0,0],[1,2],[3]]","18","0","","","","","","7","","","","","","","","",""
"","","","","","single-stim-button","296","775768","0.0-2.0-65.4-1.4","57ce74a271536c00015f12ed","B2","batch2","","1515","tol_toboard","","","","tol_peg_2","1515","1515","0","[[1,0,0],[3,0],[2]]","5","[[0,0,0],[1,2],[3]]","18","0","","","","","","7","","","","","","","","",""
"","","","","","single-stim-button","297","776915","0.0-2.0-65.5-0.5","57ce74a271536c00015f12ed","B2","batch2","","1146","tol_tohand","","","","tol_peg_1","1146","1146","0","[[0,0,0],[3,0],[2]]","6","[[0,0,0],[1,2],[3]]","18","0","","","","","","7","","","","","","","","",""
"","","","","","single-stim-button","298","781189","0.0-2.0-65.5-1.5","57ce74a271536c00015f12ed","B2","batch2","","4273","tol_toboard","","","","tol_peg_1","4273","4273","0","[[1,0,0],[3,0],[2]]","6","[[0,0,0],[1,2],[3]]","18","0","","","","","","7","","","","","","","","",""
"","","","","","single-stim-button","299","789827","0.0-2.0-65.6-0.6","57ce74a271536c00015f12ed","B2","batch2","","8638","tol_tohand","","","","tol_peg_2","8638","8638","0","[[1,0,0],[0,0],[2]]","7","[[0,0,0],[1,2],[3]]","18","0","","","","","","7","","","","","","","","",""
"","","","","","single-stim-button","300","791475","0.0-2.0-65.6-1.6","57ce74a271536c00015f12ed","B2","batch2","","1648","tol_toboard","","","","tol_peg_2","1648","1648","0","[[1,0,0],[3,0],[2]]","7","[[0,0,0],[1,2],[3]]","18","0","","","","","","7","","","","","","","","",""
"","","","","","single-stim-button","301","791812","0.0-2.0-65.7-0.7","57ce74a271536c00015f12ed","B2","batch2","","336","tol_tohand","","","","tol_peg_3","336","336","0","[[1,0,0],[3,0],[0]]","8","[[0,0,0],[1,2],[3]]","18","0","","","","","","7","","","","","","","","",""
"","","","","","single-stim-button","302","792513","0.0-2.0-65.7-1.7","57ce74a271536c00015f12ed","B2","batch2","","700","tol_toboard","","","","tol_peg_2","700","700","0","[[1,0,0],[3,2],[0]]","8","[[0,0,0],[1,2],[3]]","18","0","","","","","","7","","","","","","","","",""
"","","","","","single-stim-button","303","793505","0.0-2.0-65.8-0.8","57ce74a271536c00015f12ed","B2","batch2","","992","tol_tohand","","","","tol_peg_1","992","992","0","[[0,0,0],[3,2],[0]]","9","[[0,0,0],[1,2],[3]]","18","0","","","","","","7","","","","","","","","",""
"","","","","","single-stim-button","304","794013","0.0-2.0-65.8-1.8","57ce74a271536c00015f12ed","B2","batch2","","508","tol_toboard","","","","tol_peg_3","508","508","0","[[0,0,0],[3,2],[1]]","9","[[0,0,0],[1,2],[3]]","18","0","","","","","","7","","","","","","","","",""
"","","","","","single-stim-button","305","794615","0.0-2.0-65.9-0.9","57ce74a271536c00015f12ed","B2","batch2","","600","tol_tohand","","","","tol_peg_2","600","600","0","[[0,0,0],[3,0],[1]]","10","[[0,0,0],[1,2],[3]]","18","0","","","","","","7","","","","","","","","",""
"","","","","","single-stim-button","306","795436","0.0-2.0-65.9-1.9","57ce74a271536c00015f12ed","B2","batch2","","820","tol_toboard","","","","tol_peg_1","820","820","0","[[2,0,0],[3,0],[1]]","10","[[0,0,0],[1,2],[3]]","18","0","","","","","","7","","","","","","","","",""
"","","","","","single-stim-button","307","795928","0.0-2.0-65.10-0.10","57ce74a271536c00015f12ed","B2","batch2","","492","tol_tohand","","","","tol_peg_2","492","492","0","[[2,0,0],[0,0],[1]]","11","[[0,0,0],[1,2],[3]]","18","0","","","","","","7","","","","","","","","",""
"","","","","","single-stim-button","308","796387","0.0-2.0-65.10-1.10","57ce74a271536c00015f12ed","B2","batch2","","459","tol_toboard","","","","tol_peg_1","459","459","0","[[2,3,0],[0,0],[1]]","11","[[0,0,0],[1,2],[3]]","18","0","","","","","","7","","","","","","","","",""
"","","","","","single-stim-button","309","796935","0.0-2.0-65.11-0.11","57ce74a271536c00015f12ed","B2","batch2","","548","tol_tohand","","","","tol_peg_3","548","548","0","[[2,3,0],[0,0],[0]]","12","[[0,0,0],[1,2],[3]]","18","0","","","","","","7","","","","","","","","",""
"","","","","","single-stim-button","310","797457","0.0-2.0-65.11-1.11","57ce74a271536c00015f12ed","B2","batch2","","522","tol_toboard","","","","tol_peg_2","522","522","0","[[2,3,0],[1,0],[0]]","12","[[0,0,0],[1,2],[3]]","18","0","","","","","","7","","","","","","","","",""
"","","","","","single-stim-button","311","798301","0.0-2.0-65.12-0.12","57ce74a271536c00015f12ed","B2","batch2","","844","tol_tohand","","","","tol_peg_1","844","844","0","[[2,0,0],[1,0],[0]]","13","[[0,0,0],[1,2],[3]]","18","0","","","","","","7","","","","","","","","",""
"","","","","","single-stim-button","312","798895","0.0-2.0-65.12-1.12","57ce74a271536c00015f12ed","B2","batch2","","593","tol_toboard","","","","tol_peg_3","593","593","0","[[2,0,0],[1,0],[3]]","13","[[0,0,0],[1,2],[3]]","18","0","","","","","","7","","","","","","","","",""
"","","","","","single-stim-button","313","799223","0.0-2.0-65.13-0.13","57ce74a271536c00015f12ed","B2","batch2","","328","tol_tohand","","","","tol_peg_3","328","328","0","[[2,0,0],[1,0],[0]]","14","[[0,0,0],[1,2],[3]]","18","0","","","","","","7","","","","","","","","",""
"","","","","","single-stim-button","314","800551","0.0-2.0-65.13-1.13","57ce74a271536c00015f12ed","B2","batch2","","1328","tol_toboard","","","","tol_peg_3","1328","1328","0","[[2,0,0],[1,0],[3]]","14","[[0,0,0],[1,2],[3]]","18","0","","","","","","7","","","","","","","","",""
"","","","","","single-stim-button","315","801090","0.0-2.0-65.14-0.14","57ce74a271536c00015f12ed","B2","batch2","","538","tol_tohand","","","","tol_peg_1","538","538","0","[[0,0,0],[1,0],[3]]","15","[[0,0,0],[1,2],[3]]","18","0","","","","","","7","","","","","","","","",""
"","","","","","single-stim-button","316","801557","0.0-2.0-65.14-1.14","57ce74a271536c00015f12ed","B2","batch2","","467","tol_toboard","","","","tol_peg_2","467","467","0","[[0,0,0],[1,2],[3]]","15","[[0,0,0],[1,2],[3]]","18","0","","","","","","7","","","","","","","","",""
"","","","","","poldrack-single-stim","317","802559","0.0-2.0-66.0","57ce74a271536c00015f12ed","B2","batch2","","-1","tol_feedback","","","true","","1000","1000","500","","","","","","-1","none","true","1906","23848","","","","","","","","","",""
"","","","","","html-button-response","318","802942","0.0-2.0-67.0","57ce74a271536c00015f12ed","B2","batch2","","382.59999999403954","tol_trial_num","<div class = centerbox><p class = center-block-text>problem <strong>20</strong> out of 25 problems</p></div>","0","","","","","","","","","","","","","","","","","","","","","","","","",""
"","","","","","single-stim-button","319","805095","0.0-2.0-68.0-0.0","57ce74a271536c00015f12ed","B2","batch2","","2152","tol_tohand","","","","tol_peg_2","2152","2152","0","[[1,2,0],[0,0],[0]]","1","[[2,1,0],[0,0],[3]]","19","0","","","","","","5","","","","","","","","",""
"","","","","","single-stim-button","320","806025","0.0-2.0-68.0-1.0","57ce74a271536c00015f12ed","B2","batch2","","930","tol_toboard","","","","tol_peg_3","930","930","0","[[1,2,0],[0,0],[3]]","1","[[2,1,0],[0,0],[3]]","19","0","","","","","","5","","","","","","","","",""
"","","","","","single-stim-button","321","808337","0.0-2.0-68.1-0.1","57ce74a271536c00015f12ed","B2","batch2","","2311","tol_tohand","","","","tol_peg_1","2311","2311","0","[[1,0,0],[0,0],[3]]","2","[[2,1,0],[0,0],[3]]","19","0","","","","","","5","","","","","","","","",""
"","","","","","single-stim-button","322","812241","0.0-2.0-68.1-1.1","57ce74a271536c00015f12ed","B2","batch2","","3903","tol_toboard","","","","tol_peg_1","3903","3903","0","[[1,2,0],[0,0],[3]]","2","[[2,1,0],[0,0],[3]]","19","0","","","","","","5","","","","","","","","",""
"","","","","","single-stim-button","323","812806","0.0-2.0-68.2-0.2","57ce74a271536c00015f12ed","B2","batch2","","563","tol_tohand","","","","tol_peg_3","563","563","0","[[1,2,0],[0,0],[0]]","3","[[2,1,0],[0,0],[3]]","19","0","","","","","","5","","","","","","","","",""
"","","","","","single-stim-button","324","813421","0.0-2.0-68.2-1.2","57ce74a271536c00015f12ed","B2","batch2","","615","tol_toboard","","","","tol_peg_2","615","615","0","[[1,2,0],[3,0],[0]]","3","[[2,1,0],[0,0],[3]]","19","0","","","","","","5","","","","","","","","",""
"","","","","","single-stim-button","325","813873","0.0-2.0-68.3-0.3","57ce74a271536c00015f12ed","B2","batch2","","452","tol_tohand","","","","tol_peg_1","452","452","0","[[1,0,0],[3,0],[0]]","4","[[2,1,0],[0,0],[3]]","19","0","","","","","","5","","","","","","","","",""
"","","","","","single-stim-button","326","814389","0.0-2.0-68.3-1.3","57ce74a271536c00015f12ed","B2","batch2","","515","tol_toboard","","","","tol_peg_3","515","515","0","[[1,0,0],[3,0],[2]]","4","[[2,1,0],[0,0],[3]]","19","0","","","","","","5","","","","","","","","",""
"","","","","","single-stim-button","327","814897","0.0-2.0-68.4-0.4","57ce74a271536c00015f12ed","B2","batch2","","507","tol_tohand","","","","tol_peg_1","507","507","0","[[0,0,0],[3,0],[2]]","5","[[2,1,0],[0,0],[3]]","19","0","","","","","","5","","","","","","","","",""
"","","","","","single-stim-button","328","815389","0.0-2.0-68.4-1.4","57ce74a271536c00015f12ed","B2","batch2","","492","tol_toboard","","","","tol_peg_2","492","492","0","[[0,0,0],[3,1],[2]]","5","[[2,1,0],[0,0],[3]]","19","0","","","","","","5","","","","","","","","",""
"","","","","","single-stim-button","329","815835","0.0-2.0-68.5-0.5","57ce74a271536c00015f12ed","B2","batch2","","445","tol_tohand","","","","tol_peg_3","445","445","0","[[0,0,0],[3,1],[0]]","6","[[2,1,0],[0,0],[3]]","19","0","","","","","","5","","","","","","","","",""
"","","","","","single-stim-button","330","816325","0.0-2.0-68.5-1.5","57ce74a271536c00015f12ed","B2","batch2","","489","tol_toboard","","","","tol_peg_1","489","489","0","[[2,0,0],[3,1],[0]]","6","[[2,1,0],[0,0],[3]]","19","0","","","","","","5","","","","","","","","",""
"","","","","","single-stim-button","331","816693","0.0-2.0-68.6-0.6","57ce74a271536c00015f12ed","B2","batch2","","367","tol_tohand","","","","tol_peg_2","367","367","0","[[2,0,0],[3,0],[0]]","7","[[2,1,0],[0,0],[3]]","19","0","","","","","","5","","","","","","","","",""
"","","","","","single-stim-button","332","817046","0.0-2.0-68.6-1.6","57ce74a271536c00015f12ed","B2","batch2","","351","tol_toboard","","","","tol_peg_1","351","351","0","[[2,1,0],[3,0],[0]]","7","[[2,1,0],[0,0],[3]]","19","0","","","","","","5","","","","","","","","",""
"","","","","","single-stim-button","333","818543","0.0-2.0-68.7-0.7","57ce74a271536c00015f12ed","B2","batch2","","1496","tol_tohand","","","","tol_peg_2","1496","1496","0","[[2,1,0],[0,0],[0]]","8","[[2,1,0],[0,0],[3]]","19","0","","","","","","5","","","","","","","","",""
"","","","","","single-stim-button","334","818989","0.0-2.0-68.7-1.7","57ce74a271536c00015f12ed","B2","batch2","","446","tol_toboard","","","","tol_peg_3","446","446","0","[[2,1,0],[0,0],[3]]","8","[[2,1,0],[0,0],[3]]","19","0","","","","","","5","","","","","","","","",""
"","","","","","poldrack-single-stim","335","819991","0.0-2.0-69.0","57ce74a271536c00015f12ed","B2","batch2","","-1","tol_feedback","","","true","","1000","1000","500","","","","","","-1","none","true","2152","8293","","","","","","","","","",""
"","","","","","html-button-response","336","820621","0.0-2.0-70.0","57ce74a271536c00015f12ed","B2","batch2","","628.6999999880791","tol_trial_num","<div class = centerbox><p class = center-block-text>problem <strong>21</strong> out of 25 problems</p></div>","0","","","","","","","","","","","","","","","","","","","","","","","","",""
"","","","","","single-stim-button","337","824143","0.0-2.0-71.0-0.0","57ce74a271536c00015f12ed","B2","batch2","","3522","tol_tohand","","","","tol_peg_1","3522","3522","0","[[1,0,0],[3,0],[0]]","1","[[3,2,0],[0,0],[1]]","20","0","","","","","","6","","","","","","","","",""
"","","","","","single-stim-button","338","826665","0.0-2.0-71.0-1.0","57ce74a271536c00015f12ed","B2","batch2","","2521","tol_toboard","","","","tol_peg_3","2521","2521","0","[[1,0,0],[3,0],[2]]","1","[[3,2,0],[0,0],[1]]","20","0","","","","","","6","","","","","","","","",""
"","","","","","single-stim-button","339","829649","0.0-2.0-71.1-0.1","57ce74a271536c00015f12ed","B2","batch2","","2984","tol_tohand","","","","tol_peg_3","2984","2984","0","[[1,0,0],[3,0],[0]]","2","[[3,2,0],[0,0],[1]]","20","0","","","","","","6","","","","","","","","",""
"","","","","","single-stim-button","340","830033","0.0-2.0-71.1-1.1","57ce74a271536c00015f12ed","B2","batch2","","383","tol_toboard","","","","tol_peg_2","383","383","0","[[1,0,0],[3,2],[0]]","2","[[3,2,0],[0,0],[1]]","20","0","","","","","","6","","","","","","","","",""
"","","","","","single-stim-button","341","830477","0.0-2.0-71.2-0.2","57ce74a271536c00015f12ed","B2","batch2","","442","tol_tohand","","","","tol_peg_1","442","442","0","[[0,0,0],[3,2],[0]]","3","[[3,2,0],[0,0],[1]]","20","0","","","","","","6","","","","","","","","",""
"","","","","","single-stim-button","342","831173","0.0-2.0-71.2-1.2","57ce74a271536c00015f12ed","B2","batch2","","694","tol_toboard","","","","tol_peg_3","694","694","0","[[0,0,0],[3,2],[1]]","3","[[3,2,0],[0,0],[1]]","20","0","","","","","","6","","","","","","","","",""
"","","","","","single-stim-button","343","835625","0.0-2.0-71.3-0.3","57ce74a271536c00015f12ed","B2","batch2","","4451","tol_tohand","","","","tol_peg_3","4451","4451","0","[[0,0,0],[3,2],[0]]","4","[[3,2,0],[0,0],[1]]","20","0","","","","","","6","","","","","","","","",""
"","","","","","single-stim-button","344","836725","0.0-2.0-71.3-1.3","57ce74a271536c00015f12ed","B2","batch2","","1099","tol_toboard","","","","tol_peg_1","1099","1099","0","[[1,0,0],[3,2],[0]]","4","[[3,2,0],[0,0],[1]]","20","0","","","","","","6","","","","","","","","",""
"","","","","","single-stim-button","345","837115","0.0-2.0-71.4-0.4","57ce74a271536c00015f12ed","B2","batch2","","390","tol_tohand","","","","tol_peg_2","390","390","0","[[1,0,0],[3,0],[0]]","5","[[3,2,0],[0,0],[1]]","20","0","","","","","","6","","","","","","","","",""
"","","","","","single-stim-button","346","838341","0.0-2.0-71.4-1.4","57ce74a271536c00015f12ed","B2","batch2","","1226","tol_toboard","","","","tol_peg_3","1226","1226","0","[[1,0,0],[3,0],[2]]","5","[[3,2,0],[0,0],[1]]","20","0","","","","","","6","","","","","","","","",""
"","","","","","single-stim-button","347","839475","0.0-2.0-71.5-0.5","57ce74a271536c00015f12ed","B2","batch2","","1132","tol_tohand","","","","tol_peg_1","1132","1132","0","[[0,0,0],[3,0],[2]]","6","[[3,2,0],[0,0],[1]]","20","0","","","","","","6","","","","","","","","",""
"","","","","","single-stim-button","348","841169","0.0-2.0-71.5-1.5","57ce74a271536c00015f12ed","B2","batch2","","1693","tol_toboard","","","","tol_peg_1","1693","1693","0","[[1,0,0],[3,0],[2]]","6","[[3,2,0],[0,0],[1]]","20","0","","","","","","6","","","","","","","","",""
"","","","","","single-stim-button","349","842162","0.0-2.0-71.6-0.6","57ce74a271536c00015f12ed","B2","batch2","","992","tol_tohand","","","","tol_peg_2","992","992","0","[[1,0,0],[0,0],[2]]","7","[[3,2,0],[0,0],[1]]","20","0","","","","","","6","","","","","","","","",""
"","","","","","single-stim-button","350","844839","0.0-2.0-71.6-1.6","57ce74a271536c00015f12ed","B2","batch2","","2677","tol_toboard","","","","tol_peg_1","2677","2677","0","[[1,3,0],[0,0],[2]]","7","[[3,2,0],[0,0],[1]]","20","0","","","","","","6","","","","","","","","",""
"","","","","","single-stim-button","351","845801","0.0-2.0-71.7-0.7","57ce74a271536c00015f12ed","B2","batch2","","961","tol_tohand","","","","tol_peg_3","961","961","0","[[1,3,0],[0,0],[0]]","8","[[3,2,0],[0,0],[1]]","20","0","","","","","","6","","","","","","","","",""
"","","","","","single-stim-button","352","846473","0.0-2.0-71.7-1.7","57ce74a271536c00015f12ed","B2","batch2","","670","tol_toboard","","","","tol_peg_2","670","670","0","[[1,3,0],[2,0],[0]]","8","[[3,2,0],[0,0],[1]]","20","0","","","","","","6","","","","","","","","",""
"","","","","","single-stim-button","353","849205","0.0-2.0-71.8-0.8","57ce74a271536c00015f12ed","B2","batch2","","2731","tol_tohand","","","","tol_peg_1","2731","2731","0","[[1,0,0],[2,0],[0]]","9","[[3,2,0],[0,0],[1]]","20","0","","","","","","6","","","","","","","","",""
"","","","","","single-stim-button","354","849799","0.0-2.0-71.8-1.8","57ce74a271536c00015f12ed","B2","batch2","","593","tol_toboard","","","","tol_peg_2","593","593","0","[[1,0,0],[2,3],[0]]","9","[[3,2,0],[0,0],[1]]","20","0","","","","","","6","","","","","","","","",""
"","","","","","single-stim-button","355","850229","0.0-2.0-71.9-0.9","57ce74a271536c00015f12ed","B2","batch2","","428","tol_tohand","","","","tol_peg_1","428","428","0","[[0,0,0],[2,3],[0]]","10","[[3,2,0],[0,0],[1]]","20","0","","","","","","6","","","","","","","","",""
