"success","timeout","failed_images","failed_audio","failed_video","trial_type","trial_index","time_elapsed","internal_node_id","subject_id","study_id","session_id","view_history","rt","stimulus","response","task","correct","answer","item","fiar_detect_rt","fiar_detect_correct","total_correct_fiar_detect","post_trial_gap","choices","spm_correct","spm_rt","mouse_click","stim_duration","block_duration","timing_post_trial","current_position","tol_num_moves_made","tol_target","tol_problem_id","tol_rt","key_press","possible_responses","tol_correct","preplanning","tol_rt_per_trial","tol_min_moves"
"true","false","[]","[]","[]","preload","0","7863","0.0-0.0","57dd4c6f73e67300012b7ed6","A3","batch1","","","","","","","","","","","","","","","","","","","","","","","","","","","","","",""
"true","","","","","fullscreen","1","21804","0.0-1.0-0.0","57dd4c6f73e67300012b7ed6","A3","batch1","","","","","","","","","","","","","","","","","","","","","","","","","","","","","",""
"true","","","","","fullscreen","2","26330","0.0-2.0-0.0","57dd4c6f73e67300012b7ed6","A3","batch1","","","","","","","","","","","","","","","","","","","","","","","","","","","","","",""
"","","","","","instructions","3","40706","0.0-2.0-1.0-0.0","57dd4c6f73e67300012b7ed6","A3","batch1","[{""page_index"":0,""viewing_time"":9546.700000017881},{""page_index"":1,""viewing_time"":4828.5}]","14375.40000000596","","","","","","","","","","","","","","","","","","","","","","","","","","","",""
"","","","","","html-button-response","4","41994","0.0-2.0-1.0-1.0-0.0","57dd4c6f73e67300012b7ed6","A3","batch1","","1286.800000011921","<p class=block-text> Let's answer a few questions <br>","0","pattern_enter_quiz","","","","","","","","","","","","","","","","","","","","","","","","",""
"","","","","","html-button-response","5","43606","0.0-2.0-1.0-1.0-1.0","57dd4c6f73e67300012b7ed6","A3","batch1","","1611.3999999761581","<p class = block-text>True or False: You will have as much time as you want to make each choice. <br></p>","1","pattern_quiz","true","","","","","","","","","","","","","","","","","","","","","","","",""
"","","","","","html-button-response","6","45762","0.0-2.0-1.0-1.0-2.0","57dd4c6f73e67300012b7ed6","A3","batch1","","2155.0999999940395","<p class = block-text>Correct! You should make your choice <strong> as fast as you can</strong>.</p>","0","pattern_quiz_feedback","","","","","","","","","","","","","","","","","","","","","","","","",""
"","","","","","html-button-response","7","49158","0.0-2.0-1.0-1.0-3.0","57dd4c6f73e67300012b7ed6","A3","batch1","","3395.5","<p class = block-text>True or False: You will look for 4 pieces in black or white color connected in a row either horizontally, vertically or diagonally. <br></p>","0","pattern_quiz","true","","","","","","","","","","","","","","","","","","","","","","","",""
"","","","","","html-button-response","8","50155","0.0-2.0-1.0-1.0-4.0","57dd4c6f73e67300012b7ed6","A3","batch1","","996.5999999940395","<p class = block-text>Correct! </p>","0","pattern_quiz_feedback","","","","","","","","","","","","","","","","","","","","","","","","",""
"","","","","","html-button-response","9","52554","0.0-2.0-2.0","57dd4c6f73e67300012b7ed6","A3","batch1","","2397.5999999940395","<p class=block-text> Now that you've understood the game, let's do a few practice trials before we start!<br> <br>","0","pattern_enter_practice","","","","","","","","","","","","","","","","","","","","","","","","",""
"","","","","","image-keyboard-response","10","56571","0.0-2.0-3.0-0.0","57dd4c6f73e67300012b7ed6","A3","batch1","","4015.0999999940395","stim/prac_no_16_1.png","j","pattern_practice","true","j","","","","","","","","","","","","","","","","","","","","","","",""
"","","","","","html-keyboard-response","11","57579","0.0-2.0-3.0-1.0","57dd4c6f73e67300012b7ed6","A3","batch1","","null","<p style=""font-size:30px;color:green;"">Correct!</p>","null","pattern_feedback","","","","","","","","","","","","","","","","","","","","","","","","",""
"","","","","","image-keyboard-response","12","58937","0.0-2.0-3.0-0.1","57dd4c6f73e67300012b7ed6","A3","batch1","","1356.5999999940395","stim/prac_yes_20_dia_b1.png","f","pattern_practice","true","f","","","","","","","","","","","","","","","","","","","","","","",""
"","","","","","html-keyboard-response","13","59956","0.0-2.0-3.0-1.1","57dd4c6f73e67300012b7ed6","A3","batch1","","null","<p style=""font-size:30px;color:green;"">Correct!</p>","null","pattern_feedback","","","","","","","","","","","","","","","","","","","","","","","","",""
"","","","","","image-keyboard-response","14","60657","0.0-2.0-3.0-0.2","57dd4c6f73e67300012b7ed6","A3","batch1","","699.6999999880791","stim/prac_yes_18_hor_w1.png","f","pattern_practice","true","f","","","","","","","","","","","","","","","","","","","","","","",""
"","","","","","html-keyboard-response","15","61668","0.0-2.0-3.0-1.2","57dd4c6f73e67300012b7ed6","A3","batch1","","null","<p style=""font-size:30px;color:green;"">Correct!</p>","null","pattern_feedback","","","","","","","","","","","","","","","","","","","","","","","","",""
"","","","","","image-keyboard-response","16","62428","0.0-2.0-3.0-0.3","57dd4c6f73e67300012b7ed6","A3","batch1","","759","stim/prac_no_18_1.png","j","pattern_practice","true","j","","","","","","","","","","","","","","","","","","","","","","",""
"","","","","","html-keyboard-response","17","63447","0.0-2.0-3.0-1.3","57dd4c6f73e67300012b7ed6","A3","batch1","","null","<p style=""font-size:30px;color:green;"">Correct!</p>","null","pattern_feedback","","","","","","","","","","","","","","","","","","","","","","","","",""
"","","","","","image-keyboard-response","18","64719","0.0-2.0-3.0-0.4","57dd4c6f73e67300012b7ed6","A3","batch1","","1270.7999999821186","stim/prac_yes_16_ver_w1.png","f","pattern_practice","true","f","","","","","","","","","","","","","","","","","","","","","","",""
"","","","","","html-keyboard-response","19","65731","0.0-2.0-3.0-1.4","57dd4c6f73e67300012b7ed6","A3","batch1","","null","<p style=""font-size:30px;color:green;"">Correct!</p>","null","pattern_feedback","","","","","","","","","","","","","","","","","","","","","","","","",""
"","","","","","html-button-response","20","68967","0.0-2.0-4.0","57dd4c6f73e67300012b7ed6","A3","batch1","","3234.7999999821186","<p class=block-text> Good job! You are done with practice trials!<br>
        You responded correctly on 100% of the trials.<br>
        Press the button below to start official trials. Now you won't see any feedback about your response</p>","0","pattern_enter_official_trials","","","","","","","","","","","","","","","","","","","","","","","","",""
"","","","","","html-keyboard-response","21","69783","0.0-2.0-5.0-0.0","57dd4c6f73e67300012b7ed6","A3","batch1","","null","<p class=block-text>Trial 1 out of 78</p>","null","pattern_show_trial_num","","","","","","","","","","","","","","","","","","","","","","","","",""
"","","","","","image-keyboard-response","22","71890","0.0-2.0-5.0-1.0","57dd4c6f73e67300012b7ed6","A3","batch1","","2105.2999999821186","stim/yes_53_ver_b1_b.png","f","pattern_response","true","f","pattern_74","2105.2999999821186","true","1","","","","","","","","","","","","","","","","","","",""
"","","","","","html-keyboard-response","23","73201","0.0-2.0-5.0-0.1","57dd4c6f73e67300012b7ed6","A3","batch1","","null","<p class=block-text>Trial 2 out of 78</p>","null","pattern_show_trial_num","","","","","","","","","","","","","","","","","","","","","","","","",""
"","","","","","image-keyboard-response","24","76294","0.0-2.0-5.0-1.1","57dd4c6f73e67300012b7ed6","A3","batch1","","3092.300000011921","stim/yes_44_ver_w1_w.png","j","pattern_response","false","f","pattern_66","3092.300000011921","false","1","","","","","","","","","","","","","","","","","","",""
"","","","","","html-keyboard-response","25","77606","0.0-2.0-5.0-0.2","57dd4c6f73e67300012b7ed6","A3","batch1","","null","<p class=block-text>Trial 3 out of 78</p>","null","pattern_show_trial_num","","","","","","","","","","","","","","","","","","","","","","","","",""
"","","","","","image-keyboard-response","26","80753","0.0-2.0-5.0-1.2","57dd4c6f73e67300012b7ed6","A3","batch1","","3146.0999999940395","stim/no_58_1_w.png","j","pattern_response","true","j","pattern_35","3146.0999999940395","true","2","","","","","","","","","","","","","","","","","","",""
"","","","","","html-keyboard-response","27","82057","0.0-2.0-5.0-0.3","57dd4c6f73e67300012b7ed6","A3","batch1","","null","<p class=block-text>Trial 4 out of 78</p>","null","pattern_show_trial_num","","","","","","","","","","","","","","","","","","","","","","","","",""
"","","","","","image-keyboard-response","28","82912","0.0-2.0-5.0-1.3","57dd4c6f73e67300012b7ed6","A3","batch1","","853.6999999880791","stim/yes_49_hor_w1_b.png","f","pattern_response","true","f","pattern_70","853.6999999880791","true","3","","","","","","","","","","","","","","","","","","",""
"","","","","","html-keyboard-response","29","84241","0.0-2.0-5.0-0.4","57dd4c6f73e67300012b7ed6","A3","batch1","","null","<p class=block-text>Trial 5 out of 78</p>","null","pattern_show_trial_num","","","","","","","","","","","","","","","","","","","","","","","","",""
"","","","","","image-keyboard-response","30","85049","0.0-2.0-5.0-1.4","57dd4c6f73e67300012b7ed6","A3","batch1","","806.9000000059605","stim/yes_30_ver_b1_b.png","f","pattern_response","true","f","pattern_54","806.9000000059605","true","4","","","","","","","","","","","","","","","","","","",""
"","","","","","html-keyboard-response","31","86364","0.0-2.0-5.0-0.5","57dd4c6f73e67300012b7ed6","A3","batch1","","null","<p class=block-text>Trial 6 out of 78</p>","null","pattern_show_trial_num","","","","","","","","","","","","","","","","","","","","","","","","",""
"","","","","","image-keyboard-response","32","87093","0.0-2.0-5.0-1.5","57dd4c6f73e67300012b7ed6","A3","batch1","","727.6000000238419","stim/yes_36_ver_w1_w.png","f","pattern_response","true","f","pattern_58","727.6000000238419","true","5","","","","","","","","","","","","","","","","","","",""
"","","","","","html-keyboard-response","33","88412","0.0-2.0-5.0-0.6","57dd4c6f73e67300012b7ed6","A3","batch1","","null","<p class=block-text>Trial 7 out of 78</p>","null","pattern_show_trial_num","","","","","","","","","","","","","","","","","","","","","","","","",""
"","","","","","image-keyboard-response","34","88999","0.0-2.0-5.0-1.6","57dd4c6f73e67300012b7ed6","A3","batch1","","585.2000000178814","stim/yes_39_hor_w1_w.png","f","pattern_response","true","f","pattern_62","585.2000000178814","true","6","","","","","","","","","","","","","","","","","","",""
"","","","","","html-keyboard-response","35","90320","0.0-2.0-5.0-0.7","57dd4c6f73e67300012b7ed6","A3","batch1","","null","<p class=block-text>Trial 8 out of 78</p>","null","pattern_show_trial_num","","","","","","","","","","","","","","","","","","","","","","","","",""
"","","","","","image-keyboard-response","36","95488","0.0-2.0-5.0-1.7","57dd4c6f73e67300012b7ed6","A3","batch1","","5167.300000011921","stim/yes_63_dia_b1.png","j","pattern_response","false","f","pattern_78","5167.300000011921","false","6","","","","","","","","","","","","","","","","","","",""
"","","","","","html-keyboard-response","37","96806","0.0-2.0-5.0-0.8","57dd4c6f73e67300012b7ed6","A3","batch1","","null","<p class=block-text>Trial 9 out of 78</p>","null","pattern_show_trial_num","","","","","","","","","","","","","","","","","","","","","","","","",""
"","","","","","image-keyboard-response","38","98634","0.0-2.0-5.0-1.8","57dd4c6f73e67300012b7ed6","A3","batch1","","1826.5999999940395","stim/yes_46_ver_b1_b.png","f","pattern_response","true","f","pattern_68","1826.5999999940395","true","7","","","","","","","","","","","","","","","","","","",""
"","","","","","html-keyboard-response","39","99946","0.0-2.0-5.0-0.9","57dd4c6f73e67300012b7ed6","A3","batch1","","null","<p class=block-text>Trial 10 out of 78</p>","null","pattern_show_trial_num","","","","","","","","","","","","","","","","","","","","","","","","",""
"","","","","","image-keyboard-response","40","101699","0.0-2.0-5.0-1.9","57dd4c6f73e67300012b7ed6","A3","batch1","","1751.5","stim/yes_33_dia_w1_w.png","f","pattern_response","true","f","pattern_56","1751.5","true","8","","","","","","","","","","","","","","","","","","",""
"","","","","","html-keyboard-response","41","103012","0.0-2.0-5.0-0.10","57dd4c6f73e67300012b7ed6","A3","batch1","","null","<p class=block-text>Trial 11 out of 78</p>","null","pattern_show_trial_num","","","","","","","","","","","","","","","","","","","","","","","","",""
"","","","","","image-keyboard-response","42","106117","0.0-2.0-5.0-1.10","57dd4c6f73e67300012b7ed6","A3","batch1","","3104.5999999940395","stim/yes_42_dia_w1_w.png","j","pattern_response","false","f","pattern_64","3104.5999999940395","false","8","","","","","","","","","","","","","","","","","","",""
"","","","","","html-keyboard-response","43","107431","0.0-2.0-5.0-0.11","57dd4c6f73e67300012b7ed6","A3","batch1","","null","<p class=block-text>Trial 12 out of 78</p>","null","pattern_show_trial_num","","","","","","","","","","","","","","","","","","","","","","","","",""
"","","","","","image-keyboard-response","44","108254","0.0-2.0-5.0-1.11","57dd4c6f73e67300012b7ed6","A3","batch1","","821.8000000119209","stim/yes_15_dia_b1u_b.png","f","pattern_response","true","f","pattern_44","821.8000000119209","true","9","","","","","","","","","","","","","","","","","","",""
"","","","","","html-keyboard-response","45","109561","0.0-2.0-5.0-0.12","57dd4c6f73e67300012b7ed6","A3","batch1","","null","<p class=block-text>Trial 13 out of 78</p>","null","pattern_show_trial_num","","","","","","","","","","","","","","","","","","","","","","","","",""
"","","","","","image-keyboard-response","46","110204","0.0-2.0-5.0-1.12","57dd4c6f73e67300012b7ed6","A3","batch1","","642.7999999821186","stim/yes_12_hor_w1_w.png","f","pattern_response","true","f","pattern_42","642.7999999821186","true","10","","","","","","","","","","","","","","","","","","",""
"","","","","","html-keyboard-response","47","111529","0.0-2.0-5.0-0.13","57dd4c6f73e67300012b7ed6","A3","batch1","","null","<p class=block-text>Trial 14 out of 78</p>","null","pattern_show_trial_num","","","","","","","","","","","","","","","","","","","","","","","","",""
"","","","","","image-keyboard-response","48","116692","0.0-2.0-5.0-1.13","57dd4c6f73e67300012b7ed6","A3","batch1","","5161.699999988079","stim/no_51_1.png","j","pattern_response","true","j","pattern_31","5161.699999988079","true","11","","","","","","","","","","","","","","","","","","",""
"","","","","","html-keyboard-response","49","118007","0.0-2.0-5.0-0.14","57dd4c6f73e67300012b7ed6","A3","batch1","","null","<p class=block-text>Trial 15 out of 78</p>","null","pattern_show_trial_num","","","","","","","","","","","","","","","","","","","","","","","","",""
"","","","","","image-keyboard-response","50","120566","0.0-2.0-5.0-1.14","57dd4c6f73e67300012b7ed6","A3","batch1","","2557.899999976158","stim/no_33_1_b.png","j","pattern_response","true","j","pattern_15","2557.899999976158","true","12","","","","","","","","","","","","","","","","","","",""
"","","","","","html-keyboard-response","51","121876","0.0-2.0-5.0-0.15","57dd4c6f73e67300012b7ed6","A3","batch1","","null","<p class=block-text>Trial 16 out of 78</p>","null","pattern_show_trial_num","","","","","","","","","","","","","","","","","","","","","","","","",""
"","","","","","image-keyboard-response","52","126038","0.0-2.0-5.0-1.15","57dd4c6f73e67300012b7ed6","A3","batch1","","4160.5999999940395","stim/no_53_1_b.png","j","pattern_response","true","j","pattern_33","4160.5999999940395","true","13","","","","","","","","","","","","","","","","","","",""
"","","","","","html-keyboard-response","53","127350","0.0-2.0-5.0-0.16","57dd4c6f73e67300012b7ed6","A3","batch1","","null","<p class=block-text>Trial 17 out of 78</p>","null","pattern_show_trial_num","","","","","","","","","","","","","","","","","","","","","","","","",""
"","","","","","image-keyboard-response","54","129754","0.0-2.0-5.0-1.16","57dd4c6f73e67300012b7ed6","A3","batch1","","2402.199999988079","stim/no_25_1_b.png","j","pattern_response","true","j","pattern_09","2402.199999988079","true","14","","","","","","","","","","","","","","","","","","",""
"","","","","","html-keyboard-response","55","131082","0.0-2.0-5.0-0.17","57dd4c6f73e67300012b7ed6","A3","batch1","","null","<p class=block-text>Trial 18 out of 78</p>","null","pattern_show_trial_num","","","","","","","","","","","","","","","","","","","","","","","","",""
"","","","","","image-keyboard-response","56","135476","0.0-2.0-5.0-1.17","57dd4c6f73e67300012b7ed6","A3","batch1","","4392.9000000059605","stim/no_45_1_w.png","j","pattern_response","true","j","pattern_25","4392.9000000059605","true","15","","","","","","","","","","","","","","","","","","",""
"","","","","","html-keyboard-response","57","136795","0.0-2.0-5.0-0.18","57dd4c6f73e67300012b7ed6","A3","batch1","","null","<p class=block-text>Trial 19 out of 78</p>","null","pattern_show_trial_num","","","","","","","","","","","","","","","","","","","","","","","","",""
"","","","","","image-keyboard-response","58","137567","0.0-2.0-5.0-1.18","57dd4c6f73e67300012b7ed6","A3","batch1","","771.4000000059605","stim/yes_26_dia_w2_w.png","f","pattern_response","true","f","pattern_50","771.4000000059605","true","16","","","","","","","","","","","","","","","","","","",""
"","","","","","html-keyboard-response","59","138888","0.0-2.0-5.0-0.19","57dd4c6f73e67300012b7ed6","A3","batch1","","null","<p class=block-text>Trial 20 out of 78</p>","null","pattern_show_trial_num","","","","","","","","","","","","","","","","","","","","","","","","",""
"","","","","","image-keyboard-response","60","139579","0.0-2.0-5.0-1.19","57dd4c6f73e67300012b7ed6","A3","batch1","","689.3000000119209","stim/yes_17_ver_b1_b.png","f","pattern_response","true","f","pattern_46","689.3000000119209","true","17","","","","","","","","","","","","","","","","","","",""
"","","","","","html-keyboard-response","61","140889","0.0-2.0-5.0-0.20","57dd4c6f73e67300012b7ed6","A3","batch1","","null","<p class=block-text>Trial 21 out of 78</p>","null","pattern_show_trial_num","","","","","","","","","","","","","","","","","","","","","","","","",""
"","","","","","image-keyboard-response","62","141734","0.0-2.0-5.0-1.20","57dd4c6f73e67300012b7ed6","A3","batch1","","843.7999999821186","stim/yes_70_ver_b1.png","f","pattern_response","true","f","pattern_80","843.7999999821186","true","18","","","","","","","","","","","","","","","","","","",""
"","","","","","html-keyboard-response","63","143047","0.0-2.0-5.0-0.21","57dd4c6f73e67300012b7ed6","A3","batch1","","null","<p class=block-text>Trial 22 out of 78</p>","null","pattern_show_trial_num","","","","","","","","","","","","","","","","","","","","","","","","",""
"","","","","","image-keyboard-response","64","145626","0.0-2.0-5.0-1.21","57dd4c6f73e67300012b7ed6","A3","batch1","","2577.5999999940395","stim/no_30_1_b.png","j","pattern_response","true","j","pattern_13","2577.5999999940395","true","19","","","","","","","","","","","","","","","","","","",""
"","","","","","html-keyboard-response","65","146937","0.0-2.0-5.0-0.22","57dd4c6f73e67300012b7ed6","A3","batch1","","null","<p class=block-text>Trial 23 out of 78</p>","null","pattern_show_trial_num","","","","","","","","","","","","","","","","","","","","","","","","",""
"","","","","","image-keyboard-response","66","148371","0.0-2.0-5.0-1.22","57dd4c6f73e67300012b7ed6","A3","batch1","","1432.199999988079","stim/yes_51_dia_b1.png","f","pattern_response","true","f","pattern_72","1432.199999988079","true","20","","","","","","","","","","","","","","","","","","",""
"","","","","","html-keyboard-response","67","149684","0.0-2.0-5.0-0.23","57dd4c6f73e67300012b7ed6","A3","batch1","","null","<p class=block-text>Trial 24 out of 78</p>","null","pattern_show_trial_num","","","","","","","","","","","","","","","","","","","","","","","","",""
"","","","","","image-keyboard-response","68","150750","0.0-2.0-5.0-1.23","57dd4c6f73e67300012b7ed6","A3","batch1","","1064.800000011921","stim/no_18_1_b.png","j","pattern_response","true","j","pattern_05","1064.800000011921","true","21","","","","","","","","","","","","","","","","","","",""
"","","","","","html-keyboard-response","69","152057","0.0-2.0-5.0-0.24","57dd4c6f73e67300012b7ed6","A3","batch1","","null","<p class=block-text>Trial 25 out of 78</p>","null","pattern_show_trial_num","","","","","","","","","","","","","","","","","","","","","","","","",""
"","","","","","image-keyboard-response","70","154604","0.0-2.0-5.0-1.24","57dd4c6f73e67300012b7ed6","A3","batch1","","2545.800000011921","stim/no_37_2_w.png","j","pattern_response","true","j","pattern_19","2545.800000011921","true","22","","","","","","","","","","","","","","","","","","",""
"","","","","","html-keyboard-response","71","155931","0.0-2.0-5.0-0.25","57dd4c6f73e67300012b7ed6","A3","batch1","","null","<p class=block-text>Trial 26 out of 78</p>","null","pattern_show_trial_num","","","","","","","","","","","","","","","","","","","","","","","","",""
"","","","","","image-keyboard-response","72","158943","0.0-2.0-5.0-1.25","57dd4c6f73e67300012b7ed6","A3","batch1","","3011","stim/no_39_1_w.png","j","pattern_response","true","j","pattern_21","3011","true","23","","","","","","","","","","","","","","","","","","",""
"","","","","","html-keyboard-response","73","160258","0.0-2.0-5.0-0.26","57dd4c6f73e67300012b7ed6","A3","batch1","","null","<p class=block-text>Trial 27 out of 78</p>","null","pattern_show_trial_num","","","","","","","","","","","","","","","","","","","","","","","","",""
"","","","","","image-keyboard-response","74","161254","0.0-2.0-5.0-1.26","57dd4c6f73e67300012b7ed6","A3","batch1","","994.1000000238419","stim/no_12_1.png","j","pattern_response","true","j","pattern_01","994.1000000238419","true","24","","","","","","","","","","","","","","","","","","",""
"","","","","","html-keyboard-response","75","162569","0.0-2.0-5.0-0.27","57dd4c6f73e67300012b7ed6","A3","batch1","","null","<p class=block-text>Trial 28 out of 78</p>","null","pattern_show_trial_num","","","","","","","","","","","","","","","","","","","","","","","","",""
"","","","","","image-keyboard-response","76","165411","0.0-2.0-5.0-1.27","57dd4c6f73e67300012b7ed6","A3","batch1","","2840.9000000059605","stim/no_49_2_b.png","j","pattern_response","true","j","pattern_29","2840.9000000059605","true","25","","","","","","","","","","","","","","","","","","",""
"","","","","","html-keyboard-response","77","166724","0.0-2.0-5.0-0.28","57dd4c6f73e67300012b7ed6","A3","batch1","","null","<p class=block-text>Trial 29 out of 78</p>","null","pattern_show_trial_num","","","","","","","","","","","","","","","","","","","","","","","","",""
"","","","","","image-keyboard-response","78","169663","0.0-2.0-5.0-1.28","57dd4c6f73e67300012b7ed6","A3","batch1","","2937.699999988079","stim/no_36_1_b.png","j","pattern_response","true","j","pattern_17","2937.699999988079","true","26","","","","","","","","","","","","","","","","","","",""
"","","","","","html-keyboard-response","79","170984","0.0-2.0-5.0-0.29","57dd4c6f73e67300012b7ed6","A3","batch1","","null","<p class=block-text>Trial 30 out of 78</p>","null","pattern_show_trial_num","","","","","","","","","","","","","","","","","","","","","","","","",""
"","","","","","image-keyboard-response","80","173635","0.0-2.0-5.0-1.29","57dd4c6f73e67300012b7ed6","A3","batch1","","2649.699999988079","stim/no_28_2.png","j","pattern_response","true","j","pattern_11","2649.699999988079","true","27","","","","","","","","","","","","","","","","","","",""
"","","","","","html-keyboard-response","81","174943","0.0-2.0-5.0-0.30","57dd4c6f73e67300012b7ed6","A3","batch1","","null","<p class=block-text>Trial 31 out of 78</p>","null","pattern_show_trial_num","","","","","","","","","","","","","","","","","","","","","","","","",""
"","","","","","image-keyboard-response","82","175752","0.0-2.0-5.0-1.30","57dd4c6f73e67300012b7ed6","A3","batch1","","807.9000000059605","stim/no_15_1_w.png","j","pattern_response","true","j","pattern_03","807.9000000059605","true","28","","","","","","","","","","","","","","","","","","",""
"","","","","","html-keyboard-response","83","177056","0.0-2.0-5.0-0.31","57dd4c6f73e67300012b7ed6","A3","batch1","","null","<p class=block-text>Trial 32 out of 78</p>","null","pattern_show_trial_num","","","","","","","","","","","","","","","","","","","","","","","","",""
"","","","","","image-keyboard-response","84","181956","0.0-2.0-5.0-1.31","57dd4c6f73e67300012b7ed6","A3","batch1","","4898.9000000059605","stim/no_67_1.png","j","pattern_response","true","j","pattern_39","4898.9000000059605","true","29","","","","","","","","","","","","","","","","","","",""
"","","","","","html-keyboard-response","85","183264","0.0-2.0-5.0-0.32","57dd4c6f73e67300012b7ed6","A3","batch1","","null","<p class=block-text>Trial 33 out of 78</p>","null","pattern_show_trial_num","","","","","","","","","","","","","","","","","","","","","","","","",""
"","","","","","image-keyboard-response","86","184262","0.0-2.0-5.0-1.32","57dd4c6f73e67300012b7ed6","A3","batch1","","997.6000000238419","stim/yes_23_ver_b1.png","f","pattern_response","true","f","pattern_48","997.6000000238419","true","30","","","","","","","","","","","","","","","","","","",""
"","","","","","html-keyboard-response","87","185576","0.0-2.0-5.0-0.33","57dd4c6f73e67300012b7ed6","A3","batch1","","null","<p class=block-text>Trial 34 out of 78</p>","null","pattern_show_trial_num","","","","","","","","","","","","","","","","","","","","","","","","",""
"","","","","","image-keyboard-response","88","188022","0.0-2.0-5.0-1.33","57dd4c6f73e67300012b7ed6","A3","batch1","","2445.300000011921","stim/no_43_2_b.png","j","pattern_response","true","j","pattern_23","2445.300000011921","true","31","","","","","","","","","","","","","","","","","","",""
"","","","","","html-keyboard-response","89","189336","0.0-2.0-5.0-0.34","57dd4c6f73e67300012b7ed6","A3","batch1","","null","<p class=block-text>Trial 35 out of 78</p>","null","pattern_show_trial_num","","","","","","","","","","","","","","","","","","","","","","","","",""
"","","","","","image-keyboard-response","90","190071","0.0-2.0-5.0-1.34","57dd4c6f73e67300012b7ed6","A3","batch1","","733.5","stim/yes_37_hor_w1_w.png","f","pattern_response","true","f","pattern_60","733.5","true","32","","","","","","","","","","","","","","","","","","",""
"","","","","","html-keyboard-response","91","191381","0.0-2.0-5.0-0.35","57dd4c6f73e67300012b7ed6","A3","batch1","","null","<p class=block-text>Trial 36 out of 78</p>","null","pattern_show_trial_num","","","","","","","","","","","","","","","","","","","","","","","","",""
"","","","","","image-keyboard-response","92","195785","0.0-2.0-5.0-1.35","57dd4c6f73e67300012b7ed6","A3","batch1","","4402.9000000059605","stim/yes_58_dia_w1_w.png","j","pattern_response","false","f","pattern_76","4402.9000000059605","false","32","","","","","","","","","","","","","","","","","","",""
"","","","","","html-keyboard-response","93","197101","0.0-2.0-5.0-0.36","57dd4c6f73e67300012b7ed6","A3","batch1","","null","<p class=block-text>Trial 37 out of 78</p>","null","pattern_show_trial_num","","","","","","","","","","","","","","","","","","","","","","","","",""
"","","","","","image-keyboard-response","94","198123","0.0-2.0-5.0-1.36","57dd4c6f73e67300012b7ed6","A3","batch1","","1021.5999999940395","stim/yes_29_hor_b1_b.png","f","pattern_response","true","f","pattern_52","1021.5999999940395","true","33","","","","","","","","","","","","","","","","","","",""
"","","","","","html-keyboard-response","95","199433","0.0-2.0-5.0-0.37","57dd4c6f73e67300012b7ed6","A3","batch1","","null","<p class=block-text>Trial 38 out of 78</p>","null","pattern_show_trial_num","","","","","","","","","","","","","","","","","","","","","","","","",""
"","","","","","image-keyboard-response","96","200450","0.0-2.0-5.0-1.37","57dd4c6f73e67300012b7ed6","A3","batch1","","1015.7999999821186","stim/no_22_1_b.png","j","pattern_response","true","j","pattern_07","1015.7999999821186","true","34","","","","","","","","","","","","","","","","","","",""
"","","","","","html-keyboard-response","97","201765","0.0-2.0-5.0-0.38","57dd4c6f73e67300012b7ed6","A3","batch1","","null","<p class=block-text>Trial 39 out of 78</p>","null","pattern_show_trial_num","","","","","","","","","","","","","","","","","","","","","","","","",""
"","","","","","image-keyboard-response","98","204737","0.0-2.0-5.0-1.38","57dd4c6f73e67300012b7ed6","A3","batch1","","2971.2000000178814","stim/no_47_1_b.png","j","pattern_response","true","j","pattern_27","2971.2000000178814","true","35","","","","","","","","","","","","","","","","","","",""
"","","","","","image-keyboard-response","99","207384","0.0-2.0-6.0","57dd4c6f73e67300012b7ed6","A3","batch1","","2135.800000011921","stim/empty_board.png","j","attention_check","true","j","","","","","500","[""f"",""j""]","","","","","","","","","","","","","","","","",""
"","","","","","html-keyboard-response","100","208200","0.0-2.0-7.0-0.0","57dd4c6f73e67300012b7ed6","A3","batch1","","null","<p class=block-text>Trial 40 out of 78</p>","null","pattern_show_trial_num","","","","","","","","","","","","","","","","","","","","","","","","",""
"","","","","","image-keyboard-response","101","211676","0.0-2.0-7.0-1.0","57dd4c6f73e67300012b7ed6","A3","batch1","","3475.300000011921","stim/no_36_2_w.png","j","pattern_response","true","j","pattern_18","3475.300000011921","true","36","","","","","","","","","","","","","","","","","","",""
"","","","","","html-keyboard-response","102","212985","0.0-2.0-7.0-0.1","57dd4c6f73e67300012b7ed6","A3","batch1","","null","<p class=block-text>Trial 41 out of 78</p>","null","pattern_show_trial_num","","","","","","","","","","","","","","","","","","","","","","","","",""
"","","","","","image-keyboard-response","103","214133","0.0-2.0-7.0-1.1","57dd4c6f73e67300012b7ed6","A3","batch1","","1146.9000000059605","stim/yes_52_ver_w1.png","f","pattern_response","true","f","pattern_73","1146.9000000059605","true","37","","","","","","","","","","","","","","","","","","",""
"","","","","","html-keyboard-response","104","215439","0.0-2.0-7.0-0.2","57dd4c6f73e67300012b7ed6","A3","batch1","","null","<p class=block-text>Trial 42 out of 78</p>","null","pattern_show_trial_num","","","","","","","","","","","","","","","","","","","","","","","","",""
"","","","","","image-keyboard-response","105","219619","0.0-2.0-7.0-1.2","57dd4c6f73e67300012b7ed6","A3","batch1","","4179.0999999940395","stim/yes_50_dia_w1.png","j","pattern_response","false","f","pattern_71","4179.0999999940395","false","37","","","","","","","","","","","","","","","","","","",""
"","","","","","html-keyboard-response","106","220938","0.0-2.0-7.0-0.3","57dd4c6f73e67300012b7ed6","A3","batch1","","null","<p class=block-text>Trial 43 out of 78</p>","null","pattern_show_trial_num","","","","","","","","","","","","","","","","","","","","","","","","",""
"","","","","","image-keyboard-response","107","226070","0.0-2.0-7.0-1.3","57dd4c6f73e67300012b7ed6","A3","batch1","","5130.300000011921","stim/no_70_2.png","j","pattern_response","true","j","pattern_40","5130.300000011921","true","38","","","","","","","","","","","","","","","","","","",""
"","","","","","html-keyboard-response","108","227389","0.0-2.0-7.0-0.4","57dd4c6f73e67300012b7ed6","A3","batch1","","null","<p class=block-text>Trial 44 out of 78</p>","null","pattern_show_trial_num","","","","","","","","","","","","","","","","","","","","","","","","",""
"","","","","","image-keyboard-response","109","230605","0.0-2.0-7.0-1.4","57dd4c6f73e67300012b7ed6","A3","batch1","","3214.5999999940395","stim/no_46_1_b.png","j","pattern_response","true","j","pattern_26","3214.5999999940395","true","39","","","","","","","","","","","","","","","","","","",""
"","","","","","html-keyboard-response","110","231912","0.0-2.0-7.0-0.5","57dd4c6f73e67300012b7ed6","A3","batch1","","null","<p class=block-text>Trial 45 out of 78</p>","null","pattern_show_trial_num","","","","","","","","","","","","","","","","","","","","","","","","",""
"","","","","","image-keyboard-response","111","234256","0.0-2.0-7.0-1.5","57dd4c6f73e67300012b7ed6","A3","batch1","","2342.7000000178814","stim/no_38_1_b.png","j","pattern_response","true","j","pattern_20","2342.7000000178814","true","40","","","","","","","","","","","","","","","","","","",""
"","","","","","html-keyboard-response","112","235573","0.0-2.0-7.0-0.6","57dd4c6f73e67300012b7ed6","A3","batch1","","null","<p class=block-text>Trial 46 out of 78</p>","null","pattern_show_trial_num","","","","","","","","","","","","","","","","","","","","","","","","",""
"","","","","","image-keyboard-response","113","237980","0.0-2.0-7.0-1.6","57dd4c6f73e67300012b7ed6","A3","batch1","","2405.9000000059605","stim/no_50_1.png","j","pattern_response","true","j","pattern_30","2405.9000000059605","true","41","","","","","","","","","","","","","","","","","","",""
"","","","","","html-keyboard-response","114","239291","0.0-2.0-7.0-0.7","57dd4c6f73e67300012b7ed6","A3","batch1","","null","<p class=block-text>Trial 47 out of 78</p>","null","pattern_show_trial_num","","","","","","","","","","","","","","","","","","","","","","","","",""
"","","","","","image-keyboard-response","115","240180","0.0-2.0-7.0-1.7","57dd4c6f73e67300012b7ed6","A3","batch1","","887.4000000059605","stim/yes_28_ver_b1.png","f","pattern_response","true","f","pattern_51","887.4000000059605","true","42","","","","","","","","","","","","","","","","","","",""
"","","","","","html-keyboard-response","116","241493","0.0-2.0-7.0-0.8","57dd4c6f73e67300012b7ed6","A3","batch1","","null","<p class=block-text>Trial 48 out of 78</p>","null","pattern_show_trial_num","","","","","","","","","","","","","","","","","","","","","","","","",""
"","","","","","image-keyboard-response","117","242906","0.0-2.0-7.0-1.8","57dd4c6f73e67300012b7ed6","A3","batch1","","1412","stim/yes_35_dia_b1.png","f","pattern_response","true","f","pattern_57","1412","true","43","","","","","","","","","","","","","","","","","","",""
"","","","","","html-keyboard-response","118","244216","0.0-2.0-7.0-0.9","57dd4c6f73e67300012b7ed6","A3","batch1","","null","<p class=block-text>Trial 49 out of 78</p>","null","pattern_show_trial_num","","","","","","","","","","","","","","","","","","","","","","","","",""
"","","","","","image-keyboard-response","119","245526","0.0-2.0-7.0-1.9","57dd4c6f73e67300012b7ed6","A3","batch1","","1309","stim/no_20_1_w.png","j","pattern_response","true","j","pattern_06","1309","true","44","","","","","","","","","","","","","","","","","","",""
"","","","","","html-keyboard-response","120","246835","0.0-2.0-7.0-0.10","57dd4c6f73e67300012b7ed6","A3","batch1","","null","<p class=block-text>Trial 50 out of 78</p>","null","pattern_show_trial_num","","","","","","","","","","","","","","","","","","","","","","","","",""
"","","","","","image-keyboard-response","121","247618","0.0-2.0-7.0-1.10","57dd4c6f73e67300012b7ed6","A3","batch1","","782.6999999880791","stim/yes_22_ver_w1.png","f","pattern_response","true","f","pattern_47","782.6999999880791","true","45","","","","","","","","","","","","","","","","","","",""
"","","","","","html-keyboard-response","122","248923","0.0-2.0-7.0-0.11","57dd4c6f73e67300012b7ed6","A3","batch1","","null","<p class=block-text>Trial 51 out of 78</p>","null","pattern_show_trial_num","","","","","","","","","","","","","","","","","","","","","","","","",""
"","","","","","image-keyboard-response","123","250703","0.0-2.0-7.0-1.11","57dd4c6f73e67300012b7ed6","A3","batch1","","1778.0999999940395","stim/no_26_1_w.png","j","pattern_response","true","j","pattern_10","1778.0999999940395","true","46","","","","","","","","","","","","","","","","","","",""
"","","","","","html-keyboard-response","124","252027","0.0-2.0-7.0-0.12","57dd4c6f73e67300012b7ed6","A3","batch1","","null","<p class=block-text>Trial 52 out of 78</p>","null","pattern_show_trial_num","","","","","","","","","","","","","","","","","","","","","","","","",""
"","","","","","image-keyboard-response","125","256937","0.0-2.0-7.0-1.12","57dd4c6f73e67300012b7ed6","A3","batch1","","4908","stim/no_62_1_w.png","j","pattern_response","true","j","pattern_36","4908","true","47","","","","","","","","","","","","","","","","","","",""
"","","","","","html-keyboard-response","126","258246","0.0-2.0-7.0-0.13","57dd4c6f73e67300012b7ed6","A3","batch1","","null","<p class=block-text>Trial 53 out of 78</p>","null","pattern_show_trial_num","","","","","","","","","","","","","","","","","","","","","","","","",""
"","","","","","image-keyboard-response","127","259972","0.0-2.0-7.0-1.13","57dd4c6f73e67300012b7ed6","A3","batch1","","1725","stim/yes_48_dia_w1_w.png","f","pattern_response","true","f","pattern_69","1725","true","48","","","","","","","","","","","","","","","","","","",""
"","","","","","html-keyboard-response","128","261291","0.0-2.0-7.0-0.14","57dd4c6f73e67300012b7ed6","A3","batch1","","null","<p class=block-text>Trial 54 out of 78</p>","null","pattern_show_trial_num","","","","","","","","","","","","","","","","","","","","","","","","",""
"","","","","","image-keyboard-response","129","265618","0.0-2.0-7.0-1.14","57dd4c6f73e67300012b7ed6","A3","batch1","","4326.5","stim/no_48_1_w.png","j","pattern_response","true","j","pattern_28","4326.5","true","49","","","","","","","","","","","","","","","","","","",""
"","","","","","html-keyboard-response","130","266947","0.0-2.0-7.0-0.15","57dd4c6f73e67300012b7ed6","A3","batch1","","null","<p class=block-text>Trial 55 out of 78</p>","null","pattern_show_trial_num","","","","","","","","","","","","","","","","","","","","","","","","",""
"","","","","","image-keyboard-response","131","270487","0.0-2.0-7.0-1.15","57dd4c6f73e67300012b7ed6","A3","batch1","","3538.5","stim/no_52_1.png","j","pattern_response","true","j","pattern_32","3538.5","true","50","","","","","","","","","","","","","","","","","","",""
"","","","","","html-keyboard-response","132","271793","0.0-2.0-7.0-0.16","57dd4c6f73e67300012b7ed6","A3","batch1","","null","<p class=block-text>Trial 56 out of 78</p>","null","pattern_show_trial_num","","","","","","","","","","","","","","","","","","","","","","","","",""
"","","","","","image-keyboard-response","133","272972","0.0-2.0-7.0-1.16","57dd4c6f73e67300012b7ed6","A3","batch1","","1178.5999999940395","stim/yes_60_ver_b1_b.png","f","pattern_response","true","f","pattern_77","1178.5999999940395","true","51","","","","","","","","","","","","","","","","","","",""
"","","","","","html-keyboard-response","134","274282","0.0-2.0-7.0-0.17","57dd4c6f73e67300012b7ed6","A3","batch1","","null","<p class=block-text>Trial 57 out of 78</p>","null","pattern_show_trial_num","","","","","","","","","","","","","","","","","","","","","","","","",""
"","","","","","image-keyboard-response","135","277447","0.0-2.0-7.0-1.17","57dd4c6f73e67300012b7ed6","A3","batch1","","3163.7999999821186","stim/no_34_1_b.png","j","pattern_response","true","j","pattern_16","3163.7999999821186","true","52","","","","","","","","","","","","","","","","","","",""
"","","","","","html-keyboard-response","136","278760","0.0-2.0-7.0-0.18","57dd4c6f73e67300012b7ed6","A3","batch1","","null","<p class=block-text>Trial 58 out of 78</p>","null","pattern_show_trial_num","","","","","","","","","","","","","","","","","","","","","","","","",""
"","","","","","image-keyboard-response","137","282783","0.0-2.0-7.0-1.18","57dd4c6f73e67300012b7ed6","A3","batch1","","4022.399999976158","stim/yes_67_hor_b1.png","j","pattern_response","false","f","pattern_79","4022.399999976158","false","52","","","","","","","","","","","","","","","","","","",""
"","","","","","html-keyboard-response","138","284101","0.0-2.0-7.0-0.19","57dd4c6f73e67300012b7ed6","A3","batch1","","null","<p class=block-text>Trial 59 out of 78</p>","null","pattern_show_trial_num","","","","","","","","","","","","","","","","","","","","","","","","",""
"","","","","","image-keyboard-response","139","287077","0.0-2.0-7.0-1.19","57dd4c6f73e67300012b7ed6","A3","batch1","","2975.800000011921","stim/no_55_1_w.png","j","pattern_response","true","j","pattern_34","2975.800000011921","true","53","","","","","","","","","","","","","","","","","","",""
"","","","","","html-keyboard-response","140","288390","0.0-2.0-7.0-0.20","57dd4c6f73e67300012b7ed6","A3","batch1","","null","<p class=block-text>Trial 60 out of 78</p>","null","pattern_show_trial_num","","","","","","","","","","","","","","","","","","","","","","","","",""
"","","","","","image-keyboard-response","141","289200","0.0-2.0-7.0-1.20","57dd4c6f73e67300012b7ed6","A3","batch1","","808.6999999880791","stim/yes_25_hor_b1_b.png","f","pattern_response","true","f","pattern_49","808.6999999880791","true","54","","","","","","","","","","","","","","","","","","",""
"","","","","","html-keyboard-response","142","290529","0.0-2.0-7.0-0.21","57dd4c6f73e67300012b7ed6","A3","batch1","","null","<p class=block-text>Trial 61 out of 78</p>","null","pattern_show_trial_num","","","","","","","","","","","","","","","","","","","","","","","","",""
"","","","","","image-keyboard-response","143","293663","0.0-2.0-7.0-1.21","57dd4c6f73e67300012b7ed6","A3","batch1","","3132.5999999940395","stim/no_44_1.png","j","pattern_response","true","j","pattern_24","3132.5999999940395","true","55","","","","","","","","","","","","","","","","","","",""
"","","","","","html-keyboard-response","144","294988","0.0-2.0-7.0-0.22","57dd4c6f73e67300012b7ed6","A3","batch1","","null","<p class=block-text>Trial 62 out of 78</p>","null","pattern_show_trial_num","","","","","","","","","","","","","","","","","","","","","","","","",""
"","","","","","image-keyboard-response","145","296229","0.0-2.0-7.0-1.22","57dd4c6f73e67300012b7ed6","A3","batch1","","1239.5999999940395","stim/no_23_1.png","j","pattern_response","true","j","pattern_08","1239.5999999940395","true","56","","","","","","","","","","","","","","","","","","",""
"","","","","","html-keyboard-response","146","297553","0.0-2.0-7.0-0.23","57dd4c6f73e67300012b7ed6","A3","batch1","","null","<p class=block-text>Trial 63 out of 78</p>","null","pattern_show_trial_num","","","","","","","","","","","","","","","","","","","","","","","","",""
"","","","","","image-keyboard-response","147","298368","0.0-2.0-7.0-1.23","57dd4c6f73e67300012b7ed6","A3","batch1","","813.8000000119209","stim/yes_14_hor_b1_w.png","f","pattern_response","true","f","pattern_43","813.8000000119209","true","57","","","","","","","","","","","","","","","","","","",""
"","","","","","html-keyboard-response","148","299679","0.0-2.0-7.0-0.24","57dd4c6f73e67300012b7ed6","A3","batch1","","null","<p class=block-text>Trial 64 out of 78</p>","null","pattern_show_trial_num","","","","","","","","","","","","","","","","","","","","","","","","",""
"","","","","","image-keyboard-response","149","300623","0.0-2.0-7.0-1.24","57dd4c6f73e67300012b7ed6","A3","batch1","","943.2999999821186","stim/yes_29_ver_w1.png","f","pattern_response","true","f","pattern_53","943.2999999821186","true","58","","","","","","","","","","","","","","","","","","",""
"","","","","","html-keyboard-response","150","301925","0.0-2.0-7.0-0.25","57dd4c6f73e67300012b7ed6","A3","batch1","","null","<p class=block-text>Trial 65 out of 78</p>","null","pattern_show_trial_num","","","","","","","","","","","","","","","","","","","","","","","","",""
"","","","","","image-keyboard-response","151","302921","0.0-2.0-7.0-1.25","57dd4c6f73e67300012b7ed6","A3","batch1","","994.6999999880791","stim/yes_17_dia_w1.png","f","pattern_response","true","f","pattern_45","994.6999999880791","true","59","","","","","","","","","","","","","","","","","","",""
"","","","","","html-keyboard-response","152","304227","0.0-2.0-7.0-0.26","57dd4c6f73e67300012b7ed6","A3","batch1","","null","<p class=block-text>Trial 66 out of 78</p>","null","pattern_show_trial_num","","","","","","","","","","","","","","","","","","","","","","","","",""
"","","","","","image-keyboard-response","153","305341","0.0-2.0-7.0-1.26","57dd4c6f73e67300012b7ed6","A3","batch1","","1113.4000000059605","stim/yes_55_hor_w1_w.png","f","pattern_response","true","f","pattern_75","1113.4000000059605","true","60","","","","","","","","","","","","","","","","","","",""
"","","","","","html-keyboard-response","154","306650","0.0-2.0-7.0-0.27","57dd4c6f73e67300012b7ed6","A3","batch1","","null","<p class=block-text>Trial 67 out of 78</p>","null","pattern_show_trial_num","","","","","","","","","","","","","","","","","","","","","","","","",""
"","","","","","image-keyboard-response","155","307466","0.0-2.0-7.0-1.27","57dd4c6f73e67300012b7ed6","A3","batch1","","814.6000000238419","stim/yes_38_hor_b1_b.png","f","pattern_response","true","f","pattern_61","814.6000000238419","true","61","","","","","","","","","","","","","","","","","","",""
"","","","","","html-keyboard-response","156","308772","0.0-2.0-7.0-0.28","57dd4c6f73e67300012b7ed6","A3","batch1","","null","<p class=block-text>Trial 68 out of 78</p>","null","pattern_show_trial_num","","","","","","","","","","","","","","","","","","","","","","","","",""
"","","","","","image-keyboard-response","157","310663","0.0-2.0-7.0-1.28","57dd4c6f73e67300012b7ed6","A3","batch1","","1890.199999988079","stim/yes_31_hor_b1.png","f","pattern_response","true","f","pattern_55","1890.199999988079","true","62","","","","","","","","","","","","","","","","","","",""
"","","","","","html-keyboard-response","158","311978","0.0-2.0-7.0-0.29","57dd4c6f73e67300012b7ed6","A3","batch1","","null","<p class=block-text>Trial 69 out of 78</p>","null","pattern_show_trial_num","","","","","","","","","","","","","","","","","","","","","","","","",""
"","","","","","image-keyboard-response","159","314968","0.0-2.0-7.0-1.29","57dd4c6f73e67300012b7ed6","A3","batch1","","2988.7999999821186","stim/yes_37_dia_w1.png","j","pattern_response","false","f","pattern_59","2988.7999999821186","false","62","","","","","","","","","","","","","","","","","","",""
"","","","","","html-keyboard-response","160","316277","0.0-2.0-7.0-0.30","57dd4c6f73e67300012b7ed6","A3","batch1","","null","<p class=block-text>Trial 70 out of 78</p>","null","pattern_show_trial_num","","","","","","","","","","","","","","","","","","","","","","","","",""
"","","","","","image-keyboard-response","161","317910","0.0-2.0-7.0-1.30","57dd4c6f73e67300012b7ed6","A3","batch1","","1632.0999999940395","stim/yes_45_hor_b2_b.png","f","pattern_response","true","f","pattern_67","1632.0999999940395","true","63","","","","","","","","","","","","","","","","","","",""
"","","","","","html-keyboard-response","162","319232","0.0-2.0-7.0-0.31","57dd4c6f73e67300012b7ed6","A3","batch1","","null","<p class=block-text>Trial 71 out of 78</p>","null","pattern_show_trial_num","","","","","","","","","","","","","","","","","","","","","","","","",""
"","","","","","image-keyboard-response","163","321519","0.0-2.0-7.0-1.31","57dd4c6f73e67300012b7ed6","A3","batch1","","2286.4000000059605","stim/no_29_1_b.png","j","pattern_response","true","j","pattern_12","2286.4000000059605","true","64","","","","","","","","","","","","","","","","","","",""
"","","","","","html-keyboard-response","164","322831","0.0-2.0-7.0-0.32","57dd4c6f73e67300012b7ed6","A3","batch1","","null","<p class=block-text>Trial 72 out of 78</p>","null","pattern_show_trial_num","","","","","","","","","","","","","","","","","","","","","","","","",""
"","","","","","image-keyboard-response","165","323725","0.0-2.0-7.0-1.32","57dd4c6f73e67300012b7ed6","A3","batch1","","892.5999999940395","stim/yes_43_ver_w1_w.png","f","pattern_response","true","f","pattern_65","892.5999999940395","true","65","","","","","","","","","","","","","","","","","","",""
"","","","","","html-keyboard-response","166","325043","0.0-2.0-7.0-0.33","57dd4c6f73e67300012b7ed6","A3","batch1","","null","<p class=block-text>Trial 73 out of 78</p>","null","pattern_show_trial_num","","","","","","","","","","","","","","","","","","","","","","","","",""
"","","","","","image-keyboard-response","167","325879","0.0-2.0-7.0-1.33","57dd4c6f73e67300012b7ed6","A3","batch1","","835.0999999940395","stim/no_13_2_b.png","j","pattern_response","true","j","pattern_02","835.0999999940395","true","66","","","","","","","","","","","","","","","","","","",""
"","","","","","html-keyboard-response","168","327184","0.0-2.0-7.0-0.34","57dd4c6f73e67300012b7ed6","A3","batch1","","null","<p class=block-text>Trial 74 out of 78</p>","null","pattern_show_trial_num","","","","","","","","","","","","","","","","","","","","","","","","",""
"","","","","","image-keyboard-response","169","328385","0.0-2.0-7.0-1.34","57dd4c6f73e67300012b7ed6","A3","batch1","","1199.699999988079","stim/no_17_1_w.png","j","pattern_response","true","j","pattern_04","1199.699999988079","true","67","","","","","","","","","","","","","","","","","","",""
"","","","","","html-keyboard-response","170","329695","0.0-2.0-7.0-0.35","57dd4c6f73e67300012b7ed6","A3","batch1","","null","<p class=block-text>Trial 75 out of 78</p>","null","pattern_show_trial_num","","","","","","","","","","","","","","","","","","","","","","","","",""
"","","","","","image-keyboard-response","171","334435","0.0-2.0-7.0-1.35","57dd4c6f73e67300012b7ed6","A3","batch1","","4739.800000011921","stim/no_65_1_b.png","j","pattern_response","true","j","pattern_38","4739.800000011921","true","68","","","","","","","","","","","","","","","","","","",""
"","","","","","html-keyboard-response","172","335762","0.0-2.0-7.0-0.36","57dd4c6f73e67300012b7ed6","A3","batch1","","null","<p class=block-text>Trial 76 out of 78</p>","null","pattern_show_trial_num","","","","","","","","","","","","","","","","","","","","","","","","",""
"","","","","","image-keyboard-response","173","336815","0.0-2.0-7.0-1.36","57dd4c6f73e67300012b7ed6","A3","batch1","","1051.800000011921","stim/yes_40_dia_b1_b.png","f","pattern_response","true","f","pattern_63","1051.800000011921","true","69","","","","","","","","","","","","","","","","","","",""
"","","","","","html-keyboard-response","174","338135","0.0-2.0-7.0-0.37","57dd4c6f73e67300012b7ed6","A3","batch1","","null","<p class=block-text>Trial 77 out of 78</p>","null","pattern_show_trial_num","","","","","","","","","","","","","","","","","","","","","","","","",""
"","","","","","image-keyboard-response","175","342321","0.0-2.0-7.0-1.37","57dd4c6f73e67300012b7ed6","A3","batch1","","4185.299999982119","stim/no_42_1_w.png","j","pattern_response","true","j","pattern_22","4185.299999982119","true","70","","","","","","","","","","","","","","","","","","",""
"","","","","","html-keyboard-response","176","343636","0.0-2.0-7.0-0.38","57dd4c6f73e67300012b7ed6","A3","batch1","","null","<p class=block-text>Trial 78 out of 78</p>","null","pattern_show_trial_num","","","","","","","","","","","","","","","","","","","","","","","","",""
"","","","","","image-keyboard-response","177","346709","0.0-2.0-7.0-1.38","57dd4c6f73e67300012b7ed6","A3","batch1","","3072","stim/no_32_1_w.png","j","pattern_response","true","j","pattern_14","3072","true","71","","","","","","","","","","","","","","","","","","",""
"","","","","","html-button-response","178","354684","0.0-2.0-8.0","57dd4c6f73e67300012b7ed6","A3","batch1","","7472.800000011921","<p class = block-text>This concludes the 4-in-a-row detection game.Thank you for your responses!<br>
            You responded correctly on 91% of the trials.<br>
            When you are ready, press ""Continue"" button to continue </p>","0","","","","","","","","","","","","","","","","","","","","","","","","","",""
"true","","","","","fullscreen","179","371908","0.0-3.0-0.0","57dd4c6f73e67300012b7ed6","A3","batch1","","","","","spm_fullscreen","","","","","","","","","","","","","","","","","","","","","","","","",""
"","","","","","html-button-response","180","378952","0.0-3.0-1.0","57dd4c6f73e67300012b7ed6","A3","batch1","","7043.0999999940395","<p class = block-text><b>Instructions</b> <br>This is a widely used intelligence test in research. <br>In this test, a figure with a missing piece will be presented.<br>Below the figure are alternative pieces to complete the figure, only one of which is correct.<br> Different figures might involve different principles for obtaining the missing piece<br>Your job is to select the most logical piece to complete the figure.</p>","0","","","","","","","","","","","","","","","","","","","","","","","","","",""
"","","","","","html-keyboard-response","181","379759","0.0-3.0-2.0-0.0","57dd4c6f73e67300012b7ed6","A3","batch1","","null","<p class=block-text>Trial 1 out of 60</p>","null","spm_show_trial_num","","","","","","","","","","","","","","","","","","","","","","","","",""
"","","","","","image-button-response","182","387578","0.0-3.0-2.0-1.0","57dd4c6f73e67300012b7ed6","A3","batch1","","7817.5","img/question_1_1.jpeg","3","spm_respsonse","1","4","mat_01","","","","","","1","7817.5","","","","","","","","","","","","","","",""
"","","","","","html-keyboard-response","183","388642","0.0-3.0-2.0-0.1","57dd4c6f73e67300012b7ed6","A3","batch1","","null","<p class=block-text>Trial 2 out of 60</p>","null","spm_show_trial_num","","","","","","","","","","","","","","","","","","","","","","","","",""
"","","","","","image-button-response","184","391760","0.0-3.0-2.0-1.1","57dd4c6f73e67300012b7ed6","A3","batch1","","3116.7000000178814","img/question_1_2.jpeg","4","spm_respsonse","1","5","mat_02","","","","","","1","3116.7000000178814","","","","","","","","","","","","","","",""
"","","","","","html-keyboard-response","185","392818","0.0-3.0-2.0-0.2","57dd4c6f73e67300012b7ed6","A3","batch1","","null","<p class=block-text>Trial 3 out of 60</p>","null","spm_show_trial_num","","","","","","","","","","","","","","","","","","","","","","","","",""
"","","","","","image-button-response","186","397820","0.0-3.0-2.0-1.2","57dd4c6f73e67300012b7ed6","A3","batch1","","5001.300000011921","img/question_1_3.jpeg","0","spm_respsonse","1","1","mat_03","","","","","","1","5001.300000011921","","","","","","","","","","","","","","",""
"","","","","","html-keyboard-response","187","398885","0.0-3.0-2.0-0.3","57dd4c6f73e67300012b7ed6","A3","batch1","","null","<p class=block-text>Trial 4 out of 60</p>","null","spm_show_trial_num","","","","","","","","","","","","","","","","","","","","","","","","",""
"","","","","","image-button-response","188","402482","0.0-3.0-2.0-1.3","57dd4c6f73e67300012b7ed6","A3","batch1","","3595.800000011921","img/question_1_4.jpeg","1","spm_respsonse","1","2","mat_04","","","","","","1","3595.800000011921","","","","","","","","","","","","","","",""
"","","","","","html-keyboard-response","189","403542","0.0-3.0-2.0-0.4","57dd4c6f73e67300012b7ed6","A3","batch1","","null","<p class=block-text>Trial 5 out of 60</p>","null","spm_show_trial_num","","","","","","","","","","","","","","","","","","","","","","","","",""
"","","","","","image-button-response","190","409338","0.0-3.0-2.0-1.4","57dd4c6f73e67300012b7ed6","A3","batch1","","5794.5","img/question_1_5.jpeg","5","spm_respsonse","1","6","mat_05","","","","","","1","5794.5","","","","","","","","","","","","","","",""
"","","","","","html-keyboard-response","191","410404","0.0-3.0-2.0-0.5","57dd4c6f73e67300012b7ed6","A3","batch1","","null","<p class=block-text>Trial 6 out of 60</p>","null","spm_show_trial_num","","","","","","","","","","","","","","","","","","","","","","","","",""
"","","","","","image-button-response","192","413592","0.0-3.0-2.0-1.5","57dd4c6f73e67300012b7ed6","A3","batch1","","3187.2000000178814","img/question_1_6.jpeg","2","spm_respsonse","1","3","mat_06","","","","","","1","3187.2000000178814","","","","","","","","","","","","","","",""
"","","","","","html-keyboard-response","193","414654","0.0-3.0-2.0-0.6","57dd4c6f73e67300012b7ed6","A3","batch1","","null","<p class=block-text>Trial 7 out of 60</p>","null","spm_show_trial_num","","","","","","","","","","","","","","","","","","","","","","","","",""
"","","","","","image-button-response","194","419198","0.0-3.0-2.0-1.6","57dd4c6f73e67300012b7ed6","A3","batch1","","4542.199999988079","img/question_1_7.jpeg","5","spm_respsonse","1","6","mat_07","","","","","","1","4542.199999988079","","","","","","","","","","","","","","",""
"","","","","","html-keyboard-response","195","420252","0.0-3.0-2.0-0.7","57dd4c6f73e67300012b7ed6","A3","batch1","","null","<p class=block-text>Trial 8 out of 60</p>","null","spm_show_trial_num","","","","","","","","","","","","","","","","","","","","","","","","",""
"","","","","","image-button-response","196","425384","0.0-3.0-2.0-1.7","57dd4c6f73e67300012b7ed6","A3","batch1","","5131.0999999940395","img/question_1_8.jpeg","1","spm_respsonse","1","2","mat_08","","","","","","1","5131.0999999940395","","","","","","","","","","","","","","",""
"","","","","","html-keyboard-response","197","426454","0.0-3.0-2.0-0.8","57dd4c6f73e67300012b7ed6","A3","batch1","","null","<p class=block-text>Trial 9 out of 60</p>","null","spm_show_trial_num","","","","","","","","","","","","","","","","","","","","","","","","",""
"","","","","","image-button-response","198","432545","0.0-3.0-2.0-1.8","57dd4c6f73e67300012b7ed6","A3","batch1","","6090.299999982119","img/question_1_9.jpeg","0","spm_respsonse","1","1","mat_09","","","","","","1","6090.299999982119","","","","","","","","","","","","","","",""
"","","","","","html-keyboard-response","199","433608","0.0-3.0-2.0-0.9","57dd4c6f73e67300012b7ed6","A3","batch1","","null","<p class=block-text>Trial 10 out of 60</p>","null","spm_show_trial_num","","","","","","","","","","","","","","","","","","","","","","","","",""
"","","","","","image-button-response","200","445259","0.0-3.0-2.0-1.9","57dd4c6f73e67300012b7ed6","A3","batch1","","11650","img/question_1_10.jpeg","2","spm_respsonse","1","3","mat_10","","","","","","1","11650","","","","","","","","","","","","","","",""
"","","","","","html-keyboard-response","201","446321","0.0-3.0-2.0-0.10","57dd4c6f73e67300012b7ed6","A3","batch1","","null","<p class=block-text>Trial 11 out of 60</p>","null","spm_show_trial_num","","","","","","","","","","","","","","","","","","","","","","","","",""
"","","","","","image-button-response","202","457777","0.0-3.0-2.0-1.10","57dd4c6f73e67300012b7ed6","A3","batch1","","11454.299999982119","img/question_1_11.jpeg","3","spm_respsonse","1","4","mat_11","","","","","","1","11454.299999982119","","","","","","","","","","","","","","",""
"","","","","","html-keyboard-response","203","458843","0.0-3.0-2.0-0.11","57dd4c6f73e67300012b7ed6","A3","batch1","","null","<p class=block-text>Trial 12 out of 60</p>","null","spm_show_trial_num","","","","","","","","","","","","","","","","","","","","","","","","",""
"","","","","","image-button-response","204","468761","0.0-3.0-2.0-1.11","57dd4c6f73e67300012b7ed6","A3","batch1","","9917.09999999404","img/question_1_12.jpeg","4","spm_respsonse","1","5","mat_12","","","","","","1","9917.09999999404","","","","","","","","","","","","","","",""
"","","","","","html-keyboard-response","205","469821","0.0-3.0-2.0-0.12","57dd4c6f73e67300012b7ed6","A3","batch1","","null","<p class=block-text>Trial 13 out of 60</p>","null","spm_show_trial_num","","","","","","","","","","","","","","","","","","","","","","","","",""
"","","","","","image-button-response","206","472724","0.0-3.0-2.0-1.12","57dd4c6f73e67300012b7ed6","A3","batch1","","2901.0999999940395","img/question_2_1.jpeg","1","spm_respsonse","1","2","mat_13","","","","","","1","2901.0999999940395","","","","","","","","","","","","","","",""
"","","","","","html-keyboard-response","207","473787","0.0-3.0-2.0-0.13","57dd4c6f73e67300012b7ed6","A3","batch1","","null","<p class=block-text>Trial 14 out of 60</p>","null","spm_show_trial_num","","","","","","","","","","","","","","","","","","","","","","","","",""
"","","","","","image-button-response","208","478517","0.0-3.0-2.0-1.13","57dd4c6f73e67300012b7ed6","A3","batch1","","4728.800000011921","img/question_2_2.jpeg","5","spm_respsonse","1","6","mat_14","","","","","","1","4728.800000011921","","","","","","","","","","","","","","",""
"","","","","","html-keyboard-response","209","479598","0.0-3.0-2.0-0.14","57dd4c6f73e67300012b7ed6","A3","batch1","","null","<p class=block-text>Trial 15 out of 60</p>","null","spm_show_trial_num","","","","","","","","","","","","","","","","","","","","","","","","",""
"","","","","","image-button-response","210","484115","0.0-3.0-2.0-1.14","57dd4c6f73e67300012b7ed6","A3","batch1","","4516","img/question_2_3.jpeg","0","spm_respsonse","1","1","mat_15","","","","","","1","4516","","","","","","","","","","","","","","",""
"","","","","","html-keyboard-response","211","485175","0.0-3.0-2.0-0.15","57dd4c6f73e67300012b7ed6","A3","batch1","","null","<p class=block-text>Trial 16 out of 60</p>","null","spm_show_trial_num","","","","","","","","","","","","","","","","","","","","","","","","",""
"","","","","","image-button-response","212","489712","0.0-3.0-2.0-1.15","57dd4c6f73e67300012b7ed6","A3","batch1","","4535.5","img/question_2_4.jpeg","1","spm_respsonse","1","2","mat_16","","","","","","1","4535.5","","","","","","","","","","","","","","",""
"","","","","","html-keyboard-response","213","490780","0.0-3.0-2.0-0.16","57dd4c6f73e67300012b7ed6","A3","batch1","","null","<p class=block-text>Trial 17 out of 60</p>","null","spm_show_trial_num","","","","","","","","","","","","","","","","","","","","","","","","",""
"","","","","","image-button-response","214","498362","0.0-3.0-2.0-1.16","57dd4c6f73e67300012b7ed6","A3","batch1","","7580.700000017881","img/question_2_5.jpeg","0","spm_respsonse","1","1","mat_17","","","","","","1","7580.700000017881","","","","","","","","","","","","","","",""
"","","","","","html-keyboard-response","215","499426","0.0-3.0-2.0-0.17","57dd4c6f73e67300012b7ed6","A3","batch1","","null","<p class=block-text>Trial 18 out of 60</p>","null","spm_show_trial_num","","","","","","","","","","","","","","","","","","","","","","","","",""
"","","","","","image-button-response","216","505658","0.0-3.0-2.0-1.17","57dd4c6f73e67300012b7ed6","A3","batch1","","6230.5999999940395","img/question_2_6.jpeg","2","spm_respsonse","1","3","mat_18","","","","","","1","6230.5999999940395","","","","","","","","","","","","","","",""
"","","","","","html-keyboard-response","217","506716","0.0-3.0-2.0-0.18","57dd4c6f73e67300012b7ed6","A3","batch1","","null","<p class=block-text>Trial 19 out of 60</p>","null","spm_show_trial_num","","","","","","","","","","","","","","","","","","","","","","","","",""
"","","","","","image-button-response","218","515644","0.0-3.0-2.0-1.18","57dd4c6f73e67300012b7ed6","A3","batch1","","8927.300000011921","img/question_2_7.jpeg","4","spm_respsonse","1","5","mat_19","","","","","","1","8927.300000011921","","","","","","","","","","","","","","",""
"","","","","","html-keyboard-response","219","516700","0.0-3.0-2.0-0.19","57dd4c6f73e67300012b7ed6","A3","batch1","","null","<p class=block-text>Trial 20 out of 60</p>","null","spm_show_trial_num","","","","","","","","","","","","","","","","","","","","","","","","",""
"","","","","","image-button-response","220","524190","0.0-3.0-2.0-1.19","57dd4c6f73e67300012b7ed6","A3","batch1","","7488.5","img/question_2_8.jpeg","5","spm_respsonse","1","6","mat_20","","","","","","1","7488.5","","","","","","","","","","","","","","",""
"","","","","","html-keyboard-response","221","525256","0.0-3.0-2.0-0.20","57dd4c6f73e67300012b7ed6","A3","batch1","","null","<p class=block-text>Trial 21 out of 60</p>","null","spm_show_trial_num","","","","","","","","","","","","","","","","","","","","","","","","",""
"","","","","","image-button-response","222","528160","0.0-3.0-2.0-1.20","57dd4c6f73e67300012b7ed6","A3","batch1","","2902.5999999940395","img/question_2_9.jpeg","3","spm_respsonse","1","4","mat_21","","","","","","1","2902.5999999940395","","","","","","","","","","","","","","",""
"","","","","","html-keyboard-response","223","529224","0.0-3.0-2.0-0.21","57dd4c6f73e67300012b7ed6","A3","batch1","","null","<p class=block-text>Trial 22 out of 60</p>","null","spm_show_trial_num","","","","","","","","","","","","","","","","","","","","","","","","",""
"","","","","","image-button-response","224","533930","0.0-3.0-2.0-1.21","57dd4c6f73e67300012b7ed6","A3","batch1","","4704.699999988079","img/question_2_10.jpeg","2","spm_respsonse","1","3","mat_22","","","","","","1","4704.699999988079","","","","","","","","","","","","","","",""
"","","","","","html-keyboard-response","225","534988","0.0-3.0-2.0-0.22","57dd4c6f73e67300012b7ed6","A3","batch1","","null","<p class=block-text>Trial 23 out of 60</p>","null","spm_show_trial_num","","","","","","","","","","","","","","","","","","","","","","","","",""
"","","","","","image-button-response","226","540088","0.0-3.0-2.0-1.22","57dd4c6f73e67300012b7ed6","A3","batch1","","5098.800000011921","img/question_2_11.jpeg","3","spm_respsonse","1","4","mat_23","","","","","","1","5098.800000011921","","","","","","","","","","","","","","",""
"","","","","","html-keyboard-response","227","541145","0.0-3.0-2.0-0.23","57dd4c6f73e67300012b7ed6","A3","batch1","","null","<p class=block-text>Trial 24 out of 60</p>","null","spm_show_trial_num","","","","","","","","","","","","","","","","","","","","","","","","",""
"","","","","","image-button-response","228","546888","0.0-3.0-2.0-1.23","57dd4c6f73e67300012b7ed6","A3","batch1","","5741.800000011921","img/question_2_12.jpeg","4","spm_respsonse","1","5","mat_24","","","","","","1","5741.800000011921","","","","","","","","","","","","","","",""
"","","","","","html-button-response","229","548892","0.0-3.0-3.0","57dd4c6f73e67300012b7ed6","A3","batch1","","1752.7000000178814","<p class = block-text>Attention check: Please choose 1<br></p>","0","attention_check","true","","","","","","","","","","","","","","","","","","","","","","","",""
"","","","","","html-keyboard-response","230","549700","0.0-3.0-4.0-0.0","57dd4c6f73e67300012b7ed6","A3","batch1","","null","<p class=block-text>Trial 25 out of 60</p>","null","spm_show_trial_num","","","","","","","","","","","","","","","","","","","","","","","","",""
"","","","","","image-button-response","231","557736","0.0-3.0-4.0-1.0","57dd4c6f73e67300012b7ed6","A3","batch1","","8034.800000011921","img/question_3_1.jpeg","7","spm_respsonse","1","8","mat_25","","","","","","1","8034.800000011921","","","","","","","","","","","","","","",""
"","","","","","html-keyboard-response","232","558790","0.0-3.0-4.0-0.1","57dd4c6f73e67300012b7ed6","A3","batch1","","null","<p class=block-text>Trial 26 out of 60</p>","null","spm_show_trial_num","","","","","","","","","","","","","","","","","","","","","","","","",""
"","","","","","image-button-response","233","568830","0.0-3.0-4.0-1.1","57dd4c6f73e67300012b7ed6","A3","batch1","","10037.799999982119","img/question_3_2.jpeg","1","spm_respsonse","1","2","mat_26","","","","","","1","10037.799999982119","","","","","","","","","","","","","","",""
"","","","","","html-keyboard-response","234","569887","0.0-3.0-4.0-0.2","57dd4c6f73e67300012b7ed6","A3","batch1","","null","<p class=block-text>Trial 27 out of 60</p>","null","spm_show_trial_num","","","","","","","","","","","","","","","","","","","","","","","","",""
"","","","","","image-button-response","235","575448","0.0-3.0-4.0-1.2","57dd4c6f73e67300012b7ed6","A3","batch1","","5560","img/question_3_3.jpeg","2","spm_respsonse","1","3","mat_27","","","","","","1","5560","","","","","","","","","","","","","","",""
"","","","","","html-keyboard-response","236","576504","0.0-3.0-4.0-0.3","57dd4c6f73e67300012b7ed6","A3","batch1","","null","<p class=block-text>Trial 28 out of 60</p>","null","spm_show_trial_num","","","","","","","","","","","","","","","","","","","","","","","","",""
"","","","","","image-button-response","237","582280","0.0-3.0-4.0-1.3","57dd4c6f73e67300012b7ed6","A3","batch1","","5773.699999988079","img/question_3_4.jpeg","7","spm_respsonse","1","8","mat_28","","","","","","1","5773.699999988079","","","","","","","","","","","","","","",""
"","","","","","html-keyboard-response","238","583346","0.0-3.0-4.0-0.4","57dd4c6f73e67300012b7ed6","A3","batch1","","null","<p class=block-text>Trial 29 out of 60</p>","null","spm_show_trial_num","","","","","","","","","","","","","","","","","","","","","","","","",""
"","","","","","image-button-response","239","589332","0.0-3.0-4.0-1.4","57dd4c6f73e67300012b7ed6","A3","batch1","","5984.5999999940395","img/question_3_5.jpeg","6","spm_respsonse","1","7","mat_29","","","","","","1","5984.5999999940395","","","","","","","","","","","","","","",""
"","","","","","html-keyboard-response","240","590396","0.0-3.0-4.0-0.5","57dd4c6f73e67300012b7ed6","A3","batch1","","null","<p class=block-text>Trial 30 out of 60</p>","null","spm_show_trial_num","","","","","","","","","","","","","","","","","","","","","","","","",""
"","","","","","image-button-response","241","597154","0.0-3.0-4.0-1.5","57dd4c6f73e67300012b7ed6","A3","batch1","","6757","img/question_3_6.jpeg","3","spm_respsonse","1","4","mat_30","","","","","","1","6757","","","","","","","","","","","","","","",""
"","","","","","html-keyboard-response","242","598222","0.0-3.0-4.0-0.6","57dd4c6f73e67300012b7ed6","A3","batch1","","null","<p class=block-text>Trial 31 out of 60</p>","null","spm_show_trial_num","","","","","","","","","","","","","","","","","","","","","","","","",""
"","","","","","image-button-response","243","604616","0.0-3.0-4.0-1.6","57dd4c6f73e67300012b7ed6","A3","batch1","","6392.9000000059605","img/question_3_7.jpeg","4","spm_respsonse","1","5","mat_31","","","","","","1","6392.9000000059605","","","","","","","","","","","","","","",""
"","","","","","html-keyboard-response","244","605681","0.0-3.0-4.0-0.7","57dd4c6f73e67300012b7ed6","A3","batch1","","null","<p class=block-text>Trial 32 out of 60</p>","null","spm_show_trial_num","","","","","","","","","","","","","","","","","","","","","","","","",""
"","","","","","image-button-response","245","643254","0.0-3.0-4.0-1.7","57dd4c6f73e67300012b7ed6","A3","batch1","","37571.79999998212","img/question_3_8.jpeg","0","spm_respsonse","1","1","mat_32","","","","","","1","37571.79999998212","","","","","","","","","","","","","","",""
"","","","","","html-keyboard-response","246","644309","0.0-3.0-4.0-0.8","57dd4c6f73e67300012b7ed6","A3","batch1","","null","<p class=block-text>Trial 33 out of 60</p>","null","spm_show_trial_num","","","","","","","","","","","","","","","","","","","","","","","","",""
"","","","","","image-button-response","247","652404","0.0-3.0-4.0-1.8","57dd4c6f73e67300012b7ed6","A3","batch1","","8093.299999982119","img/question_3_9.jpeg","6","spm_respsonse","1","7","mat_33","","","","","","1","8093.299999982119","","","","","","","","","","","","","","",""
"","","","","","html-keyboard-response","248","653467","0.0-3.0-4.0-0.9","57dd4c6f73e67300012b7ed6","A3","batch1","","null","<p class=block-text>Trial 34 out of 60</p>","null","spm_show_trial_num","","","","","","","","","","","","","","","","","","","","","","","","",""
"","","","","","image-button-response","249","659063","0.0-3.0-4.0-1.9","57dd4c6f73e67300012b7ed6","A3","batch1","","5595.0999999940395","img/question_3_10.jpeg","5","spm_respsonse","1","6","mat_34","","","","","","1","5595.0999999940395","","","","","","","","","","","","","","",""
"","","","","","html-keyboard-response","250","660128","0.0-3.0-4.0-0.10","57dd4c6f73e67300012b7ed6","A3","batch1","","null","<p class=block-text>Trial 35 out of 60</p>","null","spm_show_trial_num","","","","","","","","","","","","","","","","","","","","","","","","",""
"","","","","","image-button-response","251","677118","0.0-3.0-4.0-1.10","57dd4c6f73e67300012b7ed6","A3","batch1","","16989.09999999404","img/question_3_11.jpeg","0","spm_respsonse","1","1","mat_35","","","","","","1","16989.09999999404","","","","","","","","","","","","","","",""
"","","","","","html-keyboard-response","252","678173","0.0-3.0-4.0-0.11","57dd4c6f73e67300012b7ed6","A3","batch1","","null","<p class=block-text>Trial 36 out of 60</p>","null","spm_show_trial_num","","","","","","","","","","","","","","","","","","","","","","","","",""
"","","","","","image-button-response","253","700772","0.0-3.0-4.0-1.11","57dd4c6f73e67300012b7ed6","A3","batch1","","22596.70000001788","img/question_3_12.jpeg","1","spm_respsonse","1","2","mat_36","","","","","","1","22596.70000001788","","","","","","","","","","","","","","",""
"","","","","","html-keyboard-response","254","701823","0.0-3.0-4.0-0.12","57dd4c6f73e67300012b7ed6","A3","batch1","","null","<p class=block-text>Trial 37 out of 60</p>","null","spm_show_trial_num","","","","","","","","","","","","","","","","","","","","","","","","",""
"","","","","","image-button-response","255","705102","0.0-3.0-4.0-1.12","57dd4c6f73e67300012b7ed6","A3","batch1","","3277.800000011921","img/question_4_1.jpeg","2","spm_respsonse","1","3","mat_37","","","","","","1","3277.800000011921","","","","","","","","","","","","","","",""
"","","","","","html-keyboard-response","256","706169","0.0-3.0-4.0-0.13","57dd4c6f73e67300012b7ed6","A3","batch1","","null","<p class=block-text>Trial 38 out of 60</p>","null","spm_show_trial_num","","","","","","","","","","","","","","","","","","","","","","","","",""
"","","","","","image-button-response","257","709914","0.0-3.0-4.0-1.13","57dd4c6f73e67300012b7ed6","A3","batch1","","3743.699999988079","img/question_4_2.jpeg","3","spm_respsonse","1","4","mat_38","","","","","","1","3743.699999988079","","","","","","","","","","","","","","",""
"","","","","","html-keyboard-response","258","710982","0.0-3.0-4.0-0.14","57dd4c6f73e67300012b7ed6","A3","batch1","","null","<p class=block-text>Trial 39 out of 60</p>","null","spm_show_trial_num","","","","","","","","","","","","","","","","","","","","","","","","",""
"","","","","","image-button-response","259","714928","0.0-3.0-4.0-1.14","57dd4c6f73e67300012b7ed6","A3","batch1","","3944.300000011921","img/question_4_3.jpeg","2","spm_respsonse","1","3","mat_39","","","","","","1","3944.300000011921","","","","","","","","","","","","","","",""
"","","","","","html-keyboard-response","260","715993","0.0-3.0-4.0-0.15","57dd4c6f73e67300012b7ed6","A3","batch1","","null","<p class=block-text>Trial 40 out of 60</p>","null","spm_show_trial_num","","","","","","","","","","","","","","","","","","","","","","","","",""
"","","","","","image-button-response","261","721924","0.0-3.0-4.0-1.15","57dd4c6f73e67300012b7ed6","A3","batch1","","5929.100000023842","img/question_4_4.jpeg","6","spm_respsonse","1","7","mat_40","","","","","","1","5929.100000023842","","","","","","","","","","","","","","",""
"","","","","","html-keyboard-response","262","722990","0.0-3.0-4.0-0.16","57dd4c6f73e67300012b7ed6","A3","batch1","","null","<p class=block-text>Trial 41 out of 60</p>","null","spm_show_trial_num","","","","","","","","","","","","","","","","","","","","","","","","",""
"","","","","","image-button-response","263","738341","0.0-3.0-4.0-1.16","57dd4c6f73e67300012b7ed6","A3","batch1","","15349.199999988079","img/question_4_5.jpeg","7","spm_respsonse","1","8","mat_41","","","","","","1","15349.199999988079","","","","","","","","","","","","","","",""
"","","","","","html-keyboard-response","264","739410","0.0-3.0-4.0-0.17","57dd4c6f73e67300012b7ed6","A3","batch1","","null","<p class=block-text>Trial 42 out of 60</p>","null","spm_show_trial_num","","","","","","","","","","","","","","","","","","","","","","","","",""
"","","","","","image-button-response","265","753010","0.0-3.0-4.0-1.17","57dd4c6f73e67300012b7ed6","A3","batch1","","13598.5","img/question_4_6.jpeg","5","spm_respsonse","1","6","mat_42","","","","","","1","13598.5","","","","","","","","","","","","","","",""
"","","","","","html-keyboard-response","266","754062","0.0-3.0-4.0-0.18","57dd4c6f73e67300012b7ed6","A3","batch1","","null","<p class=block-text>Trial 43 out of 60</p>","null","spm_show_trial_num","","","","","","","","","","","","","","","","","","","","","","","","",""
"","","","","","image-button-response","267","780422","0.0-3.0-4.0-1.18","57dd4c6f73e67300012b7ed6","A3","batch1","","26357.70000001788","img/question_4_7.jpeg","4","spm_respsonse","1","5","mat_43","","","","","","1","26357.70000001788","","","","","","","","","","","","","","",""
"","","","","","html-keyboard-response","268","781473","0.0-3.0-4.0-0.19","57dd4c6f73e67300012b7ed6","A3","batch1","","null","<p class=block-text>Trial 44 out of 60</p>","null","spm_show_trial_num","","","","","","","","","","","","","","","","","","","","","","","","",""
"","","","","","image-button-response","269","790525","0.0-3.0-4.0-1.19","57dd4c6f73e67300012b7ed6","A3","batch1","","9049.700000017881","img/question_4_8.jpeg","4","spm_respsonse","0","4","mat_44","","","","","","0","9049.700000017881","","","","","","","","","","","","","","",""
"","","","","","html-keyboard-response","270","791587","0.0-3.0-4.0-0.20","57dd4c6f73e67300012b7ed6","A3","batch1","","null","<p class=block-text>Trial 45 out of 60</p>","null","spm_show_trial_num","","","","","","","","","","","","","","","","","","","","","","","","",""
"","","","","","image-button-response","271","812250","0.0-3.0-4.0-1.20","57dd4c6f73e67300012b7ed6","A3","batch1","","20662.40000000596","img/question_4_9.jpeg","0","spm_respsonse","1","1","mat_45","","","","","","1","20662.40000000596","","","","","","","","","","","","","","",""
"","","","","","html-keyboard-response","272","813312","0.0-3.0-4.0-0.21","57dd4c6f73e67300012b7ed6","A3","batch1","","null","<p class=block-text>Trial 46 out of 60</p>","null","spm_show_trial_num","","","","","","","","","","","","","","","","","","","","","","","","",""
"","","","","","image-button-response","273","837100","0.0-3.0-4.0-1.21","57dd4c6f73e67300012b7ed6","A3","batch1","","23786.5","img/question_4_10.jpeg","1","spm_respsonse","1","2","mat_46","","","","","","1","23786.5","","","","","","","","","","","","","","",""
"","","","","","html-keyboard-response","274","838152","0.0-3.0-4.0-0.22","57dd4c6f73e67300012b7ed6","A3","batch1","","null","<p class=block-text>Trial 47 out of 60</p>","null","spm_show_trial_num","","","","","","","","","","","","","","","","","","","","","","","","",""
"","","","","","image-button-response","275","900002","0.0-3.0-4.0-1.22","57dd4c6f73e67300012b7ed6","A3","batch1","","61848.5","img/question_4_11.jpeg","6","spm_respsonse","0","5","mat_47","","","","","","0","61848.5","","","","","","","","","","","","","","",""
"","","","","","html-keyboard-response","276","901067","0.0-3.0-4.0-0.23","57dd4c6f73e67300012b7ed6","A3","batch1","","null","<p class=block-text>Trial 48 out of 60</p>","null","spm_show_trial_num","","","","","","","","","","","","","","","","","","","","","","","","",""
"","","","","","image-button-response","277","936646","0.0-3.0-4.0-1.23","57dd4c6f73e67300012b7ed6","A3","batch1","","35577.90000000596","img/question_4_12.jpeg","5","spm_respsonse","1","6","mat_48","","","","","","1","35577.90000000596","","","","","","","","","","","","","","",""
"","","","","","html-keyboard-response","278","937705","0.0-3.0-4.0-0.24","57dd4c6f73e67300012b7ed6","A3","batch1","","null","<p class=block-text>Trial 49 out of 60</p>","null","spm_show_trial_num","","","","","","","","","","","","","","","","","","","","","","","","",""
"","","","","","image-button-response","279","944144","0.0-3.0-4.0-1.24","57dd4c6f73e67300012b7ed6","A3","batch1","","6437.699999988079","img/question_5_1.jpeg","6","spm_respsonse","1","7","mat_49","","","","","","1","6437.699999988079","","","","","","","","","","","","","","",""
"","","","","","html-keyboard-response","280","945196","0.0-3.0-4.0-0.25","57dd4c6f73e67300012b7ed6","A3","batch1","","null","<p class=block-text>Trial 50 out of 60</p>","null","spm_show_trial_num","","","","","","","","","","","","","","","","","","","","","","","","",""
"","","","","","image-button-response","281","954458","0.0-3.0-4.0-1.25","57dd4c6f73e67300012b7ed6","A3","batch1","","9260.399999976158","img/question_5_2.jpeg","5","spm_respsonse","1","6","mat_50","","","","","","1","9260.399999976158","","","","","","","","","","","","","","",""
"","","","","","html-keyboard-response","282","955521","0.0-3.0-4.0-0.26","57dd4c6f73e67300012b7ed6","A3","batch1","","null","<p class=block-text>Trial 51 out of 60</p>","null","spm_show_trial_num","","","","","","","","","","","","","","","","","","","","","","","","",""
"","","","","","image-button-response","283","966796","0.0-3.0-4.0-1.26","57dd4c6f73e67300012b7ed6","A3","batch1","","11273.300000011921","img/question_5_3.jpeg","7","spm_respsonse","1","8","mat_51","","","","","","1","11273.300000011921","","","","","","","","","","","","","","",""
"","","","","","html-keyboard-response","284","967847","0.0-3.0-4.0-0.27","57dd4c6f73e67300012b7ed6","A3","batch1","","null","<p class=block-text>Trial 52 out of 60</p>","null","spm_show_trial_num","","","","","","","","","","","","","","","","","","","","","","","","",""
"","","","","","image-button-response","285","973926","0.0-3.0-4.0-1.27","57dd4c6f73e67300012b7ed6","A3","batch1","","6077.5","img/question_5_4.jpeg","1","spm_respsonse","1","2","mat_52","","","","","","1","6077.5","","","","","","","","","","","","","","",""
"","","","","","html-keyboard-response","286","974977","0.0-3.0-4.0-0.28","57dd4c6f73e67300012b7ed6","A3","batch1","","null","<p class=block-text>Trial 53 out of 60</p>","null","spm_show_trial_num","","","","","","","","","","","","","","","","","","","","","","","","",""
"","","","","","image-button-response","287","986180","0.0-3.0-4.0-1.28","57dd4c6f73e67300012b7ed6","A3","batch1","","11201.90000000596","img/question_5_5.jpeg","0","spm_respsonse","1","1","mat_53","","","","","","1","11201.90000000596","","","","","","","","","","","","","","",""
"","","","","","html-keyboard-response","288","987256","0.0-3.0-4.0-0.29","57dd4c6f73e67300012b7ed6","A3","batch1","","null","<p class=block-text>Trial 54 out of 60</p>","null","spm_show_trial_num","","","","","","","","","","","","","","","","","","","","","","","","",""
"","","","","","image-button-response","289","1002380","0.0-3.0-4.0-1.29","57dd4c6f73e67300012b7ed6","A3","batch1","","15122.699999988079","img/question_5_6.jpeg","4","spm_respsonse","1","5","mat_54","","","","","","1","15122.699999988079","","","","","","","","","","","","","","",""
"","","","","","html-keyboard-response","290","1003438","0.0-3.0-4.0-0.30","57dd4c6f73e67300012b7ed6","A3","batch1","","null","<p class=block-text>Trial 55 out of 60</p>","null","spm_show_trial_num","","","","","","","","","","","","","","","","","","","","","","","","",""
"","","","","","image-button-response","291","1043998","0.0-3.0-4.0-1.30","57dd4c6f73e67300012b7ed6","A3","batch1","","40558.59999999404","img/question_5_7.jpeg","0","spm_respsonse","1","1","mat_55","","","","","","1","40558.59999999404","","","","","","","","","","","","","","",""
"","","","","","html-keyboard-response","292","1045051","0.0-3.0-4.0-0.31","57dd4c6f73e67300012b7ed6","A3","batch1","","null","<p class=block-text>Trial 56 out of 60</p>","null","spm_show_trial_num","","","","","","","","","","","","","","","","","","","","","","","","",""
"","","","","","image-button-response","293","1058356","0.0-3.0-4.0-1.31","57dd4c6f73e67300012b7ed6","A3","batch1","","13302.90000000596","img/question_5_8.jpeg","5","spm_respsonse","1","6","mat_56","","","","","","1","13302.90000000596","","","","","","","","","","","","","","",""
"","","","","","html-keyboard-response","294","1059419","0.0-3.0-4.0-0.32","57dd4c6f73e67300012b7ed6","A3","batch1","","null","<p class=block-text>Trial 57 out of 60</p>","null","spm_show_trial_num","","","","","","","","","","","","","","","","","","","","","","","","",""
"","","","","","image-button-response","295","1073537","0.0-3.0-4.0-1.32","57dd4c6f73e67300012b7ed6","A3","batch1","","14116.5","img/question_5_9.jpeg","2","spm_respsonse","1","3","mat_57","","","","","","1","14116.5","","","","","","","","","","","","","","",""
"","","","","","html-keyboard-response","296","1074603","0.0-3.0-4.0-0.33","57dd4c6f73e67300012b7ed6","A3","batch1","","null","<p class=block-text>Trial 58 out of 60</p>","null","spm_show_trial_num","","","","","","","","","","","","","","","","","","","","","","","","",""
"","","","","","image-button-response","297","1087484","0.0-3.0-4.0-1.33","57dd4c6f73e67300012b7ed6","A3","batch1","","12879.40000000596","img/question_5_10.jpeg","1","spm_respsonse","1","2","mat_58","","","","","","1","12879.40000000596","","","","","","","","","","","","","","",""
"","","","","","html-keyboard-response","298","1088535","0.0-3.0-4.0-0.34","57dd4c6f73e67300012b7ed6","A3","batch1","","null","<p class=block-text>Trial 59 out of 60</p>","null","spm_show_trial_num","","","","","","","","","","","","","","","","","","","","","","","","",""
"","","","","","image-button-response","299","1124044","0.0-3.0-4.0-1.34","57dd4c6f73e67300012b7ed6","A3","batch1","","35508.09999999404","img/question_5_11.jpeg","3","spm_respsonse","1","4","mat_59","","","","","","1","35508.09999999404","","","","","","","","","","","","","","",""
"","","","","","html-keyboard-response","300","1125105","0.0-3.0-4.0-0.35","57dd4c6f73e67300012b7ed6","A3","batch1","","null","<p class=block-text>Trial 60 out of 60</p>","null","spm_show_trial_num","","","","","","","","","","","","","","","","","","","","","","","","",""
"","","","","","image-button-response","301","1151020","0.0-3.0-4.0-1.35","57dd4c6f73e67300012b7ed6","A3","batch1","","25913.5","img/question_5_12.jpeg","4","spm_respsonse","1","5","mat_60","","","","","","1","25913.5","","","","","","","","","","","","","","",""
"","","","","","html-button-response","302","1154660","0.0-3.0-5.0","57dd4c6f73e67300012b7ed6","A3","batch1","","3377.899999976158","<p class= block-text>This concludes the Standard Progressive Matrix game. Thank you for your responses!<br> When you are ready, click the button continue</p>","0","spm_goodbye","","","","","","","","","","","","","","","","","","","","","","","","",""
"true","","","","","fullscreen","303","1157909","0.0-4.0-0.0","57dd4c6f73e67300012b7ed6","A3","batch1","","","","","","","","","","","","","","","","","","","","","","","","","","","","","",""
"","","","","","instructions","304","1195175","0.0-4.0-1.0-0.0-0.0","57dd4c6f73e67300012b7ed6","A3","batch1","[{""page_index"":0,""viewing_time"":5522.4000000059605},{""page_index"":1,""viewing_time"":4590.199999988079},{""page_index"":2,""viewing_time"":2899.699999988079},{""page_index"":3,""viewing_time"":6926.600000023842},{""page_index"":4,""viewing_time"":5487.5999999940395},{""page_index"":5,""viewing_time"":8536.40000000596},{""page_index"":6,""viewing_time"":3301.899999976158}]","37265.09999999404","","","tol-instructions","","","","","","","","","","","","","","","","","","","","","","","","",""
"","","","","","html-button-response","305","1196135","0.0-4.0-1.0-1.0-0.0","57dd4c6f73e67300012b7ed6","A3","batch1","","959.1999999880791","<p class=block-text> Let's answer a few questions <br>","0","tol_enter_quiz","","","","","","","","","","","","","","","","","","","","","","","","",""
"","","","","","html-button-response","306","1200851","0.0-4.0-1.0-1.0-1.0","57dd4c6f73e67300012b7ed6","A3","batch1","","4715.299999982119","<p class = block-text>True or False: You can only move the ball on top of a peg. <br></p>","0","tol_quiz","true","","","","","","","","","","","","","","","","","","","","","","","",""
"","","","","","html-button-response","307","1201871","0.0-4.0-1.0-1.0-2.0","57dd4c6f73e67300012b7ed6","A3","batch1","","1018.6999999880791","<p class = block-text>Correct! You can only move the ball on top of a peg.</p>","0","tol_quiz_feedback","","","","","","","","","","","","","","","","","","","","","","","","",""
"","","","","","html-button-response","308","1205087","0.0-4.0-1.0-1.0-3.0","57dd4c6f73e67300012b7ed6","A3","batch1","","3215.4000000059605","<p class = block-text>True or False: You should try to match your board with the target board with fewest moves possible. <br></p>","0","tol_quiz","true","","","","","","","","","","","","","","","","","","","","","","","",""
"","","","","","html-button-response","309","1205967","0.0-4.0-1.0-1.0-4.0","57dd4c6f73e67300012b7ed6","A3","batch1","","878.8000000119209","<p class = block-text>Correct! </p>","0","tol_quiz_feedback","","","","","","","","","","","","","","","","","","","","","","","","",""
"","","","","","html-button-response","310","1207861","0.0-4.0-2.0","57dd4c6f73e67300012b7ed6","A3","batch1","","1893","<p class=block-text> Now that you've understood the game, let's practice a few easier examples before we start!<br> <br>","0","","","","","","","","","","","","","","","","","","","","","","","","","",""
"","","","","","single-stim-button","311","1210724","0.0-4.0-3.0-0.0","57dd4c6f73e67300012b7ed6","A3","batch1","","2861","","","tol_practice","","","","","","","","","","","tol_peg_2","2861","2861","0","[[1,2,0],[0,0],[0]]","1","[[1,2,0],[0,0],[3]]","practice","2861","","","","","",""
"","","","","","single-stim-button","312","1211697","0.0-4.0-3.0-1.0","57dd4c6f73e67300012b7ed6","A3","batch1","","972","","","tol_practice","","","","","","","","","","","tol_peg_3","972","972","0","[[1,2,0],[0,0],[3]]","1","[[1,2,0],[0,0],[3]]","practice","972","","","","","",""
"","","","","","poldrack-single-stim","313","1212707","0.0-4.0-4.0","57dd4c6f73e67300012b7ed6","A3","batch1","","-1","","","tol_feedback","true","","","","","","","","","","","1000","1000","500","","","","","","-1","none","true","","0",""
"","","","","","single-stim-button","314","1215241","0.0-4.0-5.0-0.0","57dd4c6f73e67300012b7ed6","A3","batch1","","2534","","","tol_practice","","","","","","","","","","","tol_peg_1","2534","2534","0","[[1,0,0],[3,0],[0]]","2","[[0,0,0],[3,1],[2]]","practice","2534","","","","","",""
"","","","","","single-stim-button","315","1216177","0.0-4.0-5.0-1.0","57dd4c6f73e67300012b7ed6","A3","batch1","","936","","","tol_practice","","","","","","","","","","","tol_peg_3","936","936","0","[[1,0,0],[3,0],[2]]","2","[[0,0,0],[3,1],[2]]","practice","936","","","","","",""
"","","","","","single-stim-button","316","1217223","0.0-4.0-5.1-0.1","57dd4c6f73e67300012b7ed6","A3","batch1","","1045","","","tol_practice","","","","","","","","","","","tol_peg_1","1045","1045","0","[[0,0,0],[3,0],[2]]","3","[[0,0,0],[3,1],[2]]","practice","1045","","","","","",""
"","","","","","single-stim-button","317","1218063","0.0-4.0-5.1-1.1","57dd4c6f73e67300012b7ed6","A3","batch1","","839","","","tol_practice","","","","","","","","","","","tol_peg_2","839","839","0","[[0,0,0],[3,1],[2]]","3","[[0,0,0],[3,1],[2]]","practice","839","","","","","",""
"","","","","","poldrack-single-stim","318","1219076","0.0-4.0-6.0","57dd4c6f73e67300012b7ed6","A3","batch1","","-1","","","tol_feedback","true","","","","","","","","","","","1000","1000","500","","","","","","-1","none","true","","0",""
"","","","","","single-stim-button","319","1221741","0.0-4.0-7.0-0.0","57dd4c6f73e67300012b7ed6","A3","batch1","","2665","","","tol_practice","","","","","","","","","","","tol_peg_2","2665","2665","0","[[1,2,0],[0,0],[0]]","4","[[1,0,0],[2,0],[3]]","practice","2665","","","","","",""
"","","","","","single-stim-button","320","1222755","0.0-4.0-7.0-1.0","57dd4c6f73e67300012b7ed6","A3","batch1","","1014","","","tol_practice","","","","","","","","","","","tol_peg_3","1014","1014","0","[[1,2,0],[0,0],[3]]","4","[[1,0,0],[2,0],[3]]","practice","1014","","","","","",""
"","","","","","single-stim-button","321","1223447","0.0-4.0-7.1-0.1","57dd4c6f73e67300012b7ed6","A3","batch1","","692","","","tol_practice","","","","","","","","","","","tol_peg_1","692","692","0","[[1,0,0],[0,0],[3]]","5","[[1,0,0],[2,0],[3]]","practice","692","","","","","",""
"","","","","","single-stim-button","322","1224161","0.0-4.0-7.1-1.1","57dd4c6f73e67300012b7ed6","A3","batch1","","714","","","tol_practice","","","","","","","","","","","tol_peg_2","714","714","0","[[1,0,0],[2,0],[3]]","5","[[1,0,0],[2,0],[3]]","practice","714","","","","","",""
"","","","","","poldrack-single-stim","323","1225177","0.0-4.0-8.0","57dd4c6f73e67300012b7ed6","A3","batch1","","-1","","","tol_feedback","true","","","","","","","","","","","1000","1000","500","","","","","","-1","none","true","","0",""
"","","","","","html-button-response","324","1228209","0.0-4.0-9.0","57dd4c6f73e67300012b7ed6","A3","batch1","","3030.800000011921","<div class = centerbox><p class = center-block-text>Great job! You are done with practice trials<br>You are about to start official trials.<br> <br> Problem <strong>1</strong> out of 25 problems</p></div>","0","tol_instruction","","","","","","","","","","","","","","","","","","","","","","","","",""
"","","","","","single-stim-button","325","1234601","0.0-4.0-10.0-0.0","57dd4c6f73e67300012b7ed6","A3","batch1","","5379","","","tol_tohand","","","","","","","","","","","tol_peg_1","5379","5379","0","[[1,0,0],[3,0],[0]]","1","[[1,3,0],[2,0],[0]]","0","0","","","","","","3"
"","","","","","single-stim-button","326","1235999","0.0-4.0-10.0-1.0","57dd4c6f73e67300012b7ed6","A3","batch1","","1397","","","tol_toboard","","","","","","","","","","","tol_peg_3","1397","1397","0","[[1,0,0],[3,0],[2]]","1","[[1,3,0],[2,0],[0]]","0","0","","","","","","3"
"","","","","","single-stim-button","327","1236683","0.0-4.0-10.1-0.1","57dd4c6f73e67300012b7ed6","A3","batch1","","684","","","tol_tohand","","","","","","","","","","","tol_peg_2","684","684","0","[[1,0,0],[0,0],[2]]","2","[[1,3,0],[2,0],[0]]","0","0","","","","","","3"
"","","","","","single-stim-button","328","1237390","0.0-4.0-10.1-1.1","57dd4c6f73e67300012b7ed6","A3","batch1","","707","","","tol_toboard","","","","","","","","","","","tol_peg_1","707","707","0","[[1,3,0],[0,0],[2]]","2","[[1,3,0],[2,0],[0]]","0","0","","","","","","3"
"","","","","","single-stim-button","329","1238096","0.0-4.0-10.2-0.2","57dd4c6f73e67300012b7ed6","A3","batch1","","705","","","tol_tohand","","","","","","","","","","","tol_peg_3","705","705","0","[[1,3,0],[0,0],[0]]","3","[[1,3,0],[2,0],[0]]","0","0","","","","","","3"
"","","","","","single-stim-button","330","1238764","0.0-4.0-10.2-1.2","57dd4c6f73e67300012b7ed6","A3","batch1","","668","","","tol_toboard","","","","","","","","","","","tol_peg_2","668","668","0","[[1,3,0],[2,0],[0]]","3","[[1,3,0],[2,0],[0]]","0","0","","","","","","3"
"","","","","","poldrack-single-stim","331","1239770","0.0-4.0-11.0","57dd4c6f73e67300012b7ed6","A3","batch1","","-1","","","tol_feedback","true","","","","","","","","","","","1000","1000","500","","","","","","-1","none","true","5379","6768",""
"","","","","","html-button-response","332","1240895","0.0-4.0-12.0","57dd4c6f73e67300012b7ed6","A3","batch1","","1124","<div class = centerbox><p class = center-block-text>problem <strong>2</strong> out of 25 problems</p></div>","0","tol_trial_num","","","","","","","","","","","","","","","","","","","","","","","","",""
"","","","","","single-stim-button","333","1246177","0.0-4.0-13.0-0.0","57dd4c6f73e67300012b7ed6","A3","batch1","","5282","","","tol_tohand","","","","","","","","","","","tol_peg_1","5282","5282","0","[[1,0,0],[3,0],[0]]","1","[[2,1,3],[0,0],[0]]","1","0","","","","","","5"
"","","","","","single-stim-button","334","1246891","0.0-4.0-13.0-1.0","57dd4c6f73e67300012b7ed6","A3","batch1","","713","","","tol_toboard","","","","","","","","","","","tol_peg_3","713","713","0","[[1,0,0],[3,0],[2]]","1","[[2,1,3],[0,0],[0]]","1","0","","","","","","5"
"","","","","","single-stim-button","335","1247583","0.0-4.0-13.1-0.1","57dd4c6f73e67300012b7ed6","A3","batch1","","692","","","tol_tohand","","","","","","","","","","","tol_peg_1","692","692","0","[[0,0,0],[3,0],[2]]","2","[[2,1,3],[0,0],[0]]","1","0","","","","","","5"
"","","","","","single-stim-button","336","1248691","0.0-4.0-13.1-1.1","57dd4c6f73e67300012b7ed6","A3","batch1","","1108","","","tol_toboard","","","","","","","","","","","tol_peg_2","1108","1108","0","[[0,0,0],[3,1],[2]]","2","[[2,1,3],[0,0],[0]]","1","0","","","","","","5"
"","","","","","single-stim-button","337","1249326","0.0-4.0-13.2-0.2","57dd4c6f73e67300012b7ed6","A3","batch1","","635","","","tol_tohand","","","","","","","","","","","tol_peg_3","635","635","0","[[0,0,0],[3,1],[0]]","3","[[2,1,3],[0,0],[0]]","1","0","","","","","","5"
"","","","","","single-stim-button","338","1249964","0.0-4.0-13.2-1.2","57dd4c6f73e67300012b7ed6","A3","batch1","","637","","","tol_toboard","","","","","","","","","","","tol_peg_1","637","637","0","[[2,0,0],[3,1],[0]]","3","[[2,1,3],[0,0],[0]]","1","0","","","","","","5"
"","","","","","single-stim-button","339","1250552","0.0-4.0-13.3-0.3","57dd4c6f73e67300012b7ed6","A3","batch1","","587","","","tol_tohand","","","","","","","","","","","tol_peg_2","587","587","0","[[2,0,0],[3,0],[0]]","4","[[2,1,3],[0,0],[0]]","1","0","","","","","","5"
"","","","","","single-stim-button","340","1251105","0.0-4.0-13.3-1.3","57dd4c6f73e67300012b7ed6","A3","batch1","","552","","","tol_toboard","","","","","","","","","","","tol_peg_1","552","552","0","[[2,1,0],[3,0],[0]]","4","[[2,1,3],[0,0],[0]]","1","0","","","","","","5"
"","","","","","single-stim-button","341","1251639","0.0-4.0-13.4-0.4","57dd4c6f73e67300012b7ed6","A3","batch1","","534","","","tol_tohand","","","","","","","","","","","tol_peg_2","534","534","0","[[2,1,0],[0,0],[0]]","5","[[2,1,3],[0,0],[0]]","1","0","","","","","","5"
"","","","","","single-stim-button","342","1252181","0.0-4.0-13.4-1.4","57dd4c6f73e67300012b7ed6","A3","batch1","","541","","","tol_toboard","","","","","","","","","","","tol_peg_1","541","541","0","[[2,1,3],[0,0],[0]]","5","[[2,1,3],[0,0],[0]]","1","0","","","","","","5"
"","","","","","poldrack-single-stim","343","1253186","0.0-4.0-14.0","57dd4c6f73e67300012b7ed6","A3","batch1","","-1","","","tol_feedback","true","","","","","","","","","","","1000","1000","500","","","","","","-1","none","true","5282","7730",""
"","","","","","html-button-response","344","1254270","0.0-4.0-15.0","57dd4c6f73e67300012b7ed6","A3","batch1","","1083.7000000178814","<div class = centerbox><p class = center-block-text>problem <strong>3</strong> out of 25 problems</p></div>","0","tol_trial_num","","","","","","","","","","","","","","","","","","","","","","","","",""
"","","","","","single-stim-button","345","1258335","0.0-4.0-16.0-0.0","57dd4c6f73e67300012b7ed6","A3","batch1","","4064","","","tol_tohand","","","","","","","","","","","tol_peg_1","4064","4064","0","[[2,0,0],[0,0],[1]]","1","[[1,2,0],[3,0],[0]]","2","0","","","","","","4"
"","","","","","single-stim-button","346","1271537","0.0-4.0-16.0-1.0","57dd4c6f73e67300012b7ed6","A3","batch1","","13201","","","tol_toboard","","","","","","","","","","","tol_peg_1","13201","13201","0","[[2,3,0],[0,0],[1]]","1","[[1,2,0],[3,0],[0]]","2","0","","","","","","4"
"","","","","","single-stim-button","347","1272301","0.0-4.0-16.1-0.1","57dd4c6f73e67300012b7ed6","A3","batch1","","764","","","tol_tohand","","","","","","","","","","","tol_peg_3","764","764","0","[[2,3,0],[0,0],[0]]","2","[[1,2,0],[3,0],[0]]","2","0","","","","","","4"
