"success","timeout","failed_images","failed_audio","failed_video","trial_type","trial_index","time_elapsed","internal_node_id","subject_id","study_id","session_id","view_history","rt","stimulus","response","task","correct","answer","item","fiar_detect_rt","fiar_detect_correct","total_correct_fiar_detect","post_trial_gap","choices","spm_correct","spm_rt","mouse_click","stim_duration","block_duration","timing_post_trial","current_position","tol_num_moves_made","tol_target","tol_problem_id","tol_rt","key_press","possible_responses","tol_correct","preplanning","tol_rt_per_trial","tol_min_moves"
"true","false","[]","[]","[]","preload","0","3264","0.0-0.0","580777dd827ca10001db494b","E1","batch5","","","","","","","","","","","","","","","","","","","","","","","","","","","","","",""
"true","","","","","fullscreen","1","17478","0.0-1.0-0.0","580777dd827ca10001db494b","E1","batch5","","","","","","","","","","","","","","","","","","","","","","","","","","","","","",""
"true","","","","","fullscreen","2","22270","0.0-2.0-0.0","580777dd827ca10001db494b","E1","batch5","","","","","","","","","","","","","","","","","","","","","","","","","","","","","",""
"","","","","","instructions","3","41893","0.0-2.0-1.0-0.0","580777dd827ca10001db494b","E1","batch5","[{""page_index"":0,""viewing_time"":12426.299999998882},{""page_index"":1,""viewing_time"":7191.10000000149}]","19618.299999998882","","","","","","","","","","","","","","","","","","","","","","","","","","","",""
"","","","","","html-button-response","4","43487","0.0-2.0-1.0-1.0-0.0","580777dd827ca10001db494b","E1","batch5","","1590.5","<p class=block-text> Let's answer a few questions <br>","0","pattern_enter_quiz","","","","","","","","","","","","","","","","","","","","","","","","",""
"","","","","","html-button-response","5","47356","0.0-2.0-1.0-1.0-1.0","580777dd827ca10001db494b","E1","batch5","","3866","<p class = block-text>True or False: You will have as much time as you want to make each choice. <br></p>","0","pattern_quiz","false","","","","","","","","","","","","","","","","","","","","","","","",""
"","","","","","html-button-response","6","49203","0.0-2.0-1.0-1.0-2.0","580777dd827ca10001db494b","E1","batch5","","1842.5999999996275","<p class = block-text>Incorrect. Remember, You should make your choice as fast as you can.</p>","0","pattern_quiz_feedback","","","","","","","","","","","","","","","","","","","","","","","","",""
"","","","","","html-button-response","7","52614","0.0-2.0-1.0-1.0-3.0","580777dd827ca10001db494b","E1","batch5","","3406.300000000745","<p class = block-text>True or False: You will look for 4 pieces in black or white color connected in a row either horizontally, vertically or diagonally. <br></p>","0","pattern_quiz","true","","","","","","","","","","","","","","","","","","","","","","","",""
"","","","","","html-button-response","8","53581","0.0-2.0-1.0-1.0-4.0","580777dd827ca10001db494b","E1","batch5","","963.4000000003725","<p class = block-text>Correct! </p>","0","pattern_quiz_feedback","","","","","","","","","","","","","","","","","","","","","","","","",""
"","","","","","html-button-response","9","55504","0.0-2.0-1.0-2.0-0.0","580777dd827ca10001db494b","E1","batch5","","1917.800000000745","<p class = block-text>You made too many incorrect choices.</p><p class = block-text>You will now repeat the instruction and quiz</p>","0","","","","","","","","","","","","","","","","","","","","","","","","","",""
"","","","","","instructions","10","60873","0.0-2.0-1.1-0.1","580777dd827ca10001db494b","E1","batch5","[{""page_index"":0,""viewing_time"":3955.699999999255},{""page_index"":1,""viewing_time"":1409.5}]","5365.799999998882","","","","","","","","","","","","","","","","","","","","","","","","","","","",""
"","","","","","html-button-response","11","63601","0.0-2.0-1.1-1.1-0.1","580777dd827ca10001db494b","E1","batch5","","2724.199999999255","<p class=block-text> Let's answer a few questions <br>","0","pattern_enter_quiz","","","","","","","","","","","","","","","","","","","","","","","","",""
"","","","","","html-button-response","12","65338","0.0-2.0-1.1-1.1-1.1","580777dd827ca10001db494b","E1","batch5","","1733.6000000014901","<p class = block-text>True or False: You will have as much time as you want to make each choice. <br></p>","1","pattern_quiz","true","","","","","","","","","","","","","","","","","","","","","","","",""
"","","","","","html-button-response","13","66779","0.0-2.0-1.1-1.1-2.1","580777dd827ca10001db494b","E1","batch5","","1433.3999999985099","<p class = block-text>Correct! You should make your choice <strong> as fast as you can</strong>.</p>","0","pattern_quiz_feedback","","","","","","","","","","","","","","","","","","","","","","","","",""
"","","","","","html-button-response","14","68281","0.0-2.0-1.1-1.1-3.1","580777dd827ca10001db494b","E1","batch5","","1500.4000000003725","<p class = block-text>True or False: You will look for 4 pieces in black or white color connected in a row either horizontally, vertically or diagonally. <br></p>","0","pattern_quiz","true","","","","","","","","","","","","","","","","","","","","","","","",""
"","","","","","html-button-response","15","69032","0.0-2.0-1.1-1.1-4.1","580777dd827ca10001db494b","E1","batch5","","749.5","<p class = block-text>Correct! </p>","0","pattern_quiz_feedback","","","","","","","","","","","","","","","","","","","","","","","","",""
"","","","","","html-button-response","16","72680","0.0-2.0-2.0","580777dd827ca10001db494b","E1","batch5","","3644.5","<p class=block-text> Now that you've understood the game, let's do a few practice trials before we start!<br> <br>","0","pattern_enter_practice","","","","","","","","","","","","","","","","","","","","","","","","",""
"","","","","","image-keyboard-response","17","75019","0.0-2.0-3.0-0.0","580777dd827ca10001db494b","E1","batch5","","2308","stim/prac_no_16_1.png","j","pattern_practice","true","j","","","","","","","","","","","","","","","","","","","","","","",""
"","","","","","html-keyboard-response","18","76022","0.0-2.0-3.0-1.0","580777dd827ca10001db494b","E1","batch5","","null","<p style=""font-size:30px;color:green;"">Correct!</p>","null","pattern_feedback","","","","","","","","","","","","","","","","","","","","","","","","",""
"","","","","","image-keyboard-response","19","76950","0.0-2.0-3.0-0.1","580777dd827ca10001db494b","E1","batch5","","923.3000000007451","stim/prac_yes_16_ver_w1.png","f","pattern_practice","true","f","","","","","","","","","","","","","","","","","","","","","","",""
"","","","","","html-keyboard-response","20","77951","0.0-2.0-3.0-1.1","580777dd827ca10001db494b","E1","batch5","","null","<p style=""font-size:30px;color:green;"">Correct!</p>","null","pattern_feedback","","","","","","","","","","","","","","","","","","","","","","","","",""
"","","","","","image-keyboard-response","21","79041","0.0-2.0-3.0-0.2","580777dd827ca10001db494b","E1","batch5","","1087","stim/prac_yes_20_dia_b1.png","f","pattern_practice","true","f","","","","","","","","","","","","","","","","","","","","","","",""
"","","","","","html-keyboard-response","22","80044","0.0-2.0-3.0-1.2","580777dd827ca10001db494b","E1","batch5","","null","<p style=""font-size:30px;color:green;"">Correct!</p>","null","pattern_feedback","","","","","","","","","","","","","","","","","","","","","","","","",""
"","","","","","image-keyboard-response","23","81264","0.0-2.0-3.0-0.3","580777dd827ca10001db494b","E1","batch5","","1215.800000000745","stim/prac_no_18_1.png","j","pattern_practice","true","j","","","","","","","","","","","","","","","","","","","","","","",""
"","","","","","html-keyboard-response","24","82266","0.0-2.0-3.0-1.3","580777dd827ca10001db494b","E1","batch5","","null","<p style=""font-size:30px;color:green;"">Correct!</p>","null","pattern_feedback","","","","","","","","","","","","","","","","","","","","","","","","",""
"","","","","","image-keyboard-response","25","83060","0.0-2.0-3.0-0.4","580777dd827ca10001db494b","E1","batch5","","788.7999999988824","stim/prac_yes_18_hor_w1.png","f","pattern_practice","true","f","","","","","","","","","","","","","","","","","","","","","","",""
"","","","","","html-keyboard-response","26","84063","0.0-2.0-3.0-1.4","580777dd827ca10001db494b","E1","batch5","","null","<p style=""font-size:30px;color:green;"">Correct!</p>","null","pattern_feedback","","","","","","","","","","","","","","","","","","","","","","","","",""
"","","","","","html-button-response","27","88946","0.0-2.0-4.0","580777dd827ca10001db494b","E1","batch5","","4880.10000000149","<p class=block-text> Good job! You are done with practice trials!<br>
        You responded correctly on 100% of the trials.<br>
        Press the button below to start official trials. Now you won't see any feedback about your response</p>","0","pattern_enter_official_trials","","","","","","","","","","","","","","","","","","","","","","","","",""
"","","","","","html-keyboard-response","28","89749","0.0-2.0-5.0-0.0","580777dd827ca10001db494b","E1","batch5","","null","<p class=block-text>Trial 1 out of 78</p>","null","pattern_show_trial_num","","","","","","","","","","","","","","","","","","","","","","","","",""
"","","","","","image-keyboard-response","29","92121","0.0-2.0-5.0-1.0","580777dd827ca10001db494b","E1","batch5","","2365.0999999996275","stim/yes_26_dia_w2_w.png","f","pattern_response","true","f","pattern_50","2365.0999999996275","true","1","","","","","","","","","","","","","","","","","","",""
"","","","","","html-keyboard-response","30","93423","0.0-2.0-5.0-0.1","580777dd827ca10001db494b","E1","batch5","","null","<p class=block-text>Trial 2 out of 78</p>","null","pattern_show_trial_num","","","","","","","","","","","","","","","","","","","","","","","","",""
"","","","","","image-keyboard-response","31","96190","0.0-2.0-5.0-1.1","580777dd827ca10001db494b","E1","batch5","","2764.5999999996275","stim/no_28_2.png","j","pattern_response","true","j","pattern_11","2764.5999999996275","true","2","","","","","","","","","","","","","","","","","","",""
"","","","","","html-keyboard-response","32","97492","0.0-2.0-5.0-0.2","580777dd827ca10001db494b","E1","batch5","","null","<p class=block-text>Trial 3 out of 78</p>","null","pattern_show_trial_num","","","","","","","","","","","","","","","","","","","","","","","","",""
"","","","","","image-keyboard-response","33","99382","0.0-2.0-5.0-1.2","580777dd827ca10001db494b","E1","batch5","","1885.8999999985099","stim/yes_49_hor_w1_b.png","f","pattern_response","true","f","pattern_70","1885.8999999985099","true","3","","","","","","","","","","","","","","","","","","",""
"","","","","","html-keyboard-response","34","100685","0.0-2.0-5.0-0.3","580777dd827ca10001db494b","E1","batch5","","null","<p class=block-text>Trial 4 out of 78</p>","null","pattern_show_trial_num","","","","","","","","","","","","","","","","","","","","","","","","",""
"","","","","","image-keyboard-response","35","105489","0.0-2.0-5.0-1.3","580777dd827ca10001db494b","E1","batch5","","4797.4000000003725","stim/no_45_1_w.png","j","pattern_response","true","j","pattern_25","4797.4000000003725","true","4","","","","","","","","","","","","","","","","","","",""
"","","","","","html-keyboard-response","36","106791","0.0-2.0-5.0-0.4","580777dd827ca10001db494b","E1","batch5","","null","<p class=block-text>Trial 5 out of 78</p>","null","pattern_show_trial_num","","","","","","","","","","","","","","","","","","","","","","","","",""
"","","","","","image-keyboard-response","37","107825","0.0-2.0-5.0-1.4","580777dd827ca10001db494b","E1","batch5","","1031.4000000003725","stim/yes_44_ver_w1_w.png","f","pattern_response","true","f","pattern_66","1031.4000000003725","true","5","","","","","","","","","","","","","","","","","","",""
"","","","","","html-keyboard-response","38","109128","0.0-2.0-5.0-0.5","580777dd827ca10001db494b","E1","batch5","","null","<p class=block-text>Trial 6 out of 78</p>","null","pattern_show_trial_num","","","","","","","","","","","","","","","","","","","","","","","","",""
"","","","","","image-keyboard-response","39","113008","0.0-2.0-5.0-1.5","580777dd827ca10001db494b","E1","batch5","","3876.5999999996275","stim/yes_42_dia_w1_w.png","j","pattern_response","false","f","pattern_64","3876.5999999996275","false","5","","","","","","","","","","","","","","","","","","",""
"","","","","","html-keyboard-response","40","114310","0.0-2.0-5.0-0.6","580777dd827ca10001db494b","E1","batch5","","null","<p class=block-text>Trial 7 out of 78</p>","null","pattern_show_trial_num","","","","","","","","","","","","","","","","","","","","","","","","",""
"","","","","","image-keyboard-response","41","119582","0.0-2.0-5.0-1.6","580777dd827ca10001db494b","E1","batch5","","5258.300000000745","stim/no_43_2_b.png","j","pattern_response","true","j","pattern_23","5258.300000000745","true","6","","","","","","","","","","","","","","","","","","",""
"","","","","","html-keyboard-response","42","120885","0.0-2.0-5.0-0.7","580777dd827ca10001db494b","E1","batch5","","null","<p class=block-text>Trial 8 out of 78</p>","null","pattern_show_trial_num","","","","","","","","","","","","","","","","","","","","","","","","",""
"","","","","","image-keyboard-response","43","127871","0.0-2.0-5.0-1.7","580777dd827ca10001db494b","E1","batch5","","6982.9000000003725","stim/no_53_1_b.png","j","pattern_response","true","j","pattern_33","6982.9000000003725","true","7","","","","","","","","","","","","","","","","","","",""
"","","","","","html-keyboard-response","44","129173","0.0-2.0-5.0-0.8","580777dd827ca10001db494b","E1","batch5","","null","<p class=block-text>Trial 9 out of 78</p>","null","pattern_show_trial_num","","","","","","","","","","","","","","","","","","","","","","","","",""
"","","","","","image-keyboard-response","45","130026","0.0-2.0-5.0-1.8","580777dd827ca10001db494b","E1","batch5","","848.4000000003725","stim/yes_30_ver_b1_b.png","f","pattern_response","true","f","pattern_54","848.4000000003725","true","8","","","","","","","","","","","","","","","","","","",""
"","","","","","html-keyboard-response","46","131328","0.0-2.0-5.0-0.9","580777dd827ca10001db494b","E1","batch5","","null","<p class=block-text>Trial 10 out of 78</p>","null","pattern_show_trial_num","","","","","","","","","","","","","","","","","","","","","","","","",""
"","","","","","image-keyboard-response","47","134205","0.0-2.0-5.0-1.9","580777dd827ca10001db494b","E1","batch5","","2874.5","stim/no_36_1_b.png","j","pattern_response","true","j","pattern_17","2874.5","true","9","","","","","","","","","","","","","","","","","","",""
"","","","","","html-keyboard-response","48","135507","0.0-2.0-5.0-0.10","580777dd827ca10001db494b","E1","batch5","","null","<p class=block-text>Trial 11 out of 78</p>","null","pattern_show_trial_num","","","","","","","","","","","","","","","","","","","","","","","","",""
"","","","","","image-keyboard-response","49","138825","0.0-2.0-5.0-1.10","580777dd827ca10001db494b","E1","batch5","","3313.9000000003725","stim/yes_33_dia_w1_w.png","j","pattern_response","false","f","pattern_56","3313.9000000003725","false","9","","","","","","","","","","","","","","","","","","",""
"","","","","","html-keyboard-response","50","140127","0.0-2.0-5.0-0.11","580777dd827ca10001db494b","E1","batch5","","null","<p class=block-text>Trial 12 out of 78</p>","null","pattern_show_trial_num","","","","","","","","","","","","","","","","","","","","","","","","",""
"","","","","","image-keyboard-response","51","141205","0.0-2.0-5.0-1.11","580777dd827ca10001db494b","E1","batch5","","1073.800000000745","stim/no_15_1_w.png","j","pattern_response","true","j","pattern_03","1073.800000000745","true","10","","","","","","","","","","","","","","","","","","",""
"","","","","","html-keyboard-response","52","142506","0.0-2.0-5.0-0.12","580777dd827ca10001db494b","E1","batch5","","null","<p class=block-text>Trial 13 out of 78</p>","null","pattern_show_trial_num","","","","","","","","","","","","","","","","","","","","","","","","",""
"","","","","","image-keyboard-response","53","143321","0.0-2.0-5.0-1.12","580777dd827ca10001db494b","E1","batch5","","810.7999999988824","stim/yes_23_ver_b1.png","f","pattern_response","true","f","pattern_48","810.7999999988824","true","11","","","","","","","","","","","","","","","","","","",""
"","","","","","html-keyboard-response","54","144623","0.0-2.0-5.0-0.13","580777dd827ca10001db494b","E1","batch5","","null","<p class=block-text>Trial 14 out of 78</p>","null","pattern_show_trial_num","","","","","","","","","","","","","","","","","","","","","","","","",""
"","","","","","image-keyboard-response","55","150458","0.0-2.0-5.0-1.13","580777dd827ca10001db494b","E1","batch5","","5831.800000000745","stim/no_51_1.png","j","pattern_response","true","j","pattern_31","5831.800000000745","true","12","","","","","","","","","","","","","","","","","","",""
"","","","","","html-keyboard-response","56","151760","0.0-2.0-5.0-0.14","580777dd827ca10001db494b","E1","batch5","","null","<p class=block-text>Trial 15 out of 78</p>","null","pattern_show_trial_num","","","","","","","","","","","","","","","","","","","","","","","","",""
"","","","","","image-keyboard-response","57","161956","0.0-2.0-5.0-1.14","580777dd827ca10001db494b","E1","batch5","","10192","stim/yes_63_dia_b1.png","j","pattern_response","false","f","pattern_78","10192","false","12","","","","","","","","","","","","","","","","","","",""
"","","","","","html-keyboard-response","58","163258","0.0-2.0-5.0-0.15","580777dd827ca10001db494b","E1","batch5","","null","<p class=block-text>Trial 16 out of 78</p>","null","pattern_show_trial_num","","","","","","","","","","","","","","","","","","","","","","","","",""
"","","","","","image-keyboard-response","59","166401","0.0-2.0-5.0-1.15","580777dd827ca10001db494b","E1","batch5","","3139.5","stim/no_30_1_b.png","j","pattern_response","true","j","pattern_13","3139.5","true","13","","","","","","","","","","","","","","","","","","",""
"","","","","","html-keyboard-response","60","167703","0.0-2.0-5.0-0.16","580777dd827ca10001db494b","E1","batch5","","null","<p class=block-text>Trial 17 out of 78</p>","null","pattern_show_trial_num","","","","","","","","","","","","","","","","","","","","","","","","",""
"","","","","","image-keyboard-response","61","175414","0.0-2.0-5.0-1.16","580777dd827ca10001db494b","E1","batch5","","7707.5999999996275","stim/yes_58_dia_w1_w.png","j","pattern_response","false","f","pattern_76","7707.5999999996275","false","13","","","","","","","","","","","","","","","","","","",""
"","","","","","html-keyboard-response","62","176716","0.0-2.0-5.0-0.17","580777dd827ca10001db494b","E1","batch5","","null","<p class=block-text>Trial 18 out of 78</p>","null","pattern_show_trial_num","","","","","","","","","","","","","","","","","","","","","","","","",""
"","","","","","image-keyboard-response","63","177482","0.0-2.0-5.0-1.17","580777dd827ca10001db494b","E1","batch5","","761.8999999985099","stim/yes_17_ver_b1_b.png","f","pattern_response","true","f","pattern_46","761.8999999985099","true","14","","","","","","","","","","","","","","","","","","",""
"","","","","","html-keyboard-response","64","178783","0.0-2.0-5.0-0.18","580777dd827ca10001db494b","E1","batch5","","null","<p class=block-text>Trial 19 out of 78</p>","null","pattern_show_trial_num","","","","","","","","","","","","","","","","","","","","","","","","",""
"","","","","","image-keyboard-response","65","179955","0.0-2.0-5.0-1.18","580777dd827ca10001db494b","E1","batch5","","1168.4000000003725","stim/yes_46_ver_b1_b.png","f","pattern_response","true","f","pattern_68","1168.4000000003725","true","15","","","","","","","","","","","","","","","","","","",""
"","","","","","html-keyboard-response","66","181257","0.0-2.0-5.0-0.19","580777dd827ca10001db494b","E1","batch5","","null","<p class=block-text>Trial 20 out of 78</p>","null","pattern_show_trial_num","","","","","","","","","","","","","","","","","","","","","","","","",""
"","","","","","image-keyboard-response","67","182029","0.0-2.0-5.0-1.19","580777dd827ca10001db494b","E1","batch5","","769","stim/yes_37_hor_w1_w.png","f","pattern_response","true","f","pattern_60","769","true","16","","","","","","","","","","","","","","","","","","",""
"","","","","","html-keyboard-response","68","183330","0.0-2.0-5.0-0.20","580777dd827ca10001db494b","E1","batch5","","null","<p class=block-text>Trial 21 out of 78</p>","null","pattern_show_trial_num","","","","","","","","","","","","","","","","","","","","","","","","",""
"","","","","","image-keyboard-response","69","191750","0.0-2.0-5.0-1.20","580777dd827ca10001db494b","E1","batch5","","8414.099999999627","stim/no_67_1.png","j","pattern_response","true","j","pattern_39","8414.099999999627","true","17","","","","","","","","","","","","","","","","","","",""
"","","","","","html-keyboard-response","70","193052","0.0-2.0-5.0-0.21","580777dd827ca10001db494b","E1","batch5","","null","<p class=block-text>Trial 22 out of 78</p>","null","pattern_show_trial_num","","","","","","","","","","","","","","","","","","","","","","","","",""
"","","","","","image-keyboard-response","71","194268","0.0-2.0-5.0-1.21","580777dd827ca10001db494b","E1","batch5","","1211.5999999996275","stim/yes_12_hor_w1_w.png","f","pattern_response","true","f","pattern_42","1211.5999999996275","true","18","","","","","","","","","","","","","","","","","","",""
"","","","","","html-keyboard-response","72","195570","0.0-2.0-5.0-0.22","580777dd827ca10001db494b","E1","batch5","","null","<p class=block-text>Trial 23 out of 78</p>","null","pattern_show_trial_num","","","","","","","","","","","","","","","","","","","","","","","","",""
"","","","","","image-keyboard-response","73","196401","0.0-2.0-5.0-1.22","580777dd827ca10001db494b","E1","batch5","","783.8000000007451","stim/yes_15_dia_b1u_b.png","f","pattern_response","true","f","pattern_44","783.8000000007451","true","19","","","","","","","","","","","","","","","","","","",""
"","","","","","html-keyboard-response","74","197704","0.0-2.0-5.0-0.23","580777dd827ca10001db494b","E1","batch5","","null","<p class=block-text>Trial 24 out of 78</p>","null","pattern_show_trial_num","","","","","","","","","","","","","","","","","","","","","","","","",""
"","","","","","image-keyboard-response","75","203275","0.0-2.0-5.0-1.23","580777dd827ca10001db494b","E1","batch5","","5567","stim/yes_51_dia_b1.png","j","pattern_response","false","f","pattern_72","5567","false","19","","","","","","","","","","","","","","","","","","",""
"","","","","","html-keyboard-response","76","204576","0.0-2.0-5.0-0.24","580777dd827ca10001db494b","E1","batch5","","null","<p class=block-text>Trial 25 out of 78</p>","null","pattern_show_trial_num","","","","","","","","","","","","","","","","","","","","","","","","",""
"","","","","","image-keyboard-response","77","208494","0.0-2.0-5.0-1.24","580777dd827ca10001db494b","E1","batch5","","3914.199999999255","stim/no_37_2_w.png","j","pattern_response","true","j","pattern_19","3914.199999999255","true","20","","","","","","","","","","","","","","","","","","",""
"","","","","","html-keyboard-response","78","209796","0.0-2.0-5.0-0.25","580777dd827ca10001db494b","E1","batch5","","null","<p class=block-text>Trial 26 out of 78</p>","null","pattern_show_trial_num","","","","","","","","","","","","","","","","","","","","","","","","",""
"","","","","","image-keyboard-response","79","210496","0.0-2.0-5.0-1.25","580777dd827ca10001db494b","E1","batch5","","696.3000000007451","stim/yes_29_hor_b1_b.png","f","pattern_response","true","f","pattern_52","696.3000000007451","true","21","","","","","","","","","","","","","","","","","","",""
"","","","","","html-keyboard-response","80","211798","0.0-2.0-5.0-0.26","580777dd827ca10001db494b","E1","batch5","","null","<p class=block-text>Trial 27 out of 78</p>","null","pattern_show_trial_num","","","","","","","","","","","","","","","","","","","","","","","","",""
"","","","","","image-keyboard-response","81","216439","0.0-2.0-5.0-1.26","580777dd827ca10001db494b","E1","batch5","","4637.200000001118","stim/no_47_1_b.png","j","pattern_response","true","j","pattern_27","4637.200000001118","true","22","","","","","","","","","","","","","","","","","","",""
"","","","","","html-keyboard-response","82","217741","0.0-2.0-5.0-0.27","580777dd827ca10001db494b","E1","batch5","","null","<p class=block-text>Trial 28 out of 78</p>","null","pattern_show_trial_num","","","","","","","","","","","","","","","","","","","","","","","","",""
"","","","","","image-keyboard-response","83","220290","0.0-2.0-5.0-1.27","580777dd827ca10001db494b","E1","batch5","","2545.5","stim/no_33_1_b.png","j","pattern_response","true","j","pattern_15","2545.5","true","23","","","","","","","","","","","","","","","","","","",""
"","","","","","html-keyboard-response","84","221592","0.0-2.0-5.0-0.28","580777dd827ca10001db494b","E1","batch5","","null","<p class=block-text>Trial 29 out of 78</p>","null","pattern_show_trial_num","","","","","","","","","","","","","","","","","","","","","","","","",""
"","","","","","image-keyboard-response","85","223372","0.0-2.0-5.0-1.28","580777dd827ca10001db494b","E1","batch5","","1775.2000000011176","stim/no_18_1_b.png","j","pattern_response","true","j","pattern_05","1775.2000000011176","true","24","","","","","","","","","","","","","","","","","","",""
"","","","","","html-keyboard-response","86","224674","0.0-2.0-5.0-0.29","580777dd827ca10001db494b","E1","batch5","","null","<p class=block-text>Trial 30 out of 78</p>","null","pattern_show_trial_num","","","","","","","","","","","","","","","","","","","","","","","","",""
"","","","","","image-keyboard-response","87","226851","0.0-2.0-5.0-1.29","580777dd827ca10001db494b","E1","batch5","","2173.0999999996275","stim/no_25_1_b.png","j","pattern_response","true","j","pattern_09","2173.0999999996275","true","25","","","","","","","","","","","","","","","","","","",""
"","","","","","html-keyboard-response","88","228154","0.0-2.0-5.0-0.30","580777dd827ca10001db494b","E1","batch5","","null","<p class=block-text>Trial 31 out of 78</p>","null","pattern_show_trial_num","","","","","","","","","","","","","","","","","","","","","","","","",""
"","","","","","image-keyboard-response","89","231969","0.0-2.0-5.0-1.30","580777dd827ca10001db494b","E1","batch5","","3811.89999999851","stim/no_39_1_w.png","j","pattern_response","true","j","pattern_21","3811.89999999851","true","26","","","","","","","","","","","","","","","","","","",""
"","","","","","html-keyboard-response","90","233271","0.0-2.0-5.0-0.31","580777dd827ca10001db494b","E1","batch5","","null","<p class=block-text>Trial 32 out of 78</p>","null","pattern_show_trial_num","","","","","","","","","","","","","","","","","","","","","","","","",""
"","","","","","image-keyboard-response","91","234081","0.0-2.0-5.0-1.31","580777dd827ca10001db494b","E1","batch5","","806.6999999992549","stim/no_12_1.png","j","pattern_response","true","j","pattern_01","806.6999999992549","true","27","","","","","","","","","","","","","","","","","","",""
"","","","","","html-keyboard-response","92","235382","0.0-2.0-5.0-0.32","580777dd827ca10001db494b","E1","batch5","","null","<p class=block-text>Trial 33 out of 78</p>","null","pattern_show_trial_num","","","","","","","","","","","","","","","","","","","","","","","","",""
"","","","","","image-keyboard-response","93","237085","0.0-2.0-5.0-1.32","580777dd827ca10001db494b","E1","batch5","","1699.7999999988824","stim/no_22_1_b.png","j","pattern_response","true","j","pattern_07","1699.7999999988824","true","28","","","","","","","","","","","","","","","","","","",""
"","","","","","html-keyboard-response","94","238386","0.0-2.0-5.0-0.33","580777dd827ca10001db494b","E1","batch5","","null","<p class=block-text>Trial 34 out of 78</p>","null","pattern_show_trial_num","","","","","","","","","","","","","","","","","","","","","","","","",""
"","","","","","image-keyboard-response","95","241121","0.0-2.0-5.0-1.33","580777dd827ca10001db494b","E1","batch5","","2731.2000000011176","stim/yes_70_ver_b1.png","f","pattern_response","true","f","pattern_80","2731.2000000011176","true","29","","","","","","","","","","","","","","","","","","",""
"","","","","","html-keyboard-response","96","242422","0.0-2.0-5.0-0.34","580777dd827ca10001db494b","E1","batch5","","null","<p class=block-text>Trial 35 out of 78</p>","null","pattern_show_trial_num","","","","","","","","","","","","","","","","","","","","","","","","",""
"","","","","","image-keyboard-response","97","243274","0.0-2.0-5.0-1.34","580777dd827ca10001db494b","E1","batch5","","847.9000000003725","stim/yes_36_ver_w1_w.png","f","pattern_response","true","f","pattern_58","847.9000000003725","true","30","","","","","","","","","","","","","","","","","","",""
"","","","","","html-keyboard-response","98","244576","0.0-2.0-5.0-0.35","580777dd827ca10001db494b","E1","batch5","","null","<p class=block-text>Trial 36 out of 78</p>","null","pattern_show_trial_num","","","","","","","","","","","","","","","","","","","","","","","","",""
"","","","","","image-keyboard-response","99","250809","0.0-2.0-5.0-1.35","580777dd827ca10001db494b","E1","batch5","","6229.60000000149","stim/no_58_1_w.png","j","pattern_response","true","j","pattern_35","6229.60000000149","true","31","","","","","","","","","","","","","","","","","","",""
"","","","","","html-keyboard-response","100","252111","0.0-2.0-5.0-0.36","580777dd827ca10001db494b","E1","batch5","","null","<p class=block-text>Trial 37 out of 78</p>","null","pattern_show_trial_num","","","","","","","","","","","","","","","","","","","","","","","","",""
"","","","","","image-keyboard-response","101","253893","0.0-2.0-5.0-1.36","580777dd827ca10001db494b","E1","batch5","","1778.3999999985099","stim/yes_53_ver_b1_b.png","f","pattern_response","true","f","pattern_74","1778.3999999985099","true","32","","","","","","","","","","","","","","","","","","",""
"","","","","","html-keyboard-response","102","255195","0.0-2.0-5.0-0.37","580777dd827ca10001db494b","E1","batch5","","null","<p class=block-text>Trial 38 out of 78</p>","null","pattern_show_trial_num","","","","","","","","","","","","","","","","","","","","","","","","",""
"","","","","","image-keyboard-response","103","256366","0.0-2.0-5.0-1.37","580777dd827ca10001db494b","E1","batch5","","1167.4000000003725","stim/yes_39_hor_w1_w.png","f","pattern_response","true","f","pattern_62","1167.4000000003725","true","33","","","","","","","","","","","","","","","","","","",""
"","","","","","html-keyboard-response","104","257669","0.0-2.0-5.0-0.38","580777dd827ca10001db494b","E1","batch5","","null","<p class=block-text>Trial 39 out of 78</p>","null","pattern_show_trial_num","","","","","","","","","","","","","","","","","","","","","","","","",""
"","","","","","image-keyboard-response","105","261527","0.0-2.0-5.0-1.38","580777dd827ca10001db494b","E1","batch5","","3854.4000000003725","stim/no_49_2_b.png","j","pattern_response","true","j","pattern_29","3854.4000000003725","true","34","","","","","","","","","","","","","","","","","","",""
"","","","","","image-keyboard-response","106","264242","0.0-2.0-6.0","580777dd827ca10001db494b","E1","batch5","","2213.2000000011176","stim/empty_board.png","j","attention_check","true","j","","","","","500","[""f"",""j""]","","","","","","","","","","","","","","","","",""
"","","","","","html-keyboard-response","107","265044","0.0-2.0-7.0-0.0","580777dd827ca10001db494b","E1","batch5","","null","<p class=block-text>Trial 40 out of 78</p>","null","pattern_show_trial_num","","","","","","","","","","","","","","","","","","","","","","","","",""
"","","","","","image-keyboard-response","108","271451","0.0-2.0-7.0-1.0","580777dd827ca10001db494b","E1","batch5","","6403","stim/no_70_2.png","j","pattern_response","true","j","pattern_40","6403","true","35","","","","","","","","","","","","","","","","","","",""
"","","","","","html-keyboard-response","109","272752","0.0-2.0-7.0-0.1","580777dd827ca10001db494b","E1","batch5","","null","<p class=block-text>Trial 41 out of 78</p>","null","pattern_show_trial_num","","","","","","","","","","","","","","","","","","","","","","","","",""
"","","","","","image-keyboard-response","110","274032","0.0-2.0-7.0-1.1","580777dd827ca10001db494b","E1","batch5","","1275.7999999988824","stim/no_29_1_b.png","j","pattern_response","true","j","pattern_12","1275.7999999988824","true","36","","","","","","","","","","","","","","","","","","",""
"","","","","","html-keyboard-response","111","275333","0.0-2.0-7.0-0.2","580777dd827ca10001db494b","E1","batch5","","null","<p class=block-text>Trial 42 out of 78</p>","null","pattern_show_trial_num","","","","","","","","","","","","","","","","","","","","","","","","",""
"","","","","","image-keyboard-response","112","276455","0.0-2.0-7.0-1.2","580777dd827ca10001db494b","E1","batch5","","1118.300000000745","stim/yes_17_dia_w1.png","f","pattern_response","true","f","pattern_45","1118.300000000745","true","37","","","","","","","","","","","","","","","","","","",""
"","","","","","html-keyboard-response","113","277756","0.0-2.0-7.0-0.3","580777dd827ca10001db494b","E1","batch5","","null","<p class=block-text>Trial 43 out of 78</p>","null","pattern_show_trial_num","","","","","","","","","","","","","","","","","","","","","","","","",""
"","","","","","image-keyboard-response","114","278533","0.0-2.0-7.0-1.3","580777dd827ca10001db494b","E1","batch5","","774.1000000014901","stim/yes_22_ver_w1.png","f","pattern_response","true","f","pattern_47","774.1000000014901","true","38","","","","","","","","","","","","","","","","","","",""
"","","","","","html-keyboard-response","115","279834","0.0-2.0-7.0-0.4","580777dd827ca10001db494b","E1","batch5","","null","<p class=block-text>Trial 44 out of 78</p>","null","pattern_show_trial_num","","","","","","","","","","","","","","","","","","","","","","","","",""
"","","","","","image-keyboard-response","116","281076","0.0-2.0-7.0-1.4","580777dd827ca10001db494b","E1","batch5","","1237.8999999985099","stim/yes_45_hor_b2_b.png","f","pattern_response","true","f","pattern_67","1237.8999999985099","true","39","","","","","","","","","","","","","","","","","","",""
"","","","","","html-keyboard-response","117","282377","0.0-2.0-7.0-0.5","580777dd827ca10001db494b","E1","batch5","","null","<p class=block-text>Trial 45 out of 78</p>","null","pattern_show_trial_num","","","","","","","","","","","","","","","","","","","","","","","","",""
"","","","","","image-keyboard-response","118","284418","0.0-2.0-7.0-1.5","580777dd827ca10001db494b","E1","batch5","","2038.0999999996275","stim/no_32_1_w.png","j","pattern_response","true","j","pattern_14","2038.0999999996275","true","40","","","","","","","","","","","","","","","","","","",""
"","","","","","html-keyboard-response","119","285720","0.0-2.0-7.0-0.6","580777dd827ca10001db494b","E1","batch5","","null","<p class=block-text>Trial 46 out of 78</p>","null","pattern_show_trial_num","","","","","","","","","","","","","","","","","","","","","","","","",""
"","","","","","image-keyboard-response","120","286887","0.0-2.0-7.0-1.6","580777dd827ca10001db494b","E1","batch5","","1163.5","stim/yes_38_hor_b1_b.png","f","pattern_response","true","f","pattern_61","1163.5","true","41","","","","","","","","","","","","","","","","","","",""
"","","","","","html-keyboard-response","121","288189","0.0-2.0-7.0-0.7","580777dd827ca10001db494b","E1","batch5","","null","<p class=block-text>Trial 47 out of 78</p>","null","pattern_show_trial_num","","","","","","","","","","","","","","","","","","","","","","","","",""
"","","","","","image-keyboard-response","122","289016","0.0-2.0-7.0-1.7","580777dd827ca10001db494b","E1","batch5","","823.8000000007451","stim/yes_60_ver_b1_b.png","f","pattern_response","true","f","pattern_77","823.8000000007451","true","42","","","","","","","","","","","","","","","","","","",""
"","","","","","html-keyboard-response","123","290322","0.0-2.0-7.0-0.8","580777dd827ca10001db494b","E1","batch5","","null","<p class=block-text>Trial 48 out of 78</p>","null","pattern_show_trial_num","","","","","","","","","","","","","","","","","","","","","","","","",""
"","","","","","image-keyboard-response","124","292039","0.0-2.0-7.0-1.8","580777dd827ca10001db494b","E1","batch5","","1713.199999999255","stim/yes_52_ver_w1.png","f","pattern_response","true","f","pattern_73","1713.199999999255","true","43","","","","","","","","","","","","","","","","","","",""
"","","","","","html-keyboard-response","125","293341","0.0-2.0-7.0-0.9","580777dd827ca10001db494b","E1","batch5","","null","<p class=block-text>Trial 49 out of 78</p>","null","pattern_show_trial_num","","","","","","","","","","","","","","","","","","","","","","","","",""
"","","","","","image-keyboard-response","126","294406","0.0-2.0-7.0-1.9","580777dd827ca10001db494b","E1","batch5","","1061.800000000745","stim/no_23_1.png","j","pattern_response","true","j","pattern_08","1061.800000000745","true","44","","","","","","","","","","","","","","","","","","",""
"","","","","","html-keyboard-response","127","295708","0.0-2.0-7.0-0.10","580777dd827ca10001db494b","E1","batch5","","null","<p class=block-text>Trial 50 out of 78</p>","null","pattern_show_trial_num","","","","","","","","","","","","","","","","","","","","","","","","",""
"","","","","","image-keyboard-response","128","296908","0.0-2.0-7.0-1.10","580777dd827ca10001db494b","E1","batch5","","1196.4000000003725","stim/no_20_1_w.png","j","pattern_response","true","j","pattern_06","1196.4000000003725","true","45","","","","","","","","","","","","","","","","","","",""
"","","","","","html-keyboard-response","129","298209","0.0-2.0-7.0-0.11","580777dd827ca10001db494b","E1","batch5","","null","<p class=block-text>Trial 51 out of 78</p>","null","pattern_show_trial_num","","","","","","","","","","","","","","","","","","","","","","","","",""
"","","","","","image-keyboard-response","130","301589","0.0-2.0-7.0-1.11","580777dd827ca10001db494b","E1","batch5","","3376.699999999255","stim/no_50_1.png","j","pattern_response","true","j","pattern_30","3376.699999999255","true","46","","","","","","","","","","","","","","","","","","",""
"","","","","","html-keyboard-response","131","302890","0.0-2.0-7.0-0.12","580777dd827ca10001db494b","E1","batch5","","null","<p class=block-text>Trial 52 out of 78</p>","null","pattern_show_trial_num","","","","","","","","","","","","","","","","","","","","","","","","",""
"","","","","","image-keyboard-response","132","308560","0.0-2.0-7.0-1.12","580777dd827ca10001db494b","E1","batch5","","5666","stim/no_62_1_w.png","j","pattern_response","true","j","pattern_36","5666","true","47","","","","","","","","","","","","","","","","","","",""
"","","","","","html-keyboard-response","133","309862","0.0-2.0-7.0-0.13","580777dd827ca10001db494b","E1","batch5","","null","<p class=block-text>Trial 53 out of 78</p>","null","pattern_show_trial_num","","","","","","","","","","","","","","","","","","","","","","","","",""
"","","","","","image-keyboard-response","134","311233","0.0-2.0-7.0-1.13","580777dd827ca10001db494b","E1","batch5","","1367.0999999996275","stim/no_26_1_w.png","j","pattern_response","true","j","pattern_10","1367.0999999996275","true","48","","","","","","","","","","","","","","","","","","",""
"","","","","","html-keyboard-response","135","312534","0.0-2.0-7.0-0.14","580777dd827ca10001db494b","E1","batch5","","null","<p class=block-text>Trial 54 out of 78</p>","null","pattern_show_trial_num","","","","","","","","","","","","","","","","","","","","","","","","",""
"","","","","","image-keyboard-response","136","317314","0.0-2.0-7.0-1.14","580777dd827ca10001db494b","E1","batch5","","4775.799999998882","stim/yes_37_dia_w1.png","f","pattern_response","true","f","pattern_59","4775.799999998882","true","49","","","","","","","","","","","","","","","","","","",""
"","","","","","html-keyboard-response","137","318616","0.0-2.0-7.0-0.15","580777dd827ca10001db494b","E1","batch5","","null","<p class=block-text>Trial 55 out of 78</p>","null","pattern_show_trial_num","","","","","","","","","","","","","","","","","","","","","","","","",""
"","","","","","image-keyboard-response","138","323286","0.0-2.0-7.0-1.15","580777dd827ca10001db494b","E1","batch5","","4666.4000000003725","stim/no_36_2_w.png","j","pattern_response","true","j","pattern_18","4666.4000000003725","true","50","","","","","","","","","","","","","","","","","","",""
"","","","","","html-keyboard-response","139","324619","0.0-2.0-7.0-0.16","580777dd827ca10001db494b","E1","batch5","","null","<p class=block-text>Trial 56 out of 78</p>","null","pattern_show_trial_num","","","","","","","","","","","","","","","","","","","","","","","","",""
"","","","","","image-keyboard-response","140","327511","0.0-2.0-7.0-1.16","580777dd827ca10001db494b","E1","batch5","","2888.699999999255","stim/no_34_1_b.png","j","pattern_response","true","j","pattern_16","2888.699999999255","true","51","","","","","","","","","","","","","","","","","","",""
"","","","","","html-keyboard-response","141","328812","0.0-2.0-7.0-0.17","580777dd827ca10001db494b","E1","batch5","","null","<p class=block-text>Trial 57 out of 78</p>","null","pattern_show_trial_num","","","","","","","","","","","","","","","","","","","","","","","","",""
"","","","","","image-keyboard-response","142","332909","0.0-2.0-7.0-1.17","580777dd827ca10001db494b","E1","batch5","","4093.4000000003725","stim/no_44_1.png","j","pattern_response","true","j","pattern_24","4093.4000000003725","true","52","","","","","","","","","","","","","","","","","","",""
"","","","","","html-keyboard-response","143","334210","0.0-2.0-7.0-0.18","580777dd827ca10001db494b","E1","batch5","","null","<p class=block-text>Trial 58 out of 78</p>","null","pattern_show_trial_num","","","","","","","","","","","","","","","","","","","","","","","","",""
"","","","","","image-keyboard-response","144","337907","0.0-2.0-7.0-1.18","580777dd827ca10001db494b","E1","batch5","","3692.800000000745","stim/yes_40_dia_b1_b.png","j","pattern_response","false","f","pattern_63","3692.800000000745","false","52","","","","","","","","","","","","","","","","","","",""
"","","","","","html-keyboard-response","145","339210","0.0-2.0-7.0-0.19","580777dd827ca10001db494b","E1","batch5","","null","<p class=block-text>Trial 59 out of 78</p>","null","pattern_show_trial_num","","","","","","","","","","","","","","","","","","","","","","","","",""
"","","","","","image-keyboard-response","146","344597","0.0-2.0-7.0-1.19","580777dd827ca10001db494b","E1","batch5","","5383.0999999996275","stim/no_46_1_b.png","j","pattern_response","true","j","pattern_26","5383.0999999996275","true","53","","","","","","","","","","","","","","","","","","",""
"","","","","","html-keyboard-response","147","345899","0.0-2.0-7.0-0.20","580777dd827ca10001db494b","E1","batch5","","null","<p class=block-text>Trial 60 out of 78</p>","null","pattern_show_trial_num","","","","","","","","","","","","","","","","","","","","","","","","",""
"","","","","","image-keyboard-response","148","350775","0.0-2.0-7.0-1.20","580777dd827ca10001db494b","E1","batch5","","4871.89999999851","stim/no_48_1_w.png","j","pattern_response","true","j","pattern_28","4871.89999999851","true","54","","","","","","","","","","","","","","","","","","",""
"","","","","","html-keyboard-response","149","352077","0.0-2.0-7.0-0.21","580777dd827ca10001db494b","E1","batch5","","null","<p class=block-text>Trial 61 out of 78</p>","null","pattern_show_trial_num","","","","","","","","","","","","","","","","","","","","","","","","",""
"","","","","","image-keyboard-response","150","355618","0.0-2.0-7.0-1.21","580777dd827ca10001db494b","E1","batch5","","3537.300000000745","stim/no_38_1_b.png","j","pattern_response","true","j","pattern_20","3537.300000000745","true","55","","","","","","","","","","","","","","","","","","",""
"","","","","","html-keyboard-response","151","356919","0.0-2.0-7.0-0.22","580777dd827ca10001db494b","E1","batch5","","null","<p class=block-text>Trial 62 out of 78</p>","null","pattern_show_trial_num","","","","","","","","","","","","","","","","","","","","","","","","",""
"","","","","","image-keyboard-response","152","360262","0.0-2.0-7.0-1.22","580777dd827ca10001db494b","E1","batch5","","3338.199999999255","stim/no_42_1_w.png","j","pattern_response","true","j","pattern_22","3338.199999999255","true","56","","","","","","","","","","","","","","","","","","",""
"","","","","","html-keyboard-response","153","361564","0.0-2.0-7.0-0.23","580777dd827ca10001db494b","E1","batch5","","null","<p class=block-text>Trial 63 out of 78</p>","null","pattern_show_trial_num","","","","","","","","","","","","","","","","","","","","","","","","",""
"","","","","","image-keyboard-response","154","362863","0.0-2.0-7.0-1.23","580777dd827ca10001db494b","E1","batch5","","1294.5999999996275","stim/yes_31_hor_b1.png","f","pattern_response","true","f","pattern_55","1294.5999999996275","true","57","","","","","","","","","","","","","","","","","","",""
"","","","","","html-keyboard-response","155","364164","0.0-2.0-7.0-0.24","580777dd827ca10001db494b","E1","batch5","","null","<p class=block-text>Trial 64 out of 78</p>","null","pattern_show_trial_num","","","","","","","","","","","","","","","","","","","","","","","","",""
"","","","","","image-keyboard-response","156","365056","0.0-2.0-7.0-1.24","580777dd827ca10001db494b","E1","batch5","","888.9000000003725","stim/no_17_1_w.png","j","pattern_response","true","j","pattern_04","888.9000000003725","true","58","","","","","","","","","","","","","","","","","","",""
"","","","","","html-keyboard-response","157","366359","0.0-2.0-7.0-0.25","580777dd827ca10001db494b","E1","batch5","","null","<p class=block-text>Trial 65 out of 78</p>","null","pattern_show_trial_num","","","","","","","","","","","","","","","","","","","","","","","","",""
"","","","","","image-keyboard-response","158","367326","0.0-2.0-7.0-1.25","580777dd827ca10001db494b","E1","batch5","","963.5999999996275","stim/yes_28_ver_b1.png","f","pattern_response","true","f","pattern_51","963.5999999996275","true","59","","","","","","","","","","","","","","","","","","",""
"","","","","","html-keyboard-response","159","368628","0.0-2.0-7.0-0.26","580777dd827ca10001db494b","E1","batch5","","null","<p class=block-text>Trial 66 out of 78</p>","null","pattern_show_trial_num","","","","","","","","","","","","","","","","","","","","","","","","",""
"","","","","","image-keyboard-response","160","369353","0.0-2.0-7.0-1.26","580777dd827ca10001db494b","E1","batch5","","721.5999999996275","stim/yes_25_hor_b1_b.png","f","pattern_response","true","f","pattern_49","721.5999999996275","true","60","","","","","","","","","","","","","","","","","","",""
"","","","","","html-keyboard-response","161","370654","0.0-2.0-7.0-0.27","580777dd827ca10001db494b","E1","batch5","","null","<p class=block-text>Trial 67 out of 78</p>","null","pattern_show_trial_num","","","","","","","","","","","","","","","","","","","","","","","","",""
"","","","","","image-keyboard-response","162","377239","0.0-2.0-7.0-1.27","580777dd827ca10001db494b","E1","batch5","","6581.4000000003725","stim/yes_48_dia_w1_w.png","j","pattern_response","false","f","pattern_69","6581.4000000003725","false","60","","","","","","","","","","","","","","","","","","",""
"","","","","","html-keyboard-response","163","378540","0.0-2.0-7.0-0.28","580777dd827ca10001db494b","E1","batch5","","null","<p class=block-text>Trial 68 out of 78</p>","null","pattern_show_trial_num","","","","","","","","","","","","","","","","","","","","","","","","",""
"","","","","","image-keyboard-response","164","385238","0.0-2.0-7.0-1.28","580777dd827ca10001db494b","E1","batch5","","6694.200000001118","stim/no_55_1_w.png","j","pattern_response","true","j","pattern_34","6694.200000001118","true","61","","","","","","","","","","","","","","","","","","",""
"","","","","","html-keyboard-response","165","386540","0.0-2.0-7.0-0.29","580777dd827ca10001db494b","E1","batch5","","null","<p class=block-text>Trial 69 out of 78</p>","null","pattern_show_trial_num","","","","","","","","","","","","","","","","","","","","","","","","",""
"","","","","","image-keyboard-response","166","392817","0.0-2.0-7.0-1.29","580777dd827ca10001db494b","E1","batch5","","6272.800000000745","stim/yes_50_dia_w1.png","j","pattern_response","false","f","pattern_71","6272.800000000745","false","61","","","","","","","","","","","","","","","","","","",""
"","","","","","html-keyboard-response","167","394119","0.0-2.0-7.0-0.30","580777dd827ca10001db494b","E1","batch5","","null","<p class=block-text>Trial 70 out of 78</p>","null","pattern_show_trial_num","","","","","","","","","","","","","","","","","","","","","","","","",""
"","","","","","image-keyboard-response","168","396288","0.0-2.0-7.0-1.30","580777dd827ca10001db494b","E1","batch5","","2164","stim/yes_35_dia_b1.png","f","pattern_response","true","f","pattern_57","2164","true","62","","","","","","","","","","","","","","","","","","",""
"","","","","","html-keyboard-response","169","397590","0.0-2.0-7.0-0.31","580777dd827ca10001db494b","E1","batch5","","null","<p class=block-text>Trial 71 out of 78</p>","null","pattern_show_trial_num","","","","","","","","","","","","","","","","","","","","","","","","",""
"","","","","","image-keyboard-response","170","398551","0.0-2.0-7.0-1.31","580777dd827ca10001db494b","E1","batch5","","957.0999999996275","stim/yes_67_hor_b1.png","f","pattern_response","true","f","pattern_79","957.0999999996275","true","63","","","","","","","","","","","","","","","","","","",""
"","","","","","html-keyboard-response","171","399852","0.0-2.0-7.0-0.32","580777dd827ca10001db494b","E1","batch5","","null","<p class=block-text>Trial 72 out of 78</p>","null","pattern_show_trial_num","","","","","","","","","","","","","","","","","","","","","","","","",""
"","","","","","image-keyboard-response","172","401531","0.0-2.0-7.0-1.32","580777dd827ca10001db494b","E1","batch5","","1675.699999999255","stim/yes_29_ver_w1.png","f","pattern_response","true","f","pattern_53","1675.699999999255","true","64","","","","","","","","","","","","","","","","","","",""
"","","","","","html-keyboard-response","173","402833","0.0-2.0-7.0-0.33","580777dd827ca10001db494b","E1","batch5","","null","<p class=block-text>Trial 73 out of 78</p>","null","pattern_show_trial_num","","","","","","","","","","","","","","","","","","","","","","","","",""
"","","","","","image-keyboard-response","174","405488","0.0-2.0-7.0-1.33","580777dd827ca10001db494b","E1","batch5","","2651.60000000149","stim/yes_55_hor_w1_w.png","f","pattern_response","true","f","pattern_75","2651.60000000149","true","65","","","","","","","","","","","","","","","","","","",""
"","","","","","html-keyboard-response","175","406789","0.0-2.0-7.0-0.34","580777dd827ca10001db494b","E1","batch5","","null","<p class=block-text>Trial 74 out of 78</p>","null","pattern_show_trial_num","","","","","","","","","","","","","","","","","","","","","","","","",""
"","","","","","image-keyboard-response","176","407800","0.0-2.0-7.0-1.34","580777dd827ca10001db494b","E1","batch5","","1007.0999999996275","stim/yes_43_ver_w1_w.png","f","pattern_response","true","f","pattern_65","1007.0999999996275","true","66","","","","","","","","","","","","","","","","","","",""
"","","","","","html-keyboard-response","177","409101","0.0-2.0-7.0-0.35","580777dd827ca10001db494b","E1","batch5","","null","<p class=block-text>Trial 75 out of 78</p>","null","pattern_show_trial_num","","","","","","","","","","","","","","","","","","","","","","","","",""
"","","","","","image-keyboard-response","178","417395","0.0-2.0-7.0-1.35","580777dd827ca10001db494b","E1","batch5","","8290.800000000745","stim/no_65_1_b.png","j","pattern_response","true","j","pattern_38","8290.800000000745","true","67","","","","","","","","","","","","","","","","","","",""
"","","","","","html-keyboard-response","179","418696","0.0-2.0-7.0-0.36","580777dd827ca10001db494b","E1","batch5","","null","<p class=block-text>Trial 76 out of 78</p>","null","pattern_show_trial_num","","","","","","","","","","","","","","","","","","","","","","","","",""
"","","","","","image-keyboard-response","180","423953","0.0-2.0-7.0-1.36","580777dd827ca10001db494b","E1","batch5","","5252.10000000149","stim/no_52_1.png","j","pattern_response","true","j","pattern_32","5252.10000000149","true","68","","","","","","","","","","","","","","","","","","",""
"","","","","","html-keyboard-response","181","425256","0.0-2.0-7.0-0.37","580777dd827ca10001db494b","E1","batch5","","null","<p class=block-text>Trial 77 out of 78</p>","null","pattern_show_trial_num","","","","","","","","","","","","","","","","","","","","","","","","",""
"","","","","","image-keyboard-response","182","426457","0.0-2.0-7.0-1.37","580777dd827ca10001db494b","E1","batch5","","1195.8999999985099","stim/yes_14_hor_b1_w.png","f","pattern_response","true","f","pattern_43","1195.8999999985099","true","69","","","","","","","","","","","","","","","","","","",""
"","","","","","html-keyboard-response","183","427759","0.0-2.0-7.0-0.38","580777dd827ca10001db494b","E1","batch5","","null","<p class=block-text>Trial 78 out of 78</p>","null","pattern_show_trial_num","","","","","","","","","","","","","","","","","","","","","","","","",""
"","","","","","image-keyboard-response","184","428641","0.0-2.0-7.0-1.38","580777dd827ca10001db494b","E1","batch5","","878.4000000003725","stim/no_13_2_b.png","j","pattern_response","true","j","pattern_02","878.4000000003725","true","70","","","","","","","","","","","","","","","","","","",""
"","","","","","html-button-response","185","447996","0.0-2.0-8.0","580777dd827ca10001db494b","E1","batch5","","18843.199999999255","<p class = block-text>This concludes the 4-in-a-row detection game.Thank you for your responses!<br>
            You responded correctly on 90% of the trials.<br>
            When you are ready, press ""Continue"" button to continue </p>","0","","","","","","","","","","","","","","","","","","","","","","","","","",""
"true","","","","","fullscreen","186","451193","0.0-3.0-0.0","580777dd827ca10001db494b","E1","batch5","","","","","spm_fullscreen","","","","","","","","","","","","","","","","","","","","","","","","",""
"","","","","","html-button-response","187","466253","0.0-3.0-1.0","580777dd827ca10001db494b","E1","batch5","","15055.099999999627","<p class = block-text><b>Instructions</b> <br>This is a widely used intelligence test in research. <br>In this test, a figure with a missing piece will be presented.<br>Below the figure are alternative pieces to complete the figure, only one of which is correct.<br> Different figures might involve different principles for obtaining the missing piece<br>Your job is to select the most logical piece to complete the figure.</p>","0","","","","","","","","","","","","","","","","","","","","","","","","","",""
"","","","","","html-keyboard-response","188","467056","0.0-3.0-2.0-0.0","580777dd827ca10001db494b","E1","batch5","","null","<p class=block-text>Trial 1 out of 60</p>","null","spm_show_trial_num","","","","","","","","","","","","","","","","","","","","","","","","",""
"","","","","","image-button-response","189","478265","0.0-3.0-2.0-1.0","580777dd827ca10001db494b","E1","batch5","","11202.400000000373","img/question_1_1.jpeg","3","spm_respsonse","1","4","mat_01","","","","","","1","11202.400000000373","","","","","","","","","","","","","","",""
"","","","","","html-keyboard-response","190","479317","0.0-3.0-2.0-0.1","580777dd827ca10001db494b","E1","batch5","","null","<p class=block-text>Trial 2 out of 60</p>","null","spm_show_trial_num","","","","","","","","","","","","","","","","","","","","","","","","",""
"","","","","","image-button-response","191","482715","0.0-3.0-2.0-1.1","580777dd827ca10001db494b","E1","batch5","","3391.7000000011176","img/question_1_2.jpeg","4","spm_respsonse","1","5","mat_02","","","","","","1","3391.7000000011176","","","","","","","","","","","","","","",""
"","","","","","html-keyboard-response","192","483767","0.0-3.0-2.0-0.2","580777dd827ca10001db494b","E1","batch5","","null","<p class=block-text>Trial 3 out of 60</p>","null","spm_show_trial_num","","","","","","","","","","","","","","","","","","","","","","","","",""
"","","","","","image-button-response","193","486751","0.0-3.0-2.0-1.2","580777dd827ca10001db494b","E1","batch5","","2979.300000000745","img/question_1_3.jpeg","0","spm_respsonse","1","1","mat_03","","","","","","1","2979.300000000745","","","","","","","","","","","","","","",""
"","","","","","html-keyboard-response","194","487803","0.0-3.0-2.0-0.3","580777dd827ca10001db494b","E1","batch5","","null","<p class=block-text>Trial 4 out of 60</p>","null","spm_show_trial_num","","","","","","","","","","","","","","","","","","","","","","","","",""
"","","","","","image-button-response","195","492857","0.0-3.0-2.0-1.3","580777dd827ca10001db494b","E1","batch5","","5049.800000000745","img/question_1_4.jpeg","1","spm_respsonse","1","2","mat_04","","","","","","1","5049.800000000745","","","","","","","","","","","","","","",""
"","","","","","html-keyboard-response","196","493911","0.0-3.0-2.0-0.4","580777dd827ca10001db494b","E1","batch5","","null","<p class=block-text>Trial 5 out of 60</p>","null","spm_show_trial_num","","","","","","","","","","","","","","","","","","","","","","","","",""
"","","","","","image-button-response","197","498493","0.0-3.0-2.0-1.4","580777dd827ca10001db494b","E1","batch5","","4575.5999999996275","img/question_1_5.jpeg","5","spm_respsonse","1","6","mat_05","","","","","","1","4575.5999999996275","","","","","","","","","","","","","","",""
"","","","","","html-keyboard-response","198","499546","0.0-3.0-2.0-0.5","580777dd827ca10001db494b","E1","batch5","","null","<p class=block-text>Trial 6 out of 60</p>","null","spm_show_trial_num","","","","","","","","","","","","","","","","","","","","","","","","",""
"","","","","","image-button-response","199","503485","0.0-3.0-2.0-1.5","580777dd827ca10001db494b","E1","batch5","","3933.5999999996275","img/question_1_6.jpeg","2","spm_respsonse","1","3","mat_06","","","","","","1","3933.5999999996275","","","","","","","","","","","","","","",""
"","","","","","html-keyboard-response","200","504538","0.0-3.0-2.0-0.6","580777dd827ca10001db494b","E1","batch5","","null","<p class=block-text>Trial 7 out of 60</p>","null","spm_show_trial_num","","","","","","","","","","","","","","","","","","","","","","","","",""
"","","","","","image-button-response","201","510982","0.0-3.0-2.0-1.6","580777dd827ca10001db494b","E1","batch5","","6438.800000000745","img/question_1_7.jpeg","5","spm_respsonse","1","6","mat_07","","","","","","1","6438.800000000745","","","","","","","","","","","","","","",""
"","","","","","html-keyboard-response","202","512034","0.0-3.0-2.0-0.7","580777dd827ca10001db494b","E1","batch5","","null","<p class=block-text>Trial 8 out of 60</p>","null","spm_show_trial_num","","","","","","","","","","","","","","","","","","","","","","","","",""
"","","","","","image-button-response","203","519814","0.0-3.0-2.0-1.7","580777dd827ca10001db494b","E1","batch5","","7774","img/question_1_8.jpeg","1","spm_respsonse","1","2","mat_08","","","","","","1","7774","","","","","","","","","","","","","","",""
"","","","","","html-keyboard-response","204","520868","0.0-3.0-2.0-0.8","580777dd827ca10001db494b","E1","batch5","","null","<p class=block-text>Trial 9 out of 60</p>","null","spm_show_trial_num","","","","","","","","","","","","","","","","","","","","","","","","",""
"","","","","","image-button-response","205","539839","0.0-3.0-2.0-1.8","580777dd827ca10001db494b","E1","batch5","","18962.599999999627","img/question_1_9.jpeg","0","spm_respsonse","1","1","mat_09","","","","","","1","18962.599999999627","","","","","","","","","","","","","","",""
"","","","","","html-keyboard-response","206","540892","0.0-3.0-2.0-0.9","580777dd827ca10001db494b","E1","batch5","","null","<p class=block-text>Trial 10 out of 60</p>","null","spm_show_trial_num","","","","","","","","","","","","","","","","","","","","","","","","",""
"","","","","","image-button-response","207","549896","0.0-3.0-2.0-1.9","580777dd827ca10001db494b","E1","batch5","","8998.5","img/question_1_10.jpeg","2","spm_respsonse","1","3","mat_10","","","","","","1","8998.5","","","","","","","","","","","","","","",""
"","","","","","html-keyboard-response","208","550949","0.0-3.0-2.0-0.10","580777dd827ca10001db494b","E1","batch5","","null","<p class=block-text>Trial 11 out of 60</p>","null","spm_show_trial_num","","","","","","","","","","","","","","","","","","","","","","","","",""
"","","","","","image-button-response","209","563830","0.0-3.0-2.0-1.10","580777dd827ca10001db494b","E1","batch5","","12876.099999999627","img/question_1_11.jpeg","3","spm_respsonse","1","4","mat_11","","","","","","1","12876.099999999627","","","","","","","","","","","","","","",""
"","","","","","html-keyboard-response","210","564884","0.0-3.0-2.0-0.11","580777dd827ca10001db494b","E1","batch5","","null","<p class=block-text>Trial 12 out of 60</p>","null","spm_show_trial_num","","","","","","","","","","","","","","","","","","","","","","","","",""
"","","","","","image-button-response","211","592539","0.0-3.0-2.0-1.11","580777dd827ca10001db494b","E1","batch5","","27641.299999998882","img/question_1_12.jpeg","0","spm_respsonse","0","5","mat_12","","","","","","0","27641.299999998882","","","","","","","","","","","","","","",""
"","","","","","html-keyboard-response","212","593592","0.0-3.0-2.0-0.12","580777dd827ca10001db494b","E1","batch5","","null","<p class=block-text>Trial 13 out of 60</p>","null","spm_show_trial_num","","","","","","","","","","","","","","","","","","","","","","","","",""
"","","","","","image-button-response","213","597498","0.0-3.0-2.0-1.12","580777dd827ca10001db494b","E1","batch5","","3900.5","img/question_2_1.jpeg","1","spm_respsonse","1","2","mat_13","","","","","","1","3900.5","","","","","","","","","","","","","","",""
"","","","","","html-keyboard-response","214","598551","0.0-3.0-2.0-0.13","580777dd827ca10001db494b","E1","batch5","","null","<p class=block-text>Trial 14 out of 60</p>","null","spm_show_trial_num","","","","","","","","","","","","","","","","","","","","","","","","",""
"","","","","","image-button-response","215","607314","0.0-3.0-2.0-1.13","580777dd827ca10001db494b","E1","batch5","","8756.199999999255","img/question_2_2.jpeg","5","spm_respsonse","1","6","mat_14","","","","","","1","8756.199999999255","","","","","","","","","","","","","","",""
"","","","","","html-keyboard-response","216","608367","0.0-3.0-2.0-0.14","580777dd827ca10001db494b","E1","batch5","","null","<p class=block-text>Trial 15 out of 60</p>","null","spm_show_trial_num","","","","","","","","","","","","","","","","","","","","","","","","",""
"","","","","","image-button-response","217","613153","0.0-3.0-2.0-1.14","580777dd827ca10001db494b","E1","batch5","","4780.89999999851","img/question_2_3.jpeg","0","spm_respsonse","1","1","mat_15","","","","","","1","4780.89999999851","","","","","","","","","","","","","","",""
"","","","","","html-keyboard-response","218","614205","0.0-3.0-2.0-0.15","580777dd827ca10001db494b","E1","batch5","","null","<p class=block-text>Trial 16 out of 60</p>","null","spm_show_trial_num","","","","","","","","","","","","","","","","","","","","","","","","",""
"","","","","","image-button-response","219","619736","0.0-3.0-2.0-1.15","580777dd827ca10001db494b","E1","batch5","","5525.60000000149","img/question_2_4.jpeg","1","spm_respsonse","1","2","mat_16","","","","","","1","5525.60000000149","","","","","","","","","","","","","","",""
"","","","","","html-keyboard-response","220","620788","0.0-3.0-2.0-0.16","580777dd827ca10001db494b","E1","batch5","","null","<p class=block-text>Trial 17 out of 60</p>","null","spm_show_trial_num","","","","","","","","","","","","","","","","","","","","","","","","",""
"","","","","","image-button-response","221","630765","0.0-3.0-2.0-1.16","580777dd827ca10001db494b","E1","batch5","","9966.29999999702","img/question_2_5.jpeg","0","spm_respsonse","1","1","mat_17","","","","","","1","9966.29999999702","","","","","","","","","","","","","","",""
"","","","","","html-keyboard-response","222","631818","0.0-3.0-2.0-0.17","580777dd827ca10001db494b","E1","batch5","","null","<p class=block-text>Trial 18 out of 60</p>","null","spm_show_trial_num","","","","","","","","","","","","","","","","","","","","","","","","",""
"","","","","","image-button-response","223","637423","0.0-3.0-2.0-1.17","580777dd827ca10001db494b","E1","batch5","","5594.79999999702","img/question_2_6.jpeg","2","spm_respsonse","1","3","mat_18","","","","","","1","5594.79999999702","","","","","","","","","","","","","","",""
"","","","","","html-keyboard-response","224","638478","0.0-3.0-2.0-0.18","580777dd827ca10001db494b","E1","batch5","","null","<p class=block-text>Trial 19 out of 60</p>","null","spm_show_trial_num","","","","","","","","","","","","","","","","","","","","","","","","",""
"","","","","","image-button-response","225","647968","0.0-3.0-2.0-1.18","580777dd827ca10001db494b","E1","batch5","","9485.10000000149","img/question_2_7.jpeg","4","spm_respsonse","1","5","mat_19","","","","","","1","9485.10000000149","","","","","","","","","","","","","","",""
"","","","","","html-keyboard-response","226","649022","0.0-3.0-2.0-0.19","580777dd827ca10001db494b","E1","batch5","","null","<p class=block-text>Trial 20 out of 60</p>","null","spm_show_trial_num","","","","","","","","","","","","","","","","","","","","","","","","",""
"","","","","","image-button-response","227","654629","0.0-3.0-2.0-1.19","580777dd827ca10001db494b","E1","batch5","","5599.800000000745","img/question_2_8.jpeg","5","spm_respsonse","1","6","mat_20","","","","","","1","5599.800000000745","","","","","","","","","","","","","","",""
"","","","","","html-keyboard-response","228","655681","0.0-3.0-2.0-0.20","580777dd827ca10001db494b","E1","batch5","","null","<p class=block-text>Trial 21 out of 60</p>","null","spm_show_trial_num","","","","","","","","","","","","","","","","","","","","","","","","",""
"","","","","","image-button-response","229","659519","0.0-3.0-2.0-1.20","580777dd827ca10001db494b","E1","batch5","","3832.39999999851","img/question_2_9.jpeg","0","spm_respsonse","0","4","mat_21","","","","","","0","3832.39999999851","","","","","","","","","","","","","","",""
"","","","","","html-keyboard-response","230","660572","0.0-3.0-2.0-0.21","580777dd827ca10001db494b","E1","batch5","","null","<p class=block-text>Trial 22 out of 60</p>","null","spm_show_trial_num","","","","","","","","","","","","","","","","","","","","","","","","",""
"","","","","","image-button-response","231","665623","0.0-3.0-2.0-1.21","580777dd827ca10001db494b","E1","batch5","","5044.5","img/question_2_10.jpeg","2","spm_respsonse","1","3","mat_22","","","","","","1","5044.5","","","","","","","","","","","","","","",""
"","","","","","html-keyboard-response","232","666677","0.0-3.0-2.0-0.22","580777dd827ca10001db494b","E1","batch5","","null","<p class=block-text>Trial 23 out of 60</p>","null","spm_show_trial_num","","","","","","","","","","","","","","","","","","","","","","","","",""
"","","","","","image-button-response","233","672254","0.0-3.0-2.0-1.22","580777dd827ca10001db494b","E1","batch5","","5571.800000000745","img/question_2_11.jpeg","3","spm_respsonse","1","4","mat_23","","","","","","1","5571.800000000745","","","","","","","","","","","","","","",""
"","","","","","html-keyboard-response","234","673312","0.0-3.0-2.0-0.23","580777dd827ca10001db494b","E1","batch5","","null","<p class=block-text>Trial 24 out of 60</p>","null","spm_show_trial_num","","","","","","","","","","","","","","","","","","","","","","","","",""
"","","","","","image-button-response","235","682492","0.0-3.0-2.0-1.23","580777dd827ca10001db494b","E1","batch5","","9173.599999997765","img/question_2_12.jpeg","4","spm_respsonse","1","5","mat_24","","","","","","1","9173.599999997765","","","","","","","","","","","","","","",""
"","","","","","html-button-response","236","685055","0.0-3.0-3.0","580777dd827ca10001db494b","E1","batch5","","2307.60000000149","<p class = block-text>Attention check: Please choose 1<br></p>","0","attention_check","true","","","","","","","","","","","","","","","","","","","","","","","",""
"","","","","","html-keyboard-response","237","685858","0.0-3.0-4.0-0.0","580777dd827ca10001db494b","E1","batch5","","null","<p class=block-text>Trial 25 out of 60</p>","null","spm_show_trial_num","","","","","","","","","","","","","","","","","","","","","","","","",""
"","","","","","image-button-response","238","694714","0.0-3.0-4.0-1.0","580777dd827ca10001db494b","E1","batch5","","8850.60000000149","img/question_3_1.jpeg","7","spm_respsonse","1","8","mat_25","","","","","","1","8850.60000000149","","","","","","","","","","","","","","",""
"","","","","","html-keyboard-response","239","695767","0.0-3.0-4.0-0.1","580777dd827ca10001db494b","E1","batch5","","null","<p class=block-text>Trial 26 out of 60</p>","null","spm_show_trial_num","","","","","","","","","","","","","","","","","","","","","","","","",""
"","","","","","image-button-response","240","700660","0.0-3.0-4.0-1.1","580777dd827ca10001db494b","E1","batch5","","4885","img/question_3_2.jpeg","1","spm_respsonse","1","2","mat_26","","","","","","1","4885","","","","","","","","","","","","","","",""
"","","","","","html-keyboard-response","241","701713","0.0-3.0-4.0-0.2","580777dd827ca10001db494b","E1","batch5","","null","<p class=block-text>Trial 27 out of 60</p>","null","spm_show_trial_num","","","","","","","","","","","","","","","","","","","","","","","","",""
"","","","","","image-button-response","242","710431","0.0-3.0-4.0-1.2","580777dd827ca10001db494b","E1","batch5","","8712.60000000149","img/question_3_3.jpeg","2","spm_respsonse","1","3","mat_27","","","","","","1","8712.60000000149","","","","","","","","","","","","","","",""
"","","","","","html-keyboard-response","243","711484","0.0-3.0-4.0-0.3","580777dd827ca10001db494b","E1","batch5","","null","<p class=block-text>Trial 28 out of 60</p>","null","spm_show_trial_num","","","","","","","","","","","","","","","","","","","","","","","","",""
"","","","","","image-button-response","244","725750","0.0-3.0-4.0-1.3","580777dd827ca10001db494b","E1","batch5","","14258.599999997765","img/question_3_4.jpeg","7","spm_respsonse","1","8","mat_28","","","","","","1","14258.599999997765","","","","","","","","","","","","","","",""
"","","","","","html-keyboard-response","245","726802","0.0-3.0-4.0-0.4","580777dd827ca10001db494b","E1","batch5","","null","<p class=block-text>Trial 29 out of 60</p>","null","spm_show_trial_num","","","","","","","","","","","","","","","","","","","","","","","","",""
"","","","","","image-button-response","246","742324","0.0-3.0-4.0-1.4","580777dd827ca10001db494b","E1","batch5","","15515.199999999255","img/question_3_5.jpeg","6","spm_respsonse","1","7","mat_29","","","","","","1","15515.199999999255","","","","","","","","","","","","","","",""
"","","","","","html-keyboard-response","247","743378","0.0-3.0-4.0-0.5","580777dd827ca10001db494b","E1","batch5","","null","<p class=block-text>Trial 30 out of 60</p>","null","spm_show_trial_num","","","","","","","","","","","","","","","","","","","","","","","","",""
"","","","","","image-button-response","248","755843","0.0-3.0-4.0-1.5","580777dd827ca10001db494b","E1","batch5","","12460.199999999255","img/question_3_6.jpeg","3","spm_respsonse","1","4","mat_30","","","","","","1","12460.199999999255","","","","","","","","","","","","","","",""
"","","","","","html-keyboard-response","249","756899","0.0-3.0-4.0-0.6","580777dd827ca10001db494b","E1","batch5","","null","<p class=block-text>Trial 31 out of 60</p>","null","spm_show_trial_num","","","","","","","","","","","","","","","","","","","","","","","","",""
"","","","","","image-button-response","250","771043","0.0-3.0-4.0-1.6","580777dd827ca10001db494b","E1","batch5","","14134","img/question_3_7.jpeg","4","spm_respsonse","1","5","mat_31","","","","","","1","14134","","","","","","","","","","","","","","",""
"","","","","","html-keyboard-response","251","772095","0.0-3.0-4.0-0.7","580777dd827ca10001db494b","E1","batch5","","null","<p class=block-text>Trial 32 out of 60</p>","null","spm_show_trial_num","","","","","","","","","","","","","","","","","","","","","","","","",""
"","","","","","image-button-response","252","831993","0.0-3.0-4.0-1.7","580777dd827ca10001db494b","E1","batch5","","59891.89999999851","img/question_3_8.jpeg","0","spm_respsonse","1","1","mat_32","","","","","","1","59891.89999999851","","","","","","","","","","","","","","",""
"","","","","","html-keyboard-response","253","833046","0.0-3.0-4.0-0.8","580777dd827ca10001db494b","E1","batch5","","null","<p class=block-text>Trial 33 out of 60</p>","null","spm_show_trial_num","","","","","","","","","","","","","","","","","","","","","","","","",""
"","","","","","image-button-response","254","852920","0.0-3.0-4.0-1.8","580777dd827ca10001db494b","E1","batch5","","19864.800000000745","img/question_3_9.jpeg","6","spm_respsonse","1","7","mat_33","","","","","","1","19864.800000000745","","","","","","","","","","","","","","",""
"","","","","","html-keyboard-response","255","853974","0.0-3.0-4.0-0.9","580777dd827ca10001db494b","E1","batch5","","null","<p class=block-text>Trial 34 out of 60</p>","null","spm_show_trial_num","","","","","","","","","","","","","","","","","","","","","","","","",""
"","","","","","image-button-response","256","881575","0.0-3.0-4.0-1.9","580777dd827ca10001db494b","E1","batch5","","27589.300000000745","img/question_3_10.jpeg","5","spm_respsonse","1","6","mat_34","","","","","","1","27589.300000000745","","","","","","","","","","","","","","",""
"","","","","","html-keyboard-response","257","882628","0.0-3.0-4.0-0.10","580777dd827ca10001db494b","E1","batch5","","null","<p class=block-text>Trial 35 out of 60</p>","null","spm_show_trial_num","","","","","","","","","","","","","","","","","","","","","","","","",""
"","","","","","image-button-response","258","926692","0.0-3.0-4.0-1.10","580777dd827ca10001db494b","E1","batch5","","44057.89999999851","img/question_3_11.jpeg","0","spm_respsonse","1","1","mat_35","","","","","","1","44057.89999999851","","","","","","","","","","","","","","",""
"","","","","","html-keyboard-response","259","927745","0.0-3.0-4.0-0.11","580777dd827ca10001db494b","E1","batch5","","null","<p class=block-text>Trial 36 out of 60</p>","null","spm_show_trial_num","","","","","","","","","","","","","","","","","","","","","","","","",""
"","","","","","image-button-response","260","989076","0.0-3.0-4.0-1.11","580777dd827ca10001db494b","E1","batch5","","61323.300000000745","img/question_3_12.jpeg","4","spm_respsonse","0","2","mat_36","","","","","","0","61323.300000000745","","","","","","","","","","","","","","",""
"","","","","","html-keyboard-response","261","990128","0.0-3.0-4.0-0.12","580777dd827ca10001db494b","E1","batch5","","null","<p class=block-text>Trial 37 out of 60</p>","null","spm_show_trial_num","","","","","","","","","","","","","","","","","","","","","","","","",""
"","","","","","image-button-response","262","993700","0.0-3.0-4.0-1.12","580777dd827ca10001db494b","E1","batch5","","3566.89999999851","img/question_4_1.jpeg","2","spm_respsonse","1","3","mat_37","","","","","","1","3566.89999999851","","","","","","","","","","","","","","",""
"","","","","","html-keyboard-response","263","994754","0.0-3.0-4.0-0.13","580777dd827ca10001db494b","E1","batch5","","null","<p class=block-text>Trial 38 out of 60</p>","null","spm_show_trial_num","","","","","","","","","","","","","","","","","","","","","","","","",""
"","","","","","image-button-response","264","1007277","0.0-3.0-4.0-1.13","580777dd827ca10001db494b","E1","batch5","","12518","img/question_4_2.jpeg","3","spm_respsonse","1","4","mat_38","","","","","","1","12518","","","","","","","","","","","","","","",""
"","","","","","html-keyboard-response","265","1008330","0.0-3.0-4.0-0.14","580777dd827ca10001db494b","E1","batch5","","null","<p class=block-text>Trial 39 out of 60</p>","null","spm_show_trial_num","","","","","","","","","","","","","","","","","","","","","","","","",""
"","","","","","image-button-response","266","1018299","0.0-3.0-4.0-1.14","580777dd827ca10001db494b","E1","batch5","","9963.39999999851","img/question_4_3.jpeg","2","spm_respsonse","1","3","mat_39","","","","","","1","9963.39999999851","","","","","","","","","","","","","","",""
"","","","","","html-keyboard-response","267","1019353","0.0-3.0-4.0-0.15","580777dd827ca10001db494b","E1","batch5","","null","<p class=block-text>Trial 40 out of 60</p>","null","spm_show_trial_num","","","","","","","","","","","","","","","","","","","","","","","","",""
"","","","","","image-button-response","268","1028014","0.0-3.0-4.0-1.15","580777dd827ca10001db494b","E1","batch5","","8646.199999999255","img/question_4_4.jpeg","6","spm_respsonse","1","7","mat_40","","","","","","1","8646.199999999255","","","","","","","","","","","","","","",""
"","","","","","html-keyboard-response","269","1029067","0.0-3.0-4.0-0.16","580777dd827ca10001db494b","E1","batch5","","null","<p class=block-text>Trial 41 out of 60</p>","null","spm_show_trial_num","","","","","","","","","","","","","","","","","","","","","","","","",""
"","","","","","image-button-response","270","1038099","0.0-3.0-4.0-1.16","580777dd827ca10001db494b","E1","batch5","","9024.900000002235","img/question_4_5.jpeg","7","spm_respsonse","1","8","mat_41","","","","","","1","9024.900000002235","","","","","","","","","","","","","","",""
"","","","","","html-keyboard-response","271","1039152","0.0-3.0-4.0-0.17","580777dd827ca10001db494b","E1","batch5","","null","<p class=block-text>Trial 42 out of 60</p>","null","spm_show_trial_num","","","","","","","","","","","","","","","","","","","","","","","","",""
"","","","","","image-button-response","272","1053295","0.0-3.0-4.0-1.17","580777dd827ca10001db494b","E1","batch5","","14137.10000000149","img/question_4_6.jpeg","5","spm_respsonse","1","6","mat_42","","","","","","1","14137.10000000149","","","","","","","","","","","","","","",""
"","","","","","html-keyboard-response","273","1054348","0.0-3.0-4.0-0.18","580777dd827ca10001db494b","E1","batch5","","null","<p class=block-text>Trial 43 out of 60</p>","null","spm_show_trial_num","","","","","","","","","","","","","","","","","","","","","","","","",""
"","","","","","image-button-response","274","1071188","0.0-3.0-4.0-1.18","580777dd827ca10001db494b","E1","batch5","","16833.800000000745","img/question_4_7.jpeg","7","spm_respsonse","0","5","mat_43","","","","","","0","16833.800000000745","","","","","","","","","","","","","","",""
"","","","","","html-keyboard-response","275","1072240","0.0-3.0-4.0-0.19","580777dd827ca10001db494b","E1","batch5","","null","<p class=block-text>Trial 44 out of 60</p>","null","spm_show_trial_num","","","","","","","","","","","","","","","","","","","","","","","","",""
"","","","","","image-button-response","276","1080019","0.0-3.0-4.0-1.19","580777dd827ca10001db494b","E1","batch5","","7771.60000000149","img/question_4_8.jpeg","3","spm_respsonse","1","4","mat_44","","","","","","1","7771.60000000149","","","","","","","","","","","","","","",""
"","","","","","html-keyboard-response","277","1081072","0.0-3.0-4.0-0.20","580777dd827ca10001db494b","E1","batch5","","null","<p class=block-text>Trial 45 out of 60</p>","null","spm_show_trial_num","","","","","","","","","","","","","","","","","","","","","","","","",""
"","","","","","image-button-response","278","1109036","0.0-3.0-4.0-1.20","580777dd827ca10001db494b","E1","batch5","","27958.5","img/question_4_9.jpeg","0","spm_respsonse","1","1","mat_45","","","","","","1","27958.5","","","","","","","","","","","","","","",""
"","","","","","html-keyboard-response","279","1110089","0.0-3.0-4.0-0.21","580777dd827ca10001db494b","E1","batch5","","null","<p class=block-text>Trial 46 out of 60</p>","null","spm_show_trial_num","","","","","","","","","","","","","","","","","","","","","","","","",""
"","","","","","image-button-response","280","1125396","0.0-3.0-4.0-1.21","580777dd827ca10001db494b","E1","batch5","","15295.60000000149","img/question_4_10.jpeg","1","spm_respsonse","1","2","mat_46","","","","","","1","15295.60000000149","","","","","","","","","","","","","","",""
"","","","","","html-keyboard-response","281","1126448","0.0-3.0-4.0-0.22","580777dd827ca10001db494b","E1","batch5","","null","<p class=block-text>Trial 47 out of 60</p>","null","spm_show_trial_num","","","","","","","","","","","","","","","","","","","","","","","","",""
"","","","","","image-button-response","282","1168036","0.0-3.0-4.0-1.22","580777dd827ca10001db494b","E1","batch5","","41582.699999999255","img/question_4_11.jpeg","4","spm_respsonse","1","5","mat_47","","","","","","1","41582.699999999255","","","","","","","","","","","","","","",""
"","","","","","html-keyboard-response","283","1169091","0.0-3.0-4.0-0.23","580777dd827ca10001db494b","E1","batch5","","null","<p class=block-text>Trial 48 out of 60</p>","null","spm_show_trial_num","","","","","","","","","","","","","","","","","","","","","","","","",""
"","","","","","image-button-response","284","1192788","0.0-3.0-4.0-1.23","580777dd827ca10001db494b","E1","batch5","","23690.400000002235","img/question_4_12.jpeg","5","spm_respsonse","1","6","mat_48","","","","","","1","23690.400000002235","","","","","","","","","","","","","","",""
"","","","","","html-keyboard-response","285","1193841","0.0-3.0-4.0-0.24","580777dd827ca10001db494b","E1","batch5","","null","<p class=block-text>Trial 49 out of 60</p>","null","spm_show_trial_num","","","","","","","","","","","","","","","","","","","","","","","","",""
"","","","","","image-button-response","286","1226839","0.0-3.0-4.0-1.24","580777dd827ca10001db494b","E1","batch5","","32990.199999999255","img/question_5_1.jpeg","6","spm_respsonse","1","7","mat_49","","","","","","1","32990.199999999255","","","","","","","","","","","","","","",""
"","","","","","html-keyboard-response","287","1227893","0.0-3.0-4.0-0.25","580777dd827ca10001db494b","E1","batch5","","null","<p class=block-text>Trial 50 out of 60</p>","null","spm_show_trial_num","","","","","","","","","","","","","","","","","","","","","","","","",""
"","","","","","image-button-response","288","1271175","0.0-3.0-4.0-1.25","580777dd827ca10001db494b","E1","batch5","","43273.599999997765","img/question_5_2.jpeg","5","spm_respsonse","1","6","mat_50","","","","","","1","43273.599999997765","","","","","","","","","","","","","","",""
"","","","","","html-keyboard-response","289","1272227","0.0-3.0-4.0-0.26","580777dd827ca10001db494b","E1","batch5","","null","<p class=block-text>Trial 51 out of 60</p>","null","spm_show_trial_num","","","","","","","","","","","","","","","","","","","","","","","","",""
"","","","","","image-button-response","290","1297022","0.0-3.0-4.0-1.26","580777dd827ca10001db494b","E1","batch5","","24788.300000000745","img/question_5_3.jpeg","7","spm_respsonse","1","8","mat_51","","","","","","1","24788.300000000745","","","","","","","","","","","","","","",""
"","","","","","html-keyboard-response","291","1298075","0.0-3.0-4.0-0.27","580777dd827ca10001db494b","E1","batch5","","null","<p class=block-text>Trial 52 out of 60</p>","null","spm_show_trial_num","","","","","","","","","","","","","","","","","","","","","","","","",""
"","","","","","image-button-response","292","1308670","0.0-3.0-4.0-1.27","580777dd827ca10001db494b","E1","batch5","","10589.60000000149","img/question_5_4.jpeg","1","spm_respsonse","1","2","mat_52","","","","","","1","10589.60000000149","","","","","","","","","","","","","","",""
"","","","","","html-keyboard-response","293","1309725","0.0-3.0-4.0-0.28","580777dd827ca10001db494b","E1","batch5","","null","<p class=block-text>Trial 53 out of 60</p>","null","spm_show_trial_num","","","","","","","","","","","","","","","","","","","","","","","","",""
"","","","","","image-button-response","294","1321520","0.0-3.0-4.0-1.28","580777dd827ca10001db494b","E1","batch5","","11788.800000000745","img/question_5_5.jpeg","0","spm_respsonse","1","1","mat_53","","","","","","1","11788.800000000745","","","","","","","","","","","","","","",""
"","","","","","html-keyboard-response","295","1322574","0.0-3.0-4.0-0.29","580777dd827ca10001db494b","E1","batch5","","null","<p class=block-text>Trial 54 out of 60</p>","null","spm_show_trial_num","","","","","","","","","","","","","","","","","","","","","","","","",""
"","","","","","image-button-response","296","1338116","0.0-3.0-4.0-1.29","580777dd827ca10001db494b","E1","batch5","","15536.39999999851","img/question_5_6.jpeg","3","spm_respsonse","0","5","mat_54","","","","","","0","15536.39999999851","","","","","","","","","","","","","","",""
"","","","","","html-keyboard-response","297","1339169","0.0-3.0-4.0-0.30","580777dd827ca10001db494b","E1","batch5","","null","<p class=block-text>Trial 55 out of 60</p>","null","spm_show_trial_num","","","","","","","","","","","","","","","","","","","","","","","","",""
"","","","","","image-button-response","298","1367769","0.0-3.0-4.0-1.30","580777dd827ca10001db494b","E1","batch5","","28591.199999999255","img/question_5_7.jpeg","0","spm_respsonse","1","1","mat_55","","","","","","1","28591.199999999255","","","","","","","","","","","","","","",""
"","","","","","html-keyboard-response","299","1368822","0.0-3.0-4.0-0.31","580777dd827ca10001db494b","E1","batch5","","null","<p class=block-text>Trial 56 out of 60</p>","null","spm_show_trial_num","","","","","","","","","","","","","","","","","","","","","","","","",""
"","","","","","image-button-response","300","1383179","0.0-3.0-4.0-1.31","580777dd827ca10001db494b","E1","batch5","","14351.300000000745","img/question_5_8.jpeg","5","spm_respsonse","1","6","mat_56","","","","","","1","14351.300000000745","","","","","","","","","","","","","","",""
"","","","","","html-keyboard-response","301","1384232","0.0-3.0-4.0-0.32","580777dd827ca10001db494b","E1","batch5","","null","<p class=block-text>Trial 57 out of 60</p>","null","spm_show_trial_num","","","","","","","","","","","","","","","","","","","","","","","","",""
"","","","","","image-button-response","302","1407962","0.0-3.0-4.0-1.32","580777dd827ca10001db494b","E1","batch5","","23722.699999999255","img/question_5_9.jpeg","2","spm_respsonse","1","3","mat_57","","","","","","1","23722.699999999255","","","","","","","","","","","","","","",""
"","","","","","html-keyboard-response","303","1409017","0.0-3.0-4.0-0.33","580777dd827ca10001db494b","E1","batch5","","null","<p class=block-text>Trial 58 out of 60</p>","null","spm_show_trial_num","","","","","","","","","","","","","","","","","","","","","","","","",""
"","","","","","image-button-response","304","1438489","0.0-3.0-4.0-1.33","580777dd827ca10001db494b","E1","batch5","","29456.300000000745","img/question_5_10.jpeg","3","spm_respsonse","0","2","mat_58","","","","","","0","29456.300000000745","","","","","","","","","","","","","","",""
"","","","","","html-keyboard-response","305","1439543","0.0-3.0-4.0-0.34","580777dd827ca10001db494b","E1","batch5","","null","<p class=block-text>Trial 59 out of 60</p>","null","spm_show_trial_num","","","","","","","","","","","","","","","","","","","","","","","","",""
"","","","","","image-button-response","306","1502799","0.0-3.0-4.0-1.34","580777dd827ca10001db494b","E1","batch5","","63248.900000002235","img/question_5_11.jpeg","4","spm_respsonse","0","4","mat_59","","","","","","0","63248.900000002235","","","","","","","","","","","","","","",""
"","","","","","html-keyboard-response","307","1503852","0.0-3.0-4.0-0.35","580777dd827ca10001db494b","E1","batch5","","null","<p class=block-text>Trial 60 out of 60</p>","null","spm_show_trial_num","","","","","","","","","","","","","","","","","","","","","","","","",""
"","","","","","image-button-response","308","1541329","0.0-3.0-4.0-1.35","580777dd827ca10001db494b","E1","batch5","","37470.70000000298","img/question_5_12.jpeg","7","spm_respsonse","0","5","mat_60","","","","","","0","37470.70000000298","","","","","","","","","","","","","","",""
"","","","","","html-button-response","309","1543988","0.0-3.0-5.0","580777dd827ca10001db494b","E1","batch5","","2406","<p class= block-text>This concludes the Standard Progressive Matrix game. Thank you for your responses!<br> When you are ready, click the button continue</p>","0","spm_goodbye","","","","","","","","","","","","","","","","","","","","","","","","",""
"true","","","","","fullscreen","310","1546336","0.0-4.0-0.0","580777dd827ca10001db494b","E1","batch5","","","","","","","","","","","","","","","","","","","","","","","","","","","","","",""
"","","","","","instructions","311","1612019","0.0-4.0-1.0-0.0-0.0","580777dd827ca10001db494b","E1","batch5","[{""page_index"":0,""viewing_time"":21265.599999997765},{""page_index"":1,""viewing_time"":4598.20000000298},{""page_index"":2,""viewing_time"":4294.099999997765},{""page_index"":3,""viewing_time"":10063.900000002235},{""page_index"":4,""viewing_time"":6782.5},{""page_index"":5,""viewing_time"":15791.89999999851},{""page_index"":6,""viewing_time"":2883.5}]","65680.5","","","tol-instructions","","","","","","","","","","","","","","","","","","","","","","","","",""
"","","","","","html-button-response","312","1613079","0.0-4.0-1.0-1.0-0.0","580777dd827ca10001db494b","E1","batch5","","1057.199999999255","<p class=block-text> Let's answer a few questions <br>","0","tol_enter_quiz","","","","","","","","","","","","","","","","","","","","","","","","",""
"","","","","","html-button-response","313","1621867","0.0-4.0-1.0-1.0-1.0","580777dd827ca10001db494b","E1","batch5","","8784.599999997765","<p class = block-text>True or False: You can only move the ball on top of a peg. <br></p>","0","tol_quiz","true","","","","","","","","","","","","","","","","","","","","","","","",""
"","","","","","html-button-response","314","1623389","0.0-4.0-1.0-1.0-2.0","580777dd827ca10001db494b","E1","batch5","","1519.6000000014901","<p class = block-text>Correct! You can only move the ball on top of a peg.</p>","0","tol_quiz_feedback","","","","","","","","","","","","","","","","","","","","","","","","",""
"","","","","","html-button-response","315","1626076","0.0-4.0-1.0-1.0-3.0","580777dd827ca10001db494b","E1","batch5","","2683.199999999255","<p class = block-text>True or False: You should try to match your board with the target board with fewest moves possible. <br></p>","0","tol_quiz","true","","","","","","","","","","","","","","","","","","","","","","","",""
"","","","","","html-button-response","316","1626908","0.0-4.0-1.0-1.0-4.0","580777dd827ca10001db494b","E1","batch5","","828.3000000007451","<p class = block-text>Correct! </p>","0","tol_quiz_feedback","","","","","","","","","","","","","","","","","","","","","","","","",""
"","","","","","html-button-response","317","1628455","0.0-4.0-2.0","580777dd827ca10001db494b","E1","batch5","","1542.5","<p class=block-text> Now that you've understood the game, let's practice a few easier examples before we start!<br> <br>","0","","","","","","","","","","","","","","","","","","","","","","","","","",""
"","","","","","single-stim-button","318","1633309","0.0-4.0-3.0-0.0","580777dd827ca10001db494b","E1","batch5","","4848","","","tol_practice","","","","","","","","","","","tol_peg_2","4848","4848","0","[[1,2,0],[0,0],[0]]","1","[[1,2,0],[0,0],[3]]","practice","4848","","","","","",""
"","","","","","single-stim-button","319","1635449","0.0-4.0-3.0-1.0","580777dd827ca10001db494b","E1","batch5","","2138","","","tol_practice","","","","","","","","","","","tol_peg_3","2138","2138","0","[[1,2,0],[0,0],[3]]","1","[[1,2,0],[0,0],[3]]","practice","2138","","","","","",""
"","","","","","poldrack-single-stim","320","1636453","0.0-4.0-4.0","580777dd827ca10001db494b","E1","batch5","","-1","","","tol_feedback","true","","","","","","","","","","","1000","1000","500","","","","","","-1","none","true","","0",""
"","","","","","single-stim-button","321","1640408","0.0-4.0-5.0-0.0","580777dd827ca10001db494b","E1","batch5","","3952","","","tol_practice","","","","","","","","","","","tol_peg_1","3952","3952","0","[[1,0,0],[3,0],[0]]","2","[[0,0,0],[3,1],[2]]","practice","3952","","","","","",""
"","","","","","single-stim-button","322","1642170","0.0-4.0-5.0-1.0","580777dd827ca10001db494b","E1","batch5","","1759","","","tol_practice","","","","","","","","","","","tol_peg_3","1759","1759","0","[[1,0,0],[3,0],[2]]","2","[[0,0,0],[3,1],[2]]","practice","1759","","","","","",""
"","","","","","single-stim-button","323","1643703","0.0-4.0-5.1-0.1","580777dd827ca10001db494b","E1","batch5","","1530","","","tol_practice","","","","","","","","","","","tol_peg_1","1530","1530","0","[[0,0,0],[3,0],[2]]","3","[[0,0,0],[3,1],[2]]","practice","1530","","","","","",""
"","","","","","single-stim-button","324","1644736","0.0-4.0-5.1-1.1","580777dd827ca10001db494b","E1","batch5","","1031","","","tol_practice","","","","","","","","","","","tol_peg_2","1031","1031","0","[[0,0,0],[3,1],[2]]","3","[[0,0,0],[3,1],[2]]","practice","1031","","","","","",""
"","","","","","poldrack-single-stim","325","1645741","0.0-4.0-6.0","580777dd827ca10001db494b","E1","batch5","","-1","","","tol_feedback","true","","","","","","","","","","","1000","1000","500","","","","","","-1","none","true","","0",""
"","","","","","single-stim-button","326","1648553","0.0-4.0-7.0-0.0","580777dd827ca10001db494b","E1","batch5","","2808","","","tol_practice","","","","","","","","","","","tol_peg_2","2808","2808","0","[[1,2,0],[0,0],[0]]","4","[[1,0,0],[2,0],[3]]","practice","2808","","","","","",""
"","","","","","single-stim-button","327","1649650","0.0-4.0-7.0-1.0","580777dd827ca10001db494b","E1","batch5","","1094","","","tol_practice","","","","","","","","","","","tol_peg_3","1094","1094","0","[[1,2,0],[0,0],[3]]","4","[[1,0,0],[2,0],[3]]","practice","1094","","","","","",""
"","","","","","single-stim-button","328","1651161","0.0-4.0-7.1-0.1","580777dd827ca10001db494b","E1","batch5","","1509","","","tol_practice","","","","","","","","","","","tol_peg_1","1509","1509","0","[[1,0,0],[0,0],[3]]","5","[[1,0,0],[2,0],[3]]","practice","1509","","","","","",""
"","","","","","single-stim-button","329","1652258","0.0-4.0-7.1-1.1","580777dd827ca10001db494b","E1","batch5","","1095","","","tol_practice","","","","","","","","","","","tol_peg_2","1095","1095","0","[[1,0,0],[2,0],[3]]","5","[[1,0,0],[2,0],[3]]","practice","1095","","","","","",""
"","","","","","poldrack-single-stim","330","1653263","0.0-4.0-8.0","580777dd827ca10001db494b","E1","batch5","","-1","","","tol_feedback","true","","","","","","","","","","","1000","1000","500","","","","","","-1","none","true","","0",""
"","","","","","html-button-response","331","1655193","0.0-4.0-9.0","580777dd827ca10001db494b","E1","batch5","","1928.5","<div class = centerbox><p class = center-block-text>Great job! You are done with practice trials<br>You are about to start official trials.<br> <br> Problem <strong>1</strong> out of 25 problems</p></div>","0","tol_instruction","","","","","","","","","","","","","","","","","","","","","","","","",""
"","","","","","single-stim-button","332","1661945","0.0-4.0-10.0-0.0","580777dd827ca10001db494b","E1","batch5","","5748","","","tol_tohand","","","","","","","","","","","tol_peg_1","5748","5748","0","[[1,0,0],[3,0],[0]]","1","[[1,3,0],[2,0],[0]]","0","0","","","","","","3"
"","","","","","single-stim-button","333","1664511","0.0-4.0-10.0-1.0","580777dd827ca10001db494b","E1","batch5","","2562","","","tol_toboard","","","","","","","","","","","tol_peg_3","2562","2562","0","[[1,0,0],[3,0],[2]]","1","[[1,3,0],[2,0],[0]]","0","0","","","","","","3"
"","","","","","single-stim-button","334","1665231","0.0-4.0-10.1-0.1","580777dd827ca10001db494b","E1","batch5","","717","","","tol_tohand","","","","","","","","","","","tol_peg_2","717","717","0","[[1,0,0],[0,0],[2]]","2","[[1,3,0],[2,0],[0]]","0","0","","","","","","3"
"","","","","","single-stim-button","335","1667536","0.0-4.0-10.1-1.1","580777dd827ca10001db494b","E1","batch5","","2303","","","tol_toboard","","","","","","","","","","","tol_peg_1","2303","2303","0","[[1,3,0],[0,0],[2]]","2","[[1,3,0],[2,0],[0]]","0","0","","","","","","3"
"","","","","","single-stim-button","336","1668438","0.0-4.0-10.2-0.2","580777dd827ca10001db494b","E1","batch5","","899","","","tol_tohand","","","","","","","","","","","tol_peg_3","899","899","0","[[1,3,0],[0,0],[0]]","3","[[1,3,0],[2,0],[0]]","0","0","","","","","","3"
"","","","","","single-stim-button","337","1669510","0.0-4.0-10.2-1.2","580777dd827ca10001db494b","E1","batch5","","1069","","","tol_toboard","","","","","","","","","","","tol_peg_2","1069","1069","0","[[1,3,0],[2,0],[0]]","3","[[1,3,0],[2,0],[0]]","0","0","","","","","","3"
"","","","","","poldrack-single-stim","338","1670514","0.0-4.0-11.0","580777dd827ca10001db494b","E1","batch5","","-1","","","tol_feedback","true","","","","","","","","","","","1000","1000","500","","","","","","-1","none","true","5748","7364",""
"","","","","","html-button-response","339","1671838","0.0-4.0-12.0","580777dd827ca10001db494b","E1","batch5","","1321.5","<div class = centerbox><p class = center-block-text>problem <strong>2</strong> out of 25 problems</p></div>","0","tol_trial_num","","","","","","","","","","","","","","","","","","","","","","","","",""
"","","","","","single-stim-button","340","1674880","0.0-4.0-13.0-0.0","580777dd827ca10001db494b","E1","batch5","","3038","","","tol_tohand","","","","","","","","","","","tol_peg_1","3038","3038","0","[[1,0,0],[3,0],[0]]","1","[[2,1,3],[0,0],[0]]","1","0","","","","","","5"
"","","","","","single-stim-button","341","1680206","0.0-4.0-13.0-1.0","580777dd827ca10001db494b","E1","batch5","","5323","","","tol_toboard","","","","","","","","","","","tol_peg_3","5323","5323","0","[[1,0,0],[3,0],[2]]","1","[[2,1,3],[0,0],[0]]","1","0","","","","","","5"
"","","","","","single-stim-button","342","1685056","0.0-4.0-13.1-0.1","580777dd827ca10001db494b","E1","batch5","","4848","","","tol_tohand","","","","","","","","","","","tol_peg_2","4848","4848","0","[[1,0,0],[0,0],[2]]","2","[[2,1,3],[0,0],[0]]","1","0","","","","","","5"
"","","","","","single-stim-button","343","1686129","0.0-4.0-13.1-1.1","580777dd827ca10001db494b","E1","batch5","","1071","","","tol_toboard","","","","","","","","","","","tol_peg_1","1071","1071","0","[[1,3,0],[0,0],[2]]","2","[[2,1,3],[0,0],[0]]","1","0","","","","","","5"
"","","","","","single-stim-button","344","1687478","0.0-4.0-13.2-0.2","580777dd827ca10001db494b","E1","batch5","","1346","","","tol_tohand","","","","","","","","","","","tol_peg_3","1346","1346","0","[[1,3,0],[0,0],[0]]","3","[[2,1,3],[0,0],[0]]","1","0","","","","","","5"
"","","","","","single-stim-button","345","1688260","0.0-4.0-13.2-1.2","580777dd827ca10001db494b","E1","batch5","","778","","","tol_toboard","","","","","","","","","","","tol_peg_2","778","778","0","[[1,3,0],[2,0],[0]]","3","[[2,1,3],[0,0],[0]]","1","0","","","","","","5"
