"success","timeout","failed_images","failed_audio","failed_video","trial_type","trial_index","time_elapsed","internal_node_id","subject_id","study_id","session_id","view_history","rt","task","stimulus","response","correct","mouse_click","stim_duration","block_duration","timing_post_trial","current_position","tol_num_moves_made","tol_target","tol_problem_id","tol_rt","key_press","possible_responses","tol_correct","preplanning","tol_rt_per_trial","tol_min_moves","answer","item","fiar_detect_rt","fiar_detect_correct","total_correct_fiar_detect","post_trial_gap","choices","spm_correct","spm_rt"
"true","false","[]","[]","[]","preload","0","5930","0.0-0.0","585849a944177c0001aacf8e","D2","batch4","","","","","","","","","","","","","","","","","","","","","","","","","","","","","",""
"true","","","","","fullscreen","1","114009","0.0-1.0-0.0","585849a944177c0001aacf8e","D2","batch4","","","","","","","","","","","","","","","","","","","","","","","","","","","","","",""
"true","","","","","fullscreen","2","116857","0.0-2.0-0.0","585849a944177c0001aacf8e","D2","batch4","","","","","","","","","","","","","","","","","","","","","","","","","","","","","",""
"","","","","","instructions","3","171302","0.0-2.0-1.0-0.0-0.0","585849a944177c0001aacf8e","D2","batch4","[{""page_index"":0,""viewing_time"":10538.799999952316},{""page_index"":1,""viewing_time"":4455.700000047684},{""page_index"":2,""viewing_time"":3464.5},{""page_index"":3,""viewing_time"":11215.699999928474},{""page_index"":4,""viewing_time"":11279.800000071526},{""page_index"":5,""viewing_time"":10112.199999928474},{""page_index"":6,""viewing_time"":3375.8000000715256}]","54442.89999997616","tol-instructions","","","","","","","","","","","","","","","","","","","","","","","","","","",""
"","","","","","html-button-response","4","172311","0.0-2.0-1.0-1.0-0.0","585849a944177c0001aacf8e","D2","batch4","","1006.7000000476837","tol_enter_quiz","<p class=block-text> Let's answer a few questions <br>","0","","","","","","","","","","","","","","","","","","","","","","","","",""
"","","","","","html-button-response","5","179110","0.0-2.0-1.0-1.0-1.0","585849a944177c0001aacf8e","D2","batch4","","6797.399999976158","tol_quiz","<p class = block-text>True or False: You can only move the ball on top of a peg. <br></p>","1","false","","","","","","","","","","","","","","","","","","","","","","","",""
"","","","","","html-button-response","6","181934","0.0-2.0-1.0-1.0-2.0","585849a944177c0001aacf8e","D2","batch4","","2821.399999976158","tol_quiz_feedback","<p class = block-text>Incorrect. Remember, you can only move the ball on top of a peg.</p>","0","","","","","","","","","","","","","","","","","","","","","","","","",""
"","","","","","html-button-response","7","184910","0.0-2.0-1.0-1.0-3.0","585849a944177c0001aacf8e","D2","batch4","","2974.399999976158","tol_quiz","<p class = block-text>True or False: You should try to match your board with the target board with fewest moves possible. <br></p>","0","true","","","","","","","","","","","","","","","","","","","","","","","",""
"","","","","","html-button-response","8","185862","0.0-2.0-1.0-1.0-4.0","585849a944177c0001aacf8e","D2","batch4","","950.6000000238419","tol_quiz_feedback","<p class = block-text>Correct! </p>","0","","","","","","","","","","","","","","","","","","","","","","","","",""
"","","","","","html-button-response","9","188038","0.0-2.0-1.0-2.0-0.0","585849a944177c0001aacf8e","D2","batch4","","2173.7000000476837","","<p class = block-text>You made too many incorrect choices.</p><p class = block-text>You will now repeat the instructions and quiz</p>","0","","","","","","","","","","","","","","","","","","","","","","","","",""
"","","","","","instructions","10","215510","0.0-2.0-1.1-0.1-0.1","585849a944177c0001aacf8e","D2","batch4","[{""page_index"":0,""viewing_time"":5839.100000023842},{""page_index"":1,""viewing_time"":3415.5999999046326},{""page_index"":2,""viewing_time"":2079.9000000953674},{""page_index"":3,""viewing_time"":8952.099999904633},{""page_index"":4,""viewing_time"":1415.6000000238419},{""page_index"":5,""viewing_time"":4112.899999976158},{""page_index"":6,""viewing_time"":1655.2000000476837}]","27470.799999952316","tol-instructions","","","","","","","","","","","","","","","","","","","","","","","","","","",""
"","","","","","html-button-response","11","216422","0.0-2.0-1.1-1.1-0.1","585849a944177c0001aacf8e","D2","batch4","","910.7000000476837","tol_enter_quiz","<p class=block-text> Let's answer a few questions <br>","0","","","","","","","","","","","","","","","","","","","","","","","","",""
"","","","","","html-button-response","12","219798","0.0-2.0-1.1-1.1-1.1","585849a944177c0001aacf8e","D2","batch4","","3374.600000023842","tol_quiz","<p class = block-text>True or False: You can only move the ball on top of a peg. <br></p>","0","true","","","","","","","","","","","","","","","","","","","","","","","",""
"","","","","","html-button-response","13","221238","0.0-2.0-1.1-1.1-2.1","585849a944177c0001aacf8e","D2","batch4","","1438.2000000476837","tol_quiz_feedback","<p class = block-text>Correct! You can only move the ball on top of a peg.</p>","0","","","","","","","","","","","","","","","","","","","","","","","","",""
"","","","","","html-button-response","14","224134","0.0-2.0-1.1-1.1-3.1","585849a944177c0001aacf8e","D2","batch4","","2894.399999976158","tol_quiz","<p class = block-text>True or False: You should try to match your board with the target board with fewest moves possible. <br></p>","0","true","","","","","","","","","","","","","","","","","","","","","","","",""
"","","","","","html-button-response","15","224878","0.0-2.0-1.1-1.1-4.1","585849a944177c0001aacf8e","D2","batch4","","743","tol_quiz_feedback","<p class = block-text>Correct! </p>","0","","","","","","","","","","","","","","","","","","","","","","","","",""
"","","","","","html-button-response","16","226454","0.0-2.0-2.0","585849a944177c0001aacf8e","D2","batch4","","1574.5","","<p class=block-text> Now that you've understood the game, let's practice a few easier examples before we start!<br> <br>","0","","","","","","","","","","","","","","","","","","","","","","","","",""
"","","","","","single-stim-button","17","229969","0.0-2.0-3.0-0.0","585849a944177c0001aacf8e","D2","batch4","","3513","tol_practice","","","","tol_peg_2","3513","3513","0","[[1,2,0],[0,0],[0]]","1","[[1,2,0],[0,0],[3]]","practice","3513","","","","","","","","","","","","","","",""
"","","","","","single-stim-button","18","231279","0.0-2.0-3.0-1.0","585849a944177c0001aacf8e","D2","batch4","","1307","tol_practice","","","","tol_peg_3","1307","1307","0","[[1,2,0],[0,0],[3]]","1","[[1,2,0],[0,0],[3]]","practice","1307","","","","","","","","","","","","","","",""
"","","","","","poldrack-single-stim","19","232286","0.0-2.0-4.0","585849a944177c0001aacf8e","D2","batch4","","-1","tol_feedback","","","true","","1000","1000","500","","","","","","-1","none","true","","0","","","","","","","","","",""
"","","","","","single-stim-button","20","238710","0.0-2.0-5.0-0.0","585849a944177c0001aacf8e","D2","batch4","","6423","tol_practice","","","","tol_peg_1","6423","6423","0","[[1,0,0],[3,0],[0]]","2","[[0,0,0],[3,1],[2]]","practice","6423","","","","","","","","","","","","","","",""
"","","","","","single-stim-button","21","242311","0.0-2.0-5.0-1.0","585849a944177c0001aacf8e","D2","batch4","","3599","tol_practice","","","","tol_peg_3","3599","3599","0","[[1,0,0],[3,0],[2]]","2","[[0,0,0],[3,1],[2]]","practice","3599","","","","","","","","","","","","","","",""
"","","","","","single-stim-button","22","243510","0.0-2.0-5.1-0.1","585849a944177c0001aacf8e","D2","batch4","","1199","tol_practice","","","","tol_peg_1","1199","1199","0","[[0,0,0],[3,0],[2]]","3","[[0,0,0],[3,1],[2]]","practice","1199","","","","","","","","","","","","","","",""
"","","","","","single-stim-button","23","244521","0.0-2.0-5.1-1.1","585849a944177c0001aacf8e","D2","batch4","","1009","tol_practice","","","","tol_peg_2","1009","1009","0","[[0,0,0],[3,1],[2]]","3","[[0,0,0],[3,1],[2]]","practice","1009","","","","","","","","","","","","","","",""
"","","","","","poldrack-single-stim","24","245527","0.0-2.0-6.0","585849a944177c0001aacf8e","D2","batch4","","-1","tol_feedback","","","true","","1000","1000","500","","","","","","-1","none","true","","0","","","","","","","","","",""
"","","","","","single-stim-button","25","249726","0.0-2.0-7.0-0.0","585849a944177c0001aacf8e","D2","batch4","","4198","tol_practice","","","","tol_peg_2","4198","4198","0","[[1,2,0],[0,0],[0]]","4","[[1,0,0],[2,0],[3]]","practice","4198","","","","","","","","","","","","","","",""
"","","","","","single-stim-button","26","250671","0.0-2.0-7.0-1.0","585849a944177c0001aacf8e","D2","batch4","","943","tol_practice","","","","tol_peg_3","943","943","0","[[1,2,0],[0,0],[3]]","4","[[1,0,0],[2,0],[3]]","practice","943","","","","","","","","","","","","","","",""
"","","","","","single-stim-button","27","251606","0.0-2.0-7.1-0.1","585849a944177c0001aacf8e","D2","batch4","","935","tol_practice","","","","tol_peg_1","935","935","0","[[1,0,0],[0,0],[3]]","5","[[1,0,0],[2,0],[3]]","practice","935","","","","","","","","","","","","","","",""
"","","","","","single-stim-button","28","252543","0.0-2.0-7.1-1.1","585849a944177c0001aacf8e","D2","batch4","","935","tol_practice","","","","tol_peg_2","935","935","0","[[1,0,0],[2,0],[3]]","5","[[1,0,0],[2,0],[3]]","practice","935","","","","","","","","","","","","","","",""
"","","","","","poldrack-single-stim","29","253546","0.0-2.0-8.0","585849a944177c0001aacf8e","D2","batch4","","-1","tol_feedback","","","true","","1000","1000","500","","","","","","-1","none","true","","0","","","","","","","","","",""
"","","","","","html-button-response","30","257734","0.0-2.0-9.0","585849a944177c0001aacf8e","D2","batch4","","4187.100000023842","tol_instruction","<div class = centerbox><p class = center-block-text>Great job! You are done with practice trials<br>You are about to start official trials.<br> <br> Problem <strong>1</strong> out of 25 problems</p></div>","0","","","","","","","","","","","","","","","","","","","","","","","","",""
"","","","","","single-stim-button","31","266670","0.0-2.0-10.0-0.0","585849a944177c0001aacf8e","D2","batch4","","7932","tol_tohand","","","","tol_peg_2","7932","7932","0","[[1,2,0],[0,0],[0]]","1","[[1,3,0],[2,0],[0]]","0","0","","","","","","3","","","","","","","","",""
"","","","","","single-stim-button","32","269735","0.0-2.0-10.0-1.0","585849a944177c0001aacf8e","D2","batch4","","3063","tol_toboard","","","","tol_peg_3","3063","3063","0","[[1,2,0],[0,0],[3]]","1","[[1,3,0],[2,0],[0]]","0","0","","","","","","3","","","","","","","","",""
"","","","","","single-stim-button","33","270630","0.0-2.0-10.1-0.1","585849a944177c0001aacf8e","D2","batch4","","895","tol_tohand","","","","tol_peg_1","895","895","0","[[1,0,0],[0,0],[3]]","2","[[1,3,0],[2,0],[0]]","0","0","","","","","","3","","","","","","","","",""
"","","","","","single-stim-button","34","272975","0.0-2.0-10.1-1.1","585849a944177c0001aacf8e","D2","batch4","","2343","tol_toboard","","","","tol_peg_2","2343","2343","0","[[1,0,0],[2,0],[3]]","2","[[1,3,0],[2,0],[0]]","0","0","","","","","","3","","","","","","","","",""
"","","","","","single-stim-button","35","273559","0.0-2.0-10.2-0.2","585849a944177c0001aacf8e","D2","batch4","","583","tol_tohand","","","","tol_peg_3","583","583","0","[[1,0,0],[2,0],[0]]","3","[[1,3,0],[2,0],[0]]","0","0","","","","","","3","","","","","","","","",""
"","","","","","single-stim-button","36","274478","0.0-2.0-10.2-1.2","585849a944177c0001aacf8e","D2","batch4","","919","tol_toboard","","","","tol_peg_1","919","919","0","[[1,3,0],[2,0],[0]]","3","[[1,3,0],[2,0],[0]]","0","0","","","","","","3","","","","","","","","",""
"","","","","","poldrack-single-stim","37","275483","0.0-2.0-11.0","585849a944177c0001aacf8e","D2","batch4","","-1","tol_feedback","","","true","","1000","1000","500","","","","","","-1","none","true","7932","9410","","","","","","","","","",""
"","","","","","html-button-response","38","276446","0.0-2.0-12.0","585849a944177c0001aacf8e","D2","batch4","","961.6000000238419","tol_trial_num","<div class = centerbox><p class = center-block-text>problem <strong>2</strong> out of 25 problems</p></div>","0","","","","","","","","","","","","","","","","","","","","","","","","",""
"","","","","","single-stim-button","39","279870","0.0-2.0-13.0-0.0","585849a944177c0001aacf8e","D2","batch4","","3423","tol_tohand","","","","tol_peg_1","3423","3423","0","[[1,0,0],[3,0],[0]]","1","[[2,1,3],[0,0],[0]]","1","0","","","","","","5","","","","","","","","",""
"","","","","","single-stim-button","40","285878","0.0-2.0-13.0-1.0","585849a944177c0001aacf8e","D2","batch4","","6005","tol_toboard","","","","tol_peg_3","6005","6005","0","[[1,0,0],[3,0],[2]]","1","[[2,1,3],[0,0],[0]]","1","0","","","","","","5","","","","","","","","",""
"","","","","","single-stim-button","41","286766","0.0-2.0-13.1-0.1","585849a944177c0001aacf8e","D2","batch4","","886","tol_tohand","","","","tol_peg_1","886","886","0","[[0,0,0],[3,0],[2]]","2","[[2,1,3],[0,0],[0]]","1","0","","","","","","5","","","","","","","","",""
"","","","","","single-stim-button","42","288262","0.0-2.0-13.1-1.1","585849a944177c0001aacf8e","D2","batch4","","1494","tol_toboard","","","","tol_peg_2","1494","1494","0","[[0,0,0],[3,1],[2]]","2","[[2,1,3],[0,0],[0]]","1","0","","","","","","5","","","","","","","","",""
"","","","","","single-stim-button","43","289038","0.0-2.0-13.2-0.2","585849a944177c0001aacf8e","D2","batch4","","775","tol_tohand","","","","tol_peg_3","775","775","0","[[0,0,0],[3,1],[0]]","3","[[2,1,3],[0,0],[0]]","1","0","","","","","","5","","","","","","","","",""
"","","","","","single-stim-button","44","290342","0.0-2.0-13.2-1.2","585849a944177c0001aacf8e","D2","batch4","","1303","tol_toboard","","","","tol_peg_1","1303","1303","0","[[2,0,0],[3,1],[0]]","3","[[2,1,3],[0,0],[0]]","1","0","","","","","","5","","","","","","","","",""
"","","","","","single-stim-button","45","291806","0.0-2.0-13.3-0.3","585849a944177c0001aacf8e","D2","batch4","","1462","tol_tohand","","","","tol_peg_2","1462","1462","0","[[2,0,0],[3,0],[0]]","4","[[2,1,3],[0,0],[0]]","1","0","","","","","","5","","","","","","","","",""
"","","","","","single-stim-button","46","293511","0.0-2.0-13.3-1.3","585849a944177c0001aacf8e","D2","batch4","","1702","tol_toboard","","","","tol_peg_1","1702","1702","0","[[2,1,0],[3,0],[0]]","4","[[2,1,3],[0,0],[0]]","1","0","","","","","","5","","","","","","","","",""
"","","","","","single-stim-button","47","294142","0.0-2.0-13.4-0.4","585849a944177c0001aacf8e","D2","batch4","","630","tol_tohand","","","","tol_peg_2","630","630","0","[[2,1,0],[0,0],[0]]","5","[[2,1,3],[0,0],[0]]","1","0","","","","","","5","","","","","","","","",""
"","","","","","single-stim-button","48","294582","0.0-2.0-13.4-1.4","585849a944177c0001aacf8e","D2","batch4","","439","tol_toboard","","","","tol_peg_1","439","439","0","[[2,1,3],[0,0],[0]]","5","[[2,1,3],[0,0],[0]]","1","0","","","","","","5","","","","","","","","",""
"","","","","","poldrack-single-stim","49","295583","0.0-2.0-14.0","585849a944177c0001aacf8e","D2","batch4","","-1","tol_feedback","","","true","","1000","1000","500","","","","","","-1","none","true","3423","7176","","","","","","","","","",""
"","","","","","html-button-response","50","299622","0.0-2.0-15.0","585849a944177c0001aacf8e","D2","batch4","","4037.1999999284744","tol_trial_num","<div class = centerbox><p class = center-block-text>problem <strong>3</strong> out of 25 problems</p></div>","0","","","","","","","","","","","","","","","","","","","","","","","","",""
"","","","","","single-stim-button","51","305358","0.0-2.0-16.0-0.0","585849a944177c0001aacf8e","D2","batch4","","5735","tol_tohand","","","","tol_peg_1","5735","5735","0","[[2,0,0],[0,0],[1]]","1","[[1,2,0],[3,0],[0]]","2","0","","","","","","4","","","","","","","","",""
"","","","","","single-stim-button","52","306150","0.0-2.0-16.0-1.0","585849a944177c0001aacf8e","D2","batch4","","790","tol_toboard","","","","tol_peg_2","790","790","0","[[2,0,0],[3,0],[1]]","1","[[1,2,0],[3,0],[0]]","2","0","","","","","","4","","","","","","","","",""
"","","","","","single-stim-button","53","306830","0.0-2.0-16.1-0.1","585849a944177c0001aacf8e","D2","batch4","","678","tol_tohand","","","","tol_peg_1","678","678","0","[[0,0,0],[3,0],[1]]","2","[[1,2,0],[3,0],[0]]","2","0","","","","","","4","","","","","","","","",""
"","","","","","single-stim-button","54","307766","0.0-2.0-16.1-1.1","585849a944177c0001aacf8e","D2","batch4","","935","tol_toboard","","","","tol_peg_2","935","935","0","[[0,0,0],[3,2],[1]]","2","[[1,2,0],[3,0],[0]]","2","0","","","","","","4","","","","","","","","",""
"","","","","","single-stim-button","55","308582","0.0-2.0-16.2-0.2","585849a944177c0001aacf8e","D2","batch4","","814","tol_tohand","","","","tol_peg_3","814","814","0","[[0,0,0],[3,2],[0]]","3","[[1,2,0],[3,0],[0]]","2","0","","","","","","4","","","","","","","","",""
"","","","","","single-stim-button","56","309374","0.0-2.0-16.2-1.2","585849a944177c0001aacf8e","D2","batch4","","791","tol_toboard","","","","tol_peg_1","791","791","0","[[1,0,0],[3,2],[0]]","3","[[1,2,0],[3,0],[0]]","2","0","","","","","","4","","","","","","","","",""
"","","","","","single-stim-button","57","310030","0.0-2.0-16.3-0.3","585849a944177c0001aacf8e","D2","batch4","","656","tol_tohand","","","","tol_peg_2","656","656","0","[[1,0,0],[3,0],[0]]","4","[[1,2,0],[3,0],[0]]","2","0","","","","","","4","","","","","","","","",""
"","","","","","single-stim-button","58","310670","0.0-2.0-16.3-1.3","585849a944177c0001aacf8e","D2","batch4","","638","tol_toboard","","","","tol_peg_1","638","638","0","[[1,2,0],[3,0],[0]]","4","[[1,2,0],[3,0],[0]]","2","0","","","","","","4","","","","","","","","",""
"","","","","","poldrack-single-stim","59","311678","0.0-2.0-17.0","585849a944177c0001aacf8e","D2","batch4","","-1","tol_feedback","","","true","","1000","1000","500","","","","","","-1","none","true","5735","7883","","","","","","","","","",""
"","","","","","html-button-response","60","312565","0.0-2.0-18.0","585849a944177c0001aacf8e","D2","batch4","","886.1999999284744","tol_trial_num","<div class = centerbox><p class = center-block-text>problem <strong>4</strong> out of 25 problems</p></div>","0","","","","","","","","","","","","","","","","","","","","","","","","",""
"","","","","","single-stim-button","61","315926","0.0-2.0-19.0-0.0","585849a944177c0001aacf8e","D2","batch4","","3359","tol_tohand","","","","tol_peg_2","3359","3359","0","[[3,0,0],[2,0],[0]]","1","[[3,0,0],[1,0],[2]]","3","0","","","","","","3","","","","","","","","",""
"","","","","","single-stim-button","62","316990","0.0-2.0-19.0-1.0","585849a944177c0001aacf8e","D2","batch4","","1062","tol_toboard","","","","tol_peg_3","1062","1062","0","[[3,0,0],[2,0],[1]]","1","[[3,0,0],[1,0],[2]]","3","0","","","","","","3","","","","","","","","",""
"","","","","","single-stim-button","63","317878","0.0-2.0-19.1-0.1","585849a944177c0001aacf8e","D2","batch4","","887","tol_tohand","","","","tol_peg_2","887","887","0","[[3,0,0],[0,0],[1]]","2","[[3,0,0],[1,0],[2]]","3","0","","","","","","3","","","","","","","","",""
"","","","","","single-stim-button","64","319398","0.0-2.0-19.1-1.1","585849a944177c0001aacf8e","D2","batch4","","1519","tol_toboard","","","","tol_peg_1","1519","1519","0","[[3,2,0],[0,0],[1]]","2","[[3,0,0],[1,0],[2]]","3","0","","","","","","3","","","","","","","","",""
"","","","","","single-stim-button","65","320142","0.0-2.0-19.2-0.2","585849a944177c0001aacf8e","D2","batch4","","742","tol_tohand","","","","tol_peg_3","742","742","0","[[3,2,0],[0,0],[0]]","3","[[3,0,0],[1,0],[2]]","3","0","","","","","","3","","","","","","","","",""
"","","","","","single-stim-button","66","321046","0.0-2.0-19.2-1.2","585849a944177c0001aacf8e","D2","batch4","","903","tol_toboard","","","","tol_peg_2","903","903","0","[[3,2,0],[1,0],[0]]","3","[[3,0,0],[1,0],[2]]","3","0","","","","","","3","","","","","","","","",""
"","","","","","single-stim-button","67","321751","0.0-2.0-19.3-0.3","585849a944177c0001aacf8e","D2","batch4","","705","tol_tohand","","","","tol_peg_1","705","705","0","[[3,0,0],[1,0],[0]]","4","[[3,0,0],[1,0],[2]]","3","0","","","","","","3","","","","","","","","",""
"","","","","","single-stim-button","68","322694","0.0-2.0-19.3-1.3","585849a944177c0001aacf8e","D2","batch4","","941","tol_toboard","","","","tol_peg_3","941","941","0","[[3,0,0],[1,0],[2]]","4","[[3,0,0],[1,0],[2]]","3","0","","","","","","3","","","","","","","","",""
"","","","","","poldrack-single-stim","69","323705","0.0-2.0-20.0","585849a944177c0001aacf8e","D2","batch4","","-1","tol_feedback","","","true","","1000","1000","500","","","","","","-1","none","true","3359","5693","","","","","","","","","",""
"","","","","","html-button-response","70","324390","0.0-2.0-21.0","585849a944177c0001aacf8e","D2","batch4","","683.3000000715256","tol_trial_num","<div class = centerbox><p class = center-block-text>problem <strong>5</strong> out of 25 problems</p></div>","0","","","","","","","","","","","","","","","","","","","","","","","","",""
"","","","","","single-stim-button","71","339567","0.0-2.0-22.0-0.0","585849a944177c0001aacf8e","D2","batch4","","15175","tol_tohand","","","","tol_peg_1","15175","15175","0","[[0,0,0],[2,0],[3]]","1","[[0,0,0],[1,2],[3]]","4","0","","","","","","7","","","","","","","","",""
"","","","","","single-stim-button","72","343902","0.0-2.0-22.0-1.0","585849a944177c0001aacf8e","D2","batch4","","4333","tol_toboard","","","","tol_peg_1","4333","4333","0","[[1,0,0],[2,0],[3]]","1","[[0,0,0],[1,2],[3]]","4","0","","","","","","7","","","","","","","","",""
"","","","","","single-stim-button","73","345302","0.0-2.0-22.1-0.1","585849a944177c0001aacf8e","D2","batch4","","1398","tol_tohand","","","","tol_peg_3","1398","1398","0","[[1,0,0],[2,0],[0]]","2","[[0,0,0],[1,2],[3]]","4","0","","","","","","7","","","","","","","","",""
"","","","","","single-stim-button","74","346474","0.0-2.0-22.1-1.1","585849a944177c0001aacf8e","D2","batch4","","1171","tol_toboard","","","","tol_peg_1","1171","1171","0","[[1,3,0],[2,0],[0]]","2","[[0,0,0],[1,2],[3]]","4","0","","","","","","7","","","","","","","","",""
"","","","","","single-stim-button","75","347799","0.0-2.0-22.2-0.2","585849a944177c0001aacf8e","D2","batch4","","1324","tol_tohand","","","","tol_peg_2","1324","1324","0","[[1,3,0],[0,0],[0]]","3","[[0,0,0],[1,2],[3]]","4","0","","","","","","7","","","","","","","","",""
"","","","","","single-stim-button","76","349414","0.0-2.0-22.2-1.2","585849a944177c0001aacf8e","D2","batch4","","1615","tol_toboard","","","","tol_peg_3","1615","1615","0","[[1,3,0],[0,0],[2]]","3","[[0,0,0],[1,2],[3]]","4","0","","","","","","7","","","","","","","","",""
"","","","","","single-stim-button","77","351134","0.0-2.0-22.3-0.3","585849a944177c0001aacf8e","D2","batch4","","1719","tol_tohand","","","","tol_peg_1","1719","1719","0","[[1,0,0],[0,0],[2]]","4","[[0,0,0],[1,2],[3]]","4","0","","","","","","7","","","","","","","","",""
"","","","","","single-stim-button","78","353606","0.0-2.0-22.3-1.3","585849a944177c0001aacf8e","D2","batch4","","2471","tol_toboard","","","","tol_peg_2","2471","2471","0","[[1,0,0],[3,0],[2]]","4","[[0,0,0],[1,2],[3]]","4","0","","","","","","7","","","","","","","","",""
"","","","","","single-stim-button","79","357534","0.0-2.0-22.4-0.4","585849a944177c0001aacf8e","D2","batch4","","3927","tol_tohand","","","","tol_peg_3","3927","3927","0","[[1,0,0],[3,0],[0]]","5","[[0,0,0],[1,2],[3]]","4","0","","","","","","7","","","","","","","","",""
"","","","","","single-stim-button","80","361270","0.0-2.0-22.4-1.4","585849a944177c0001aacf8e","D2","batch4","","3735","tol_toboard","","","","tol_peg_2","3735","3735","0","[[1,0,0],[3,2],[0]]","5","[[0,0,0],[1,2],[3]]","4","0","","","","","","7","","","","","","","","",""
"","","","","","single-stim-button","81","362518","0.0-2.0-22.5-0.5","585849a944177c0001aacf8e","D2","batch4","","1247","tol_tohand","","","","tol_peg_2","1247","1247","0","[[1,0,0],[3,0],[0]]","6","[[0,0,0],[1,2],[3]]","4","0","","","","","","7","","","","","","","","",""
"","","","","","single-stim-button","82","363366","0.0-2.0-22.5-1.5","585849a944177c0001aacf8e","D2","batch4","","847","tol_toboard","","","","tol_peg_1","847","847","0","[[1,2,0],[3,0],[0]]","6","[[0,0,0],[1,2],[3]]","4","0","","","","","","7","","","","","","","","",""
"","","","","","single-stim-button","83","364774","0.0-2.0-22.6-0.6","585849a944177c0001aacf8e","D2","batch4","","1408","tol_tohand","","","","tol_peg_2","1408","1408","0","[[1,2,0],[0,0],[0]]","7","[[0,0,0],[1,2],[3]]","4","0","","","","","","7","","","","","","","","",""
"","","","","","single-stim-button","84","365677","0.0-2.0-22.6-1.6","585849a944177c0001aacf8e","D2","batch4","","902","tol_toboard","","","","tol_peg_3","902","902","0","[[1,2,0],[0,0],[3]]","7","[[0,0,0],[1,2],[3]]","4","0","","","","","","7","","","","","","","","",""
"","","","","","single-stim-button","85","368175","0.0-2.0-22.7-0.7","585849a944177c0001aacf8e","D2","batch4","","2496","tol_tohand","","","","tol_peg_1","2496","2496","0","[[1,0,0],[0,0],[3]]","8","[[0,0,0],[1,2],[3]]","4","0","","","","","","7","","","","","","","","",""
"","","","","","single-stim-button","86","369694","0.0-2.0-22.7-1.7","585849a944177c0001aacf8e","D2","batch4","","1518","tol_toboard","","","","tol_peg_2","1518","1518","0","[[1,0,0],[2,0],[3]]","8","[[0,0,0],[1,2],[3]]","4","0","","","","","","7","","","","","","","","",""
"","","","","","single-stim-button","87","370790","0.0-2.0-22.8-0.8","585849a944177c0001aacf8e","D2","batch4","","1095","tol_tohand","","","","tol_peg_1","1095","1095","0","[[0,0,0],[2,0],[3]]","9","[[0,0,0],[1,2],[3]]","4","0","","","","","","7","","","","","","","","",""
"","","","","","single-stim-button","88","372942","0.0-2.0-22.8-1.8","585849a944177c0001aacf8e","D2","batch4","","2150","tol_toboard","","","","tol_peg_2","2150","2150","0","[[0,0,0],[2,1],[3]]","9","[[0,0,0],[1,2],[3]]","4","0","","","","","","7","","","","","","","","",""
"","","","","","single-stim-button","89","377734","0.0-2.0-22.9-0.9","585849a944177c0001aacf8e","D2","batch4","","4790","tol_tohand","","","","tol_peg_2","4790","4790","0","[[0,0,0],[2,0],[3]]","10","[[0,0,0],[1,2],[3]]","4","0","","","","","","7","","","","","","","","",""
"","","","","","single-stim-button","90","379294","0.0-2.0-22.9-1.9","585849a944177c0001aacf8e","D2","batch4","","1559","tol_toboard","","","","tol_peg_1","1559","1559","0","[[1,0,0],[2,0],[3]]","10","[[0,0,0],[1,2],[3]]","4","0","","","","","","7","","","","","","","","",""
"","","","","","single-stim-button","91","379985","0.0-2.0-22.10-0.10","585849a944177c0001aacf8e","D2","batch4","","690","tol_tohand","","","","tol_peg_3","690","690","0","[[1,0,0],[2,0],[0]]","11","[[0,0,0],[1,2],[3]]","4","0","","","","","","7","","","","","","","","",""
"","","","","","single-stim-button","92","381254","0.0-2.0-22.10-1.10","585849a944177c0001aacf8e","D2","batch4","","1268","tol_toboard","","","","tol_peg_1","1268","1268","0","[[1,3,0],[2,0],[0]]","11","[[0,0,0],[1,2],[3]]","4","0","","","","","","7","","","","","","","","",""
"","","","","","single-stim-button","93","382023","0.0-2.0-22.11-0.11","585849a944177c0001aacf8e","D2","batch4","","768","tol_tohand","","","","tol_peg_2","768","768","0","[[1,3,0],[0,0],[0]]","12","[[0,0,0],[1,2],[3]]","4","0","","","","","","7","","","","","","","","",""
"","","","","","single-stim-button","94","382847","0.0-2.0-22.11-1.11","585849a944177c0001aacf8e","D2","batch4","","823","tol_toboard","","","","tol_peg_3","823","823","0","[[1,3,0],[0,0],[2]]","12","[[0,0,0],[1,2],[3]]","4","0","","","","","","7","","","","","","","","",""
"","","","","","single-stim-button","95","384438","0.0-2.0-22.12-0.12","585849a944177c0001aacf8e","D2","batch4","","1591","tol_tohand","","","","tol_peg_1","1591","1591","0","[[1,0,0],[0,0],[2]]","13","[[0,0,0],[1,2],[3]]","4","0","","","","","","7","","","","","","","","",""
"","","","","","single-stim-button","96","385622","0.0-2.0-22.12-1.12","585849a944177c0001aacf8e","D2","batch4","","1182","tol_toboard","","","","tol_peg_2","1182","1182","0","[[1,0,0],[3,0],[2]]","13","[[0,0,0],[1,2],[3]]","4","0","","","","","","7","","","","","","","","",""
"","","","","","single-stim-button","97","386321","0.0-2.0-22.13-0.13","585849a944177c0001aacf8e","D2","batch4","","698","tol_tohand","","","","tol_peg_1","698","698","0","[[0,0,0],[3,0],[2]]","14","[[0,0,0],[1,2],[3]]","4","0","","","","","","7","","","","","","","","",""
"","","","","","single-stim-button","98","395766","0.0-2.0-22.13-1.13","585849a944177c0001aacf8e","D2","batch4","","9444","tol_toboard","","","","tol_peg_1","9444","9444","0","[[1,0,0],[3,0],[2]]","14","[[0,0,0],[1,2],[3]]","4","0","","","","","","7","","","","","","","","",""
"","","","","","single-stim-button","99","396069","0.0-2.0-22.14-0.14","585849a944177c0001aacf8e","D2","batch4","","302","tol_tohand","","","","tol_peg_1","302","302","0","[[0,0,0],[3,0],[2]]","15","[[0,0,0],[1,2],[3]]","4","0","","","","","","7","","","","","","","","",""
"","","","","","single-stim-button","100","397046","0.0-2.0-22.14-1.14","585849a944177c0001aacf8e","D2","batch4","","975","tol_toboard","","","","tol_peg_1","975","975","0","[[1,0,0],[3,0],[2]]","15","[[0,0,0],[1,2],[3]]","4","0","","","","","","7","","","","","","","","",""
"","","","","","single-stim-button","101","397885","0.0-2.0-22.15-0.15","585849a944177c0001aacf8e","D2","batch4","","839","tol_tohand","","","","tol_peg_3","839","839","0","[[1,0,0],[3,0],[0]]","16","[[0,0,0],[1,2],[3]]","4","0","","","","","","7","","","","","","","","",""
"","","","","","single-stim-button","102","398822","0.0-2.0-22.15-1.15","585849a944177c0001aacf8e","D2","batch4","","935","tol_toboard","","","","tol_peg_2","935","935","0","[[1,0,0],[3,2],[0]]","16","[[0,0,0],[1,2],[3]]","4","0","","","","","","7","","","","","","","","",""
"","","","","","single-stim-button","103","399342","0.0-2.0-22.16-0.16","585849a944177c0001aacf8e","D2","batch4","","519","tol_tohand","","","","tol_peg_1","519","519","0","[[0,0,0],[3,2],[0]]","17","[[0,0,0],[1,2],[3]]","4","0","","","","","","7","","","","","","","","",""
"","","","","","single-stim-button","104","401134","0.0-2.0-22.16-1.16","585849a944177c0001aacf8e","D2","batch4","","1791","tol_toboard","","","","tol_peg_3","1791","1791","0","[[0,0,0],[3,2],[1]]","17","[[0,0,0],[1,2],[3]]","4","0","","","","","","7","","","","","","","","",""
"","","","","","single-stim-button","105","402197","0.0-2.0-22.17-0.17","585849a944177c0001aacf8e","D2","batch4","","1063","tol_tohand","","","","tol_peg_2","1063","1063","0","[[0,0,0],[3,0],[1]]","18","[[0,0,0],[1,2],[3]]","4","0","","","","","","7","","","","","","","","",""
"","","","","","single-stim-button","106","403334","0.0-2.0-22.17-1.17","585849a944177c0001aacf8e","D2","batch4","","1135","tol_toboard","","","","tol_peg_1","1135","1135","0","[[2,0,0],[3,0],[1]]","18","[[0,0,0],[1,2],[3]]","4","0","","","","","","7","","","","","","","","",""
"","","","","","single-stim-button","107","404054","0.0-2.0-22.18-0.18","585849a944177c0001aacf8e","D2","batch4","","720","tol_tohand","","","","tol_peg_2","720","720","0","[[2,0,0],[0,0],[1]]","19","[[0,0,0],[1,2],[3]]","4","0","","","","","","7","","","","","","","","",""
"","","","","","single-stim-button","108","406589","0.0-2.0-22.18-1.18","585849a944177c0001aacf8e","D2","batch4","","2534","tol_toboard","","","","tol_peg_1","2534","2534","0","[[2,3,0],[0,0],[1]]","19","[[0,0,0],[1,2],[3]]","4","0","","","","","","7","","","","","","","","",""
"","","","","","single-stim-button","109","407558","0.0-2.0-22.19-0.19","585849a944177c0001aacf8e","D2","batch4","","967","tol_tohand","","","","tol_peg_3","967","967","0","[[2,3,0],[0,0],[0]]","20","[[0,0,0],[1,2],[3]]","4","0","","","","","","7","","","","","","","","",""
"","","","","","single-stim-button","110","408158","0.0-2.0-22.19-1.19","585849a944177c0001aacf8e","D2","batch4","","600","tol_toboard","","","","tol_peg_2","600","600","0","[[2,3,0],[1,0],[0]]","20","[[0,0,0],[1,2],[3]]","4","0","","","","","","7","","","","","","","","",""
"","","","","","single-stim-button","111","408774","0.0-2.0-22.20-0.20","585849a944177c0001aacf8e","D2","batch4","","615","tol_tohand","","","","tol_peg_1","615","615","0","[[2,0,0],[1,0],[0]]","21","[[0,0,0],[1,2],[3]]","4","0","","","","","","7","","","","","","","","",""
"","","","","","single-stim-button","112","409486","0.0-2.0-22.20-1.20","585849a944177c0001aacf8e","D2","batch4","","712","tol_toboard","","","","tol_peg_3","712","712","0","[[2,0,0],[1,0],[3]]","21","[[0,0,0],[1,2],[3]]","4","0","","","","","","7","","","","","","","","",""
"","","","","","single-stim-button","113","410101","0.0-2.0-22.21-0.21","585849a944177c0001aacf8e","D2","batch4","","614","tol_tohand","","","","tol_peg_1","614","614","0","[[0,0,0],[1,0],[3]]","22","[[0,0,0],[1,2],[3]]","4","0","","","","","","7","","","","","","","","",""
"","","","","","single-stim-button","114","410487","0.0-2.0-22.21-1.21","585849a944177c0001aacf8e","D2","batch4","","384","tol_toboard","","","","tol_peg_2","384","384","0","[[0,0,0],[1,2],[3]]","22","[[0,0,0],[1,2],[3]]","4","0","","","","","","7","","","","","","","","",""
"","","","","","poldrack-single-stim","115","411493","0.0-2.0-23.0","585849a944177c0001aacf8e","D2","batch4","","-1","tol_feedback","","","true","","1000","1000","500","","","","","","-1","none","true","15175","43965","","","","","","","","","",""
"","","","","","html-button-response","116","412326","0.0-2.0-24.0","585849a944177c0001aacf8e","D2","batch4","","831.2000000476837","tol_trial_num","<div class = centerbox><p class = center-block-text>problem <strong>6</strong> out of 25 problems</p></div>","0","","","","","","","","","","","","","","","","","","","","","","","","",""
"","","","","","single-stim-button","117","417958","0.0-2.0-25.0-0.0","585849a944177c0001aacf8e","D2","batch4","","5630","tol_tohand","","","","tol_peg_2","5630","5630","0","[[0,0,0],[1,0],[3]]","1","[[1,0,0],[2,3],[0]]","5","0","","","","","","6","","","","","","","","",""
"","","","","","single-stim-button","118","421878","0.0-2.0-25.0-1.0","585849a944177c0001aacf8e","D2","batch4","","3919","tol_toboard","","","","tol_peg_1","3919","3919","0","[[2,0,0],[1,0],[3]]","1","[[1,0,0],[2,3],[0]]","5","0","","","","","","6","","","","","","","","",""
"","","","","","single-stim-button","119","422966","0.0-2.0-25.1-0.1","585849a944177c0001aacf8e","D2","batch4","","1087","tol_tohand","","","","tol_peg_3","1087","1087","0","[[2,0,0],[1,0],[0]]","2","[[1,0,0],[2,3],[0]]","5","0","","","","","","6","","","","","","","","",""
"","","","","","single-stim-button","120","430318","0.0-2.0-25.1-1.1","585849a944177c0001aacf8e","D2","batch4","","7349","tol_toboard","","","","tol_peg_1","7349","7349","0","[[2,3,0],[1,0],[0]]","2","[[1,0,0],[2,3],[0]]","5","0","","","","","","6","","","","","","","","",""
"","","","","","single-stim-button","121","431135","0.0-2.0-25.2-0.2","585849a944177c0001aacf8e","D2","batch4","","816","tol_tohand","","","","tol_peg_2","816","816","0","[[2,3,0],[0,0],[0]]","3","[[1,0,0],[2,3],[0]]","5","0","","","","","","6","","","","","","","","",""
"","","","","","single-stim-button","122","433238","0.0-2.0-25.2-1.2","585849a944177c0001aacf8e","D2","batch4","","2102","tol_toboard","","","","tol_peg_3","2102","2102","0","[[2,3,0],[0,0],[1]]","3","[[1,0,0],[2,3],[0]]","5","0","","","","","","6","","","","","","","","",""
"","","","","","single-stim-button","123","435247","0.0-2.0-25.3-0.3","585849a944177c0001aacf8e","D2","batch4","","2008","tol_tohand","","","","tol_peg_1","2008","2008","0","[[2,0,0],[0,0],[1]]","4","[[1,0,0],[2,3],[0]]","5","0","","","","","","6","","","","","","","","",""
"","","","","","single-stim-button","124","437134","0.0-2.0-25.3-1.3","585849a944177c0001aacf8e","D2","batch4","","1886","tol_toboard","","","","tol_peg_1","1886","1886","0","[[2,3,0],[0,0],[1]]","4","[[1,0,0],[2,3],[0]]","5","0","","","","","","6","","","","","","","","",""
"","","","","","single-stim-button","125","438662","0.0-2.0-25.4-0.4","585849a944177c0001aacf8e","D2","batch4","","1527","tol_tohand","","","","tol_peg_1","1527","1527","0","[[2,0,0],[0,0],[1]]","5","[[1,0,0],[2,3],[0]]","5","0","","","","","","6","","","","","","","","",""
"","","","","","single-stim-button","126","439726","0.0-2.0-25.4-1.4","585849a944177c0001aacf8e","D2","batch4","","1063","tol_toboard","","","","tol_peg_2","1063","1063","0","[[2,0,0],[3,0],[1]]","5","[[1,0,0],[2,3],[0]]","5","0","","","","","","6","","","","","","","","",""
"","","","","","single-stim-button","127","440511","0.0-2.0-25.5-0.5","585849a944177c0001aacf8e","D2","batch4","","784","tol_tohand","","","","tol_peg_1","784","784","0","[[0,0,0],[3,0],[1]]","6","[[1,0,0],[2,3],[0]]","5","0","","","","","","6","","","","","","","","",""
"","","","","","single-stim-button","128","441278","0.0-2.0-25.5-1.5","585849a944177c0001aacf8e","D2","batch4","","766","tol_toboard","","","","tol_peg_2","766","766","0","[[0,0,0],[3,2],[1]]","6","[[1,0,0],[2,3],[0]]","5","0","","","","","","6","","","","","","","","",""
"","","","","","single-stim-button","129","442126","0.0-2.0-25.6-0.6","585849a944177c0001aacf8e","D2","batch4","","846","tol_tohand","","","","tol_peg_3","846","846","0","[[0,0,0],[3,2],[0]]","7","[[1,0,0],[2,3],[0]]","5","0","","","","","","6","","","","","","","","",""
"","","","","","single-stim-button","130","443270","0.0-2.0-25.6-1.6","585849a944177c0001aacf8e","D2","batch4","","1142","tol_toboard","","","","tol_peg_1","1142","1142","0","[[1,0,0],[3,2],[0]]","7","[[1,0,0],[2,3],[0]]","5","0","","","","","","6","","","","","","","","",""
"","","","","","single-stim-button","131","445310","0.0-2.0-25.7-0.7","585849a944177c0001aacf8e","D2","batch4","","2039","tol_tohand","","","","tol_peg_2","2039","2039","0","[[1,0,0],[3,0],[0]]","8","[[1,0,0],[2,3],[0]]","5","0","","","","","","6","","","","","","","","",""
"","","","","","single-stim-button","132","446365","0.0-2.0-25.7-1.7","585849a944177c0001aacf8e","D2","batch4","","1055","tol_toboard","","","","tol_peg_3","1055","1055","0","[[1,0,0],[3,0],[2]]","8","[[1,0,0],[2,3],[0]]","5","0","","","","","","6","","","","","","","","",""
"","","","","","single-stim-button","133","446989","0.0-2.0-25.8-0.8","585849a944177c0001aacf8e","D2","batch4","","623","tol_tohand","","","","tol_peg_2","623","623","0","[[1,0,0],[0,0],[2]]","9","[[1,0,0],[2,3],[0]]","5","0","","","","","","6","","","","","","","","",""
"","","","","","single-stim-button","134","447821","0.0-2.0-25.8-1.8","585849a944177c0001aacf8e","D2","batch4","","831","tol_toboard","","","","tol_peg_1","831","831","0","[[1,3,0],[0,0],[2]]","9","[[1,0,0],[2,3],[0]]","5","0","","","","","","6","","","","","","","","",""
"","","","","","single-stim-button","135","448670","0.0-2.0-25.9-0.9","585849a944177c0001aacf8e","D2","batch4","","848","tol_tohand","","","","tol_peg_3","848","848","0","[[1,3,0],[0,0],[0]]","10","[[1,0,0],[2,3],[0]]","5","0","","","","","","6","","","","","","","","",""
"","","","","","single-stim-button","136","449462","0.0-2.0-25.9-1.9","585849a944177c0001aacf8e","D2","batch4","","791","tol_toboard","","","","tol_peg_2","791","791","0","[[1,3,0],[2,0],[0]]","10","[[1,0,0],[2,3],[0]]","5","0","","","","","","6","","","","","","","","",""
"","","","","","single-stim-button","137","450094","0.0-2.0-25.10-0.10","585849a944177c0001aacf8e","D2","batch4","","632","tol_tohand","","","","tol_peg_1","632","632","0","[[1,0,0],[2,0],[0]]","11","[[1,0,0],[2,3],[0]]","5","0","","","","","","6","","","","","","","","",""
"","","","","","single-stim-button","138","450862","0.0-2.0-25.10-1.10","585849a944177c0001aacf8e","D2","batch4","","766","tol_toboard","","","","tol_peg_2","766","766","0","[[1,0,0],[2,3],[0]]","11","[[1,0,0],[2,3],[0]]","5","0","","","","","","6","","","","","","","","",""
"","","","","","poldrack-single-stim","139","451867","0.0-2.0-26.0","585849a944177c0001aacf8e","D2","batch4","","-1","tol_feedback","","","true","","1000","1000","500","","","","","","-1","none","true","5630","16840","","","","","","","","","",""
"","","","","","html-button-response","140","453110","0.0-2.0-27.0","585849a944177c0001aacf8e","D2","batch4","","1241.2000000476837","tol_trial_num","<div class = centerbox><p class = center-block-text>problem <strong>7</strong> out of 25 problems</p></div>","0","","","","","","","","","","","","","","","","","","","","","","","","",""
"","","","","","single-stim-button","141","460398","0.0-2.0-28.0-0.0","585849a944177c0001aacf8e","D2","batch4","","7285","tol_tohand","","","","tol_peg_1","7285","7285","0","[[2,0,0],[0,0],[3]]","1","[[1,2,0],[3,0],[0]]","6","0","","","","","","5","","","","","","","","",""
"","","","","","single-stim-button","142","461149","0.0-2.0-28.0-1.0","585849a944177c0001aacf8e","D2","batch4","","750","tol_toboard","","","","tol_peg_2","750","750","0","[[2,0,0],[1,0],[3]]","1","[[1,2,0],[3,0],[0]]","6","0","","","","","","5","","","","","","","","",""
"","","","","","single-stim-button","143","461630","0.0-2.0-28.1-0.1","585849a944177c0001aacf8e","D2","batch4","","479","tol_tohand","","","","tol_peg_3","479","479","0","[[2,0,0],[1,0],[0]]","2","[[1,2,0],[3,0],[0]]","6","0","","","","","","5","","","","","","","","",""
"","","","","","single-stim-button","144","462302","0.0-2.0-28.1-1.1","585849a944177c0001aacf8e","D2","batch4","","671","tol_toboard","","","","tol_peg_2","671","671","0","[[2,0,0],[1,3],[0]]","2","[[1,2,0],[3,0],[0]]","6","0","","","","","","5","","","","","","","","",""
"","","","","","single-stim-button","145","463000","0.0-2.0-28.2-0.2","585849a944177c0001aacf8e","D2","batch4","","696","tol_tohand","","","","tol_peg_1","696","696","0","[[0,0,0],[1,3],[0]]","3","[[1,2,0],[3,0],[0]]","6","0","","","","","","5","","","","","","","","",""
"","","","","","single-stim-button","146","463702","0.0-2.0-28.2-1.2","585849a944177c0001aacf8e","D2","batch4","","701","tol_toboard","","","","tol_peg_3","701","701","0","[[0,0,0],[1,3],[2]]","3","[[1,2,0],[3,0],[0]]","6","0","","","","","","5","","","","","","","","",""
"","","","","","single-stim-button","147","468550","0.0-2.0-28.3-0.3","585849a944177c0001aacf8e","D2","batch4","","4847","tol_tohand","","","","tol_peg_2","4847","4847","0","[[0,0,0],[1,0],[2]]","4","[[1,2,0],[3,0],[0]]","6","0","","","","","","5","","","","","","","","",""
"","","","","","single-stim-button","148","469821","0.0-2.0-28.3-1.3","585849a944177c0001aacf8e","D2","batch4","","1271","tol_toboard","","","","tol_peg_1","1271","1271","0","[[3,0,0],[1,0],[2]]","4","[[1,2,0],[3,0],[0]]","6","0","","","","","","5","","","","","","","","",""
"","","","","","single-stim-button","149","471102","0.0-2.0-28.4-0.4","585849a944177c0001aacf8e","D2","batch4","","1279","tol_tohand","","","","tol_peg_2","1279","1279","0","[[3,0,0],[0,0],[2]]","5","[[1,2,0],[3,0],[0]]","6","0","","","","","","5","","","","","","","","",""
"","","","","","single-stim-button","150","472206","0.0-2.0-28.4-1.4","585849a944177c0001aacf8e","D2","batch4","","1103","tol_toboard","","","","tol_peg_1","1103","1103","0","[[3,1,0],[0,0],[2]]","5","[[1,2,0],[3,0],[0]]","6","0","","","","","","5","","","","","","","","",""
"","","","","","single-stim-button","151","473118","0.0-2.0-28.5-0.5","585849a944177c0001aacf8e","D2","batch4","","910","tol_tohand","","","","tol_peg_3","910","910","0","[[3,1,0],[0,0],[0]]","6","[[1,2,0],[3,0],[0]]","6","0","","","","","","5","","","","","","","","",""
"","","","","","single-stim-button","152","474845","0.0-2.0-28.5-1.5","585849a944177c0001aacf8e","D2","batch4","","1726","tol_toboard","","","","tol_peg_2","1726","1726","0","[[3,1,0],[2,0],[0]]","6","[[1,2,0],[3,0],[0]]","6","0","","","","","","5","","","","","","","","",""
"","","","","","single-stim-button","153","476150","0.0-2.0-28.6-0.6","585849a944177c0001aacf8e","D2","batch4","","1303","tol_tohand","","","","tol_peg_1","1303","1303","0","[[3,0,0],[2,0],[0]]","7","[[1,2,0],[3,0],[0]]","6","0","","","","","","5","","","","","","","","",""
"","","","","","single-stim-button","154","476926","0.0-2.0-28.6-1.6","585849a944177c0001aacf8e","D2","batch4","","776","tol_toboard","","","","tol_peg_2","776","776","0","[[3,0,0],[2,1],[0]]","7","[[1,2,0],[3,0],[0]]","6","0","","","","","","5","","","","","","","","",""
"","","","","","single-stim-button","155","477742","0.0-2.0-28.7-0.7","585849a944177c0001aacf8e","D2","batch4","","814","tol_tohand","","","","tol_peg_1","814","814","0","[[0,0,0],[2,1],[0]]","8","[[1,2,0],[3,0],[0]]","6","0","","","","","","5","","","","","","","","",""
"","","","","","single-stim-button","156","478398","0.0-2.0-28.7-1.7","585849a944177c0001aacf8e","D2","batch4","","654","tol_toboard","","","","tol_peg_3","654","654","0","[[0,0,0],[2,1],[3]]","8","[[1,2,0],[3,0],[0]]","6","0","","","","","","5","","","","","","","","",""
"","","","","","single-stim-button","157","479182","0.0-2.0-28.8-0.8","585849a944177c0001aacf8e","D2","batch4","","783","tol_tohand","","","","tol_peg_2","783","783","0","[[0,0,0],[2,0],[3]]","9","[[1,2,0],[3,0],[0]]","6","0","","","","","","5","","","","","","","","",""
"","","","","","single-stim-button","158","480261","0.0-2.0-28.8-1.8","585849a944177c0001aacf8e","D2","batch4","","1079","tol_toboard","","","","tol_peg_1","1079","1079","0","[[1,0,0],[2,0],[3]]","9","[[1,2,0],[3,0],[0]]","6","0","","","","","","5","","","","","","","","",""
"","","","","","single-stim-button","159","480798","0.0-2.0-28.9-0.9","585849a944177c0001aacf8e","D2","batch4","","535","tol_tohand","","","","tol_peg_2","535","535","0","[[1,0,0],[0,0],[3]]","10","[[1,2,0],[3,0],[0]]","6","0","","","","","","5","","","","","","","","",""
"","","","","","single-stim-button","160","481373","0.0-2.0-28.9-1.9","585849a944177c0001aacf8e","D2","batch4","","575","tol_toboard","","","","tol_peg_1","575","575","0","[[1,2,0],[0,0],[3]]","10","[[1,2,0],[3,0],[0]]","6","0","","","","","","5","","","","","","","","",""
"","","","","","single-stim-button","161","482750","0.0-2.0-28.10-0.10","585849a944177c0001aacf8e","D2","batch4","","1375","tol_tohand","","","","tol_peg_3","1375","1375","0","[[1,2,0],[0,0],[0]]","11","[[1,2,0],[3,0],[0]]","6","0","","","","","","5","","","","","","","","",""
"","","","","","single-stim-button","162","483509","0.0-2.0-28.10-1.10","585849a944177c0001aacf8e","D2","batch4","","758","tol_toboard","","","","tol_peg_2","758","758","0","[[1,2,0],[3,0],[0]]","11","[[1,2,0],[3,0],[0]]","6","0","","","","","","5","","","","","","","","",""
"","","","","","poldrack-single-stim","163","484510","0.0-2.0-29.0","585849a944177c0001aacf8e","D2","batch4","","-1","tol_feedback","","","true","","1000","1000","500","","","","","","-1","none","true","7285","20306","","","","","","","","","",""
"","","","","","html-button-response","164","485566","0.0-2.0-30.0","585849a944177c0001aacf8e","D2","batch4","","1053.7000000476837","tol_trial_num","<div class = centerbox><p class = center-block-text>problem <strong>8</strong> out of 25 problems</p></div>","0","","","","","","","","","","","","","","","","","","","","","","","","",""
"","","","","","single-stim-button","165","490574","0.0-2.0-31.0-0.0","585849a944177c0001aacf8e","D2","batch4","","5006","tol_tohand","","","","tol_peg_2","5006","5006","0","[[0,0,0],[2,0],[1]]","1","[[1,2,0],[3,0],[0]]","7","0","","","","","","4","","","","","","","","",""
"","","","","","single-stim-button","166","491390","0.0-2.0-31.0-1.0","585849a944177c0001aacf8e","D2","batch4","","815","tol_toboard","","","","tol_peg_1","815","815","0","[[3,0,0],[2,0],[1]]","1","[[1,2,0],[3,0],[0]]","7","0","","","","","","4","","","","","","","","",""
"","","","","","single-stim-button","167","492870","0.0-2.0-31.1-0.1","585849a944177c0001aacf8e","D2","batch4","","1480","tol_tohand","","","","tol_peg_2","1480","1480","0","[[3,0,0],[0,0],[1]]","2","[[1,2,0],[3,0],[0]]","7","0","","","","","","4","","","","","","","","",""
"","","","","","single-stim-button","168","493390","0.0-2.0-31.1-1.1","585849a944177c0001aacf8e","D2","batch4","","518","tol_toboard","","","","tol_peg_1","518","518","0","[[3,2,0],[0,0],[1]]","2","[[1,2,0],[3,0],[0]]","7","0","","","","","","4","","","","","","","","",""
"","","","","","single-stim-button","169","494342","0.0-2.0-31.2-0.2","585849a944177c0001aacf8e","D2","batch4","","952","tol_tohand","","","","tol_peg_3","952","952","0","[[3,2,0],[0,0],[0]]","3","[[1,2,0],[3,0],[0]]","7","0","","","","","","4","","","","","","","","",""
"","","","","","single-stim-button","170","495086","0.0-2.0-31.2-1.2","585849a944177c0001aacf8e","D2","batch4","","742","tol_toboard","","","","tol_peg_2","742","742","0","[[3,2,0],[1,0],[0]]","3","[[1,2,0],[3,0],[0]]","7","0","","","","","","4","","","","","","","","",""
"","","","","","single-stim-button","171","500230","0.0-2.0-31.3-0.3","585849a944177c0001aacf8e","D2","batch4","","5143","tol_tohand","","","","tol_peg_1","5143","5143","0","[[3,0,0],[1,0],[0]]","4","[[1,2,0],[3,0],[0]]","7","0","","","","","","4","","","","","","","","",""
"","","","","","single-stim-button","172","500885","0.0-2.0-31.3-1.3","585849a944177c0001aacf8e","D2","batch4","","655","tol_toboard","","","","tol_peg_2","655","655","0","[[3,0,0],[1,2],[0]]","4","[[1,2,0],[3,0],[0]]","7","0","","","","","","4","","","","","","","","",""
"","","","","","single-stim-button","173","501494","0.0-2.0-31.4-0.4","585849a944177c0001aacf8e","D2","batch4","","607","tol_tohand","","","","tol_peg_1","607","607","0","[[0,0,0],[1,2],[0]]","5","[[1,2,0],[3,0],[0]]","7","0","","","","","","4","","","","","","","","",""
"","","","","","single-stim-button","174","502454","0.0-2.0-31.4-1.4","585849a944177c0001aacf8e","D2","batch4","","959","tol_toboard","","","","tol_peg_3","959","959","0","[[0,0,0],[1,2],[3]]","5","[[1,2,0],[3,0],[0]]","7","0","","","","","","4","","","","","","","","",""
"","","","","","single-stim-button","175","505701","0.0-2.0-31.5-0.5","585849a944177c0001aacf8e","D2","batch4","","3247","tol_tohand","","","","tol_peg_3","3247","3247","0","[[0,0,0],[1,2],[0]]","6","[[1,2,0],[3,0],[0]]","7","0","","","","","","4","","","","","","","","",""
"","","","","","single-stim-button","176","506574","0.0-2.0-31.5-1.5","585849a944177c0001aacf8e","D2","batch4","","871","tol_toboard","","","","tol_peg_1","871","871","0","[[3,0,0],[1,2],[0]]","6","[[1,2,0],[3,0],[0]]","7","0","","","","","","4","","","","","","","","",""
"","","","","","single-stim-button","177","508398","0.0-2.0-31.6-0.6","585849a944177c0001aacf8e","D2","batch4","","1823","tol_tohand","","","","tol_peg_2","1823","1823","0","[[3,0,0],[1,0],[0]]","7","[[1,2,0],[3,0],[0]]","7","0","","","","","","4","","","","","","","","",""
"","","","","","single-stim-button","178","515294","0.0-2.0-31.6-1.6","585849a944177c0001aacf8e","D2","batch4","","6895","tol_toboard","","","","tol_peg_2","6895","6895","0","[[3,0,0],[1,2],[0]]","7","[[1,2,0],[3,0],[0]]","7","0","","","","","","4","","","","","","","","",""
"","","","","","single-stim-button","179","516054","0.0-2.0-31.7-0.7","585849a944177c0001aacf8e","D2","batch4","","759","tol_tohand","","","","tol_peg_1","759","759","0","[[0,0,0],[1,2],[0]]","8","[[1,2,0],[3,0],[0]]","7","0","","","","","","4","","","","","","","","",""
"","","","","","single-stim-button","180","517813","0.0-2.0-31.7-1.7","585849a944177c0001aacf8e","D2","batch4","","1759","tol_toboard","","","","tol_peg_3","1759","1759","0","[[0,0,0],[1,2],[3]]","8","[[1,2,0],[3,0],[0]]","7","0","","","","","","4","","","","","","","","",""
"","","","","","single-stim-button","181","518391","0.0-2.0-31.8-0.8","585849a944177c0001aacf8e","D2","batch4","","577","tol_tohand","","","","tol_peg_2","577","577","0","[[0,0,0],[1,0],[3]]","9","[[1,2,0],[3,0],[0]]","7","0","","","","","","4","","","","","","","","",""
"","","","","","single-stim-button","182","518909","0.0-2.0-31.8-1.8","585849a944177c0001aacf8e","D2","batch4","","517","tol_toboard","","","","tol_peg_1","517","517","0","[[2,0,0],[1,0],[3]]","9","[[1,2,0],[3,0],[0]]","7","0","","","","","","4","","","","","","","","",""
"","","","","","single-stim-button","183","522102","0.0-2.0-31.9-0.9","585849a944177c0001aacf8e","D2","batch4","","3191","tol_tohand","","","","tol_peg_2","3191","3191","0","[[2,0,0],[0,0],[3]]","10","[[1,2,0],[3,0],[0]]","7","0","","","","","","4","","","","","","","","",""
"","","","","","single-stim-button","184","523230","0.0-2.0-31.9-1.9","585849a944177c0001aacf8e","D2","batch4","","1127","tol_toboard","","","","tol_peg_1","1127","1127","0","[[2,1,0],[0,0],[3]]","10","[[1,2,0],[3,0],[0]]","7","0","","","","","","4","","","","","","","","",""
"","","","","","single-stim-button","185","523982","0.0-2.0-31.10-0.10","585849a944177c0001aacf8e","D2","batch4","","751","tol_tohand","","","","tol_peg_3","751","751","0","[[2,1,0],[0,0],[0]]","11","[[1,2,0],[3,0],[0]]","7","0","","","","","","4","","","","","","","","",""
"","","","","","single-stim-button","186","525038","0.0-2.0-31.10-1.10","585849a944177c0001aacf8e","D2","batch4","","1055","tol_toboard","","","","tol_peg_2","1055","1055","0","[[2,1,0],[3,0],[0]]","11","[[1,2,0],[3,0],[0]]","7","0","","","","","","4","","","","","","","","",""
"","","","","","single-stim-button","187","525694","0.0-2.0-31.11-0.11","585849a944177c0001aacf8e","D2","batch4","","655","tol_tohand","","","","tol_peg_1","655","655","0","[[2,0,0],[3,0],[0]]","12","[[1,2,0],[3,0],[0]]","7","0","","","","","","4","","","","","","","","",""
"","","","","","single-stim-button","188","526326","0.0-2.0-31.11-1.11","585849a944177c0001aacf8e","D2","batch4","","631","tol_toboard","","","","tol_peg_3","631","631","0","[[2,0,0],[3,0],[1]]","12","[[1,2,0],[3,0],[0]]","7","0","","","","","","4","","","","","","","","",""
"","","","","","single-stim-button","189","527054","0.0-2.0-31.12-0.12","585849a944177c0001aacf8e","D2","batch4","","728","tol_tohand","","","","tol_peg_1","728","728","0","[[0,0,0],[3,0],[1]]","13","[[1,2,0],[3,0],[0]]","7","0","","","","","","4","","","","","","","","",""
"","","","","","single-stim-button","190","527966","0.0-2.0-31.12-1.12","585849a944177c0001aacf8e","D2","batch4","","910","tol_toboard","","","","tol_peg_2","910","910","0","[[0,0,0],[3,2],[1]]","13","[[1,2,0],[3,0],[0]]","7","0","","","","","","4","","","","","","","","",""
"","","","","","single-stim-button","191","528829","0.0-2.0-31.13-0.13","585849a944177c0001aacf8e","D2","batch4","","863","tol_tohand","","","","tol_peg_3","863","863","0","[[0,0,0],[3,2],[0]]","14","[[1,2,0],[3,0],[0]]","7","0","","","","","","4","","","","","","","","",""
"","","","","","single-stim-button","192","529694","0.0-2.0-31.13-1.13","585849a944177c0001aacf8e","D2","batch4","","864","tol_toboard","","","","tol_peg_1","864","864","0","[[1,0,0],[3,2],[0]]","14","[[1,2,0],[3,0],[0]]","7","0","","","","","","4","","","","","","","","",""
"","","","","","single-stim-button","193","530238","0.0-2.0-31.14-0.14","585849a944177c0001aacf8e","D2","batch4","","542","tol_tohand","","","","tol_peg_2","542","542","0","[[1,0,0],[3,0],[0]]","15","[[1,2,0],[3,0],[0]]","7","0","","","","","","4","","","","","","","","",""
"","","","","","single-stim-button","194","530734","0.0-2.0-31.14-1.14","585849a944177c0001aacf8e","D2","batch4","","496","tol_toboard","","","","tol_peg_1","496","496","0","[[1,2,0],[3,0],[0]]","15","[[1,2,0],[3,0],[0]]","7","0","","","","","","4","","","","","","","","",""
"","","","","","poldrack-single-stim","195","531739","0.0-2.0-32.0","585849a944177c0001aacf8e","D2","batch4","","-1","tol_feedback","","","true","","1000","1000","500","","","","","","-1","none","true","5006","26324","","","","","","","","","",""
"","","","","","html-button-response","196","532726","0.0-2.0-33.0","585849a944177c0001aacf8e","D2","batch4","","985.3000000715256","tol_trial_num","<div class = centerbox><p class = center-block-text>problem <strong>9</strong> out of 25 problems</p></div>","0","","","","","","","","","","","","","","","","","","","","","","","","",""
"","","","","","single-stim-button","197","535038","0.0-2.0-34.0-0.0","585849a944177c0001aacf8e","D2","batch4","","2311","tol_tohand","","","","tol_peg_1","2311","2311","0","[[3,0,0],[0,0],[1]]","1","[[2,1,0],[3,0],[0]]","8","0","","","","","","6","","","","","","","","",""
"","","","","","single-stim-button","198","536302","0.0-2.0-34.0-1.0","585849a944177c0001aacf8e","D2","batch4","","1263","tol_toboard","","","","tol_peg_2","1263","1263","0","[[3,0,0],[2,0],[1]]","1","[[2,1,0],[3,0],[0]]","8","0","","","","","","6","","","","","","","","",""
"","","","","","single-stim-button","199","537005","0.0-2.0-34.1-0.1","585849a944177c0001aacf8e","D2","batch4","","703","tol_tohand","","","","tol_peg_1","703","703","0","[[0,0,0],[2,0],[1]]","2","[[2,1,0],[3,0],[0]]","8","0","","","","","","6","","","","","","","","",""
"","","","","","single-stim-button","200","539526","0.0-2.0-34.1-1.1","585849a944177c0001aacf8e","D2","batch4","","2519","tol_toboard","","","","tol_peg_2","2519","2519","0","[[0,0,0],[2,3],[1]]","2","[[2,1,0],[3,0],[0]]","8","0","","","","","","6","","","","","","","","",""
"","","","","","single-stim-button","201","542429","0.0-2.0-34.2-0.2","585849a944177c0001aacf8e","D2","batch4","","2902","tol_tohand","","","","tol_peg_3","2902","2902","0","[[0,0,0],[2,3],[0]]","3","[[2,1,0],[3,0],[0]]","8","0","","","","","","6","","","","","","","","",""
"","","","","","single-stim-button","202","543294","0.0-2.0-34.2-1.2","585849a944177c0001aacf8e","D2","batch4","","863","tol_toboard","","","","tol_peg_1","863","863","0","[[1,0,0],[2,3],[0]]","3","[[2,1,0],[3,0],[0]]","8","0","","","","","","6","","","","","","","","",""
"","","","","","single-stim-button","203","543926","0.0-2.0-34.3-0.3","585849a944177c0001aacf8e","D2","batch4","","631","tol_tohand","","","","tol_peg_2","631","631","0","[[1,0,0],[2,0],[0]]","4","[[2,1,0],[3,0],[0]]","8","0","","","","","","6","","","","","","","","",""
"","","","","","single-stim-button","204","544789","0.0-2.0-34.3-1.3","585849a944177c0001aacf8e","D2","batch4","","863","tol_toboard","","","","tol_peg_3","863","863","0","[[1,0,0],[2,0],[3]]","4","[[2,1,0],[3,0],[0]]","8","0","","","","","","6","","","","","","","","",""
"","","","","","single-stim-button","205","546653","0.0-2.0-34.4-0.4","585849a944177c0001aacf8e","D2","batch4","","1863","tol_tohand","","","","tol_peg_2","1863","1863","0","[[1,0,0],[0,0],[3]]","5","[[2,1,0],[3,0],[0]]","8","0","","","","","","6","","","","","","","","",""
"","","","","","single-stim-button","206","549550","0.0-2.0-34.4-1.4","585849a944177c0001aacf8e","D2","batch4","","2895","tol_toboard","","","","tol_peg_2","2895","2895","0","[[1,0,0],[2,0],[3]]","5","[[2,1,0],[3,0],[0]]","8","0","","","","","","6","","","","","","","","",""
"","","","","","single-stim-button","207","550133","0.0-2.0-34.5-0.5","585849a944177c0001aacf8e","D2","batch4","","583","tol_tohand","","","","tol_peg_1","583","583","0","[[0,0,0],[2,0],[3]]","6","[[2,1,0],[3,0],[0]]","8","0","","","","","","6","","","","","","","","",""
"","","","","","single-stim-button","208","550710","0.0-2.0-34.5-1.5","585849a944177c0001aacf8e","D2","batch4","","575","tol_toboard","","","","tol_peg_2","575","575","0","[[0,0,0],[2,1],[3]]","6","[[2,1,0],[3,0],[0]]","8","0","","","","","","6","","","","","","","","",""
"","","","","","single-stim-button","209","551350","0.0-2.0-34.6-0.6","585849a944177c0001aacf8e","D2","batch4","","639","tol_tohand","","","","tol_peg_3","639","639","0","[[0,0,0],[2,1],[0]]","7","[[2,1,0],[3,0],[0]]","8","0","","","","","","6","","","","","","","","",""
"","","","","","single-stim-button","210","552222","0.0-2.0-34.6-1.6","585849a944177c0001aacf8e","D2","batch4","","872","tol_toboard","","","","tol_peg_1","872","872","0","[[3,0,0],[2,1],[0]]","7","[[2,1,0],[3,0],[0]]","8","0","","","","","","6","","","","","","","","",""
"","","","","","single-stim-button","211","552686","0.0-2.0-34.7-0.7","585849a944177c0001aacf8e","D2","batch4","","463","tol_tohand","","","","tol_peg_2","463","463","0","[[3,0,0],[2,0],[0]]","8","[[2,1,0],[3,0],[0]]","8","0","","","","","","6","","","","","","","","",""
"","","","","","single-stim-button","212","553558","0.0-2.0-34.7-1.7","585849a944177c0001aacf8e","D2","batch4","","870","tol_toboard","","","","tol_peg_3","870","870","0","[[3,0,0],[2,0],[1]]","8","[[2,1,0],[3,0],[0]]","8","0","","","","","","6","","","","","","","","",""
"","","","","","single-stim-button","213","556101","0.0-2.0-34.8-0.8","585849a944177c0001aacf8e","D2","batch4","","2543","tol_tohand","","","","tol_peg_1","2543","2543","0","[[0,0,0],[2,0],[1]]","9","[[2,1,0],[3,0],[0]]","8","0","","","","","","6","","","","","","","","",""
"","","","","","single-stim-button","214","556925","0.0-2.0-34.8-1.8","585849a944177c0001aacf8e","D2","batch4","","823","tol_toboard","","","","tol_peg_2","823","823","0","[[0,0,0],[2,3],[1]]","9","[[2,1,0],[3,0],[0]]","8","0","","","","","","6","","","","","","","","",""
"","","","","","single-stim-button","215","557693","0.0-2.0-34.9-0.9","585849a944177c0001aacf8e","D2","batch4","","767","tol_tohand","","","","tol_peg_3","767","767","0","[[0,0,0],[2,3],[0]]","10","[[2,1,0],[3,0],[0]]","8","0","","","","","","6","","","","","","","","",""
"","","","","","single-stim-button","216","560485","0.0-2.0-34.9-1.9","585849a944177c0001aacf8e","D2","batch4","","2791","tol_toboard","","","","tol_peg_1","2791","2791","0","[[1,0,0],[2,3],[0]]","10","[[2,1,0],[3,0],[0]]","8","0","","","","","","6","","","","","","","","",""
"","","","","","single-stim-button","217","562821","0.0-2.0-34.10-0.10","585849a944177c0001aacf8e","D2","batch4","","2335","tol_tohand","","","","tol_peg_2","2335","2335","0","[[1,0,0],[2,0],[0]]","11","[[2,1,0],[3,0],[0]]","8","0","","","","","","6","","","","","","","","",""
"","","","","","single-stim-button","218","563358","0.0-2.0-34.10-1.10","585849a944177c0001aacf8e","D2","batch4","","536","tol_toboard","","","","tol_peg_1","536","536","0","[[1,3,0],[2,0],[0]]","11","[[2,1,0],[3,0],[0]]","8","0","","","","","","6","","","","","","","","",""
"","","","","","single-stim-button","219","563829","0.0-2.0-34.11-0.11","585849a944177c0001aacf8e","D2","batch4","","470","tol_tohand","","","","tol_peg_2","470","470","0","[[1,3,0],[0,0],[0]]","12","[[2,1,0],[3,0],[0]]","8","0","","","","","","6","","","","","","","","",""
"","","","","","single-stim-button","220","564614","0.0-2.0-34.11-1.11","585849a944177c0001aacf8e","D2","batch4","","783","tol_toboard","","","","tol_peg_3","783","783","0","[[1,3,0],[0,0],[2]]","12","[[2,1,0],[3,0],[0]]","8","0","","","","","","6","","","","","","","","",""
"","","","","","single-stim-button","221","565909","0.0-2.0-34.12-0.12","585849a944177c0001aacf8e","D2","batch4","","1294","tol_tohand","","","","tol_peg_1","1294","1294","0","[[1,0,0],[0,0],[2]]","13","[[2,1,0],[3,0],[0]]","8","0","","","","","","6","","","","","","","","",""
"","","","","","single-stim-button","222","567029","0.0-2.0-34.12-1.12","585849a944177c0001aacf8e","D2","batch4","","1119","tol_toboard","","","","tol_peg_2","1119","1119","0","[[1,0,0],[3,0],[2]]","13","[[2,1,0],[3,0],[0]]","8","0","","","","","","6","","","","","","","","",""
"","","","","","single-stim-button","223","567574","0.0-2.0-34.13-0.13","585849a944177c0001aacf8e","D2","batch4","","543","tol_tohand","","","","tol_peg_1","543","543","0","[[0,0,0],[3,0],[2]]","14","[[2,1,0],[3,0],[0]]","8","0","","","","","","6","","","","","","","","",""
"","","","","","single-stim-button","224","568470","0.0-2.0-34.13-1.13","585849a944177c0001aacf8e","D2","batch4","","896","tol_toboard","","","","tol_peg_2","896","896","0","[[0,0,0],[3,1],[2]]","14","[[2,1,0],[3,0],[0]]","8","0","","","","","","6","","","","","","","","",""
"","","","","","single-stim-button","225","569125","0.0-2.0-34.14-0.14","585849a944177c0001aacf8e","D2","batch4","","654","tol_tohand","","","","tol_peg_3","654","654","0","[[0,0,0],[3,1],[0]]","15","[[2,1,0],[3,0],[0]]","8","0","","","","","","6","","","","","","","","",""
"","","","","","single-stim-button","226","569965","0.0-2.0-34.14-1.14","585849a944177c0001aacf8e","D2","batch4","","839","tol_toboard","","","","tol_peg_1","839","839","0","[[2,0,0],[3,1],[0]]","15","[[2,1,0],[3,0],[0]]","8","0","","","","","","6","","","","","","","","",""
"","","","","","single-stim-button","227","570566","0.0-2.0-34.15-0.15","585849a944177c0001aacf8e","D2","batch4","","599","tol_tohand","","","","tol_peg_2","599","599","0","[[2,0,0],[3,0],[0]]","16","[[2,1,0],[3,0],[0]]","8","0","","","","","","6","","","","","","","","",""
"","","","","","single-stim-button","228","571061","0.0-2.0-34.15-1.15","585849a944177c0001aacf8e","D2","batch4","","495","tol_toboard","","","","tol_peg_1","495","495","0","[[2,1,0],[3,0],[0]]","16","[[2,1,0],[3,0],[0]]","8","0","","","","","","6","","","","","","","","",""
"","","","","","poldrack-single-stim","229","572066","0.0-2.0-35.0","585849a944177c0001aacf8e","D2","batch4","","-1","tol_feedback","","","true","","1000","1000","500","","","","","","-1","none","true","2311","19300","","","","","","","","","",""
"","","","","","html-button-response","230","572838","0.0-2.0-36.0","585849a944177c0001aacf8e","D2","batch4","","770.2000000476837","tol_trial_num","<div class = centerbox><p class = center-block-text>problem <strong>10</strong> out of 25 problems</p></div>","0","","","","","","","","","","","","","","","","","","","","","","","","",""
"","","","","","single-stim-button","231","576182","0.0-2.0-37.0-0.0","585849a944177c0001aacf8e","D2","batch4","","3342","tol_tohand","","","","tol_peg_2","3342","3342","0","[[3,0,0],[0,0],[2]]","1","[[3,0,0],[2,1],[0]]","9","0","","","","","","3","","","","","","","","",""
"","","","","","single-stim-button","232","576885","0.0-2.0-37.0-1.0","585849a944177c0001aacf8e","D2","batch4","","703","tol_toboard","","","","tol_peg_1","703","703","0","[[3,1,0],[0,0],[2]]","1","[[3,0,0],[2,1],[0]]","9","0","","","","","","3","","","","","","","","",""
"","","","","","single-stim-button","233","577534","0.0-2.0-37.1-0.1","585849a944177c0001aacf8e","D2","batch4","","647","tol_tohand","","","","tol_peg_3","647","647","0","[[3,1,0],[0,0],[0]]","2","[[3,0,0],[2,1],[0]]","9","0","","","","","","3","","","","","","","","",""
"","","","","","single-stim-button","234","578269","0.0-2.0-37.1-1.1","585849a944177c0001aacf8e","D2","batch4","","735","tol_toboard","","","","tol_peg_2","735","735","0","[[3,1,0],[2,0],[0]]","2","[[3,0,0],[2,1],[0]]","9","0","","","","","","3","","","","","","","","",""
"","","","","","single-stim-button","235","579038","0.0-2.0-37.2-0.2","585849a944177c0001aacf8e","D2","batch4","","767","tol_tohand","","","","tol_peg_1","767","767","0","[[3,0,0],[2,0],[0]]","3","[[3,0,0],[2,1],[0]]","9","0","","","","","","3","","","","","","","","",""
"","","","","","single-stim-button","236","579741","0.0-2.0-37.2-1.2","585849a944177c0001aacf8e","D2","batch4","","702","tol_toboard","","","","tol_peg_2","702","702","0","[[3,0,0],[2,1],[0]]","3","[[3,0,0],[2,1],[0]]","9","0","","","","","","3","","","","","","","","",""
"","","","","","poldrack-single-stim","237","580753","0.0-2.0-38.0","585849a944177c0001aacf8e","D2","batch4","","-1","tol_feedback","","","true","","1000","1000","500","","","","","","-1","none","true","3342","4756","","","","","","","","","",""
"","","","","","html-button-response","238","581645","0.0-2.0-39.0","585849a944177c0001aacf8e","D2","batch4","","891.0999999046326","tol_trial_num","<div class = centerbox><p class = center-block-text>problem <strong>11</strong> out of 25 problems</p></div>","0","","","","","","","","","","","","","","","","","","","","","","","","",""
"","","","","","single-stim-button","239","586382","0.0-2.0-40.0-0.0","585849a944177c0001aacf8e","D2","batch4","","4736","tol_tohand","","","","tol_peg_2","4736","4736","0","[[1,2,0],[0,0],[0]]","1","[[2,0,0],[1,3],[0]]","10","0","","","","","","6","","","","","","","","",""
"","","","","","single-stim-button","240","589301","0.0-2.0-40.0-1.0","585849a944177c0001aacf8e","D2","batch4","","2918","tol_toboard","","","","tol_peg_2","2918","2918","0","[[1,2,0],[3,0],[0]]","1","[[2,0,0],[1,3],[0]]","10","0","","","","","","6","","","","","","","","",""
"","","","","","single-stim-button","241","589829","0.0-2.0-40.1-0.1","585849a944177c0001aacf8e","D2","batch4","","527","tol_tohand","","","","tol_peg_1","527","527","0","[[1,0,0],[3,0],[0]]","2","[[2,0,0],[1,3],[0]]","10","0","","","","","","6","","","","","","","","",""
"","","","","","single-stim-button","242","592029","0.0-2.0-40.1-1.1","585849a944177c0001aacf8e","D2","batch4","","2199","tol_toboard","","","","tol_peg_3","2199","2199","0","[[1,0,0],[3,0],[2]]","2","[[2,0,0],[1,3],[0]]","10","0","","","","","","6","","","","","","","","",""
"","","","","","single-stim-button","243","596949","0.0-2.0-40.2-0.2","585849a944177c0001aacf8e","D2","batch4","","4919","tol_tohand","","","","tol_peg_3","4919","4919","0","[[1,0,0],[3,0],[0]]","3","[[2,0,0],[1,3],[0]]","10","0","","","","","","6","","","","","","","","",""
"","","","","","single-stim-button","244","597509","0.0-2.0-40.2-1.2","585849a944177c0001aacf8e","D2","batch4","","559","tol_toboard","","","","tol_peg_1","559","559","0","[[1,2,0],[3,0],[0]]","3","[[2,0,0],[1,3],[0]]","10","0","","","","","","6","","","","","","","","",""
"","","","","","single-stim-button","245","598237","0.0-2.0-40.3-0.3","585849a944177c0001aacf8e","D2","batch4","","727","tol_tohand","","","","tol_peg_2","727","727","0","[[1,2,0],[0,0],[0]]","4","[[2,0,0],[1,3],[0]]","10","0","","","","","","6","","","","","","","","",""
"","","","","","single-stim-button","246","599165","0.0-2.0-40.3-1.3","585849a944177c0001aacf8e","D2","batch4","","927","tol_toboard","","","","tol_peg_3","927","927","0","[[1,2,0],[0,0],[3]]","4","[[2,0,0],[1,3],[0]]","10","0","","","","","","6","","","","","","","","",""
"","","","","","single-stim-button","247","601158","0.0-2.0-40.4-0.4","585849a944177c0001aacf8e","D2","batch4","","1991","tol_tohand","","","","tol_peg_1","1991","1991","0","[[1,0,0],[0,0],[3]]","5","[[2,0,0],[1,3],[0]]","10","0","","","","","","6","","","","","","","","",""
"","","","","","single-stim-button","248","602373","0.0-2.0-40.4-1.4","585849a944177c0001aacf8e","D2","batch4","","1215","tol_toboard","","","","tol_peg_2","1215","1215","0","[[1,0,0],[2,0],[3]]","5","[[2,0,0],[1,3],[0]]","10","0","","","","","","6","","","","","","","","",""
"","","","","","single-stim-button","249","605221","0.0-2.0-40.5-0.5","585849a944177c0001aacf8e","D2","batch4","","2846","tol_tohand","","","","tol_peg_1","2846","2846","0","[[0,0,0],[2,0],[3]]","6","[[2,0,0],[1,3],[0]]","10","0","","","","","","6","","","","","","","","",""
"","","","","","single-stim-button","250","606285","0.0-2.0-40.5-1.5","585849a944177c0001aacf8e","D2","batch4","","1063","tol_toboard","","","","tol_peg_1","1063","1063","0","[[1,0,0],[2,0],[3]]","6","[[2,0,0],[1,3],[0]]","10","0","","","","","","6","","","","","","","","",""
"","","","","","single-stim-button","251","606974","0.0-2.0-40.6-0.6","585849a944177c0001aacf8e","D2","batch4","","687","tol_tohand","","","","tol_peg_2","687","687","0","[[1,0,0],[0,0],[3]]","7","[[2,0,0],[1,3],[0]]","10","0","","","","","","6","","","","","","","","",""
"","","","","","single-stim-button","252","608109","0.0-2.0-40.6-1.6","585849a944177c0001aacf8e","D2","batch4","","1135","tol_toboard","","","","tol_peg_1","1135","1135","0","[[1,2,0],[0,0],[3]]","7","[[2,0,0],[1,3],[0]]","10","0","","","","","","6","","","","","","","","",""
"","","","","","single-stim-button","253","608845","0.0-2.0-40.7-0.7","585849a944177c0001aacf8e","D2","batch4","","734","tol_tohand","","","","tol_peg_3","734","734","0","[[1,2,0],[0,0],[0]]","8","[[2,0,0],[1,3],[0]]","10","0","","","","","","6","","","","","","","","",""
"","","","","","single-stim-button","254","609397","0.0-2.0-40.7-1.7","585849a944177c0001aacf8e","D2","batch4","","552","tol_toboard","","","","tol_peg_2","552","552","0","[[1,2,0],[3,0],[0]]","8","[[2,0,0],[1,3],[0]]","10","0","","","","","","6","","","","","","","","",""
"","","","","","single-stim-button","255","612357","0.0-2.0-40.8-0.8","585849a944177c0001aacf8e","D2","batch4","","2959","tol_tohand","","","","tol_peg_1","2959","2959","0","[[1,0,0],[3,0],[0]]","9","[[2,0,0],[1,3],[0]]","10","0","","","","","","6","","","","","","","","",""
"","","","","","single-stim-button","256","613117","0.0-2.0-40.8-1.8","585849a944177c0001aacf8e","D2","batch4","","758","tol_toboard","","","","tol_peg_3","758","758","0","[[1,0,0],[3,0],[2]]","9","[[2,0,0],[1,3],[0]]","10","0","","","","","","6","","","","","","","","",""
"","","","","","single-stim-button","257","613821","0.0-2.0-40.9-0.9","585849a944177c0001aacf8e","D2","batch4","","703","tol_tohand","","","","tol_peg_1","703","703","0","[[0,0,0],[3,0],[2]]","10","[[2,0,0],[1,3],[0]]","10","0","","","","","","6","","","","","","","","",""
"","","","","","single-stim-button","258","614557","0.0-2.0-40.9-1.9","585849a944177c0001aacf8e","D2","batch4","","735","tol_toboard","","","","tol_peg_2","735","735","0","[[0,0,0],[3,1],[2]]","10","[[2,0,0],[1,3],[0]]","10","0","","","","","","6","","","","","","","","",""
"","","","","","single-stim-button","259","617981","0.0-2.0-40.10-0.10","585849a944177c0001aacf8e","D2","batch4","","3423","tol_tohand","","","","tol_peg_3","3423","3423","0","[[0,0,0],[3,1],[0]]","11","[[2,0,0],[1,3],[0]]","10","0","","","","","","6","","","","","","","","",""
"","","","","","single-stim-button","260","618766","0.0-2.0-40.10-1.10","585849a944177c0001aacf8e","D2","batch4","","783","tol_toboard","","","","tol_peg_1","783","783","0","[[2,0,0],[3,1],[0]]","11","[[2,0,0],[1,3],[0]]","10","0","","","","","","6","","","","","","","","",""
"","","","","","single-stim-button","261","620142","0.0-2.0-40.11-0.11","585849a944177c0001aacf8e","D2","batch4","","1376","tol_tohand","","","","tol_peg_2","1376","1376","0","[[2,0,0],[3,0],[0]]","12","[[2,0,0],[1,3],[0]]","10","0","","","","","","6","","","","","","","","",""
"","","","","","single-stim-button","262","620797","0.0-2.0-40.11-1.11","585849a944177c0001aacf8e","D2","batch4","","654","tol_toboard","","","","tol_peg_1","654","654","0","[[2,1,0],[3,0],[0]]","12","[[2,0,0],[1,3],[0]]","10","0","","","","","","6","","","","","","","","",""
"","","","","","single-stim-button","263","621334","0.0-2.0-40.12-0.12","585849a944177c0001aacf8e","D2","batch4","","535","tol_tohand","","","","tol_peg_2","535","535","0","[[2,1,0],[0,0],[0]]","13","[[2,0,0],[1,3],[0]]","10","0","","","","","","6","","","","","","","","",""
"","","","","","single-stim-button","264","622045","0.0-2.0-40.12-1.12","585849a944177c0001aacf8e","D2","batch4","","711","tol_toboard","","","","tol_peg_3","711","711","0","[[2,1,0],[0,0],[3]]","13","[[2,0,0],[1,3],[0]]","10","0","","","","","","6","","","","","","","","",""
"","","","","","single-stim-button","265","622646","0.0-2.0-40.13-0.13","585849a944177c0001aacf8e","D2","batch4","","599","tol_tohand","","","","tol_peg_1","599","599","0","[[2,0,0],[0,0],[3]]","14","[[2,0,0],[1,3],[0]]","10","0","","","","","","6","","","","","","","","",""
"","","","","","single-stim-button","266","623013","0.0-2.0-40.13-1.13","585849a944177c0001aacf8e","D2","batch4","","366","tol_toboard","","","","tol_peg_2","366","366","0","[[2,0,0],[1,0],[3]]","14","[[2,0,0],[1,3],[0]]","10","0","","","","","","6","","","","","","","","",""
"","","","","","single-stim-button","267","623885","0.0-2.0-40.14-0.14","585849a944177c0001aacf8e","D2","batch4","","871","tol_tohand","","","","tol_peg_3","871","871","0","[[2,0,0],[1,0],[0]]","15","[[2,0,0],[1,3],[0]]","10","0","","","","","","6","","","","","","","","",""
"","","","","","single-stim-button","268","624549","0.0-2.0-40.14-1.14","585849a944177c0001aacf8e","D2","batch4","","663","tol_toboard","","","","tol_peg_2","663","663","0","[[2,0,0],[1,3],[0]]","15","[[2,0,0],[1,3],[0]]","10","0","","","","","","6","","","","","","","","",""
"","","","","","poldrack-single-stim","269","625552","0.0-2.0-41.0","585849a944177c0001aacf8e","D2","batch4","","-1","tol_feedback","","","true","","1000","1000","500","","","","","","-1","none","true","4736","27633","","","","","","","","","",""
"","","","","","html-button-response","270","626461","0.0-2.0-42.0","585849a944177c0001aacf8e","D2","batch4","","907.8999999761581","tol_trial_num","<div class = centerbox><p class = center-block-text>problem <strong>12</strong> out of 25 problems</p></div>","0","","","","","","","","","","","","","","","","","","","","","","","","",""
"","","","","","single-stim-button","271","631318","0.0-2.0-43.0-0.0","585849a944177c0001aacf8e","D2","batch4","","4855","tol_tohand","","","","tol_peg_1","4855","4855","0","[[1,0,0],[3,0],[0]]","1","[[2,3,0],[0,0],[1]]","11","0","","","","","","4","","","","","","","","",""
"","","","","","single-stim-button","272","631862","0.0-2.0-43.0-1.0","585849a944177c0001aacf8e","D2","batch4","","543","tol_toboard","","","","tol_peg_3","543","543","0","[[1,0,0],[3,0],[2]]","1","[[2,3,0],[0,0],[1]]","11","0","","","","","","4","","","","","","","","",""
"","","","","","single-stim-button","273","632830","0.0-2.0-43.1-0.1","585849a944177c0001aacf8e","D2","batch4","","967","tol_tohand","","","","tol_peg_1","967","967","0","[[0,0,0],[3,0],[2]]","2","[[2,3,0],[0,0],[1]]","11","0","","","","","","4","","","","","","","","",""
"","","","","","single-stim-button","274","634277","0.0-2.0-43.1-1.1","585849a944177c0001aacf8e","D2","batch4","","1447","tol_toboard","","","","tol_peg_2","1447","1447","0","[[0,0,0],[3,1],[2]]","2","[[2,3,0],[0,0],[1]]","11","0","","","","","","4","","","","","","","","",""
"","","","","","single-stim-button","275","634998","0.0-2.0-43.2-0.2","585849a944177c0001aacf8e","D2","batch4","","720","tol_tohand","","","","tol_peg_3","720","720","0","[[0,0,0],[3,1],[0]]","3","[[2,3,0],[0,0],[1]]","11","0","","","","","","4","","","","","","","","",""
"","","","","","single-stim-button","276","636021","0.0-2.0-43.2-1.2","585849a944177c0001aacf8e","D2","batch4","","1021","tol_toboard","","","","tol_peg_1","1021","1021","0","[[2,0,0],[3,1],[0]]","3","[[2,3,0],[0,0],[1]]","11","0","","","","","","4","","","","","","","","",""
"","","","","","single-stim-button","277","636653","0.0-2.0-43.3-0.3","585849a944177c0001aacf8e","D2","batch4","","632","tol_tohand","","","","tol_peg_2","632","632","0","[[2,0,0],[3,0],[0]]","4","[[2,3,0],[0,0],[1]]","11","0","","","","","","4","","","","","","","","",""
"","","","","","single-stim-button","278","637197","0.0-2.0-43.3-1.3","585849a944177c0001aacf8e","D2","batch4","","543","tol_toboard","","","","tol_peg_3","543","543","0","[[2,0,0],[3,0],[1]]","4","[[2,3,0],[0,0],[1]]","11","0","","","","","","4","","","","","","","","",""
"","","","","","single-stim-button","279","637653","0.0-2.0-43.4-0.4","585849a944177c0001aacf8e","D2","batch4","","454","tol_tohand","","","","tol_peg_2","454","454","0","[[2,0,0],[0,0],[1]]","5","[[2,3,0],[0,0],[1]]","11","0","","","","","","4","","","","","","","","",""
"","","","","","single-stim-button","280","638109","0.0-2.0-43.4-1.4","585849a944177c0001aacf8e","D2","batch4","","456","tol_toboard","","","","tol_peg_1","456","456","0","[[2,3,0],[0,0],[1]]","5","[[2,3,0],[0,0],[1]]","11","0","","","","","","4","","","","","","","","",""
"","","","","","poldrack-single-stim","281","639111","0.0-2.0-44.0","585849a944177c0001aacf8e","D2","batch4","","-1","tol_feedback","","","true","","1000","1000","500","","","","","","-1","none","true","4855","7628","","","","","","","","","",""
"","","","","","html-button-response","282","639998","0.0-2.0-45.0","585849a944177c0001aacf8e","D2","batch4","","884.7999999523163","tol_trial_num","<div class = centerbox><p class = center-block-text>problem <strong>13</strong> out of 25 problems</p></div>","0","","","","","","","","","","","","","","","","","","","","","","","","",""
"","","","","","single-stim-button","283","642967","0.0-2.0-46.0-0.0","585849a944177c0001aacf8e","D2","batch4","","2967","tol_tohand","","","","tol_peg_2","2967","2967","0","[[1,2,0],[0,0],[0]]","1","[[0,0,0],[2,3],[1]]","12","0","","","","","","4","","","","","","","","",""
"","","","","","single-stim-button","284","644205","0.0-2.0-46.0-1.0","585849a944177c0001aacf8e","D2","batch4","","1238","tol_toboard","","","","tol_peg_3","1238","1238","0","[[1,2,0],[0,0],[3]]","1","[[0,0,0],[2,3],[1]]","12","0","","","","","","4","","","","","","","","",""
"","","","","","single-stim-button","285","645029","0.0-2.0-46.1-0.1","585849a944177c0001aacf8e","D2","batch4","","823","tol_tohand","","","","tol_peg_1","823","823","0","[[1,0,0],[0,0],[3]]","2","[[0,0,0],[2,3],[1]]","12","0","","","","","","4","","","","","","","","",""
"","","","","","single-stim-button","286","645886","0.0-2.0-46.1-1.1","585849a944177c0001aacf8e","D2","batch4","","855","tol_toboard","","","","tol_peg_2","855","855","0","[[1,0,0],[2,0],[3]]","2","[[0,0,0],[2,3],[1]]","12","0","","","","","","4","","","","","","","","",""
"","","","","","single-stim-button","287","646389","0.0-2.0-46.2-0.2","585849a944177c0001aacf8e","D2","batch4","","503","tol_tohand","","","","tol_peg_3","503","503","0","[[1,0,0],[2,0],[0]]","3","[[0,0,0],[2,3],[1]]","12","0","","","","","","4","","","","","","","","",""
"","","","","","single-stim-button","288","646966","0.0-2.0-46.2-1.2","585849a944177c0001aacf8e","D2","batch4","","575","tol_toboard","","","","tol_peg_2","575","575","0","[[1,0,0],[2,3],[0]]","3","[[0,0,0],[2,3],[1]]","12","0","","","","","","4","","","","","","","","",""
"","","","","","single-stim-button","289","647662","0.0-2.0-46.3-0.3","585849a944177c0001aacf8e","D2","batch4","","693","tol_tohand","","","","tol_peg_1","693","693","0","[[0,0,0],[2,3],[0]]","4","[[0,0,0],[2,3],[1]]","12","0","","","","","","4","","","","","","","","",""
"","","","","","single-stim-button","290","648717","0.0-2.0-46.3-1.3","585849a944177c0001aacf8e","D2","batch4","","1055","tol_toboard","","","","tol_peg_3","1055","1055","0","[[0,0,0],[2,3],[1]]","4","[[0,0,0],[2,3],[1]]","12","0","","","","","","4","","","","","","","","",""
"","","","","","poldrack-single-stim","291","649720","0.0-2.0-47.0","585849a944177c0001aacf8e","D2","batch4","","-1","tol_feedback","","","true","","1000","1000","500","","","","","","-1","none","true","2967","4986","","","","","","","","","",""
"","","","","","html-button-response","292","654526","0.0-2.0-48.0","585849a944177c0001aacf8e","D2","batch4","","4804.800000071526","attention_check","<p class = block-text>How many balls are in your board<br></p>","1","true","","","","","","","","","","","","","","","","","","","","","","","",""
"","","","","","html-button-response","293","656037","0.0-2.0-49.0","585849a944177c0001aacf8e","D2","batch4","","1510.3000000715256","tol_trial_num","<div class = centerbox><p class = center-block-text>problem <strong>14</strong> out of 25 problems</p></div>","0","","","","","","","","","","","","","","","","","","","","","","","","",""
"","","","","","single-stim-button","294","663278","0.0-2.0-50.0-0.0","585849a944177c0001aacf8e","D2","batch4","","7237","tol_tohand","","","","tol_peg_1","7237","7237","0","[[2,0,0],[3,0],[0]]","1","[[1,2,0],[3,0],[0]]","13","0","","","","","","4","","","","","","","","",""
"","","","","","single-stim-button","295","664582","0.0-2.0-50.0-1.0","585849a944177c0001aacf8e","D2","batch4","","1302","tol_toboard","","","","tol_peg_3","1302","1302","0","[[2,0,0],[3,0],[1]]","1","[[1,2,0],[3,0],[0]]","13","0","","","","","","4","","","","","","","","",""
"","","","","","single-stim-button","296","665494","0.0-2.0-50.1-0.1","585849a944177c0001aacf8e","D2","batch4","","910","tol_tohand","","","","tol_peg_1","910","910","0","[[0,0,0],[3,0],[1]]","2","[[1,2,0],[3,0],[0]]","13","0","","","","","","4","","","","","","","","",""
"","","","","","single-stim-button","297","666086","0.0-2.0-50.1-1.1","585849a944177c0001aacf8e","D2","batch4","","591","tol_toboard","","","","tol_peg_2","591","591","0","[[0,0,0],[3,2],[1]]","2","[[1,2,0],[3,0],[0]]","13","0","","","","","","4","","","","","","","","",""
"","","","","","single-stim-button","298","666822","0.0-2.0-50.2-0.2","585849a944177c0001aacf8e","D2","batch4","","736","tol_tohand","","","","tol_peg_3","736","736","0","[[0,0,0],[3,2],[0]]","3","[[1,2,0],[3,0],[0]]","13","0","","","","","","4","","","","","","","","",""
"","","","","","single-stim-button","299","667526","0.0-2.0-50.2-1.2","585849a944177c0001aacf8e","D2","batch4","","702","tol_toboard","","","","tol_peg_1","702","702","0","[[1,0,0],[3,2],[0]]","3","[[1,2,0],[3,0],[0]]","13","0","","","","","","4","","","","","","","","",""
"","","","","","single-stim-button","300","668102","0.0-2.0-50.3-0.3","585849a944177c0001aacf8e","D2","batch4","","575","tol_tohand","","","","tol_peg_2","575","575","0","[[1,0,0],[3,0],[0]]","4","[[1,2,0],[3,0],[0]]","13","0","","","","","","4","","","","","","","","",""
"","","","","","single-stim-button","301","668622","0.0-2.0-50.3-1.3","585849a944177c0001aacf8e","D2","batch4","","518","tol_toboard","","","","tol_peg_1","518","518","0","[[1,2,0],[3,0],[0]]","4","[[1,2,0],[3,0],[0]]","13","0","","","","","","4","","","","","","","","",""
"","","","","","poldrack-single-stim","302","669638","0.0-2.0-51.0","585849a944177c0001aacf8e","D2","batch4","","-1","tol_feedback","","","true","","1000","1000","500","","","","","","-1","none","true","7237","9458","","","","","","","","","",""
"","","","","","html-button-response","303","670406","0.0-2.0-52.0","585849a944177c0001aacf8e","D2","batch4","","765.5999999046326","tol_trial_num","<div class = centerbox><p class = center-block-text>problem <strong>15</strong> out of 25 problems</p></div>","0","","","","","","","","","","","","","","","","","","","","","","","","",""
"","","","","","single-stim-button","304","674222","0.0-2.0-53.0-0.0","585849a944177c0001aacf8e","D2","batch4","","3815","tol_tohand","","","","tol_peg_1","3815","3815","0","[[1,0,0],[3,0],[0]]","1","[[2,0,0],[3,0],[1]]","14","0","","","","","","3","","","","","","","","",""
"","","","","","single-stim-button","305","675070","0.0-2.0-53.0-1.0","585849a944177c0001aacf8e","D2","batch4","","848","tol_toboard","","","","tol_peg_2","848","848","0","[[1,0,0],[3,2],[0]]","1","[[2,0,0],[3,0],[1]]","14","0","","","","","","3","","","","","","","","",""
"","","","","","single-stim-button","306","675702","0.0-2.0-53.1-0.1","585849a944177c0001aacf8e","D2","batch4","","630","tol_tohand","","","","tol_peg_1","630","630","0","[[0,0,0],[3,2],[0]]","2","[[2,0,0],[3,0],[1]]","14","0","","","","","","3","","","","","","","","",""
"","","","","","single-stim-button","307","676422","0.0-2.0-53.1-1.1","585849a944177c0001aacf8e","D2","batch4","","720","tol_toboard","","","","tol_peg_3","720","720","0","[[0,0,0],[3,2],[1]]","2","[[2,0,0],[3,0],[1]]","14","0","","","","","","3","","","","","","","","",""
"","","","","","single-stim-button","308","676982","0.0-2.0-53.2-0.2","585849a944177c0001aacf8e","D2","batch4","","558","tol_tohand","","","","tol_peg_2","558","558","0","[[0,0,0],[3,0],[1]]","3","[[2,0,0],[3,0],[1]]","14","0","","","","","","3","","","","","","","","",""
"","","","","","single-stim-button","309","678238","0.0-2.0-53.2-1.2","585849a944177c0001aacf8e","D2","batch4","","1255","tol_toboard","","","","tol_peg_1","1255","1255","0","[[2,0,0],[3,0],[1]]","3","[[2,0,0],[3,0],[1]]","14","0","","","","","","3","","","","","","","","",""
"","","","","","poldrack-single-stim","310","679247","0.0-2.0-54.0","585849a944177c0001aacf8e","D2","batch4","","-1","tol_feedback","","","true","","1000","1000","500","","","","","","-1","none","true","3815","5003","","","","","","","","","",""
"","","","","","html-button-response","311","680310","0.0-2.0-55.0","585849a944177c0001aacf8e","D2","batch4","","1062.1000000238419","tol_trial_num","<div class = centerbox><p class = center-block-text>problem <strong>16</strong> out of 25 problems</p></div>","0","","","","","","","","","","","","","","","","","","","","","","","","",""
"","","","","","single-stim-button","312","684190","0.0-2.0-56.0-0.0","585849a944177c0001aacf8e","D2","batch4","","3878","tol_tohand","","","","tol_peg_2","3878","3878","0","[[0,0,0],[2,0],[1]]","1","[[2,3,0],[1,0],[0]]","15","0","","","","","","7","","","","","","","","",""
"","","","","","single-stim-button","313","684854","0.0-2.0-56.0-1.0","585849a944177c0001aacf8e","D2","batch4","","664","tol_toboard","","","","tol_peg_1","664","664","0","[[3,0,0],[2,0],[1]]","1","[[2,3,0],[1,0],[0]]","15","0","","","","","","7","","","","","","","","",""
"","","","","","single-stim-button","314","685638","0.0-2.0-56.1-0.1","585849a944177c0001aacf8e","D2","batch4","","783","tol_tohand","","","","tol_peg_3","783","783","0","[[3,0,0],[2,0],[0]]","2","[[2,3,0],[1,0],[0]]","15","0","","","","","","7","","","","","","","","",""
"","","","","","single-stim-button","315","687270","0.0-2.0-56.1-1.1","585849a944177c0001aacf8e","D2","batch4","","1632","tol_toboard","","","","tol_peg_2","1632","1632","0","[[3,0,0],[2,1],[0]]","2","[[2,3,0],[1,0],[0]]","15","0","","","","","","7","","","","","","","","",""
"","","","","","single-stim-button","316","687845","0.0-2.0-56.2-0.2","585849a944177c0001aacf8e","D2","batch4","","574","tol_tohand","","","","tol_peg_1","574","574","0","[[0,0,0],[2,1],[0]]","3","[[2,3,0],[1,0],[0]]","15","0","","","","","","7","","","","","","","","",""
"","","","","","single-stim-button","317","688733","0.0-2.0-56.2-1.2","585849a944177c0001aacf8e","D2","batch4","","887","tol_toboard","","","","tol_peg_3","887","887","0","[[0,0,0],[2,1],[3]]","3","[[2,3,0],[1,0],[0]]","15","0","","","","","","7","","","","","","","","",""
"","","","","","single-stim-button","318","694670","0.0-2.0-56.3-0.3","585849a944177c0001aacf8e","D2","batch4","","5936","tol_tohand","","","","tol_peg_3","5936","5936","0","[[0,0,0],[2,1],[0]]","4","[[2,3,0],[1,0],[0]]","15","0","","","","","","7","","","","","","","","",""
"","","","","","single-stim-button","319","695605","0.0-2.0-56.3-1.3","585849a944177c0001aacf8e","D2","batch4","","934","tol_toboard","","","","tol_peg_1","934","934","0","[[3,0,0],[2,1],[0]]","4","[[2,3,0],[1,0],[0]]","15","0","","","","","","7","","","","","","","","",""
"","","","","","single-stim-button","320","696733","0.0-2.0-56.4-0.4","585849a944177c0001aacf8e","D2","batch4","","1127","tol_tohand","","","","tol_peg_2","1127","1127","0","[[3,0,0],[2,0],[0]]","5","[[2,3,0],[1,0],[0]]","15","0","","","","","","7","","","","","","","","",""
"","","","","","single-stim-button","321","698902","0.0-2.0-56.4-1.4","585849a944177c0001aacf8e","D2","batch4","","2167","tol_toboard","","","","tol_peg_3","2167","2167","0","[[3,0,0],[2,0],[1]]","5","[[2,3,0],[1,0],[0]]","15","0","","","","","","7","","","","","","","","",""
"","","","","","single-stim-button","322","700334","0.0-2.0-56.5-0.5","585849a944177c0001aacf8e","D2","batch4","","1431","tol_tohand","","","","tol_peg_2","1431","1431","0","[[3,0,0],[0,0],[1]]","6","[[2,3,0],[1,0],[0]]","15","0","","","","","","7","","","","","","","","",""
"","","","","","single-stim-button","323","702134","0.0-2.0-56.5-1.5","585849a944177c0001aacf8e","D2","batch4","","1799","tol_toboard","","","","tol_peg_1","1799","1799","0","[[3,2,0],[0,0],[1]]","6","[[2,3,0],[1,0],[0]]","15","0","","","","","","7","","","","","","","","",""
"","","","","","single-stim-button","324","704389","0.0-2.0-56.6-0.6","585849a944177c0001aacf8e","D2","batch4","","2255","tol_tohand","","","","tol_peg_1","2255","2255","0","[[3,0,0],[0,0],[1]]","7","[[2,3,0],[1,0],[0]]","15","0","","","","","","7","","","","","","","","",""
"","","","","","single-stim-button","325","706221","0.0-2.0-56.6-1.6","585849a944177c0001aacf8e","D2","batch4","","1831","tol_toboard","","","","tol_peg_2","1831","1831","0","[[3,0,0],[2,0],[1]]","7","[[2,3,0],[1,0],[0]]","15","0","","","","","","7","","","","","","","","",""
"","","","","","single-stim-button","326","706733","0.0-2.0-56.7-0.7","585849a944177c0001aacf8e","D2","batch4","","511","tol_tohand","","","","tol_peg_3","511","511","0","[[3,0,0],[2,0],[0]]","8","[[2,3,0],[1,0],[0]]","15","0","","","","","","7","","","","","","","","",""
"","","","","","single-stim-button","327","708045","0.0-2.0-56.7-1.7","585849a944177c0001aacf8e","D2","batch4","","1311","tol_toboard","","","","tol_peg_1","1311","1311","0","[[3,1,0],[2,0],[0]]","8","[[2,3,0],[1,0],[0]]","15","0","","","","","","7","","","","","","","","",""
"","","","","","single-stim-button","328","708998","0.0-2.0-56.8-0.8","585849a944177c0001aacf8e","D2","batch4","","951","tol_tohand","","","","tol_peg_1","951","951","0","[[3,0,0],[2,0],[0]]","9","[[2,3,0],[1,0],[0]]","15","0","","","","","","7","","","","","","","","",""
"","","","","","single-stim-button","329","709725","0.0-2.0-56.8-1.8","585849a944177c0001aacf8e","D2","batch4","","727","tol_toboard","","","","tol_peg_2","727","727","0","[[3,0,0],[2,1],[0]]","9","[[2,3,0],[1,0],[0]]","15","0","","","","","","7","","","","","","","","",""
"","","","","","single-stim-button","330","710582","0.0-2.0-56.9-0.9","585849a944177c0001aacf8e","D2","batch4","","856","tol_tohand","","","","tol_peg_1","856","856","0","[[0,0,0],[2,1],[0]]","10","[[2,3,0],[1,0],[0]]","15","0","","","","","","7","","","","","","","","",""
"","","","","","single-stim-button","331","711430","0.0-2.0-56.9-1.9","585849a944177c0001aacf8e","D2","batch4","","847","tol_toboard","","","","tol_peg_3","847","847","0","[[0,0,0],[2,1],[3]]","10","[[2,3,0],[1,0],[0]]","15","0","","","","","","7","","","","","","","","",""
"","","","","","single-stim-button","332","713709","0.0-2.0-56.10-0.10","585849a944177c0001aacf8e","D2","batch4","","2279","tol_tohand","","","","tol_peg_2","2279","2279","0","[[0,0,0],[2,0],[3]]","11","[[2,3,0],[1,0],[0]]","15","0","","","","","","7","","","","","","","","",""
"","","","","","single-stim-button","333","715261","0.0-2.0-56.10-1.10","585849a944177c0001aacf8e","D2","batch4","","1551","tol_toboard","","","","tol_peg_2","1551","1551","0","[[0,0,0],[2,1],[3]]","11","[[2,3,0],[1,0],[0]]","15","0","","","","","","7","","","","","","","","",""
"","","","","","single-stim-button","334","715877","0.0-2.0-56.11-0.11","585849a944177c0001aacf8e","D2","batch4","","615","tol_tohand","","","","tol_peg_2","615","615","0","[[0,0,0],[2,0],[3]]","12","[[2,3,0],[1,0],[0]]","15","0","","","","","","7","","","","","","","","",""
"","","","","","single-stim-button","335","716509","0.0-2.0-56.11-1.11","585849a944177c0001aacf8e","D2","batch4","","631","tol_toboard","","","","tol_peg_1","631","631","0","[[1,0,0],[2,0],[3]]","12","[[2,3,0],[1,0],[0]]","15","0","","","","","","7","","","","","","","","",""
"","","","","","single-stim-button","336","718605","0.0-2.0-56.12-0.12","585849a944177c0001aacf8e","D2","batch4","","2095","tol_tohand","","","","tol_peg_2","2095","2095","0","[[1,0,0],[0,0],[3]]","13","[[2,3,0],[1,0],[0]]","15","0","","","","","","7","","","","","","","","",""
"","","","","","single-stim-button","337","719334","0.0-2.0-56.12-1.12","585849a944177c0001aacf8e","D2","batch4","","727","tol_toboard","","","","tol_peg_1","727","727","0","[[1,2,0],[0,0],[3]]","13","[[2,3,0],[1,0],[0]]","15","0","","","","","","7","","","","","","","","",""
"","","","","","single-stim-button","338","719957","0.0-2.0-56.13-0.13","585849a944177c0001aacf8e","D2","batch4","","623","tol_tohand","","","","tol_peg_3","623","623","0","[[1,2,0],[0,0],[0]]","14","[[2,3,0],[1,0],[0]]","15","0","","","","","","7","","","","","","","","",""
"","","","","","single-stim-button","339","721629","0.0-2.0-56.13-1.13","585849a944177c0001aacf8e","D2","batch4","","1671","tol_toboard","","","","tol_peg_2","1671","1671","0","[[1,2,0],[3,0],[0]]","14","[[2,3,0],[1,0],[0]]","15","0","","","","","","7","","","","","","","","",""
"","","","","","single-stim-button","340","723509","0.0-2.0-56.14-0.14","585849a944177c0001aacf8e","D2","batch4","","1879","tol_tohand","","","","tol_peg_1","1879","1879","0","[[1,0,0],[3,0],[0]]","15","[[2,3,0],[1,0],[0]]","15","0","","","","","","7","","","","","","","","",""
"","","","","","single-stim-button","341","725861","0.0-2.0-56.14-1.14","585849a944177c0001aacf8e","D2","batch4","","2351","tol_toboard","","","","tol_peg_2","2351","2351","0","[[1,0,0],[3,2],[0]]","15","[[2,3,0],[1,0],[0]]","15","0","","","","","","7","","","","","","","","",""
"","","","","","single-stim-button","342","726405","0.0-2.0-56.15-0.15","585849a944177c0001aacf8e","D2","batch4","","543","tol_tohand","","","","tol_peg_1","543","543","0","[[0,0,0],[3,2],[0]]","16","[[2,3,0],[1,0],[0]]","15","0","","","","","","7","","","","","","","","",""
"","","","","","single-stim-button","343","727221","0.0-2.0-56.15-1.15","585849a944177c0001aacf8e","D2","batch4","","815","tol_toboard","","","","tol_peg_3","815","815","0","[[0,0,0],[3,2],[1]]","16","[[2,3,0],[1,0],[0]]","15","0","","","","","","7","","","","","","","","",""
"","","","","","single-stim-button","344","727830","0.0-2.0-56.16-0.16","585849a944177c0001aacf8e","D2","batch4","","607","tol_tohand","","","","tol_peg_2","607","607","0","[[0,0,0],[3,0],[1]]","17","[[2,3,0],[1,0],[0]]","15","0","","","","","","7","","","","","","","","",""
"","","","","","single-stim-button","345","728517","0.0-2.0-56.16-1.16","585849a944177c0001aacf8e","D2","batch4","","687","tol_toboard","","","","tol_peg_1","687","687","0","[[2,0,0],[3,0],[1]]","17","[[2,3,0],[1,0],[0]]","15","0","","","","","","7","","","","","","","","",""
"","","","","","single-stim-button","346","729078","0.0-2.0-56.17-0.17","585849a944177c0001aacf8e","D2","batch4","","559","tol_tohand","","","","tol_peg_2","559","559","0","[[2,0,0],[0,0],[1]]","18","[[2,3,0],[1,0],[0]]","15","0","","","","","","7","","","","","","","","",""
"","","","","","single-stim-button","347","729581","0.0-2.0-56.17-1.17","585849a944177c0001aacf8e","D2","batch4","","503","tol_toboard","","","","tol_peg_1","503","503","0","[[2,3,0],[0,0],[1]]","18","[[2,3,0],[1,0],[0]]","15","0","","","","","","7","","","","","","","","",""
"","","","","","single-stim-button","348","730285","0.0-2.0-56.18-0.18","585849a944177c0001aacf8e","D2","batch4","","703","tol_tohand","","","","tol_peg_3","703","703","0","[[2,3,0],[0,0],[0]]","19","[[2,3,0],[1,0],[0]]","15","0","","","","","","7","","","","","","","","",""
"","","","","","single-stim-button","349","730773","0.0-2.0-56.18-1.18","585849a944177c0001aacf8e","D2","batch4","","487","tol_toboard","","","","tol_peg_2","487","487","0","[[2,3,0],[1,0],[0]]","19","[[2,3,0],[1,0],[0]]","15","0","","","","","","7","","","","","","","","",""
"","","","","","poldrack-single-stim","350","731780","0.0-2.0-57.0","585849a944177c0001aacf8e","D2","batch4","","-1","tol_feedback","","","true","","1000","1000","500","","","","","","-1","none","true","3878","28205","","","","","","","","","",""
"","","","","","html-button-response","351","732517","0.0-2.0-58.0","585849a944177c0001aacf8e","D2","batch4","","736","tol_trial_num","<div class = centerbox><p class = center-block-text>problem <strong>17</strong> out of 25 problems</p></div>","0","","","","","","","","","","","","","","","","","","","","","","","","",""
"","","","","","single-stim-button","352","735429","0.0-2.0-59.0-0.0","585849a944177c0001aacf8e","D2","batch4","","2910","tol_tohand","","","","tol_peg_1","2910","2910","0","[[1,0,0],[3,0],[0]]","1","[[3,1,0],[2,0],[0]]","16","0","","","","","","5","","","","","","","","",""
"","","","","","single-stim-button","353","739349","0.0-2.0-59.0-1.0","585849a944177c0001aacf8e","D2","batch4","","3919","tol_toboard","","","","tol_peg_2","3919","3919","0","[[1,0,0],[3,2],[0]]","1","[[3,1,0],[2,0],[0]]","16","0","","","","","","5","","","","","","","","",""
