"success","timeout","failed_images","failed_audio","failed_video","trial_type","trial_index","time_elapsed","internal_node_id","subject_id","study_id","session_id","view_history","rt","stimulus","response","task","correct","answer","item","fiar_detect_rt","fiar_detect_correct","total_correct_fiar_detect","post_trial_gap","choices","mouse_click","stim_duration","block_duration","timing_post_trial","current_position","tol_num_moves_made","tol_target","tol_problem_id","tol_rt","key_press","possible_responses","tol_correct","preplanning","tol_rt_per_trial","tol_min_moves","spm_correct","spm_rt"
"true","false","[]","[]","[]","preload","0","27599","0.0-0.0","589ce4d65e63bf00013b3175","C3","batch3","","","","","","","","","","","","","","","","","","","","","","","","","","","","","",""
"true","","","","","fullscreen","1","126457","0.0-1.0-0.0","589ce4d65e63bf00013b3175","C3","batch3","","","","","","","","","","","","","","","","","","","","","","","","","","","","","",""
"true","","","","","fullscreen","2","129158","0.0-2.0-0.0","589ce4d65e63bf00013b3175","C3","batch3","","","","","","","","","","","","","","","","","","","","","","","","","","","","","",""
"","","","","","instructions","3","209863","0.0-2.0-1.0-0.0","589ce4d65e63bf00013b3175","C3","batch3","[{""page_index"":0,""viewing_time"":7622.799999952316},{""page_index"":1,""viewing_time"":73079.89999997616}]","80702.79999995232","","","","","","","","","","","","","","","","","","","","","","","","","","","",""
"","","","","","html-button-response","4","210895","0.0-2.0-1.0-1.0-0.0","589ce4d65e63bf00013b3175","C3","batch3","","1031.3999999761581","<p class=block-text> Let's answer a few questions <br>","0","pattern_enter_quiz","","","","","","","","","","","","","","","","","","","","","","","","",""
"","","","","","html-button-response","5","214351","0.0-2.0-1.0-1.0-1.0","589ce4d65e63bf00013b3175","C3","batch3","","3455.1999999284744","<p class = block-text>True or False: You will have as much time as you want to make each choice. <br></p>","1","pattern_quiz","true","","","","","","","","","","","","","","","","","","","","","","","",""
"","","","","","html-button-response","6","215455","0.0-2.0-1.0-1.0-2.0","589ce4d65e63bf00013b3175","C3","batch3","","1103.1000000238419","<p class = block-text>Correct! You should make your choice <strong> as fast as you can</strong>.</p>","0","pattern_quiz_feedback","","","","","","","","","","","","","","","","","","","","","","","","",""
"","","","","","html-button-response","7","218223","0.0-2.0-1.0-1.0-3.0","589ce4d65e63bf00013b3175","C3","batch3","","2767.5","<p class = block-text>True or False: You will look for 4 pieces in black or white color connected in a row either horizontally, vertically or diagonally. <br></p>","0","pattern_quiz","true","","","","","","","","","","","","","","","","","","","","","","","",""
"","","","","","html-button-response","8","218919","0.0-2.0-1.0-1.0-4.0","589ce4d65e63bf00013b3175","C3","batch3","","695.5","<p class = block-text>Correct! </p>","0","pattern_quiz_feedback","","","","","","","","","","","","","","","","","","","","","","","","",""
"","","","","","html-button-response","9","220151","0.0-2.0-2.0","589ce4d65e63bf00013b3175","C3","batch3","","1231.1000000238419","<p class=block-text> Now that you've understood the game, let's do a few practice trials before we start!<br> <br>","0","pattern_enter_practice","","","","","","","","","","","","","","","","","","","","","","","","",""
"","","","","","image-keyboard-response","10","222049","0.0-2.0-3.0-0.0","589ce4d65e63bf00013b3175","C3","batch3","","1896.1000000238419","stim/prac_yes_18_hor_w1.png","f","pattern_practice","true","f","","","","","","","","","","","","","","","","","","","","","","",""
"","","","","","html-keyboard-response","11","223072","0.0-2.0-3.0-1.0","589ce4d65e63bf00013b3175","C3","batch3","","null","<p style=""font-size:30px;color:green;"">Correct!</p>","null","pattern_feedback","","","","","","","","","","","","","","","","","","","","","","","","",""
"","","","","","image-keyboard-response","12","224797","0.0-2.0-3.0-0.1","589ce4d65e63bf00013b3175","C3","batch3","","1722.1000000238419","stim/prac_yes_20_dia_b1.png","f","pattern_practice","true","f","","","","","","","","","","","","","","","","","","","","","","",""
"","","","","","html-keyboard-response","13","225824","0.0-2.0-3.0-1.1","589ce4d65e63bf00013b3175","C3","batch3","","null","<p style=""font-size:30px;color:green;"">Correct!</p>","null","pattern_feedback","","","","","","","","","","","","","","","","","","","","","","","","",""
"","","","","","image-keyboard-response","14","227363","0.0-2.0-3.0-0.2","589ce4d65e63bf00013b3175","C3","batch3","","1535.3999999761581","stim/prac_no_16_1.png","j","pattern_practice","true","j","","","","","","","","","","","","","","","","","","","","","","",""
"","","","","","html-keyboard-response","15","228373","0.0-2.0-3.0-1.2","589ce4d65e63bf00013b3175","C3","batch3","","null","<p style=""font-size:30px;color:green;"">Correct!</p>","null","pattern_feedback","","","","","","","","","","","","","","","","","","","","","","","","",""
"","","","","","image-keyboard-response","16","230094","0.0-2.0-3.0-0.3","589ce4d65e63bf00013b3175","C3","batch3","","1717.8000000715256","stim/prac_no_18_1.png","j","pattern_practice","true","j","","","","","","","","","","","","","","","","","","","","","","",""
"","","","","","html-keyboard-response","17","231111","0.0-2.0-3.0-1.3","589ce4d65e63bf00013b3175","C3","batch3","","null","<p style=""font-size:30px;color:green;"">Correct!</p>","null","pattern_feedback","","","","","","","","","","","","","","","","","","","","","","","","",""
"","","","","","image-keyboard-response","18","232148","0.0-2.0-3.0-0.4","589ce4d65e63bf00013b3175","C3","batch3","","1033.8999999761581","stim/prac_yes_16_ver_w1.png","f","pattern_practice","true","f","","","","","","","","","","","","","","","","","","","","","","",""
"","","","","","html-keyboard-response","19","233172","0.0-2.0-3.0-1.4","589ce4d65e63bf00013b3175","C3","batch3","","null","<p style=""font-size:30px;color:green;"">Correct!</p>","null","pattern_feedback","","","","","","","","","","","","","","","","","","","","","","","","",""
"","","","","","html-button-response","20","261375","0.0-2.0-4.0","589ce4d65e63bf00013b3175","C3","batch3","","28201.5","<p class=block-text> Good job! You are done with practice trials!<br>
        You responded correctly on 100% of the trials.<br>
        Press the button below to start official trials. Now you won't see any feedback about your response</p>","0","pattern_enter_official_trials","","","","","","","","","","","","","","","","","","","","","","","","",""
"","","","","","html-keyboard-response","21","262178","0.0-2.0-5.0-0.0","589ce4d65e63bf00013b3175","C3","batch3","","null","<p class=block-text>Trial 1 out of 78</p>","null","pattern_show_trial_num","","","","","","","","","","","","","","","","","","","","","","","","",""
"","","","","","image-keyboard-response","22","264725","0.0-2.0-5.0-1.0","589ce4d65e63bf00013b3175","C3","batch3","","2545.2999999523163","stim/no_37_2_w.png","j","pattern_response","true","j","pattern_19","2545.2999999523163","true","1","","","","","","","","","","","","","","","","","","",""
"","","","","","html-keyboard-response","23","266041","0.0-2.0-5.0-0.1","589ce4d65e63bf00013b3175","C3","batch3","","null","<p class=block-text>Trial 2 out of 78</p>","null","pattern_show_trial_num","","","","","","","","","","","","","","","","","","","","","","","","",""
"","","","","","image-keyboard-response","24","268901","0.0-2.0-5.0-1.1","589ce4d65e63bf00013b3175","C3","batch3","","2856.5999999046326","stim/no_33_1_b.png","j","pattern_response","true","j","pattern_15","2856.5999999046326","true","2","","","","","","","","","","","","","","","","","","",""
"","","","","","html-keyboard-response","25","270222","0.0-2.0-5.0-0.2","589ce4d65e63bf00013b3175","C3","batch3","","null","<p class=block-text>Trial 3 out of 78</p>","null","pattern_show_trial_num","","","","","","","","","","","","","","","","","","","","","","","","",""
"","","","","","image-keyboard-response","26","270966","0.0-2.0-5.0-1.2","589ce4d65e63bf00013b3175","C3","batch3","","741.1000000238419","stim/yes_12_hor_w1_w.png","f","pattern_response","true","f","pattern_42","741.1000000238419","true","3","","","","","","","","","","","","","","","","","","",""
"","","","","","html-keyboard-response","27","272289","0.0-2.0-5.0-0.3","589ce4d65e63bf00013b3175","C3","batch3","","null","<p class=block-text>Trial 4 out of 78</p>","null","pattern_show_trial_num","","","","","","","","","","","","","","","","","","","","","","","","",""
"","","","","","image-keyboard-response","28","273895","0.0-2.0-5.0-1.3","589ce4d65e63bf00013b3175","C3","batch3","","1604.3000000715256","stim/yes_26_dia_w2_w.png","f","pattern_response","true","f","pattern_50","1604.3000000715256","true","4","","","","","","","","","","","","","","","","","","",""
"","","","","","html-keyboard-response","29","275206","0.0-2.0-5.0-0.4","589ce4d65e63bf00013b3175","C3","batch3","","null","<p class=block-text>Trial 5 out of 78</p>","null","pattern_show_trial_num","","","","","","","","","","","","","","","","","","","","","","","","",""
"","","","","","image-keyboard-response","30","280241","0.0-2.0-5.0-1.4","589ce4d65e63bf00013b3175","C3","batch3","","5031.899999976158","stim/no_58_1_w.png","j","pattern_response","true","j","pattern_35","5031.899999976158","true","5","","","","","","","","","","","","","","","","","","",""
"","","","","","html-keyboard-response","31","281564","0.0-2.0-5.0-0.5","589ce4d65e63bf00013b3175","C3","batch3","","null","<p class=block-text>Trial 6 out of 78</p>","null","pattern_show_trial_num","","","","","","","","","","","","","","","","","","","","","","","","",""
"","","","","","image-keyboard-response","32","285893","0.0-2.0-5.0-1.5","589ce4d65e63bf00013b3175","C3","batch3","","4325.700000047684","stim/no_67_1.png","j","pattern_response","true","j","pattern_39","4325.700000047684","true","6","","","","","","","","","","","","","","","","","","",""
"","","","","","html-keyboard-response","33","287218","0.0-2.0-5.0-0.6","589ce4d65e63bf00013b3175","C3","batch3","","null","<p class=block-text>Trial 7 out of 78</p>","null","pattern_show_trial_num","","","","","","","","","","","","","","","","","","","","","","","","",""
"","","","","","image-keyboard-response","34","288113","0.0-2.0-5.0-1.6","589ce4d65e63bf00013b3175","C3","batch3","","891.2000000476837","stim/yes_15_dia_b1u_b.png","f","pattern_response","true","f","pattern_44","891.2000000476837","true","7","","","","","","","","","","","","","","","","","","",""
"","","","","","html-keyboard-response","35","289432","0.0-2.0-5.0-0.7","589ce4d65e63bf00013b3175","C3","batch3","","null","<p class=block-text>Trial 8 out of 78</p>","null","pattern_show_trial_num","","","","","","","","","","","","","","","","","","","","","","","","",""
"","","","","","image-keyboard-response","36","290544","0.0-2.0-5.0-1.7","589ce4d65e63bf00013b3175","C3","batch3","","1110","stim/yes_44_ver_w1_w.png","f","pattern_response","true","f","pattern_66","1110","true","8","","","","","","","","","","","","","","","","","","",""
"","","","","","html-keyboard-response","37","291860","0.0-2.0-5.0-0.8","589ce4d65e63bf00013b3175","C3","batch3","","null","<p class=block-text>Trial 9 out of 78</p>","null","pattern_show_trial_num","","","","","","","","","","","","","","","","","","","","","","","","",""
"","","","","","image-keyboard-response","38","292613","0.0-2.0-5.0-1.8","589ce4d65e63bf00013b3175","C3","batch3","","751","stim/yes_29_hor_b1_b.png","f","pattern_response","true","f","pattern_52","751","true","9","","","","","","","","","","","","","","","","","","",""
"","","","","","html-keyboard-response","39","293932","0.0-2.0-5.0-0.9","589ce4d65e63bf00013b3175","C3","batch3","","null","<p class=block-text>Trial 10 out of 78</p>","null","pattern_show_trial_num","","","","","","","","","","","","","","","","","","","","","","","","",""
"","","","","","image-keyboard-response","40","295092","0.0-2.0-5.0-1.9","589ce4d65e63bf00013b3175","C3","batch3","","1157.1000000238419","stim/no_15_1_w.png","j","pattern_response","true","j","pattern_03","1157.1000000238419","true","10","","","","","","","","","","","","","","","","","","",""
"","","","","","html-keyboard-response","41","296403","0.0-2.0-5.0-0.10","589ce4d65e63bf00013b3175","C3","batch3","","null","<p class=block-text>Trial 11 out of 78</p>","null","pattern_show_trial_num","","","","","","","","","","","","","","","","","","","","","","","","",""
"","","","","","image-keyboard-response","42","299533","0.0-2.0-5.0-1.10","589ce4d65e63bf00013b3175","C3","batch3","","3124.399999976158","stim/no_43_2_b.png","j","pattern_response","true","j","pattern_23","3124.399999976158","true","11","","","","","","","","","","","","","","","","","","",""
"","","","","","html-keyboard-response","43","300855","0.0-2.0-5.0-0.11","589ce4d65e63bf00013b3175","C3","batch3","","null","<p class=block-text>Trial 12 out of 78</p>","null","pattern_show_trial_num","","","","","","","","","","","","","","","","","","","","","","","","",""
"","","","","","image-keyboard-response","44","305443","0.0-2.0-5.0-1.11","589ce4d65e63bf00013b3175","C3","batch3","","4584.100000023842","stim/yes_63_dia_b1.png","f","pattern_response","true","f","pattern_78","4584.100000023842","true","12","","","","","","","","","","","","","","","","","","",""
"","","","","","html-keyboard-response","45","306755","0.0-2.0-5.0-0.12","589ce4d65e63bf00013b3175","C3","batch3","","null","<p class=block-text>Trial 13 out of 78</p>","null","pattern_show_trial_num","","","","","","","","","","","","","","","","","","","","","","","","",""
"","","","","","image-keyboard-response","46","310074","0.0-2.0-5.0-1.12","589ce4d65e63bf00013b3175","C3","batch3","","3316.5","stim/no_51_1.png","j","pattern_response","true","j","pattern_31","3316.5","true","13","","","","","","","","","","","","","","","","","","",""
"","","","","","html-keyboard-response","47","311384","0.0-2.0-5.0-0.13","589ce4d65e63bf00013b3175","C3","batch3","","null","<p class=block-text>Trial 14 out of 78</p>","null","pattern_show_trial_num","","","","","","","","","","","","","","","","","","","","","","","","",""
"","","","","","image-keyboard-response","48","312541","0.0-2.0-5.0-1.13","589ce4d65e63bf00013b3175","C3","batch3","","1154.3999999761581","stim/no_12_1.png","j","pattern_response","true","j","pattern_01","1154.3999999761581","true","14","","","","","","","","","","","","","","","","","","",""
"","","","","","html-keyboard-response","49","313866","0.0-2.0-5.0-0.14","589ce4d65e63bf00013b3175","C3","batch3","","null","<p class=block-text>Trial 15 out of 78</p>","null","pattern_show_trial_num","","","","","","","","","","","","","","","","","","","","","","","","",""
"","","","","","image-keyboard-response","50","318783","0.0-2.0-5.0-1.14","589ce4d65e63bf00013b3175","C3","batch3","","4915.400000095367","stim/no_39_1_w.png","j","pattern_response","true","j","pattern_21","4915.400000095367","true","15","","","","","","","","","","","","","","","","","","",""
"","","","","","html-keyboard-response","51","320102","0.0-2.0-5.0-0.15","589ce4d65e63bf00013b3175","C3","batch3","","null","<p class=block-text>Trial 16 out of 78</p>","null","pattern_show_trial_num","","","","","","","","","","","","","","","","","","","","","","","","",""
"","","","","","image-keyboard-response","52","324793","0.0-2.0-5.0-1.15","589ce4d65e63bf00013b3175","C3","batch3","","4689.700000047684","stim/no_53_1_b.png","j","pattern_response","true","j","pattern_33","4689.700000047684","true","16","","","","","","","","","","","","","","","","","","",""
"","","","","","html-keyboard-response","53","326108","0.0-2.0-5.0-0.16","589ce4d65e63bf00013b3175","C3","batch3","","null","<p class=block-text>Trial 17 out of 78</p>","null","pattern_show_trial_num","","","","","","","","","","","","","","","","","","","","","","","","",""
"","","","","","image-keyboard-response","54","330272","0.0-2.0-5.0-1.16","589ce4d65e63bf00013b3175","C3","batch3","","4161.200000047684","stim/no_30_1_b.png","j","pattern_response","true","j","pattern_13","4161.200000047684","true","17","","","","","","","","","","","","","","","","","","",""
"","","","","","html-keyboard-response","55","331598","0.0-2.0-5.0-0.17","589ce4d65e63bf00013b3175","C3","batch3","","null","<p class=block-text>Trial 18 out of 78</p>","null","pattern_show_trial_num","","","","","","","","","","","","","","","","","","","","","","","","",""
"","","","","","image-keyboard-response","56","332984","0.0-2.0-5.0-1.17","589ce4d65e63bf00013b3175","C3","batch3","","1382.1999999284744","stim/yes_53_ver_b1_b.png","f","pattern_response","true","f","pattern_74","1382.1999999284744","true","18","","","","","","","","","","","","","","","","","","",""
"","","","","","html-keyboard-response","57","334311","0.0-2.0-5.0-0.18","589ce4d65e63bf00013b3175","C3","batch3","","null","<p class=block-text>Trial 19 out of 78</p>","null","pattern_show_trial_num","","","","","","","","","","","","","","","","","","","","","","","","",""
"","","","","","image-keyboard-response","58","336787","0.0-2.0-5.0-1.18","589ce4d65e63bf00013b3175","C3","batch3","","2474.600000023842","stim/yes_33_dia_w1_w.png","j","pattern_response","false","f","pattern_56","2474.600000023842","false","18","","","","","","","","","","","","","","","","","","",""
"","","","","","html-keyboard-response","59","338113","0.0-2.0-5.0-0.19","589ce4d65e63bf00013b3175","C3","batch3","","null","<p class=block-text>Trial 20 out of 78</p>","null","pattern_show_trial_num","","","","","","","","","","","","","","","","","","","","","","","","",""
"","","","","","image-keyboard-response","60","340934","0.0-2.0-5.0-1.19","589ce4d65e63bf00013b3175","C3","batch3","","2819.5","stim/no_36_1_b.png","j","pattern_response","true","j","pattern_17","2819.5","true","19","","","","","","","","","","","","","","","","","","",""
"","","","","","html-keyboard-response","61","342244","0.0-2.0-5.0-0.20","589ce4d65e63bf00013b3175","C3","batch3","","null","<p class=block-text>Trial 21 out of 78</p>","null","pattern_show_trial_num","","","","","","","","","","","","","","","","","","","","","","","","",""
"","","","","","image-keyboard-response","62","343178","0.0-2.0-5.0-1.20","589ce4d65e63bf00013b3175","C3","batch3","","932.3999999761581","stim/yes_39_hor_w1_w.png","f","pattern_response","true","f","pattern_62","932.3999999761581","true","20","","","","","","","","","","","","","","","","","","",""
"","","","","","html-keyboard-response","63","344495","0.0-2.0-5.0-0.21","589ce4d65e63bf00013b3175","C3","batch3","","null","<p class=block-text>Trial 22 out of 78</p>","null","pattern_show_trial_num","","","","","","","","","","","","","","","","","","","","","","","","",""
"","","","","","image-keyboard-response","64","346948","0.0-2.0-5.0-1.21","589ce4d65e63bf00013b3175","C3","batch3","","2451.899999976158","stim/yes_51_dia_b1.png","f","pattern_response","true","f","pattern_72","2451.899999976158","true","21","","","","","","","","","","","","","","","","","","",""
"","","","","","html-keyboard-response","65","348258","0.0-2.0-5.0-0.22","589ce4d65e63bf00013b3175","C3","batch3","","null","<p class=block-text>Trial 23 out of 78</p>","null","pattern_show_trial_num","","","","","","","","","","","","","","","","","","","","","","","","",""
"","","","","","image-keyboard-response","66","349268","0.0-2.0-5.0-1.22","589ce4d65e63bf00013b3175","C3","batch3","","1006.6000000238419","stim/yes_70_ver_b1.png","f","pattern_response","true","f","pattern_80","1006.6000000238419","true","22","","","","","","","","","","","","","","","","","","",""
"","","","","","html-keyboard-response","67","350581","0.0-2.0-5.0-0.23","589ce4d65e63bf00013b3175","C3","batch3","","null","<p class=block-text>Trial 24 out of 78</p>","null","pattern_show_trial_num","","","","","","","","","","","","","","","","","","","","","","","","",""
"","","","","","image-keyboard-response","68","351465","0.0-2.0-5.0-1.23","589ce4d65e63bf00013b3175","C3","batch3","","882","stim/yes_49_hor_w1_b.png","f","pattern_response","true","f","pattern_70","882","true","23","","","","","","","","","","","","","","","","","","",""
"","","","","","html-keyboard-response","69","352777","0.0-2.0-5.0-0.24","589ce4d65e63bf00013b3175","C3","batch3","","null","<p class=block-text>Trial 25 out of 78</p>","null","pattern_show_trial_num","","","","","","","","","","","","","","","","","","","","","","","","",""
"","","","","","image-keyboard-response","70","353631","0.0-2.0-5.0-1.24","589ce4d65e63bf00013b3175","C3","batch3","","852.6000000238419","stim/yes_36_ver_w1_w.png","f","pattern_response","true","f","pattern_58","852.6000000238419","true","24","","","","","","","","","","","","","","","","","","",""
"","","","","","html-keyboard-response","71","354939","0.0-2.0-5.0-0.25","589ce4d65e63bf00013b3175","C3","batch3","","null","<p class=block-text>Trial 26 out of 78</p>","null","pattern_show_trial_num","","","","","","","","","","","","","","","","","","","","","","","","",""
"","","","","","image-keyboard-response","72","358495","0.0-2.0-5.0-1.25","589ce4d65e63bf00013b3175","C3","batch3","","3556","stim/no_45_1_w.png","j","pattern_response","true","j","pattern_25","3556","true","25","","","","","","","","","","","","","","","","","","",""
"","","","","","html-keyboard-response","73","359809","0.0-2.0-5.0-0.26","589ce4d65e63bf00013b3175","C3","batch3","","null","<p class=block-text>Trial 27 out of 78</p>","null","pattern_show_trial_num","","","","","","","","","","","","","","","","","","","","","","","","",""
"","","","","","image-keyboard-response","74","361613","0.0-2.0-5.0-1.26","589ce4d65e63bf00013b3175","C3","batch3","","1800.8000000715256","stim/no_18_1_b.png","j","pattern_response","true","j","pattern_05","1800.8000000715256","true","26","","","","","","","","","","","","","","","","","","",""
"","","","","","html-keyboard-response","75","362925","0.0-2.0-5.0-0.27","589ce4d65e63bf00013b3175","C3","batch3","","null","<p class=block-text>Trial 28 out of 78</p>","null","pattern_show_trial_num","","","","","","","","","","","","","","","","","","","","","","","","",""
"","","","","","image-keyboard-response","76","363833","0.0-2.0-5.0-1.27","589ce4d65e63bf00013b3175","C3","batch3","","905.7000000476837","stim/yes_37_hor_w1_w.png","f","pattern_response","true","f","pattern_60","905.7000000476837","true","27","","","","","","","","","","","","","","","","","","",""
"","","","","","html-keyboard-response","77","365159","0.0-2.0-5.0-0.28","589ce4d65e63bf00013b3175","C3","batch3","","null","<p class=block-text>Trial 29 out of 78</p>","null","pattern_show_trial_num","","","","","","","","","","","","","","","","","","","","","","","","",""
"","","","","","image-keyboard-response","78","368515","0.0-2.0-5.0-1.28","589ce4d65e63bf00013b3175","C3","batch3","","3353.8000000715256","stim/yes_42_dia_w1_w.png","f","pattern_response","true","f","pattern_64","3353.8000000715256","true","28","","","","","","","","","","","","","","","","","","",""
"","","","","","html-keyboard-response","79","369835","0.0-2.0-5.0-0.29","589ce4d65e63bf00013b3175","C3","batch3","","null","<p class=block-text>Trial 30 out of 78</p>","null","pattern_show_trial_num","","","","","","","","","","","","","","","","","","","","","","","","",""
"","","","","","image-keyboard-response","80","372563","0.0-2.0-5.0-1.29","589ce4d65e63bf00013b3175","C3","batch3","","2724.7000000476837","stim/no_25_1_b.png","j","pattern_response","true","j","pattern_09","2724.7000000476837","true","29","","","","","","","","","","","","","","","","","","",""
"","","","","","html-keyboard-response","81","373886","0.0-2.0-5.0-0.30","589ce4d65e63bf00013b3175","C3","batch3","","null","<p class=block-text>Trial 31 out of 78</p>","null","pattern_show_trial_num","","","","","","","","","","","","","","","","","","","","","","","","",""
"","","","","","image-keyboard-response","82","377947","0.0-2.0-5.0-1.30","589ce4d65e63bf00013b3175","C3","batch3","","4060.100000023842","stim/no_49_2_b.png","j","pattern_response","true","j","pattern_29","4060.100000023842","true","30","","","","","","","","","","","","","","","","","","",""
"","","","","","html-keyboard-response","83","379257","0.0-2.0-5.0-0.31","589ce4d65e63bf00013b3175","C3","batch3","","null","<p class=block-text>Trial 32 out of 78</p>","null","pattern_show_trial_num","","","","","","","","","","","","","","","","","","","","","","","","",""
"","","","","","image-keyboard-response","84","382049","0.0-2.0-5.0-1.31","589ce4d65e63bf00013b3175","C3","batch3","","2788.899999976158","stim/no_28_2.png","j","pattern_response","true","j","pattern_11","2788.899999976158","true","31","","","","","","","","","","","","","","","","","","",""
"","","","","","html-keyboard-response","85","383374","0.0-2.0-5.0-0.32","589ce4d65e63bf00013b3175","C3","batch3","","null","<p class=block-text>Trial 33 out of 78</p>","null","pattern_show_trial_num","","","","","","","","","","","","","","","","","","","","","","","","",""
"","","","","","image-keyboard-response","86","384989","0.0-2.0-5.0-1.32","589ce4d65e63bf00013b3175","C3","batch3","","1611.4000000953674","stim/no_22_1_b.png","j","pattern_response","true","j","pattern_07","1611.4000000953674","true","32","","","","","","","","","","","","","","","","","","",""
"","","","","","html-keyboard-response","87","386300","0.0-2.0-5.0-0.33","589ce4d65e63bf00013b3175","C3","batch3","","null","<p class=block-text>Trial 34 out of 78</p>","null","pattern_show_trial_num","","","","","","","","","","","","","","","","","","","","","","","","",""
"","","","","","image-keyboard-response","88","387586","0.0-2.0-5.0-1.33","589ce4d65e63bf00013b3175","C3","batch3","","1282.2000000476837","stim/yes_46_ver_b1_b.png","f","pattern_response","true","f","pattern_68","1282.2000000476837","true","33","","","","","","","","","","","","","","","","","","",""
"","","","","","html-keyboard-response","89","388910","0.0-2.0-5.0-0.34","589ce4d65e63bf00013b3175","C3","batch3","","null","<p class=block-text>Trial 35 out of 78</p>","null","pattern_show_trial_num","","","","","","","","","","","","","","","","","","","","","","","","",""
"","","","","","image-keyboard-response","90","393439","0.0-2.0-5.0-1.34","589ce4d65e63bf00013b3175","C3","batch3","","4527.299999952316","stim/yes_58_dia_w1_w.png","j","pattern_response","false","f","pattern_76","4527.299999952316","false","33","","","","","","","","","","","","","","","","","","",""
"","","","","","html-keyboard-response","91","394754","0.0-2.0-5.0-0.35","589ce4d65e63bf00013b3175","C3","batch3","","null","<p class=block-text>Trial 36 out of 78</p>","null","pattern_show_trial_num","","","","","","","","","","","","","","","","","","","","","","","","",""
"","","","","","image-keyboard-response","92","395874","0.0-2.0-5.0-1.35","589ce4d65e63bf00013b3175","C3","batch3","","1116.8000000715256","stim/yes_23_ver_b1.png","f","pattern_response","true","f","pattern_48","1116.8000000715256","true","34","","","","","","","","","","","","","","","","","","",""
"","","","","","html-keyboard-response","93","397194","0.0-2.0-5.0-0.36","589ce4d65e63bf00013b3175","C3","batch3","","null","<p class=block-text>Trial 37 out of 78</p>","null","pattern_show_trial_num","","","","","","","","","","","","","","","","","","","","","","","","",""
"","","","","","image-keyboard-response","94","401157","0.0-2.0-5.0-1.36","589ce4d65e63bf00013b3175","C3","batch3","","3962.399999976158","stim/no_47_1_b.png","j","pattern_response","true","j","pattern_27","3962.399999976158","true","35","","","","","","","","","","","","","","","","","","",""
"","","","","","html-keyboard-response","95","402485","0.0-2.0-5.0-0.37","589ce4d65e63bf00013b3175","C3","batch3","","null","<p class=block-text>Trial 38 out of 78</p>","null","pattern_show_trial_num","","","","","","","","","","","","","","","","","","","","","","","","",""
"","","","","","image-keyboard-response","96","403479","0.0-2.0-5.0-1.37","589ce4d65e63bf00013b3175","C3","batch3","","990.6000000238419","stim/yes_17_ver_b1_b.png","f","pattern_response","true","f","pattern_46","990.6000000238419","true","36","","","","","","","","","","","","","","","","","","",""
"","","","","","html-keyboard-response","97","404806","0.0-2.0-5.0-0.38","589ce4d65e63bf00013b3175","C3","batch3","","null","<p class=block-text>Trial 39 out of 78</p>","null","pattern_show_trial_num","","","","","","","","","","","","","","","","","","","","","","","","",""
"","","","","","image-keyboard-response","98","406169","0.0-2.0-5.0-1.38","589ce4d65e63bf00013b3175","C3","batch3","","1360.8999999761581","stim/yes_30_ver_b1_b.png","f","pattern_response","true","f","pattern_54","1360.8999999761581","true","37","","","","","","","","","","","","","","","","","","",""
"","","","","","image-keyboard-response","99","408826","0.0-2.0-6.0","589ce4d65e63bf00013b3175","C3","batch3","","2151.399999976158","stim/empty_board.png","j","attention_check","true","j","","","","","500","[""f"",""j""]","","","","","","","","","","","","","","","","",""
"","","","","","html-keyboard-response","100","409632","0.0-2.0-7.0-0.0","589ce4d65e63bf00013b3175","C3","batch3","","null","<p class=block-text>Trial 40 out of 78</p>","null","pattern_show_trial_num","","","","","","","","","","","","","","","","","","","","","","","","",""
"","","","","","image-keyboard-response","101","411014","0.0-2.0-7.0-1.0","589ce4d65e63bf00013b3175","C3","batch3","","1379.6000000238419","stim/yes_67_hor_b1.png","f","pattern_response","true","f","pattern_79","1379.6000000238419","true","38","","","","","","","","","","","","","","","","","","",""
"","","","","","html-keyboard-response","102","412327","0.0-2.0-7.0-0.1","589ce4d65e63bf00013b3175","C3","batch3","","null","<p class=block-text>Trial 41 out of 78</p>","null","pattern_show_trial_num","","","","","","","","","","","","","","","","","","","","","","","","",""
"","","","","","image-keyboard-response","103","414210","0.0-2.0-7.0-1.1","589ce4d65e63bf00013b3175","C3","batch3","","1878.8999999761581","stim/no_32_1_w.png","j","pattern_response","true","j","pattern_14","1878.8999999761581","true","39","","","","","","","","","","","","","","","","","","",""
"","","","","","html-keyboard-response","104","415535","0.0-2.0-7.0-0.2","589ce4d65e63bf00013b3175","C3","batch3","","null","<p class=block-text>Trial 42 out of 78</p>","null","pattern_show_trial_num","","","","","","","","","","","","","","","","","","","","","","","","",""
"","","","","","image-keyboard-response","105","416809","0.0-2.0-7.0-1.2","589ce4d65e63bf00013b3175","C3","batch3","","1271.7000000476837","stim/no_23_1.png","j","pattern_response","true","j","pattern_08","1271.7000000476837","true","40","","","","","","","","","","","","","","","","","","",""
"","","","","","html-keyboard-response","106","418130","0.0-2.0-7.0-0.3","589ce4d65e63bf00013b3175","C3","batch3","","null","<p class=block-text>Trial 43 out of 78</p>","null","pattern_show_trial_num","","","","","","","","","","","","","","","","","","","","","","","","",""
"","","","","","image-keyboard-response","107","420861","0.0-2.0-7.0-1.3","589ce4d65e63bf00013b3175","C3","batch3","","2728","stim/no_42_1_w.png","j","pattern_response","true","j","pattern_22","2728","true","41","","","","","","","","","","","","","","","","","","",""
"","","","","","html-keyboard-response","108","422178","0.0-2.0-7.0-0.4","589ce4d65e63bf00013b3175","C3","batch3","","null","<p class=block-text>Trial 44 out of 78</p>","null","pattern_show_trial_num","","","","","","","","","","","","","","","","","","","","","","","","",""
"","","","","","image-keyboard-response","109","423053","0.0-2.0-7.0-1.4","589ce4d65e63bf00013b3175","C3","batch3","","871.8999999761581","stim/yes_25_hor_b1_b.png","f","pattern_response","true","f","pattern_49","871.8999999761581","true","42","","","","","","","","","","","","","","","","","","",""
"","","","","","html-keyboard-response","110","424376","0.0-2.0-7.0-0.5","589ce4d65e63bf00013b3175","C3","batch3","","null","<p class=block-text>Trial 45 out of 78</p>","null","pattern_show_trial_num","","","","","","","","","","","","","","","","","","","","","","","","",""
"","","","","","image-keyboard-response","111","428432","0.0-2.0-7.0-1.5","589ce4d65e63bf00013b3175","C3","batch3","","4052.5","stim/no_46_1_b.png","j","pattern_response","true","j","pattern_26","4052.5","true","43","","","","","","","","","","","","","","","","","","",""
"","","","","","html-keyboard-response","112","429743","0.0-2.0-7.0-0.6","589ce4d65e63bf00013b3175","C3","batch3","","null","<p class=block-text>Trial 46 out of 78</p>","null","pattern_show_trial_num","","","","","","","","","","","","","","","","","","","","","","","","",""
"","","","","","image-keyboard-response","113","430661","0.0-2.0-7.0-1.6","589ce4d65e63bf00013b3175","C3","batch3","","915","stim/yes_38_hor_b1_b.png","f","pattern_response","true","f","pattern_61","915","true","44","","","","","","","","","","","","","","","","","","",""
"","","","","","html-keyboard-response","114","431974","0.0-2.0-7.0-0.7","589ce4d65e63bf00013b3175","C3","batch3","","null","<p class=block-text>Trial 47 out of 78</p>","null","pattern_show_trial_num","","","","","","","","","","","","","","","","","","","","","","","","",""
"","","","","","image-keyboard-response","115","433049","0.0-2.0-7.0-1.7","589ce4d65e63bf00013b3175","C3","batch3","","1072.9000000953674","stim/no_13_2_b.png","j","pattern_response","true","j","pattern_02","1072.9000000953674","true","45","","","","","","","","","","","","","","","","","","",""
"","","","","","html-keyboard-response","116","434375","0.0-2.0-7.0-0.8","589ce4d65e63bf00013b3175","C3","batch3","","null","<p class=block-text>Trial 48 out of 78</p>","null","pattern_show_trial_num","","","","","","","","","","","","","","","","","","","","","","","","",""
"","","","","","image-keyboard-response","117","441209","0.0-2.0-7.0-1.8","589ce4d65e63bf00013b3175","C3","batch3","","6831.100000023842","stim/no_65_1_b.png","j","pattern_response","true","j","pattern_38","6831.100000023842","true","46","","","","","","","","","","","","","","","","","","",""
"","","","","","html-keyboard-response","118","442530","0.0-2.0-7.0-0.9","589ce4d65e63bf00013b3175","C3","batch3","","null","<p class=block-text>Trial 49 out of 78</p>","null","pattern_show_trial_num","","","","","","","","","","","","","","","","","","","","","","","","",""
"","","","","","image-keyboard-response","119","443629","0.0-2.0-7.0-1.9","589ce4d65e63bf00013b3175","C3","batch3","","1096.3999999761581","stim/yes_52_ver_w1.png","f","pattern_response","true","f","pattern_73","1096.3999999761581","true","47","","","","","","","","","","","","","","","","","","",""
"","","","","","html-keyboard-response","120","444947","0.0-2.0-7.0-0.10","589ce4d65e63bf00013b3175","C3","batch3","","null","<p class=block-text>Trial 50 out of 78</p>","null","pattern_show_trial_num","","","","","","","","","","","","","","","","","","","","","","","","",""
"","","","","","image-keyboard-response","121","447354","0.0-2.0-7.0-1.10","589ce4d65e63bf00013b3175","C3","batch3","","2404.600000023842","stim/no_38_1_b.png","j","pattern_response","true","j","pattern_20","2404.600000023842","true","48","","","","","","","","","","","","","","","","","","",""
"","","","","","html-keyboard-response","122","448666","0.0-2.0-7.0-0.11","589ce4d65e63bf00013b3175","C3","batch3","","null","<p class=block-text>Trial 51 out of 78</p>","null","pattern_show_trial_num","","","","","","","","","","","","","","","","","","","","","","","","",""
"","","","","","image-keyboard-response","123","449392","0.0-2.0-7.0-1.11","589ce4d65e63bf00013b3175","C3","batch3","","722.8999999761581","stim/yes_14_hor_b1_w.png","f","pattern_response","true","f","pattern_43","722.8999999761581","true","49","","","","","","","","","","","","","","","","","","",""
"","","","","","html-keyboard-response","124","450705","0.0-2.0-7.0-0.12","589ce4d65e63bf00013b3175","C3","batch3","","null","<p class=block-text>Trial 52 out of 78</p>","null","pattern_show_trial_num","","","","","","","","","","","","","","","","","","","","","","","","",""
"","","","","","image-keyboard-response","125","452173","0.0-2.0-7.0-1.12","589ce4d65e63bf00013b3175","C3","batch3","","1465.8999999761581","stim/yes_31_hor_b1.png","f","pattern_response","true","f","pattern_55","1465.8999999761581","true","50","","","","","","","","","","","","","","","","","","",""
"","","","","","html-keyboard-response","126","453486","0.0-2.0-7.0-0.13","589ce4d65e63bf00013b3175","C3","batch3","","null","<p class=block-text>Trial 53 out of 78</p>","null","pattern_show_trial_num","","","","","","","","","","","","","","","","","","","","","","","","",""
"","","","","","image-keyboard-response","127","455287","0.0-2.0-7.0-1.13","589ce4d65e63bf00013b3175","C3","batch3","","1799.0999999046326","stim/yes_37_dia_w1.png","f","pattern_response","true","f","pattern_59","1799.0999999046326","true","51","","","","","","","","","","","","","","","","","","",""
"","","","","","html-keyboard-response","128","456610","0.0-2.0-7.0-0.14","589ce4d65e63bf00013b3175","C3","batch3","","null","<p class=block-text>Trial 54 out of 78</p>","null","pattern_show_trial_num","","","","","","","","","","","","","","","","","","","","","","","","",""
"","","","","","image-keyboard-response","129","460321","0.0-2.0-7.0-1.14","589ce4d65e63bf00013b3175","C3","batch3","","3708.0999999046326","stim/no_44_1.png","f","pattern_response","false","j","pattern_24","3708.0999999046326","false","51","","","","","","","","","","","","","","","","","","",""
"","","","","","html-keyboard-response","130","461635","0.0-2.0-7.0-0.15","589ce4d65e63bf00013b3175","C3","batch3","","null","<p class=block-text>Trial 55 out of 78</p>","null","pattern_show_trial_num","","","","","","","","","","","","","","","","","","","","","","","","",""
"","","","","","image-keyboard-response","131","464909","0.0-2.0-7.0-1.15","589ce4d65e63bf00013b3175","C3","batch3","","3270.7000000476837","stim/no_29_1_b.png","j","pattern_response","true","j","pattern_12","3270.7000000476837","true","52","","","","","","","","","","","","","","","","","","",""
"","","","","","html-keyboard-response","132","466230","0.0-2.0-7.0-0.16","589ce4d65e63bf00013b3175","C3","batch3","","null","<p class=block-text>Trial 56 out of 78</p>","null","pattern_show_trial_num","","","","","","","","","","","","","","","","","","","","","","","","",""
"","","","","","image-keyboard-response","133","468277","0.0-2.0-7.0-1.16","589ce4d65e63bf00013b3175","C3","batch3","","2043.1999999284744","stim/no_26_1_w.png","j","pattern_response","true","j","pattern_10","2043.1999999284744","true","53","","","","","","","","","","","","","","","","","","",""
"","","","","","html-keyboard-response","134","469594","0.0-2.0-7.0-0.17","589ce4d65e63bf00013b3175","C3","batch3","","null","<p class=block-text>Trial 57 out of 78</p>","null","pattern_show_trial_num","","","","","","","","","","","","","","","","","","","","","","","","",""
"","","","","","image-keyboard-response","135","470981","0.0-2.0-7.0-1.17","589ce4d65e63bf00013b3175","C3","batch3","","1384.6000000238419","stim/yes_55_hor_w1_w.png","f","pattern_response","true","f","pattern_75","1384.6000000238419","true","54","","","","","","","","","","","","","","","","","","",""
"","","","","","html-keyboard-response","136","472299","0.0-2.0-7.0-0.18","589ce4d65e63bf00013b3175","C3","batch3","","null","<p class=block-text>Trial 58 out of 78</p>","null","pattern_show_trial_num","","","","","","","","","","","","","","","","","","","","","","","","",""
"","","","","","image-keyboard-response","137","475514","0.0-2.0-7.0-1.18","589ce4d65e63bf00013b3175","C3","batch3","","3212.100000023842","stim/no_52_1.png","j","pattern_response","true","j","pattern_32","3212.100000023842","true","55","","","","","","","","","","","","","","","","","","",""
"","","","","","html-keyboard-response","138","476839","0.0-2.0-7.0-0.19","589ce4d65e63bf00013b3175","C3","batch3","","null","<p class=block-text>Trial 59 out of 78</p>","null","pattern_show_trial_num","","","","","","","","","","","","","","","","","","","","","","","","",""
"","","","","","image-keyboard-response","139","478841","0.0-2.0-7.0-1.19","589ce4d65e63bf00013b3175","C3","batch3","","1999.7000000476837","stim/yes_48_dia_w1_w.png","f","pattern_response","true","f","pattern_69","1999.7000000476837","true","56","","","","","","","","","","","","","","","","","","",""
"","","","","","html-keyboard-response","140","480157","0.0-2.0-7.0-0.20","589ce4d65e63bf00013b3175","C3","batch3","","null","<p class=block-text>Trial 60 out of 78</p>","null","pattern_show_trial_num","","","","","","","","","","","","","","","","","","","","","","","","",""
"","","","","","image-keyboard-response","141","481663","0.0-2.0-7.0-1.20","589ce4d65e63bf00013b3175","C3","batch3","","1504.2000000476837","stim/yes_60_ver_b1_b.png","f","pattern_response","true","f","pattern_77","1504.2000000476837","true","57","","","","","","","","","","","","","","","","","","",""
"","","","","","html-keyboard-response","142","482989","0.0-2.0-7.0-0.21","589ce4d65e63bf00013b3175","C3","batch3","","null","<p class=block-text>Trial 61 out of 78</p>","null","pattern_show_trial_num","","","","","","","","","","","","","","","","","","","","","","","","",""
"","","","","","image-keyboard-response","143","487790","0.0-2.0-7.0-1.21","589ce4d65e63bf00013b3175","C3","batch3","","4794.899999976158","stim/yes_50_dia_w1.png","j","pattern_response","false","f","pattern_71","4794.899999976158","false","57","","","","","","","","","","","","","","","","","","",""
"","","","","","html-keyboard-response","144","489109","0.0-2.0-7.0-0.22","589ce4d65e63bf00013b3175","C3","batch3","","null","<p class=block-text>Trial 62 out of 78</p>","null","pattern_show_trial_num","","","","","","","","","","","","","","","","","","","","","","","","",""
"","","","","","image-keyboard-response","145","493413","0.0-2.0-7.0-1.22","589ce4d65e63bf00013b3175","C3","batch3","","4300","stim/no_36_2_w.png","j","pattern_response","true","j","pattern_18","4300","true","58","","","","","","","","","","","","","","","","","","",""
"","","","","","html-keyboard-response","146","494741","0.0-2.0-7.0-0.23","589ce4d65e63bf00013b3175","C3","batch3","","null","<p class=block-text>Trial 63 out of 78</p>","null","pattern_show_trial_num","","","","","","","","","","","","","","","","","","","","","","","","",""
"","","","","","image-keyboard-response","147","495983","0.0-2.0-7.0-1.23","589ce4d65e63bf00013b3175","C3","batch3","","1238.5","stim/no_20_1_w.png","j","pattern_response","true","j","pattern_06","1238.5","true","59","","","","","","","","","","","","","","","","","","",""
"","","","","","html-keyboard-response","148","497298","0.0-2.0-7.0-0.24","589ce4d65e63bf00013b3175","C3","batch3","","null","<p class=block-text>Trial 64 out of 78</p>","null","pattern_show_trial_num","","","","","","","","","","","","","","","","","","","","","","","","",""
"","","","","","image-keyboard-response","149","499020","0.0-2.0-7.0-1.24","589ce4d65e63bf00013b3175","C3","batch3","","1721","stim/yes_29_ver_w1.png","f","pattern_response","true","f","pattern_53","1721","true","60","","","","","","","","","","","","","","","","","","",""
"","","","","","html-keyboard-response","150","500334","0.0-2.0-7.0-0.25","589ce4d65e63bf00013b3175","C3","batch3","","null","<p class=block-text>Trial 65 out of 78</p>","null","pattern_show_trial_num","","","","","","","","","","","","","","","","","","","","","","","","",""
"","","","","","image-keyboard-response","151","503796","0.0-2.0-7.0-1.25","589ce4d65e63bf00013b3175","C3","batch3","","3459.1999999284744","stim/no_50_1.png","j","pattern_response","true","j","pattern_30","3459.1999999284744","true","61","","","","","","","","","","","","","","","","","","",""
"","","","","","html-keyboard-response","152","505122","0.0-2.0-7.0-0.26","589ce4d65e63bf00013b3175","C3","batch3","","null","<p class=block-text>Trial 66 out of 78</p>","null","pattern_show_trial_num","","","","","","","","","","","","","","","","","","","","","","","","",""
"","","","","","image-keyboard-response","153","505945","0.0-2.0-7.0-1.26","589ce4d65e63bf00013b3175","C3","batch3","","820.1999999284744","stim/yes_17_dia_w1.png","f","pattern_response","true","f","pattern_45","820.1999999284744","true","62","","","","","","","","","","","","","","","","","","",""
"","","","","","html-keyboard-response","154","507247","0.0-2.0-7.0-0.27","589ce4d65e63bf00013b3175","C3","batch3","","null","<p class=block-text>Trial 67 out of 78</p>","null","pattern_show_trial_num","","","","","","","","","","","","","","","","","","","","","","","","",""
"","","","","","image-keyboard-response","155","510617","0.0-2.0-7.0-1.27","589ce4d65e63bf00013b3175","C3","batch3","","3368.100000023842","stim/no_48_1_w.png","j","pattern_response","true","j","pattern_28","3368.100000023842","true","63","","","","","","","","","","","","","","","","","","",""
"","","","","","html-keyboard-response","156","511933","0.0-2.0-7.0-0.28","589ce4d65e63bf00013b3175","C3","batch3","","null","<p class=block-text>Trial 68 out of 78</p>","null","pattern_show_trial_num","","","","","","","","","","","","","","","","","","","","","","","","",""
"","","","","","image-keyboard-response","157","514035","0.0-2.0-7.0-1.28","589ce4d65e63bf00013b3175","C3","batch3","","2099","stim/yes_35_dia_b1.png","f","pattern_response","true","f","pattern_57","2099","true","64","","","","","","","","","","","","","","","","","","",""
"","","","","","html-keyboard-response","158","515362","0.0-2.0-7.0-0.29","589ce4d65e63bf00013b3175","C3","batch3","","null","<p class=block-text>Trial 69 out of 78</p>","null","pattern_show_trial_num","","","","","","","","","","","","","","","","","","","","","","","","",""
"","","","","","image-keyboard-response","159","518529","0.0-2.0-7.0-1.29","589ce4d65e63bf00013b3175","C3","batch3","","3163.399999976158","stim/no_34_1_b.png","j","pattern_response","true","j","pattern_16","3163.399999976158","true","65","","","","","","","","","","","","","","","","","","",""
"","","","","","html-keyboard-response","160","519850","0.0-2.0-7.0-0.30","589ce4d65e63bf00013b3175","C3","batch3","","null","<p class=block-text>Trial 70 out of 78</p>","null","pattern_show_trial_num","","","","","","","","","","","","","","","","","","","","","","","","",""
"","","","","","image-keyboard-response","161","524383","0.0-2.0-7.0-1.30","589ce4d65e63bf00013b3175","C3","batch3","","4528.800000071526","stim/no_55_1_w.png","j","pattern_response","true","j","pattern_34","4528.800000071526","true","66","","","","","","","","","","","","","","","","","","",""
"","","","","","html-keyboard-response","162","525702","0.0-2.0-7.0-0.31","589ce4d65e63bf00013b3175","C3","batch3","","null","<p class=block-text>Trial 71 out of 78</p>","null","pattern_show_trial_num","","","","","","","","","","","","","","","","","","","","","","","","",""
"","","","","","image-keyboard-response","163","526629","0.0-2.0-7.0-1.31","589ce4d65e63bf00013b3175","C3","batch3","","924.4000000953674","stim/yes_22_ver_w1.png","f","pattern_response","true","f","pattern_47","924.4000000953674","true","67","","","","","","","","","","","","","","","","","","",""
"","","","","","html-keyboard-response","164","527944","0.0-2.0-7.0-0.32","589ce4d65e63bf00013b3175","C3","batch3","","null","<p class=block-text>Trial 72 out of 78</p>","null","pattern_show_trial_num","","","","","","","","","","","","","","","","","","","","","","","","",""
"","","","","","image-keyboard-response","165","529407","0.0-2.0-7.0-1.32","589ce4d65e63bf00013b3175","C3","batch3","","1461","stim/yes_28_ver_b1.png","f","pattern_response","true","f","pattern_51","1461","true","68","","","","","","","","","","","","","","","","","","",""
"","","","","","html-keyboard-response","166","530709","0.0-2.0-7.0-0.33","589ce4d65e63bf00013b3175","C3","batch3","","null","<p class=block-text>Trial 73 out of 78</p>","null","pattern_show_trial_num","","","","","","","","","","","","","","","","","","","","","","","","",""
"","","","","","image-keyboard-response","167","534476","0.0-2.0-7.0-1.33","589ce4d65e63bf00013b3175","C3","batch3","","3764.4000000953674","stim/no_62_1_w.png","j","pattern_response","true","j","pattern_36","3764.4000000953674","true","69","","","","","","","","","","","","","","","","","","",""
"","","","","","html-keyboard-response","168","535788","0.0-2.0-7.0-0.34","589ce4d65e63bf00013b3175","C3","batch3","","null","<p class=block-text>Trial 74 out of 78</p>","null","pattern_show_trial_num","","","","","","","","","","","","","","","","","","","","","","","","",""
"","","","","","image-keyboard-response","169","538222","0.0-2.0-7.0-1.34","589ce4d65e63bf00013b3175","C3","batch3","","2431","stim/yes_40_dia_b1_b.png","j","pattern_response","false","f","pattern_63","2431","false","69","","","","","","","","","","","","","","","","","","",""
"","","","","","html-keyboard-response","170","539542","0.0-2.0-7.0-0.35","589ce4d65e63bf00013b3175","C3","batch3","","null","<p class=block-text>Trial 75 out of 78</p>","null","pattern_show_trial_num","","","","","","","","","","","","","","","","","","","","","","","","",""
"","","","","","image-keyboard-response","171","545290","0.0-2.0-7.0-1.35","589ce4d65e63bf00013b3175","C3","batch3","","5743.300000071526","stim/no_70_2.png","j","pattern_response","true","j","pattern_40","5743.300000071526","true","70","","","","","","","","","","","","","","","","","","",""
"","","","","","html-keyboard-response","172","546611","0.0-2.0-7.0-0.36","589ce4d65e63bf00013b3175","C3","batch3","","null","<p class=block-text>Trial 76 out of 78</p>","null","pattern_show_trial_num","","","","","","","","","","","","","","","","","","","","","","","","",""
"","","","","","image-keyboard-response","173","548413","0.0-2.0-7.0-1.36","589ce4d65e63bf00013b3175","C3","batch3","","1799.8000000715256","stim/no_17_1_w.png","j","pattern_response","true","j","pattern_04","1799.8000000715256","true","71","","","","","","","","","","","","","","","","","","",""
"","","","","","html-keyboard-response","174","549728","0.0-2.0-7.0-0.37","589ce4d65e63bf00013b3175","C3","batch3","","null","<p class=block-text>Trial 77 out of 78</p>","null","pattern_show_trial_num","","","","","","","","","","","","","","","","","","","","","","","","",""
"","","","","","image-keyboard-response","175","550692","0.0-2.0-7.0-1.37","589ce4d65e63bf00013b3175","C3","batch3","","961.3999999761581","stim/yes_43_ver_w1_w.png","f","pattern_response","true","f","pattern_65","961.3999999761581","true","72","","","","","","","","","","","","","","","","","","",""
"","","","","","html-keyboard-response","176","552011","0.0-2.0-7.0-0.38","589ce4d65e63bf00013b3175","C3","batch3","","null","<p class=block-text>Trial 78 out of 78</p>","null","pattern_show_trial_num","","","","","","","","","","","","","","","","","","","","","","","","",""
"","","","","","image-keyboard-response","177","553295","0.0-2.0-7.0-1.38","589ce4d65e63bf00013b3175","C3","batch3","","1281.6000000238419","stim/yes_45_hor_b2_b.png","f","pattern_response","true","f","pattern_67","1281.6000000238419","true","73","","","","","","","","","","","","","","","","","","",""
"","","","","","html-button-response","178","557878","0.0-2.0-8.0","589ce4d65e63bf00013b3175","C3","batch3","","4075.5","<p class = block-text>This concludes the 4-in-a-row detection game.Thank you for your responses!<br>
            You responded correctly on 94% of the trials.<br>
            When you are ready, press ""Continue"" button to continue </p>","0","","","","","","","","","","","","","","","","","","","","","","","","","",""
"true","","","","","fullscreen","179","560077","0.0-3.0-0.0","589ce4d65e63bf00013b3175","C3","batch3","","","","","","","","","","","","","","","","","","","","","","","","","","","","","",""
"","","","","","instructions","180","589750","0.0-3.0-1.0-0.0-0.0","589ce4d65e63bf00013b3175","C3","batch3","[{""page_index"":0,""viewing_time"":5087.200000047684},{""page_index"":1,""viewing_time"":3503.899999976158},{""page_index"":2,""viewing_time"":3360},{""page_index"":3,""viewing_time"":6464},{""page_index"":4,""viewing_time"":3728.100000023842},{""page_index"":5,""viewing_time"":6136.100000023842},{""page_index"":6,""viewing_time"":1391.8999999761581}]","29671.300000071526","","","tol-instructions","","","","","","","","","","","","","","","","","","","","","","","","",""
"","","","","","html-button-response","181","590494","0.0-3.0-1.0-1.0-0.0","589ce4d65e63bf00013b3175","C3","batch3","","743.3999999761581","<p class=block-text> Let's answer a few questions <br>","0","tol_enter_quiz","","","","","","","","","","","","","","","","","","","","","","","","",""
"","","","","","html-button-response","182","596590","0.0-3.0-1.0-1.0-1.0","589ce4d65e63bf00013b3175","C3","batch3","","6095.399999976158","<p class = block-text>True or False: You can only move the ball on top of a peg. <br></p>","0","tol_quiz","true","","","","","","","","","","","","","","","","","","","","","","","",""
"","","","","","html-button-response","183","597518","0.0-3.0-1.0-1.0-2.0","589ce4d65e63bf00013b3175","C3","batch3","","927.2000000476837","<p class = block-text>Correct! You can only move the ball on top of a peg.</p>","0","tol_quiz_feedback","","","","","","","","","","","","","","","","","","","","","","","","",""
"","","","","","html-button-response","184","599726","0.0-3.0-1.0-1.0-3.0","589ce4d65e63bf00013b3175","C3","batch3","","2207.399999976158","<p class = block-text>True or False: You should try to match your board with the target board with fewest moves possible. <br></p>","0","tol_quiz","true","","","","","","","","","","","","","","","","","","","","","","","",""
"","","","","","html-button-response","185","600382","0.0-3.0-1.0-1.0-4.0","589ce4d65e63bf00013b3175","C3","batch3","","655.3999999761581","<p class = block-text>Correct! </p>","0","tol_quiz_feedback","","","","","","","","","","","","","","","","","","","","","","","","",""
"","","","","","html-button-response","186","601326","0.0-3.0-2.0","589ce4d65e63bf00013b3175","C3","batch3","","943.3999999761581","<p class=block-text> Now that you've understood the game, let's practice a few easier examples before we start!<br> <br>","0","","","","","","","","","","","","","","","","","","","","","","","","","",""
"","","","","","single-stim-button","187","603071","0.0-3.0-3.0-0.0","589ce4d65e63bf00013b3175","C3","batch3","","1744","","","tol_practice","","","","","","","","","tol_peg_2","1744","1744","0","[[1,2,0],[0,0],[0]]","1","[[1,2,0],[0,0],[3]]","practice","1744","","","","","","","",""
"","","","","","single-stim-button","188","604286","0.0-3.0-3.0-1.0","589ce4d65e63bf00013b3175","C3","batch3","","1215","","","tol_practice","","","","","","","","","tol_peg_3","1215","1215","0","[[1,2,0],[0,0],[3]]","1","[[1,2,0],[0,0],[3]]","practice","1215","","","","","","","",""
"","","","","","poldrack-single-stim","189","605290","0.0-3.0-4.0","589ce4d65e63bf00013b3175","C3","batch3","","-1","","","tol_feedback","true","","","","","","","","","1000","1000","500","","","","","","-1","none","true","","0","","",""
"","","","","","single-stim-button","190","607742","0.0-3.0-5.0-0.0","589ce4d65e63bf00013b3175","C3","batch3","","2451","","","tol_practice","","","","","","","","","tol_peg_1","2451","2451","0","[[1,0,0],[3,0],[0]]","2","[[0,0,0],[3,1],[2]]","practice","2451","","","","","","","",""
"","","","","","single-stim-button","191","608646","0.0-3.0-5.0-1.0","589ce4d65e63bf00013b3175","C3","batch3","","903","","","tol_practice","","","","","","","","","tol_peg_3","903","903","0","[[1,0,0],[3,0],[2]]","2","[[0,0,0],[3,1],[2]]","practice","903","","","","","","","",""
"","","","","","single-stim-button","192","610654","0.0-3.0-5.1-0.1","589ce4d65e63bf00013b3175","C3","batch3","","2007","","","tol_practice","","","","","","","","","tol_peg_1","2007","2007","0","[[0,0,0],[3,0],[2]]","3","[[0,0,0],[3,1],[2]]","practice","2007","","","","","","","",""
"","","","","","single-stim-button","193","614478","0.0-3.0-5.1-1.1","589ce4d65e63bf00013b3175","C3","batch3","","3823","","","tol_practice","","","","","","","","","tol_peg_1","3823","3823","0","[[1,0,0],[3,0],[2]]","3","[[0,0,0],[3,1],[2]]","practice","3823","","","","","","","",""
"","","","","","single-stim-button","194","615118","0.0-3.0-5.2-0.2","589ce4d65e63bf00013b3175","C3","batch3","","640","","","tol_practice","","","","","","","","","tol_peg_2","640","640","0","[[1,0,0],[0,0],[2]]","4","[[0,0,0],[3,1],[2]]","practice","640","","","","","","","",""
"","","","","","single-stim-button","195","615670","0.0-3.0-5.2-1.2","589ce4d65e63bf00013b3175","C3","batch3","","552","","","tol_practice","","","","","","","","","tol_peg_1","552","552","0","[[1,3,0],[0,0],[2]]","4","[[0,0,0],[3,1],[2]]","practice","552","","","","","","","",""
"","","","","","single-stim-button","196","616622","0.0-3.0-5.3-0.3","589ce4d65e63bf00013b3175","C3","batch3","","951","","","tol_practice","","","","","","","","","tol_peg_3","951","951","0","[[1,3,0],[0,0],[0]]","5","[[0,0,0],[3,1],[2]]","practice","951","","","","","","","",""
"","","","","","single-stim-button","197","617030","0.0-3.0-5.3-1.3","589ce4d65e63bf00013b3175","C3","batch3","","407","","","tol_practice","","","","","","","","","tol_peg_2","407","407","0","[[1,3,0],[2,0],[0]]","5","[[0,0,0],[3,1],[2]]","practice","407","","","","","","","",""
"","","","","","single-stim-button","198","617654","0.0-3.0-5.4-0.4","589ce4d65e63bf00013b3175","C3","batch3","","624","","","tol_practice","","","","","","","","","tol_peg_1","624","624","0","[[1,0,0],[2,0],[0]]","6","[[0,0,0],[3,1],[2]]","practice","624","","","","","","","",""
"","","","","","single-stim-button","199","618102","0.0-3.0-5.4-1.4","589ce4d65e63bf00013b3175","C3","batch3","","447","","","tol_practice","","","","","","","","","tol_peg_2","447","447","0","[[1,0,0],[2,3],[0]]","6","[[0,0,0],[3,1],[2]]","practice","447","","","","","","","",""
"","","","","","single-stim-button","200","619606","0.0-3.0-5.5-0.5","589ce4d65e63bf00013b3175","C3","batch3","","1503","","","tol_practice","","","","","","","","","tol_peg_1","1503","1503","0","[[0,0,0],[2,3],[0]]","7","[[0,0,0],[3,1],[2]]","practice","1503","","","","","","","",""
"","","","","","single-stim-button","201","620286","0.0-3.0-5.5-1.5","589ce4d65e63bf00013b3175","C3","batch3","","680","","","tol_practice","","","","","","","","","tol_peg_3","680","680","0","[[0,0,0],[2,3],[1]]","7","[[0,0,0],[3,1],[2]]","practice","680","","","","","","","",""
"","","","","","single-stim-button","202","620894","0.0-3.0-5.6-0.6","589ce4d65e63bf00013b3175","C3","batch3","","608","","","tol_practice","","","","","","","","","tol_peg_2","608","608","0","[[0,0,0],[2,0],[1]]","8","[[0,0,0],[3,1],[2]]","practice","608","","","","","","","",""
"","","","","","single-stim-button","203","621654","0.0-3.0-5.6-1.6","589ce4d65e63bf00013b3175","C3","batch3","","760","","","tol_practice","","","","","","","","","tol_peg_1","760","760","0","[[3,0,0],[2,0],[1]]","8","[[0,0,0],[3,1],[2]]","practice","760","","","","","","","",""
"","","","","","single-stim-button","204","622630","0.0-3.0-5.7-0.7","589ce4d65e63bf00013b3175","C3","batch3","","976","","","tol_practice","","","","","","","","","tol_peg_3","976","976","0","[[3,0,0],[2,0],[0]]","9","[[0,0,0],[3,1],[2]]","practice","976","","","","","","","",""
"","","","","","single-stim-button","205","623238","0.0-3.0-5.7-1.7","589ce4d65e63bf00013b3175","C3","batch3","","608","","","tol_practice","","","","","","","","","tol_peg_1","608","608","0","[[3,1,0],[2,0],[0]]","9","[[0,0,0],[3,1],[2]]","practice","608","","","","","","","",""
"","","","","","single-stim-button","206","623638","0.0-3.0-5.8-0.8","589ce4d65e63bf00013b3175","C3","batch3","","399","","","tol_practice","","","","","","","","","tol_peg_2","399","399","0","[[3,1,0],[0,0],[0]]","10","[[0,0,0],[3,1],[2]]","practice","399","","","","","","","",""
"","","","","","single-stim-button","207","624390","0.0-3.0-5.8-1.8","589ce4d65e63bf00013b3175","C3","batch3","","752","","","tol_practice","","","","","","","","","tol_peg_3","752","752","0","[[3,1,0],[0,0],[2]]","10","[[0,0,0],[3,1],[2]]","practice","752","","","","","","","",""
"","","","","","single-stim-button","208","627110","0.0-3.0-5.9-0.9","589ce4d65e63bf00013b3175","C3","batch3","","2720","","","tol_practice","","","","","","","","","tol_peg_1","2720","2720","0","[[3,0,0],[0,0],[2]]","11","[[0,0,0],[3,1],[2]]","practice","2720","","","","","","","",""
"","","","","","single-stim-button","209","628094","0.0-3.0-5.9-1.9","589ce4d65e63bf00013b3175","C3","batch3","","984","","","tol_practice","","","","","","","","","tol_peg_2","984","984","0","[[3,0,0],[1,0],[2]]","11","[[0,0,0],[3,1],[2]]","practice","984","","","","","","","",""
"","","","","","single-stim-button","210","628639","0.0-3.0-5.10-0.10","589ce4d65e63bf00013b3175","C3","batch3","","545","","","tol_practice","","","","","","","","","tol_peg_1","545","545","0","[[0,0,0],[1,0],[2]]","12","[[0,0,0],[3,1],[2]]","practice","545","","","","","","","",""
"","","","","","single-stim-button","211","629102","0.0-3.0-5.10-1.10","589ce4d65e63bf00013b3175","C3","batch3","","463","","","tol_practice","","","","","","","","","tol_peg_2","463","463","0","[[0,0,0],[1,3],[2]]","12","[[0,0,0],[3,1],[2]]","practice","463","","","","","","","",""
"","","","","","single-stim-button","212","629790","0.0-3.0-5.11-0.11","589ce4d65e63bf00013b3175","C3","batch3","","687","","","tol_practice","","","","","","","","","tol_peg_3","687","687","0","[[0,0,0],[1,3],[0]]","13","[[0,0,0],[3,1],[2]]","practice","687","","","","","","","",""
"","","","","","single-stim-button","213","634806","0.0-3.0-5.11-1.11","589ce4d65e63bf00013b3175","C3","batch3","","5016","","","tol_practice","","","","","","","","","tol_peg_1","5016","5016","0","[[2,0,0],[1,3],[0]]","13","[[0,0,0],[3,1],[2]]","practice","5016","","","","","","","",""
"","","","","","single-stim-button","214","635247","0.0-3.0-5.12-0.12","589ce4d65e63bf00013b3175","C3","batch3","","439","","","tol_practice","","","","","","","","","tol_peg_2","439","439","0","[[2,0,0],[1,0],[0]]","14","[[0,0,0],[3,1],[2]]","practice","439","","","","","","","",""
"","","","","","single-stim-button","215","635879","0.0-3.0-5.12-1.12","589ce4d65e63bf00013b3175","C3","batch3","","631","","","tol_practice","","","","","","","","","tol_peg_3","631","631","0","[[2,0,0],[1,0],[3]]","14","[[0,0,0],[3,1],[2]]","practice","631","","","","","","","",""
"","","","","","single-stim-button","216","641463","0.0-3.0-5.13-0.13","589ce4d65e63bf00013b3175","C3","batch3","","5583","","","tol_practice","","","","","","","","","tol_peg_2","5583","5583","0","[[2,0,0],[0,0],[3]]","15","[[0,0,0],[3,1],[2]]","practice","5583","","","","","","","",""
"","","","","","single-stim-button","217","642215","0.0-3.0-5.13-1.13","589ce4d65e63bf00013b3175","C3","batch3","","751","","","tol_practice","","","","","","","","","tol_peg_1","751","751","0","[[2,1,0],[0,0],[3]]","15","[[0,0,0],[3,1],[2]]","practice","751","","","","","","","",""
"","","","","","single-stim-button","218","642815","0.0-3.0-5.14-0.14","589ce4d65e63bf00013b3175","C3","batch3","","600","","","tol_practice","","","","","","","","","tol_peg_3","600","600","0","[[2,1,0],[0,0],[0]]","16","[[0,0,0],[3,1],[2]]","practice","600","","","","","","","",""
"","","","","","single-stim-button","219","643455","0.0-3.0-5.14-1.14","589ce4d65e63bf00013b3175","C3","batch3","","639","","","tol_practice","","","","","","","","","tol_peg_2","639","639","0","[[2,1,0],[3,0],[0]]","16","[[0,0,0],[3,1],[2]]","practice","639","","","","","","","",""
"","","","","","single-stim-button","220","644063","0.0-3.0-5.15-0.15","589ce4d65e63bf00013b3175","C3","batch3","","607","","","tol_practice","","","","","","","","","tol_peg_1","607","607","0","[[2,0,0],[3,0],[0]]","17","[[0,0,0],[3,1],[2]]","practice","607","","","","","","","",""
"","","","","","single-stim-button","221","645927","0.0-3.0-5.15-1.15","589ce4d65e63bf00013b3175","C3","batch3","","1863","","","tol_practice","","","","","","","","","tol_peg_2","1863","1863","0","[[2,0,0],[3,1],[0]]","17","[[0,0,0],[3,1],[2]]","practice","1863","","","","","","","",""
"","","","","","single-stim-button","222","646799","0.0-3.0-5.16-0.16","589ce4d65e63bf00013b3175","C3","batch3","","871","","","tol_practice","","","","","","","","","tol_peg_1","871","871","0","[[0,0,0],[3,1],[0]]","18","[[0,0,0],[3,1],[2]]","practice","871","","","","","","","",""
"","","","","","single-stim-button","223","647471","0.0-3.0-5.16-1.16","589ce4d65e63bf00013b3175","C3","batch3","","671","","","tol_practice","","","","","","","","","tol_peg_3","671","671","0","[[0,0,0],[3,1],[2]]","18","[[0,0,0],[3,1],[2]]","practice","671","","","","","","","",""
"","","","","","poldrack-single-stim","224","648482","0.0-3.0-6.0","589ce4d65e63bf00013b3175","C3","batch3","","-1","","","tol_feedback","true","","","","","","","","","1000","1000","500","","","","","","-1","none","true","","0","","",""
"","","","","","single-stim-button","225","652487","0.0-3.0-7.0-0.0","589ce4d65e63bf00013b3175","C3","batch3","","4003","","","tol_practice","","","","","","","","","tol_peg_2","4003","4003","0","[[1,2,0],[0,0],[0]]","19","[[1,0,0],[2,0],[3]]","practice","4003","","","","","","","",""
"","","","","","single-stim-button","226","653327","0.0-3.0-7.0-1.0","589ce4d65e63bf00013b3175","C3","batch3","","840","","","tol_practice","","","","","","","","","tol_peg_3","840","840","0","[[1,2,0],[0,0],[3]]","19","[[1,0,0],[2,0],[3]]","practice","840","","","","","","","",""
"","","","","","single-stim-button","227","654015","0.0-3.0-7.1-0.1","589ce4d65e63bf00013b3175","C3","batch3","","687","","","tol_practice","","","","","","","","","tol_peg_1","687","687","0","[[1,0,0],[0,0],[3]]","20","[[1,0,0],[2,0],[3]]","practice","687","","","","","","","",""
"","","","","","single-stim-button","228","654639","0.0-3.0-7.1-1.1","589ce4d65e63bf00013b3175","C3","batch3","","623","","","tol_practice","","","","","","","","","tol_peg_2","623","623","0","[[1,0,0],[2,0],[3]]","20","[[1,0,0],[2,0],[3]]","practice","623","","","","","","","",""
"","","","","","poldrack-single-stim","229","655644","0.0-3.0-8.0","589ce4d65e63bf00013b3175","C3","batch3","","-1","","","tol_feedback","true","","","","","","","","","1000","1000","500","","","","","","-1","none","true","","0","","",""
"","","","","","html-button-response","230","657375","0.0-3.0-9.0","589ce4d65e63bf00013b3175","C3","batch3","","1729.1000000238419","<div class = centerbox><p class = center-block-text>Great job! You are done with practice trials<br>You are about to start official trials.<br> <br> Problem <strong>1</strong> out of 25 problems</p></div>","0","tol_instruction","","","","","","","","","","","","","","","","","","","","","","","","",""
"","","","","","single-stim-button","231","664767","0.0-3.0-10.0-0.0","589ce4d65e63bf00013b3175","C3","batch3","","6391","","","tol_tohand","","","","","","","","","tol_peg_1","6391","6391","0","[[1,0,0],[3,0],[0]]","1","[[1,3,0],[2,0],[0]]","0","0","","","","","","3","",""
"","","","","","single-stim-button","232","669335","0.0-3.0-10.0-1.0","589ce4d65e63bf00013b3175","C3","batch3","","4567","","","tol_toboard","","","","","","","","","tol_peg_3","4567","4567","0","[[1,0,0],[3,0],[2]]","1","[[1,3,0],[2,0],[0]]","0","0","","","","","","3","",""
"","","","","","single-stim-button","233","669919","0.0-3.0-10.1-0.1","589ce4d65e63bf00013b3175","C3","batch3","","583","","","tol_tohand","","","","","","","","","tol_peg_2","583","583","0","[[1,0,0],[0,0],[2]]","2","[[1,3,0],[2,0],[0]]","0","0","","","","","","3","",""
"","","","","","single-stim-button","234","670527","0.0-3.0-10.1-1.1","589ce4d65e63bf00013b3175","C3","batch3","","607","","","tol_toboard","","","","","","","","","tol_peg_1","607","607","0","[[1,3,0],[0,0],[2]]","2","[[1,3,0],[2,0],[0]]","0","0","","","","","","3","",""
"","","","","","single-stim-button","235","671351","0.0-3.0-10.2-0.2","589ce4d65e63bf00013b3175","C3","batch3","","823","","","tol_tohand","","","","","","","","","tol_peg_3","823","823","0","[[1,3,0],[0,0],[0]]","3","[[1,3,0],[2,0],[0]]","0","0","","","","","","3","",""
"","","","","","single-stim-button","236","672103","0.0-3.0-10.2-1.2","589ce4d65e63bf00013b3175","C3","batch3","","751","","","tol_toboard","","","","","","","","","tol_peg_2","751","751","0","[[1,3,0],[2,0],[0]]","3","[[1,3,0],[2,0],[0]]","0","0","","","","","","3","",""
"","","","","","poldrack-single-stim","237","673105","0.0-3.0-11.0","589ce4d65e63bf00013b3175","C3","batch3","","-1","","","tol_feedback","true","","","","","","","","","1000","1000","500","","","","","","-1","none","true","6391","7797","","",""
"","","","","","html-button-response","238","674199","0.0-3.0-12.0","589ce4d65e63bf00013b3175","C3","batch3","","1092.3999999761581","<div class = centerbox><p class = center-block-text>problem <strong>2</strong> out of 25 problems</p></div>","0","tol_trial_num","","","","","","","","","","","","","","","","","","","","","","","","",""
"","","","","","single-stim-button","239","684295","0.0-3.0-13.0-0.0","589ce4d65e63bf00013b3175","C3","batch3","","10095","","","tol_tohand","","","","","","","","","tol_peg_1","10095","10095","0","[[1,0,0],[3,0],[0]]","1","[[2,1,3],[0,0],[0]]","1","0","","","","","","5","",""
"","","","","","single-stim-button","240","685063","0.0-3.0-13.0-1.0","589ce4d65e63bf00013b3175","C3","batch3","","767","","","tol_toboard","","","","","","","","","tol_peg_3","767","767","0","[[1,0,0],[3,0],[2]]","1","[[2,1,3],[0,0],[0]]","1","0","","","","","","5","",""
"","","","","","single-stim-button","241","687887","0.0-3.0-13.1-0.1","589ce4d65e63bf00013b3175","C3","batch3","","2823","","","tol_tohand","","","","","","","","","tol_peg_1","2823","2823","0","[[0,0,0],[3,0],[2]]","2","[[2,1,3],[0,0],[0]]","1","0","","","","","","5","",""
"","","","","","single-stim-button","242","688367","0.0-3.0-13.1-1.1","589ce4d65e63bf00013b3175","C3","batch3","","479","","","tol_toboard","","","","","","","","","tol_peg_2","479","479","0","[[0,0,0],[3,1],[2]]","2","[[2,1,3],[0,0],[0]]","1","0","","","","","","5","",""
"","","","","","single-stim-button","243","688855","0.0-3.0-13.2-0.2","589ce4d65e63bf00013b3175","C3","batch3","","488","","","tol_tohand","","","","","","","","","tol_peg_3","488","488","0","[[0,0,0],[3,1],[0]]","3","[[2,1,3],[0,0],[0]]","1","0","","","","","","5","",""
"","","","","","single-stim-button","244","690367","0.0-3.0-13.2-1.2","589ce4d65e63bf00013b3175","C3","batch3","","1511","","","tol_toboard","","","","","","","","","tol_peg_1","1511","1511","0","[[2,0,0],[3,1],[0]]","3","[[2,1,3],[0,0],[0]]","1","0","","","","","","5","",""
"","","","","","single-stim-button","245","690967","0.0-3.0-13.3-0.3","589ce4d65e63bf00013b3175","C3","batch3","","599","","","tol_tohand","","","","","","","","","tol_peg_2","599","599","0","[[2,0,0],[3,0],[0]]","4","[[2,1,3],[0,0],[0]]","1","0","","","","","","5","",""
"","","","","","single-stim-button","246","691479","0.0-3.0-13.3-1.3","589ce4d65e63bf00013b3175","C3","batch3","","511","","","tol_toboard","","","","","","","","","tol_peg_1","511","511","0","[[2,1,0],[3,0],[0]]","4","[[2,1,3],[0,0],[0]]","1","0","","","","","","5","",""
"","","","","","single-stim-button","247","691991","0.0-3.0-13.4-0.4","589ce4d65e63bf00013b3175","C3","batch3","","511","","","tol_tohand","","","","","","","","","tol_peg_2","511","511","0","[[2,1,0],[0,0],[0]]","5","[[2,1,3],[0,0],[0]]","1","0","","","","","","5","",""
"","","","","","single-stim-button","248","692543","0.0-3.0-13.4-1.4","589ce4d65e63bf00013b3175","C3","batch3","","551","","","tol_toboard","","","","","","","","","tol_peg_1","551","551","0","[[2,1,3],[0,0],[0]]","5","[[2,1,3],[0,0],[0]]","1","0","","","","","","5","",""
"","","","","","poldrack-single-stim","249","693559","0.0-3.0-14.0","589ce4d65e63bf00013b3175","C3","batch3","","-1","","","tol_feedback","true","","","","","","","","","1000","1000","500","","","","","","-1","none","true","10095","14516","","",""
"","","","","","html-button-response","250","694791","0.0-3.0-15.0","589ce4d65e63bf00013b3175","C3","batch3","","1230.5","<div class = centerbox><p class = center-block-text>problem <strong>3</strong> out of 25 problems</p></div>","0","tol_trial_num","","","","","","","","","","","","","","","","","","","","","","","","",""
"","","","","","single-stim-button","251","698974","0.0-3.0-16.0-0.0","589ce4d65e63bf00013b3175","C3","batch3","","4183","","","tol_tohand","","","","","","","","","tol_peg_1","4183","4183","0","[[2,0,0],[0,0],[1]]","1","[[1,2,0],[3,0],[0]]","2","0","","","","","","4","",""
"","","","","","single-stim-button","252","699462","0.0-3.0-16.0-1.0","589ce4d65e63bf00013b3175","C3","batch3","","487","","","tol_toboard","","","","","","","","","tol_peg_2","487","487","0","[[2,0,0],[3,0],[1]]","1","[[1,2,0],[3,0],[0]]","2","0","","","","","","4","",""
"","","","","","single-stim-button","253","700190","0.0-3.0-16.1-0.1","589ce4d65e63bf00013b3175","C3","batch3","","728","","","tol_tohand","","","","","","","","","tol_peg_1","728","728","0","[[0,0,0],[3,0],[1]]","2","[[1,2,0],[3,0],[0]]","2","0","","","","","","4","",""
"","","","","","single-stim-button","254","700646","0.0-3.0-16.1-1.1","589ce4d65e63bf00013b3175","C3","batch3","","455","","","tol_toboard","","","","","","","","","tol_peg_2","455","455","0","[[0,0,0],[3,2],[1]]","2","[[1,2,0],[3,0],[0]]","2","0","","","","","","4","",""
"","","","","","single-stim-button","255","701014","0.0-3.0-16.2-0.2","589ce4d65e63bf00013b3175","C3","batch3","","368","","","tol_tohand","","","","","","","","","tol_peg_3","368","368","0","[[0,0,0],[3,2],[0]]","3","[[1,2,0],[3,0],[0]]","2","0","","","","","","4","",""
"","","","","","single-stim-button","256","701598","0.0-3.0-16.2-1.2","589ce4d65e63bf00013b3175","C3","batch3","","584","","","tol_toboard","","","","","","","","","tol_peg_1","584","584","0","[[1,0,0],[3,2],[0]]","3","[[1,2,0],[3,0],[0]]","2","0","","","","","","4","",""
"","","","","","single-stim-button","257","702614","0.0-3.0-16.3-0.3","589ce4d65e63bf00013b3175","C3","batch3","","1015","","","tol_tohand","","","","","","","","","tol_peg_2","1015","1015","0","[[1,0,0],[3,0],[0]]","4","[[1,2,0],[3,0],[0]]","2","0","","","","","","4","",""
"","","","","","single-stim-button","258","703126","0.0-3.0-16.3-1.3","589ce4d65e63bf00013b3175","C3","batch3","","512","","","tol_toboard","","","","","","","","","tol_peg_1","512","512","0","[[1,2,0],[3,0],[0]]","4","[[1,2,0],[3,0],[0]]","2","0","","","","","","4","",""
"","","","","","poldrack-single-stim","259","704139","0.0-3.0-17.0","589ce4d65e63bf00013b3175","C3","batch3","","-1","","","tol_feedback","true","","","","","","","","","1000","1000","500","","","","","","-1","none","true","4183","6294","","",""
"","","","","","html-button-response","260","705046","0.0-3.0-18.0","589ce4d65e63bf00013b3175","C3","batch3","","905.3999999761581","<div class = centerbox><p class = center-block-text>problem <strong>4</strong> out of 25 problems</p></div>","0","tol_trial_num","","","","","","","","","","","","","","","","","","","","","","","","",""
"","","","","","single-stim-button","261","707534","0.0-3.0-19.0-0.0","589ce4d65e63bf00013b3175","C3","batch3","","2487","","","tol_tohand","","","","","","","","","tol_peg_2","2487","2487","0","[[3,0,0],[2,0],[0]]","1","[[3,0,0],[1,0],[2]]","3","0","","","","","","3","",""
"","","","","","single-stim-button","262","707886","0.0-3.0-19.0-1.0","589ce4d65e63bf00013b3175","C3","batch3","","351","","","tol_toboard","","","","","","","","","tol_peg_1","351","351","0","[[3,1,0],[2,0],[0]]","1","[[3,0,0],[1,0],[2]]","3","0","","","","","","3","",""
"","","","","","single-stim-button","263","708286","0.0-3.0-19.1-0.1","589ce4d65e63bf00013b3175","C3","batch3","","400","","","tol_tohand","","","","","","","","","tol_peg_2","400","400","0","[[3,1,0],[0,0],[0]]","2","[[3,0,0],[1,0],[2]]","3","0","","","","","","3","",""
"","","","","","single-stim-button","264","708806","0.0-3.0-19.1-1.1","589ce4d65e63bf00013b3175","C3","batch3","","520","","","tol_toboard","","","","","","","","","tol_peg_3","520","520","0","[[3,1,0],[0,0],[2]]","2","[[3,0,0],[1,0],[2]]","3","0","","","","","","3","",""
"","","","","","single-stim-button","265","709718","0.0-3.0-19.2-0.2","589ce4d65e63bf00013b3175","C3","batch3","","912","","","tol_tohand","","","","","","","","","tol_peg_1","912","912","0","[[3,0,0],[0,0],[2]]","3","[[3,0,0],[1,0],[2]]","3","0","","","","","","3","",""
"","","","","","single-stim-button","266","710198","0.0-3.0-19.2-1.2","589ce4d65e63bf00013b3175","C3","batch3","","479","","","tol_toboard","","","","","","","","","tol_peg_2","479","479","0","[[3,0,0],[1,0],[2]]","3","[[3,0,0],[1,0],[2]]","3","0","","","","","","3","",""
"","","","","","poldrack-single-stim","267","711214","0.0-3.0-20.0","589ce4d65e63bf00013b3175","C3","batch3","","-1","","","tol_feedback","true","","","","","","","","","1000","1000","500","","","","","","-1","none","true","2487","3799","","",""
"","","","","","html-button-response","268","711998","0.0-3.0-21.0","589ce4d65e63bf00013b3175","C3","batch3","","783.1999999284744","<div class = centerbox><p class = center-block-text>problem <strong>5</strong> out of 25 problems</p></div>","0","tol_trial_num","","","","","","","","","","","","","","","","","","","","","","","","",""
"","","","","","single-stim-button","269","714254","0.0-3.0-22.0-0.0","589ce4d65e63bf00013b3175","C3","batch3","","2256","","","tol_tohand","","","","","","","","","tol_peg_1","2256","2256","0","[[0,0,0],[2,0],[3]]","1","[[0,0,0],[1,2],[3]]","4","0","","","","","","7","",""
"","","","","","single-stim-button","270","714798","0.0-3.0-22.0-1.0","589ce4d65e63bf00013b3175","C3","batch3","","543","","","tol_toboard","","","","","","","","","tol_peg_2","543","543","0","[[0,0,0],[2,1],[3]]","1","[[0,0,0],[1,2],[3]]","4","0","","","","","","7","",""
"","","","","","single-stim-button","271","716382","0.0-3.0-22.1-0.1","589ce4d65e63bf00013b3175","C3","batch3","","1584","","","tol_tohand","","","","","","","","","tol_peg_2","1584","1584","0","[[0,0,0],[2,0],[3]]","2","[[0,0,0],[1,2],[3]]","4","0","","","","","","7","",""
"","","","","","single-stim-button","272","717398","0.0-3.0-22.1-1.1","589ce4d65e63bf00013b3175","C3","batch3","","1016","","","tol_toboard","","","","","","","","","tol_peg_1","1016","1016","0","[[1,0,0],[2,0],[3]]","2","[[0,0,0],[1,2],[3]]","4","0","","","","","","7","",""
"","","","","","single-stim-button","273","717862","0.0-3.0-22.2-0.2","589ce4d65e63bf00013b3175","C3","batch3","","464","","","tol_tohand","","","","","","","","","tol_peg_2","464","464","0","[[1,0,0],[0,0],[3]]","3","[[0,0,0],[1,2],[3]]","4","0","","","","","","7","",""
"","","","","","single-stim-button","274","720286","0.0-3.0-22.2-1.2","589ce4d65e63bf00013b3175","C3","batch3","","2423","","","tol_toboard","","","","","","","","","tol_peg_2","2423","2423","0","[[1,0,0],[2,0],[3]]","3","[[0,0,0],[1,2],[3]]","4","0","","","","","","7","",""
"","","","","","single-stim-button","275","721150","0.0-3.0-22.3-0.3","589ce4d65e63bf00013b3175","C3","batch3","","864","","","tol_tohand","","","","","","","","","tol_peg_3","864","864","0","[[1,0,0],[2,0],[0]]","4","[[0,0,0],[1,2],[3]]","4","0","","","","","","7","",""
"","","","","","single-stim-button","276","721734","0.0-3.0-22.3-1.3","589ce4d65e63bf00013b3175","C3","batch3","","584","","","tol_toboard","","","","","","","","","tol_peg_1","584","584","0","[[1,3,0],[2,0],[0]]","4","[[0,0,0],[1,2],[3]]","4","0","","","","","","7","",""
"","","","","","single-stim-button","277","722238","0.0-3.0-22.4-0.4","589ce4d65e63bf00013b3175","C3","batch3","","504","","","tol_tohand","","","","","","","","","tol_peg_2","504","504","0","[[1,3,0],[0,0],[0]]","5","[[0,0,0],[1,2],[3]]","4","0","","","","","","7","",""
"","","","","","single-stim-button","278","722887","0.0-3.0-22.4-1.4","589ce4d65e63bf00013b3175","C3","batch3","","648","","","tol_toboard","","","","","","","","","tol_peg_3","648","648","0","[[1,3,0],[0,0],[2]]","5","[[0,0,0],[1,2],[3]]","4","0","","","","","","7","",""
"","","","","","single-stim-button","279","723702","0.0-3.0-22.5-0.5","589ce4d65e63bf00013b3175","C3","batch3","","815","","","tol_tohand","","","","","","","","","tol_peg_1","815","815","0","[[1,0,0],[0,0],[2]]","6","[[0,0,0],[1,2],[3]]","4","0","","","","","","7","",""
"","","","","","single-stim-button","280","724438","0.0-3.0-22.5-1.5","589ce4d65e63bf00013b3175","C3","batch3","","736","","","tol_toboard","","","","","","","","","tol_peg_2","736","736","0","[[1,0,0],[3,0],[2]]","6","[[0,0,0],[1,2],[3]]","4","0","","","","","","7","",""
"","","","","","single-stim-button","281","726454","0.0-3.0-22.6-0.6","589ce4d65e63bf00013b3175","C3","batch3","","2015","","","tol_tohand","","","","","","","","","tol_peg_1","2015","2015","0","[[0,0,0],[3,0],[2]]","7","[[0,0,0],[1,2],[3]]","4","0","","","","","","7","",""
"","","","","","single-stim-button","282","726878","0.0-3.0-22.6-1.6","589ce4d65e63bf00013b3175","C3","batch3","","424","","","tol_toboard","","","","","","","","","tol_peg_2","424","424","0","[[0,0,0],[3,1],[2]]","7","[[0,0,0],[1,2],[3]]","4","0","","","","","","7","",""
"","","","","","single-stim-button","283","730310","0.0-3.0-22.7-0.7","589ce4d65e63bf00013b3175","C3","batch3","","3432","","","tol_tohand","","","","","","","","","tol_peg_2","3432","3432","0","[[0,0,0],[3,0],[2]]","8","[[0,0,0],[1,2],[3]]","4","0","","","","","","7","",""
"","","","","","single-stim-button","284","731086","0.0-3.0-22.7-1.7","589ce4d65e63bf00013b3175","C3","batch3","","776","","","tol_toboard","","","","","","","","","tol_peg_1","776","776","0","[[1,0,0],[3,0],[2]]","8","[[0,0,0],[1,2],[3]]","4","0","","","","","","7","",""
"","","","","","single-stim-button","285","731582","0.0-3.0-22.8-0.8","589ce4d65e63bf00013b3175","C3","batch3","","496","","","tol_tohand","","","","","","","","","tol_peg_2","496","496","0","[[1,0,0],[0,0],[2]]","9","[[0,0,0],[1,2],[3]]","4","0","","","","","","7","",""
"","","","","","single-stim-button","286","732934","0.0-3.0-22.8-1.8","589ce4d65e63bf00013b3175","C3","batch3","","1352","","","tol_toboard","","","","","","","","","tol_peg_2","1352","1352","0","[[1,0,0],[3,0],[2]]","9","[[0,0,0],[1,2],[3]]","4","0","","","","","","7","",""
"","","","","","single-stim-button","287","733430","0.0-3.0-22.9-0.9","589ce4d65e63bf00013b3175","C3","batch3","","496","","","tol_tohand","","","","","","","","","tol_peg_3","496","496","0","[[1,0,0],[3,0],[0]]","10","[[0,0,0],[1,2],[3]]","4","0","","","","","","7","",""
"","","","","","single-stim-button","288","733966","0.0-3.0-22.9-1.9","589ce4d65e63bf00013b3175","C3","batch3","","536","","","tol_toboard","","","","","","","","","tol_peg_1","536","536","0","[[1,2,0],[3,0],[0]]","10","[[0,0,0],[1,2],[3]]","4","0","","","","","","7","",""
"","","","","","single-stim-button","289","734966","0.0-3.0-22.10-0.10","589ce4d65e63bf00013b3175","C3","batch3","","1000","","","tol_tohand","","","","","","","","","tol_peg_2","1000","1000","0","[[1,2,0],[0,0],[0]]","11","[[0,0,0],[1,2],[3]]","4","0","","","","","","7","",""
"","","","","","single-stim-button","290","735406","0.0-3.0-22.10-1.10","589ce4d65e63bf00013b3175","C3","batch3","","439","","","tol_toboard","","","","","","","","","tol_peg_3","439","439","0","[[1,2,0],[0,0],[3]]","11","[[0,0,0],[1,2],[3]]","4","0","","","","","","7","",""
"","","","","","single-stim-button","291","736838","0.0-3.0-22.11-0.11","589ce4d65e63bf00013b3175","C3","batch3","","1432","","","tol_tohand","","","","","","","","","tol_peg_1","1432","1432","0","[[1,0,0],[0,0],[3]]","12","[[0,0,0],[1,2],[3]]","4","0","","","","","","7","",""
"","","","","","single-stim-button","292","737446","0.0-3.0-22.11-1.11","589ce4d65e63bf00013b3175","C3","batch3","","607","","","tol_toboard","","","","","","","","","tol_peg_2","607","607","0","[[1,0,0],[2,0],[3]]","12","[[0,0,0],[1,2],[3]]","4","0","","","","","","7","",""
"","","","","","single-stim-button","293","741030","0.0-3.0-22.12-0.12","589ce4d65e63bf00013b3175","C3","batch3","","3584","","","tol_tohand","","","","","","","","","tol_peg_3","3584","3584","0","[[1,0,0],[2,0],[0]]","13","[[0,0,0],[1,2],[3]]","4","0","","","","","","7","",""
"","","","","","single-stim-button","294","741622","0.0-3.0-22.12-1.12","589ce4d65e63bf00013b3175","C3","batch3","","591","","","tol_toboard","","","","","","","","","tol_peg_1","591","591","0","[[1,3,0],[2,0],[0]]","13","[[0,0,0],[1,2],[3]]","4","0","","","","","","7","",""
"","","","","","single-stim-button","295","742406","0.0-3.0-22.13-0.13","589ce4d65e63bf00013b3175","C3","batch3","","784","","","tol_tohand","","","","","","","","","tol_peg_2","784","784","0","[[1,3,0],[0,0],[0]]","14","[[0,0,0],[1,2],[3]]","4","0","","","","","","7","",""
"","","","","","single-stim-button","296","743006","0.0-3.0-22.13-1.13","589ce4d65e63bf00013b3175","C3","batch3","","600","","","tol_toboard","","","","","","","","","tol_peg_3","600","600","0","[[1,3,0],[0,0],[2]]","14","[[0,0,0],[1,2],[3]]","4","0","","","","","","7","",""
"","","","","","single-stim-button","297","743822","0.0-3.0-22.14-0.14","589ce4d65e63bf00013b3175","C3","batch3","","815","","","tol_tohand","","","","","","","","","tol_peg_1","815","815","0","[[1,0,0],[0,0],[2]]","15","[[0,0,0],[1,2],[3]]","4","0","","","","","","7","",""
"","","","","","single-stim-button","298","744414","0.0-3.0-22.14-1.14","589ce4d65e63bf00013b3175","C3","batch3","","592","","","tol_toboard","","","","","","","","","tol_peg_2","592","592","0","[[1,0,0],[3,0],[2]]","15","[[0,0,0],[1,2],[3]]","4","0","","","","","","7","",""
"","","","","","single-stim-button","299","745022","0.0-3.0-22.15-0.15","589ce4d65e63bf00013b3175","C3","batch3","","607","","","tol_tohand","","","","","","","","","tol_peg_1","607","607","0","[[0,0,0],[3,0],[2]]","16","[[0,0,0],[1,2],[3]]","4","0","","","","","","7","",""
"","","","","","single-stim-button","300","745870","0.0-3.0-22.15-1.15","589ce4d65e63bf00013b3175","C3","batch3","","848","","","tol_toboard","","","","","","","","","tol_peg_2","848","848","0","[[0,0,0],[3,1],[2]]","16","[[0,0,0],[1,2],[3]]","4","0","","","","","","7","",""
"","","","","","single-stim-button","301","746382","0.0-3.0-22.16-0.16","589ce4d65e63bf00013b3175","C3","batch3","","512","","","tol_tohand","","","","","","","","","tol_peg_3","512","512","0","[[0,0,0],[3,1],[0]]","17","[[0,0,0],[1,2],[3]]","4","0","","","","","","7","",""
"","","","","","single-stim-button","302","747174","0.0-3.0-22.16-1.16","589ce4d65e63bf00013b3175","C3","batch3","","792","","","tol_toboard","","","","","","","","","tol_peg_1","792","792","0","[[2,0,0],[3,1],[0]]","17","[[0,0,0],[1,2],[3]]","4","0","","","","","","7","",""
"","","","","","single-stim-button","303","748718","0.0-3.0-22.17-0.17","589ce4d65e63bf00013b3175","C3","batch3","","1544","","","tol_tohand","","","","","","","","","tol_peg_2","1544","1544","0","[[2,0,0],[3,0],[0]]","18","[[0,0,0],[1,2],[3]]","4","0","","","","","","7","",""
"","","","","","single-stim-button","304","749254","0.0-3.0-22.17-1.17","589ce4d65e63bf00013b3175","C3","batch3","","536","","","tol_toboard","","","","","","","","","tol_peg_1","536","536","0","[[2,1,0],[3,0],[0]]","18","[[0,0,0],[1,2],[3]]","4","0","","","","","","7","",""
"","","","","","single-stim-button","305","749862","0.0-3.0-22.18-0.18","589ce4d65e63bf00013b3175","C3","batch3","","608","","","tol_tohand","","","","","","","","","tol_peg_2","608","608","0","[[2,1,0],[0,0],[0]]","19","[[0,0,0],[1,2],[3]]","4","0","","","","","","7","",""
"","","","","","single-stim-button","306","750470","0.0-3.0-22.18-1.18","589ce4d65e63bf00013b3175","C3","batch3","","608","","","tol_toboard","","","","","","","","","tol_peg_3","608","608","0","[[2,1,0],[0,0],[3]]","19","[[0,0,0],[1,2],[3]]","4","0","","","","","","7","",""
"","","","","","single-stim-button","307","751358","0.0-3.0-22.19-0.19","589ce4d65e63bf00013b3175","C3","batch3","","888","","","tol_tohand","","","","","","","","","tol_peg_1","888","888","0","[[2,0,0],[0,0],[3]]","20","[[0,0,0],[1,2],[3]]","4","0","","","","","","7","",""
"","","","","","single-stim-button","308","751983","0.0-3.0-22.19-1.19","589ce4d65e63bf00013b3175","C3","batch3","","625","","","tol_toboard","","","","","","","","","tol_peg_2","625","625","0","[[2,0,0],[1,0],[3]]","20","[[0,0,0],[1,2],[3]]","4","0","","","","","","7","",""
"","","","","","single-stim-button","309","752454","0.0-3.0-22.20-0.20","589ce4d65e63bf00013b3175","C3","batch3","","471","","","tol_tohand","","","","","","","","","tol_peg_1","471","471","0","[[0,0,0],[1,0],[3]]","21","[[0,0,0],[1,2],[3]]","4","0","","","","","","7","",""
"","","","","","single-stim-button","310","752982","0.0-3.0-22.20-1.20","589ce4d65e63bf00013b3175","C3","batch3","","528","","","tol_toboard","","","","","","","","","tol_peg_2","528","528","0","[[0,0,0],[1,2],[3]]","21","[[0,0,0],[1,2],[3]]","4","0","","","","","","7","",""
"","","","","","poldrack-single-stim","311","753983","0.0-3.0-23.0","589ce4d65e63bf00013b3175","C3","batch3","","-1","","","tol_feedback","true","","","","","","","","","1000","1000","500","","","","","","-1","none","true","2256","25171","","",""
"","","","","","html-button-response","312","754710","0.0-3.0-24.0","589ce4d65e63bf00013b3175","C3","batch3","","725.7000000476837","<div class = centerbox><p class = center-block-text>problem <strong>6</strong> out of 25 problems</p></div>","0","tol_trial_num","","","","","","","","","","","","","","","","","","","","","","","","",""
"","","","","","single-stim-button","313","759727","0.0-3.0-25.0-0.0","589ce4d65e63bf00013b3175","C3","batch3","","5015","","","tol_tohand","","","","","","","","","tol_peg_2","5015","5015","0","[[0,0,0],[1,0],[3]]","1","[[1,0,0],[2,3],[0]]","5","0","","","","","","6","",""
"","","","","","single-stim-button","314","760423","0.0-3.0-25.0-1.0","589ce4d65e63bf00013b3175","C3","batch3","","695","","","tol_toboard","","","","","","","","","tol_peg_1","695","695","0","[[2,0,0],[1,0],[3]]","1","[[1,0,0],[2,3],[0]]","5","0","","","","","","6","",""
"","","","","","single-stim-button","315","761623","0.0-3.0-25.1-0.1","589ce4d65e63bf00013b3175","C3","batch3","","1199","","","tol_tohand","","","","","","","","","tol_peg_2","1199","1199","0","[[2,0,0],[0,0],[3]]","2","[[1,0,0],[2,3],[0]]","5","0","","","","","","6","",""
"","","","","","single-stim-button","316","762031","0.0-3.0-25.1-1.1","589ce4d65e63bf00013b3175","C3","batch3","","407","","","tol_toboard","","","","","","","","","tol_peg_1","407","407","0","[[2,1,0],[0,0],[3]]","2","[[1,0,0],[2,3],[0]]","5","0","","","","","","6","",""
"","","","","","single-stim-button","317","762911","0.0-3.0-25.2-0.2","589ce4d65e63bf00013b3175","C3","batch3","","879","","","tol_tohand","","","","","","","","","tol_peg_1","879","879","0","[[2,0,0],[0,0],[3]]","3","[[1,0,0],[2,3],[0]]","5","0","","","","","","6","",""
"","","","","","single-stim-button","318","763351","0.0-3.0-25.2-1.2","589ce4d65e63bf00013b3175","C3","batch3","","440","","","tol_toboard","","","","","","","","","tol_peg_2","440","440","0","[[2,0,0],[1,0],[3]]","3","[[1,0,0],[2,3],[0]]","5","0","","","","","","6","",""
"","","","","","single-stim-button","319","764287","0.0-3.0-25.3-0.3","589ce4d65e63bf00013b3175","C3","batch3","","935","","","tol_tohand","","","","","","","","","tol_peg_3","935","935","0","[[2,0,0],[1,0],[0]]","4","[[1,0,0],[2,3],[0]]","5","0","","","","","","6","",""
"","","","","","single-stim-button","320","765303","0.0-3.0-25.3-1.3","589ce4d65e63bf00013b3175","C3","batch3","","1016","","","tol_toboard","","","","","","","","","tol_peg_2","1016","1016","0","[[2,0,0],[1,3],[0]]","4","[[1,0,0],[2,3],[0]]","5","0","","","","","","6","",""
"","","","","","single-stim-button","321","767719","0.0-3.0-25.4-0.4","589ce4d65e63bf00013b3175","C3","batch3","","2415","","","tol_tohand","","","","","","","","","tol_peg_1","2415","2415","0","[[0,0,0],[1,3],[0]]","5","[[1,0,0],[2,3],[0]]","5","0","","","","","","6","",""
"","","","","","single-stim-button","322","769823","0.0-3.0-25.4-1.4","589ce4d65e63bf00013b3175","C3","batch3","","2104","","","tol_toboard","","","","","","","","","tol_peg_1","2104","2104","0","[[2,0,0],[1,3],[0]]","5","[[1,0,0],[2,3],[0]]","5","0","","","","","","6","",""
"","","","","","single-stim-button","323","770359","0.0-3.0-25.5-0.5","589ce4d65e63bf00013b3175","C3","batch3","","536","","","tol_tohand","","","","","","","","","tol_peg_2","536","536","0","[[2,0,0],[1,0],[0]]","6","[[1,0,0],[2,3],[0]]","5","0","","","","","","6","",""
"","","","","","single-stim-button","324","770759","0.0-3.0-25.5-1.5","589ce4d65e63bf00013b3175","C3","batch3","","400","","","tol_toboard","","","","","","","","","tol_peg_1","400","400","0","[[2,3,0],[1,0],[0]]","6","[[1,0,0],[2,3],[0]]","5","0","","","","","","6","",""
"","","","","","single-stim-button","325","771367","0.0-3.0-25.6-0.6","589ce4d65e63bf00013b3175","C3","batch3","","608","","","tol_tohand","","","","","","","","","tol_peg_2","608","608","0","[[2,3,0],[0,0],[0]]","7","[[1,0,0],[2,3],[0]]","5","0","","","","","","6","",""
"","","","","","single-stim-button","326","771911","0.0-3.0-25.6-1.6","589ce4d65e63bf00013b3175","C3","batch3","","544","","","tol_toboard","","","","","","","","","tol_peg_3","544","544","0","[[2,3,0],[0,0],[1]]","7","[[1,0,0],[2,3],[0]]","5","0","","","","","","6","",""
"","","","","","single-stim-button","327","773159","0.0-3.0-25.7-0.7","589ce4d65e63bf00013b3175","C3","batch3","","1248","","","tol_tohand","","","","","","","","","tol_peg_1","1248","1248","0","[[2,0,0],[0,0],[1]]","8","[[1,0,0],[2,3],[0]]","5","0","","","","","","6","",""
"","","","","","single-stim-button","328","773679","0.0-3.0-25.7-1.7","589ce4d65e63bf00013b3175","C3","batch3","","520","","","tol_toboard","","","","","","","","","tol_peg_2","520","520","0","[[2,0,0],[3,0],[1]]","8","[[1,0,0],[2,3],[0]]","5","0","","","","","","6","",""
"","","","","","single-stim-button","329","774231","0.0-3.0-25.8-0.8","589ce4d65e63bf00013b3175","C3","batch3","","551","","","tol_tohand","","","","","","","","","tol_peg_1","551","551","0","[[0,0,0],[3,0],[1]]","9","[[1,0,0],[2,3],[0]]","5","0","","","","","","6","",""
"","","","","","single-stim-button","330","774719","0.0-3.0-25.8-1.8","589ce4d65e63bf00013b3175","C3","batch3","","487","","","tol_toboard","","","","","","","","","tol_peg_2","487","487","0","[[0,0,0],[3,2],[1]]","9","[[1,0,0],[2,3],[0]]","5","0","","","","","","6","",""
"","","","","","single-stim-button","331","775247","0.0-3.0-25.9-0.9","589ce4d65e63bf00013b3175","C3","batch3","","527","","","tol_tohand","","","","","","","","","tol_peg_3","527","527","0","[[0,0,0],[3,2],[0]]","10","[[1,0,0],[2,3],[0]]","5","0","","","","","","6","",""
"","","","","","single-stim-button","332","775839","0.0-3.0-25.9-1.9","589ce4d65e63bf00013b3175","C3","batch3","","591","","","tol_toboard","","","","","","","","","tol_peg_1","591","591","0","[[1,0,0],[3,2],[0]]","10","[[1,0,0],[2,3],[0]]","5","0","","","","","","6","",""
"","","","","","single-stim-button","333","776583","0.0-3.0-25.10-0.10","589ce4d65e63bf00013b3175","C3","batch3","","744","","","tol_tohand","","","","","","","","","tol_peg_2","744","744","0","[[1,0,0],[3,0],[0]]","11","[[1,0,0],[2,3],[0]]","5","0","","","","","","6","",""
"","","","","","single-stim-button","334","778375","0.0-3.0-25.10-1.10","589ce4d65e63bf00013b3175","C3","batch3","","1792","","","tol_toboard","","","","","","","","","tol_peg_1","1792","1792","0","[[1,2,0],[3,0],[0]]","11","[[1,0,0],[2,3],[0]]","5","0","","","","","","6","",""
"","","","","","single-stim-button","335","778855","0.0-3.0-25.11-0.11","589ce4d65e63bf00013b3175","C3","batch3","","479","","","tol_tohand","","","","","","","","","tol_peg_2","479","479","0","[[1,2,0],[0,0],[0]]","12","[[1,0,0],[2,3],[0]]","5","0","","","","","","6","",""
"","","","","","single-stim-button","336","779615","0.0-3.0-25.11-1.11","589ce4d65e63bf00013b3175","C3","batch3","","760","","","tol_toboard","","","","","","","","","tol_peg_3","760","760","0","[[1,2,0],[0,0],[3]]","12","[[1,0,0],[2,3],[0]]","5","0","","","","","","6","",""
"","","","","","single-stim-button","337","780295","0.0-3.0-25.12-0.12","589ce4d65e63bf00013b3175","C3","batch3","","679","","","tol_tohand","","","","","","","","","tol_peg_1","679","679","0","[[1,0,0],[0,0],[3]]","13","[[1,0,0],[2,3],[0]]","5","0","","","","","","6","",""
"","","","","","single-stim-button","338","781063","0.0-3.0-25.12-1.12","589ce4d65e63bf00013b3175","C3","batch3","","767","","","tol_toboard","","","","","","","","","tol_peg_2","767","767","0","[[1,0,0],[2,0],[3]]","13","[[1,0,0],[2,3],[0]]","5","0","","","","","","6","",""
"","","","","","single-stim-button","339","781574","0.0-3.0-25.13-0.13","589ce4d65e63bf00013b3175","C3","batch3","","511","","","tol_tohand","","","","","","","","","tol_peg_3","511","511","0","[[1,0,0],[2,0],[0]]","14","[[1,0,0],[2,3],[0]]","5","0","","","","","","6","",""
"","","","","","single-stim-button","340","782071","0.0-3.0-25.13-1.13","589ce4d65e63bf00013b3175","C3","batch3","","495","","","tol_toboard","","","","","","","","","tol_peg_2","495","495","0","[[1,0,0],[2,3],[0]]","14","[[1,0,0],[2,3],[0]]","5","0","","","","","","6","",""
"","","","","","poldrack-single-stim","341","783081","0.0-3.0-26.0","589ce4d65e63bf00013b3175","C3","batch3","","-1","","","tol_feedback","true","","","","","","","","","1000","1000","500","","","","","","-1","none","true","5015","16326","","",""
"","","","","","html-button-response","342","783799","0.0-3.0-27.0","589ce4d65e63bf00013b3175","C3","batch3","","716.7000000476837","<div class = centerbox><p class = center-block-text>problem <strong>7</strong> out of 25 problems</p></div>","0","tol_trial_num","","","","","","","","","","","","","","","","","","","","","","","","",""
"","","","","","single-stim-button","343","787207","0.0-3.0-28.0-0.0","589ce4d65e63bf00013b3175","C3","batch3","","3408","","","tol_tohand","","","","","","","","","tol_peg_1","3408","3408","0","[[2,0,0],[0,0],[3]]","1","[[1,2,0],[3,0],[0]]","6","0","","","","","","5","",""
"","","","","","single-stim-button","344","787991","0.0-3.0-28.0-1.0","589ce4d65e63bf00013b3175","C3","batch3","","784","","","tol_toboard","","","","","","","","","tol_peg_2","784","784","0","[[2,0,0],[1,0],[3]]","1","[[1,2,0],[3,0],[0]]","6","0","","","","","","5","",""
"","","","","","single-stim-button","345","788511","0.0-3.0-28.1-0.1","589ce4d65e63bf00013b3175","C3","batch3","","520","","","tol_tohand","","","","","","","","","tol_peg_1","520","520","0","[[0,0,0],[1,0],[3]]","2","[[1,2,0],[3,0],[0]]","6","0","","","","","","5","",""
"","","","","","single-stim-button","346","789055","0.0-3.0-28.1-1.1","589ce4d65e63bf00013b3175","C3","batch3","","543","","","tol_toboard","","","","","","","","","tol_peg_2","543","543","0","[[0,0,0],[1,2],[3]]","2","[[1,2,0],[3,0],[0]]","6","0","","","","","","5","",""
"","","","","","single-stim-button","347","789959","0.0-3.0-28.2-0.2","589ce4d65e63bf00013b3175","C3","batch3","","904","","","tol_tohand","","","","","","","","","tol_peg_3","904","904","0","[[0,0,0],[1,2],[0]]","3","[[1,2,0],[3,0],[0]]","6","0","","","","","","5","",""
"","","","","","single-stim-button","348","792119","0.0-3.0-28.2-1.2","589ce4d65e63bf00013b3175","C3","batch3","","2159","","","tol_toboard","","","","","","","","","tol_peg_1","2159","2159","0","[[3,0,0],[1,2],[0]]","3","[[1,2,0],[3,0],[0]]","6","0","","","","","","5","",""
