"success","timeout","failed_images","failed_audio","failed_video","trial_type","trial_index","time_elapsed","internal_node_id","subject_id","study_id","session_id","view_history","rt","task","stimulus","response","correct","mouse_click","stim_duration","block_duration","timing_post_trial","current_position","tol_num_moves_made","tol_target","tol_problem_id","tol_rt","key_press","possible_responses","tol_correct","preplanning","tol_rt_per_trial","tol_min_moves","answer","item","fiar_detect_rt","fiar_detect_correct","total_correct_fiar_detect","post_trial_gap","choices","spm_correct","spm_rt"
"true","false","[]","[]","[]","preload","0","15973","0.0-0.0","58ae59babb9e0f0001acb414","A3","batch1","","","","","","","","","","","","","","","","","","","","","","","","","","","","","",""
"true","","","","","fullscreen","1","21101","0.0-1.0-0.0","58ae59babb9e0f0001acb414","A3","batch1","","","","","","","","","","","","","","","","","","","","","","","","","","","","","",""
"true","","","","","fullscreen","2","22889","0.0-2.0-0.0","58ae59babb9e0f0001acb414","A3","batch1","","","","","","","","","","","","","","","","","","","","","","","","","","","","","",""
"","","","","","instructions","3","50987","0.0-2.0-1.0-0.0-0.0","58ae59babb9e0f0001acb414","A3","batch1","[{""page_index"":0,""viewing_time"":3621},{""page_index"":1,""viewing_time"":3339},{""page_index"":2,""viewing_time"":1719},{""page_index"":3,""viewing_time"":6993},{""page_index"":4,""viewing_time"":2438},{""page_index"":5,""viewing_time"":8479},{""page_index"":6,""viewing_time"":1508}]","28098","tol-instructions","","","","","","","","","","","","","","","","","","","","","","","","","","",""
"","","","","","html-button-response","4","51604","0.0-2.0-1.0-1.0-0.0","58ae59babb9e0f0001acb414","A3","batch1","","617","tol_enter_quiz","<p class=block-text> Let's answer a few questions <br>","0","","","","","","","","","","","","","","","","","","","","","","","","",""
"","","","","","html-button-response","5","54806","0.0-2.0-1.0-1.0-1.0","58ae59babb9e0f0001acb414","A3","batch1","","3200","tol_quiz","<p class = block-text>True or False: You can only move the ball on top of a peg. <br></p>","0","true","","","","","","","","","","","","","","","","","","","","","","","",""
"","","","","","html-button-response","6","55365","0.0-2.0-1.0-1.0-2.0","58ae59babb9e0f0001acb414","A3","batch1","","559","tol_quiz_feedback","<p class = block-text>Correct! You can only move the ball on top of a peg.</p>","0","","","","","","","","","","","","","","","","","","","","","","","","",""
"","","","","","html-button-response","7","56932","0.0-2.0-1.0-1.0-3.0","58ae59babb9e0f0001acb414","A3","batch1","","1565","tol_quiz","<p class = block-text>True or False: You should try to match your board with the target board with fewest moves possible. <br></p>","0","true","","","","","","","","","","","","","","","","","","","","","","","",""
"","","","","","html-button-response","8","57284","0.0-2.0-1.0-1.0-4.0","58ae59babb9e0f0001acb414","A3","batch1","","352","tol_quiz_feedback","<p class = block-text>Correct! </p>","0","","","","","","","","","","","","","","","","","","","","","","","","",""
"","","","","","html-button-response","9","58002","0.0-2.0-2.0","58ae59babb9e0f0001acb414","A3","batch1","","717","","<p class=block-text> Now that you've understood the game, let's practice a few easier examples before we start!<br> <br>","0","","","","","","","","","","","","","","","","","","","","","","","","",""
"","","","","","single-stim-button","10","59913","0.0-2.0-3.0-0.0","58ae59babb9e0f0001acb414","A3","batch1","","1910","tol_practice","","","","tol_peg_2","1910","1910","0","[[1,2,0],[0,0],[0]]","1","[[1,2,0],[0,0],[3]]","practice","1910","","","","","","","","","","","","","","",""
"","","","","","single-stim-button","11","60791","0.0-2.0-3.0-1.0","58ae59babb9e0f0001acb414","A3","batch1","","877","tol_practice","","","","tol_peg_3","877","877","0","[[1,2,0],[0,0],[3]]","1","[[1,2,0],[0,0],[3]]","practice","877","","","","","","","","","","","","","","",""
"","","","","","poldrack-single-stim","12","61793","0.0-2.0-4.0","58ae59babb9e0f0001acb414","A3","batch1","","-1","tol_feedback","","","true","","1000","1000","500","","","","","","-1","none","true","","0","","","","","","","","","",""
"","","","","","single-stim-button","13","64059","0.0-2.0-5.0-0.0","58ae59babb9e0f0001acb414","A3","batch1","","2266","tol_practice","","","","tol_peg_1","2266","2266","0","[[1,0,0],[3,0],[0]]","2","[[0,0,0],[3,1],[2]]","practice","2266","","","","","","","","","","","","","","",""
"","","","","","single-stim-button","14","64797","0.0-2.0-5.0-1.0","58ae59babb9e0f0001acb414","A3","batch1","","737","tol_practice","","","","tol_peg_3","737","737","0","[[1,0,0],[3,0],[2]]","2","[[0,0,0],[3,1],[2]]","practice","737","","","","","","","","","","","","","","",""
"","","","","","single-stim-button","15","66264","0.0-2.0-5.1-0.1","58ae59babb9e0f0001acb414","A3","batch1","","1466","tol_practice","","","","tol_peg_1","1466","1466","0","[[0,0,0],[3,0],[2]]","3","[[0,0,0],[3,1],[2]]","practice","1466","","","","","","","","","","","","","","",""
"","","","","","single-stim-button","16","66721","0.0-2.0-5.1-1.1","58ae59babb9e0f0001acb414","A3","batch1","","456","tol_practice","","","","tol_peg_2","456","456","0","[[0,0,0],[3,1],[2]]","3","[[0,0,0],[3,1],[2]]","practice","456","","","","","","","","","","","","","","",""
"","","","","","poldrack-single-stim","17","67721","0.0-2.0-6.0","58ae59babb9e0f0001acb414","A3","batch1","","-1","tol_feedback","","","true","","1000","1000","500","","","","","","-1","none","true","","0","","","","","","","","","",""
"","","","","","single-stim-button","18","69522","0.0-2.0-7.0-0.0","58ae59babb9e0f0001acb414","A3","batch1","","1800","tol_practice","","","","tol_peg_2","1800","1800","0","[[1,2,0],[0,0],[0]]","4","[[1,0,0],[2,0],[3]]","practice","1800","","","","","","","","","","","","","","",""
"","","","","","single-stim-button","19","70076","0.0-2.0-7.0-1.0","58ae59babb9e0f0001acb414","A3","batch1","","554","tol_practice","","","","tol_peg_3","554","554","0","[[1,2,0],[0,0],[3]]","4","[[1,0,0],[2,0],[3]]","practice","554","","","","","","","","","","","","","","",""
"","","","","","single-stim-button","20","70688","0.0-2.0-7.1-0.1","58ae59babb9e0f0001acb414","A3","batch1","","611","tol_practice","","","","tol_peg_1","611","611","0","[[1,0,0],[0,0],[3]]","5","[[1,0,0],[2,0],[3]]","practice","611","","","","","","","","","","","","","","",""
"","","","","","single-stim-button","21","71213","0.0-2.0-7.1-1.1","58ae59babb9e0f0001acb414","A3","batch1","","525","tol_practice","","","","tol_peg_2","525","525","0","[[1,0,0],[2,0],[3]]","5","[[1,0,0],[2,0],[3]]","practice","525","","","","","","","","","","","","","","",""
"","","","","","poldrack-single-stim","22","72213","0.0-2.0-8.0","58ae59babb9e0f0001acb414","A3","batch1","","-1","tol_feedback","","","true","","1000","1000","500","","","","","","-1","none","true","","0","","","","","","","","","",""
"","","","","","html-button-response","23","73004","0.0-2.0-9.0","58ae59babb9e0f0001acb414","A3","batch1","","789","tol_instruction","<div class = centerbox><p class = center-block-text>Great job! You are done with practice trials<br>You are about to start official trials.<br> <br> Problem <strong>1</strong> out of 25 problems</p></div>","0","","","","","","","","","","","","","","","","","","","","","","","","",""
"","","","","","single-stim-button","24","77845","0.0-2.0-10.0-0.0","58ae59babb9e0f0001acb414","A3","batch1","","3840","tol_tohand","","","","tol_peg_2","3840","3840","0","[[1,2,0],[0,0],[0]]","1","[[1,3,0],[2,0],[0]]","0","0","","","","","","3","","","","","","","","",""
"","","","","","single-stim-button","25","78336","0.0-2.0-10.0-1.0","58ae59babb9e0f0001acb414","A3","batch1","","490","tol_toboard","","","","tol_peg_3","490","490","0","[[1,2,0],[0,0],[3]]","1","[[1,3,0],[2,0],[0]]","0","0","","","","","","3","","","","","","","","",""
"","","","","","single-stim-button","26","78837","0.0-2.0-10.1-0.1","58ae59babb9e0f0001acb414","A3","batch1","","500","tol_tohand","","","","tol_peg_1","500","500","0","[[1,0,0],[0,0],[3]]","2","[[1,3,0],[2,0],[0]]","0","0","","","","","","3","","","","","","","","",""
"","","","","","single-stim-button","27","79268","0.0-2.0-10.1-1.1","58ae59babb9e0f0001acb414","A3","batch1","","431","tol_toboard","","","","tol_peg_2","431","431","0","[[1,0,0],[2,0],[3]]","2","[[1,3,0],[2,0],[0]]","0","0","","","","","","3","","","","","","","","",""
"","","","","","single-stim-button","28","79818","0.0-2.0-10.2-0.2","58ae59babb9e0f0001acb414","A3","batch1","","549","tol_tohand","","","","tol_peg_3","549","549","0","[[1,0,0],[2,0],[0]]","3","[[1,3,0],[2,0],[0]]","0","0","","","","","","3","","","","","","","","",""
"","","","","","single-stim-button","29","80379","0.0-2.0-10.2-1.2","58ae59babb9e0f0001acb414","A3","batch1","","560","tol_toboard","","","","tol_peg_1","560","560","0","[[1,3,0],[2,0],[0]]","3","[[1,3,0],[2,0],[0]]","0","0","","","","","","3","","","","","","","","",""
"","","","","","poldrack-single-stim","30","81386","0.0-2.0-11.0","58ae59babb9e0f0001acb414","A3","batch1","","-1","tol_feedback","","","true","","1000","1000","500","","","","","","-1","none","true","3840","4889","","","","","","","","","",""
"","","","","","html-button-response","31","82001","0.0-2.0-12.0","58ae59babb9e0f0001acb414","A3","batch1","","615","tol_trial_num","<div class = centerbox><p class = center-block-text>problem <strong>2</strong> out of 25 problems</p></div>","0","","","","","","","","","","","","","","","","","","","","","","","","",""
"","","","","","single-stim-button","32","89518","0.0-2.0-13.0-0.0","58ae59babb9e0f0001acb414","A3","batch1","","7516","tol_tohand","","","","tol_peg_1","7516","7516","0","[[1,0,0],[3,0],[0]]","1","[[2,1,3],[0,0],[0]]","1","0","","","","","","5","","","","","","","","",""
"","","","","","single-stim-button","33","90111","0.0-2.0-13.0-1.0","58ae59babb9e0f0001acb414","A3","batch1","","593","tol_toboard","","","","tol_peg_3","593","593","0","[[1,0,0],[3,0],[2]]","1","[[2,1,3],[0,0],[0]]","1","0","","","","","","5","","","","","","","","",""
"","","","","","single-stim-button","34","90466","0.0-2.0-13.1-0.1","58ae59babb9e0f0001acb414","A3","batch1","","354","tol_tohand","","","","tol_peg_1","354","354","0","[[0,0,0],[3,0],[2]]","2","[[2,1,3],[0,0],[0]]","1","0","","","","","","5","","","","","","","","",""
"","","","","","single-stim-button","35","90816","0.0-2.0-13.1-1.1","58ae59babb9e0f0001acb414","A3","batch1","","349","tol_toboard","","","","tol_peg_2","349","349","0","[[0,0,0],[3,1],[2]]","2","[[2,1,3],[0,0],[0]]","1","0","","","","","","5","","","","","","","","",""
"","","","","","single-stim-button","36","91131","0.0-2.0-13.2-0.2","58ae59babb9e0f0001acb414","A3","batch1","","314","tol_tohand","","","","tol_peg_3","314","314","0","[[0,0,0],[3,1],[0]]","3","[[2,1,3],[0,0],[0]]","1","0","","","","","","5","","","","","","","","",""
"","","","","","single-stim-button","37","91660","0.0-2.0-13.2-1.2","58ae59babb9e0f0001acb414","A3","batch1","","529","tol_toboard","","","","tol_peg_1","529","529","0","[[2,0,0],[3,1],[0]]","3","[[2,1,3],[0,0],[0]]","1","0","","","","","","5","","","","","","","","",""
"","","","","","single-stim-button","38","91989","0.0-2.0-13.3-0.3","58ae59babb9e0f0001acb414","A3","batch1","","328","tol_tohand","","","","tol_peg_2","328","328","0","[[2,0,0],[3,0],[0]]","4","[[2,1,3],[0,0],[0]]","1","0","","","","","","5","","","","","","","","",""
"","","","","","single-stim-button","39","92432","0.0-2.0-13.3-1.3","58ae59babb9e0f0001acb414","A3","batch1","","443","tol_toboard","","","","tol_peg_1","443","443","0","[[2,1,0],[3,0],[0]]","4","[[2,1,3],[0,0],[0]]","1","0","","","","","","5","","","","","","","","",""
"","","","","","single-stim-button","40","92792","0.0-2.0-13.4-0.4","58ae59babb9e0f0001acb414","A3","batch1","","360","tol_tohand","","","","tol_peg_2","360","360","0","[[2,1,0],[0,0],[0]]","5","[[2,1,3],[0,0],[0]]","1","0","","","","","","5","","","","","","","","",""
"","","","","","single-stim-button","41","93115","0.0-2.0-13.4-1.4","58ae59babb9e0f0001acb414","A3","batch1","","321","tol_toboard","","","","tol_peg_1","321","321","0","[[2,1,3],[0,0],[0]]","5","[[2,1,3],[0,0],[0]]","1","0","","","","","","5","","","","","","","","",""
"","","","","","poldrack-single-stim","42","94115","0.0-2.0-14.0","58ae59babb9e0f0001acb414","A3","batch1","","-1","tol_feedback","","","true","","1000","1000","500","","","","","","-1","none","true","7516","8872","","","","","","","","","",""
"","","","","","html-button-response","43","94832","0.0-2.0-15.0","58ae59babb9e0f0001acb414","A3","batch1","","716","tol_trial_num","<div class = centerbox><p class = center-block-text>problem <strong>3</strong> out of 25 problems</p></div>","0","","","","","","","","","","","","","","","","","","","","","","","","",""
"","","","","","single-stim-button","44","99290","0.0-2.0-16.0-0.0","58ae59babb9e0f0001acb414","A3","batch1","","4457","tol_tohand","","","","tol_peg_1","4457","4457","0","[[2,0,0],[0,0],[1]]","1","[[1,2,0],[3,0],[0]]","2","0","","","","","","4","","","","","","","","",""
"","","","","","single-stim-button","45","99835","0.0-2.0-16.0-1.0","58ae59babb9e0f0001acb414","A3","batch1","","544","tol_toboard","","","","tol_peg_2","544","544","0","[[2,0,0],[3,0],[1]]","1","[[1,2,0],[3,0],[0]]","2","0","","","","","","4","","","","","","","","",""
"","","","","","single-stim-button","46","104108","0.0-2.0-16.1-0.1","58ae59babb9e0f0001acb414","A3","batch1","","4273","tol_tohand","","","","tol_peg_1","4273","4273","0","[[0,0,0],[3,0],[1]]","2","[[1,2,0],[3,0],[0]]","2","0","","","","","","4","","","","","","","","",""
"","","","","","single-stim-button","47","105692","0.0-2.0-16.1-1.1","58ae59babb9e0f0001acb414","A3","batch1","","1583","tol_toboard","","","","tol_peg_2","1583","1583","0","[[0,0,0],[3,2],[1]]","2","[[1,2,0],[3,0],[0]]","2","0","","","","","","4","","","","","","","","",""
"","","","","","single-stim-button","48","106042","0.0-2.0-16.2-0.2","58ae59babb9e0f0001acb414","A3","batch1","","350","tol_tohand","","","","tol_peg_3","350","350","0","[[0,0,0],[3,2],[0]]","3","[[1,2,0],[3,0],[0]]","2","0","","","","","","4","","","","","","","","",""
"","","","","","single-stim-button","49","106587","0.0-2.0-16.2-1.2","58ae59babb9e0f0001acb414","A3","batch1","","545","tol_toboard","","","","tol_peg_1","545","545","0","[[1,0,0],[3,2],[0]]","3","[[1,2,0],[3,0],[0]]","2","0","","","","","","4","","","","","","","","",""
"","","","","","single-stim-button","50","106957","0.0-2.0-16.3-0.3","58ae59babb9e0f0001acb414","A3","batch1","","370","tol_tohand","","","","tol_peg_2","370","370","0","[[1,0,0],[3,0],[0]]","4","[[1,2,0],[3,0],[0]]","2","0","","","","","","4","","","","","","","","",""
"","","","","","single-stim-button","51","107281","0.0-2.0-16.3-1.3","58ae59babb9e0f0001acb414","A3","batch1","","324","tol_toboard","","","","tol_peg_1","324","324","0","[[1,2,0],[3,0],[0]]","4","[[1,2,0],[3,0],[0]]","2","0","","","","","","4","","","","","","","","",""
"","","","","","poldrack-single-stim","52","108283","0.0-2.0-17.0","58ae59babb9e0f0001acb414","A3","batch1","","-1","tol_feedback","","","true","","1000","1000","500","","","","","","-1","none","true","4457","9450","","","","","","","","","",""
"","","","","","html-button-response","53","109070","0.0-2.0-18.0","58ae59babb9e0f0001acb414","A3","batch1","","786","tol_trial_num","<div class = centerbox><p class = center-block-text>problem <strong>4</strong> out of 25 problems</p></div>","0","","","","","","","","","","","","","","","","","","","","","","","","",""
"","","","","","single-stim-button","54","112909","0.0-2.0-19.0-0.0","58ae59babb9e0f0001acb414","A3","batch1","","3839","tol_tohand","","","","tol_peg_2","3839","3839","0","[[3,0,0],[2,0],[0]]","1","[[3,0,0],[1,0],[2]]","3","0","","","","","","3","","","","","","","","",""
"","","","","","single-stim-button","55","113695","0.0-2.0-19.0-1.0","58ae59babb9e0f0001acb414","A3","batch1","","786","tol_toboard","","","","tol_peg_1","786","786","0","[[3,1,0],[2,0],[0]]","1","[[3,0,0],[1,0],[2]]","3","0","","","","","","3","","","","","","","","",""
"","","","","","single-stim-button","56","114145","0.0-2.0-19.1-0.1","58ae59babb9e0f0001acb414","A3","batch1","","448","tol_tohand","","","","tol_peg_2","448","448","0","[[3,1,0],[0,0],[0]]","2","[[3,0,0],[1,0],[2]]","3","0","","","","","","3","","","","","","","","",""
"","","","","","single-stim-button","57","114791","0.0-2.0-19.1-1.1","58ae59babb9e0f0001acb414","A3","batch1","","645","tol_toboard","","","","tol_peg_3","645","645","0","[[3,1,0],[0,0],[2]]","2","[[3,0,0],[1,0],[2]]","3","0","","","","","","3","","","","","","","","",""
"","","","","","single-stim-button","58","115236","0.0-2.0-19.2-0.2","58ae59babb9e0f0001acb414","A3","batch1","","445","tol_tohand","","","","tol_peg_1","445","445","0","[[3,0,0],[0,0],[2]]","3","[[3,0,0],[1,0],[2]]","3","0","","","","","","3","","","","","","","","",""
"","","","","","single-stim-button","59","115604","0.0-2.0-19.2-1.2","58ae59babb9e0f0001acb414","A3","batch1","","368","tol_toboard","","","","tol_peg_2","368","368","0","[[3,0,0],[1,0],[2]]","3","[[3,0,0],[1,0],[2]]","3","0","","","","","","3","","","","","","","","",""
"","","","","","poldrack-single-stim","60","116614","0.0-2.0-20.0","58ae59babb9e0f0001acb414","A3","batch1","","-1","tol_feedback","","","true","","1000","1000","500","","","","","","-1","none","true","3839","4732","","","","","","","","","",""
"","","","","","html-button-response","61","117526","0.0-2.0-21.0","58ae59babb9e0f0001acb414","A3","batch1","","911","tol_trial_num","<div class = centerbox><p class = center-block-text>problem <strong>5</strong> out of 25 problems</p></div>","0","","","","","","","","","","","","","","","","","","","","","","","","",""
"","","","","","single-stim-button","62","139713","0.0-2.0-22.0-0.0","58ae59babb9e0f0001acb414","A3","batch1","","22187","tol_tohand","","","","tol_peg_3","22187","22187","0","[[1,0,0],[2,0],[0]]","1","[[0,0,0],[1,2],[3]]","4","0","","","","","","7","","","","","","","","",""
"","","","","","single-stim-button","63","140319","0.0-2.0-22.0-1.0","58ae59babb9e0f0001acb414","A3","batch1","","605","tol_toboard","","","","tol_peg_1","605","605","0","[[1,3,0],[2,0],[0]]","1","[[0,0,0],[1,2],[3]]","4","0","","","","","","7","","","","","","","","",""
"","","","","","single-stim-button","64","140907","0.0-2.0-22.1-0.1","58ae59babb9e0f0001acb414","A3","batch1","","587","tol_tohand","","","","tol_peg_2","587","587","0","[[1,3,0],[0,0],[0]]","2","[[0,0,0],[1,2],[3]]","4","0","","","","","","7","","","","","","","","",""
"","","","","","single-stim-button","65","141511","0.0-2.0-22.1-1.1","58ae59babb9e0f0001acb414","A3","batch1","","604","tol_toboard","","","","tol_peg_3","604","604","0","[[1,3,0],[0,0],[2]]","2","[[0,0,0],[1,2],[3]]","4","0","","","","","","7","","","","","","","","",""
"","","","","","single-stim-button","66","144216","0.0-2.0-22.2-0.2","58ae59babb9e0f0001acb414","A3","batch1","","2705","tol_tohand","","","","tol_peg_1","2705","2705","0","[[1,0,0],[0,0],[2]]","3","[[0,0,0],[1,2],[3]]","4","0","","","","","","7","","","","","","","","",""
"","","","","","single-stim-button","67","145950","0.0-2.0-22.2-1.2","58ae59babb9e0f0001acb414","A3","batch1","","1734","tol_toboard","","","","tol_peg_2","1734","1734","0","[[1,0,0],[3,0],[2]]","3","[[0,0,0],[1,2],[3]]","4","0","","","","","","7","","","","","","","","",""
"","","","","","single-stim-button","68","146499","0.0-2.0-22.3-0.3","58ae59babb9e0f0001acb414","A3","batch1","","547","tol_tohand","","","","tol_peg_1","547","547","0","[[0,0,0],[3,0],[2]]","4","[[0,0,0],[1,2],[3]]","4","0","","","","","","7","","","","","","","","",""
"","","","","","single-stim-button","69","147418","0.0-2.0-22.3-1.3","58ae59babb9e0f0001acb414","A3","batch1","","919","tol_toboard","","","","tol_peg_2","919","919","0","[[0,0,0],[3,1],[2]]","4","[[0,0,0],[1,2],[3]]","4","0","","","","","","7","","","","","","","","",""
"","","","","","single-stim-button","70","148451","0.0-2.0-22.4-0.4","58ae59babb9e0f0001acb414","A3","batch1","","1032","tol_tohand","","","","tol_peg_2","1032","1032","0","[[0,0,0],[3,0],[2]]","5","[[0,0,0],[1,2],[3]]","4","0","","","","","","7","","","","","","","","",""
"","","","","","single-stim-button","71","149527","0.0-2.0-22.4-1.4","58ae59babb9e0f0001acb414","A3","batch1","","1076","tol_toboard","","","","tol_peg_1","1076","1076","0","[[1,0,0],[3,0],[2]]","5","[[0,0,0],[1,2],[3]]","4","0","","","","","","7","","","","","","","","",""
"","","","","","single-stim-button","72","150954","0.0-2.0-22.5-0.5","58ae59babb9e0f0001acb414","A3","batch1","","1427","tol_tohand","","","","tol_peg_3","1427","1427","0","[[1,0,0],[3,0],[0]]","6","[[0,0,0],[1,2],[3]]","4","0","","","","","","7","","","","","","","","",""
"","","","","","single-stim-button","73","151586","0.0-2.0-22.5-1.5","58ae59babb9e0f0001acb414","A3","batch1","","632","tol_toboard","","","","tol_peg_1","632","632","0","[[1,2,0],[3,0],[0]]","6","[[0,0,0],[1,2],[3]]","4","0","","","","","","7","","","","","","","","",""
"","","","","","single-stim-button","74","153289","0.0-2.0-22.6-0.6","58ae59babb9e0f0001acb414","A3","batch1","","1701","tol_tohand","","","","tol_peg_2","1701","1701","0","[[1,2,0],[0,0],[0]]","7","[[0,0,0],[1,2],[3]]","4","0","","","","","","7","","","","","","","","",""
"","","","","","single-stim-button","75","153830","0.0-2.0-22.6-1.6","58ae59babb9e0f0001acb414","A3","batch1","","541","tol_toboard","","","","tol_peg_3","541","541","0","[[1,2,0],[0,0],[3]]","7","[[0,0,0],[1,2],[3]]","4","0","","","","","","7","","","","","","","","",""
"","","","","","single-stim-button","76","155683","0.0-2.0-22.7-0.7","58ae59babb9e0f0001acb414","A3","batch1","","1852","tol_tohand","","","","tol_peg_3","1852","1852","0","[[1,2,0],[0,0],[0]]","8","[[0,0,0],[1,2],[3]]","4","0","","","","","","7","","","","","","","","",""
"","","","","","single-stim-button","77","156470","0.0-2.0-22.7-1.7","58ae59babb9e0f0001acb414","A3","batch1","","786","tol_toboard","","","","tol_peg_1","786","786","0","[[1,2,3],[0,0],[0]]","8","[[0,0,0],[1,2],[3]]","4","0","","","","","","7","","","","","","","","",""
"","","","","","single-stim-button","78","156917","0.0-2.0-22.8-0.8","58ae59babb9e0f0001acb414","A3","batch1","","446","tol_tohand","","","","tol_peg_1","446","446","0","[[1,2,0],[0,0],[0]]","9","[[0,0,0],[1,2],[3]]","4","0","","","","","","7","","","","","","","","",""
"","","","","","single-stim-button","79","157584","0.0-2.0-22.8-1.8","58ae59babb9e0f0001acb414","A3","batch1","","667","tol_toboard","","","","tol_peg_2","667","667","0","[[1,2,0],[3,0],[0]]","9","[[0,0,0],[1,2],[3]]","4","0","","","","","","7","","","","","","","","",""
"","","","","","single-stim-button","80","158048","0.0-2.0-22.9-0.9","58ae59babb9e0f0001acb414","A3","batch1","","463","tol_tohand","","","","tol_peg_1","463","463","0","[[1,0,0],[3,0],[0]]","10","[[0,0,0],[1,2],[3]]","4","0","","","","","","7","","","","","","","","",""
"","","","","","single-stim-button","81","158899","0.0-2.0-22.9-1.9","58ae59babb9e0f0001acb414","A3","batch1","","851","tol_toboard","","","","tol_peg_3","851","851","0","[[1,0,0],[3,0],[2]]","10","[[0,0,0],[1,2],[3]]","4","0","","","","","","7","","","","","","","","",""
"","","","","","single-stim-button","82","160484","0.0-2.0-22.10-0.10","58ae59babb9e0f0001acb414","A3","batch1","","1584","tol_tohand","","","","tol_peg_2","1584","1584","0","[[1,0,0],[0,0],[2]]","11","[[0,0,0],[1,2],[3]]","4","0","","","","","","7","","","","","","","","",""
"","","","","","single-stim-button","83","162068","0.0-2.0-22.10-1.10","58ae59babb9e0f0001acb414","A3","batch1","","1584","tol_toboard","","","","tol_peg_2","1584","1584","0","[[1,0,0],[3,0],[2]]","11","[[0,0,0],[1,2],[3]]","4","0","","","","","","7","","","","","","","","",""
"","","","","","single-stim-button","84","162444","0.0-2.0-22.11-0.11","58ae59babb9e0f0001acb414","A3","batch1","","375","tol_tohand","","","","tol_peg_1","375","375","0","[[0,0,0],[3,0],[2]]","12","[[0,0,0],[1,2],[3]]","4","0","","","","","","7","","","","","","","","",""
"","","","","","single-stim-button","85","162898","0.0-2.0-22.11-1.11","58ae59babb9e0f0001acb414","A3","batch1","","453","tol_toboard","","","","tol_peg_2","453","453","0","[[0,0,0],[3,1],[2]]","12","[[0,0,0],[1,2],[3]]","4","0","","","","","","7","","","","","","","","",""
"","","","","","single-stim-button","86","164780","0.0-2.0-22.12-0.12","58ae59babb9e0f0001acb414","A3","batch1","","1882","tol_tohand","","","","tol_peg_3","1882","1882","0","[[0,0,0],[3,1],[0]]","13","[[0,0,0],[1,2],[3]]","4","0","","","","","","7","","","","","","","","",""
"","","","","","single-stim-button","87","165282","0.0-2.0-22.12-1.12","58ae59babb9e0f0001acb414","A3","batch1","","501","tol_toboard","","","","tol_peg_1","501","501","0","[[2,0,0],[3,1],[0]]","13","[[0,0,0],[1,2],[3]]","4","0","","","","","","7","","","","","","","","",""
"","","","","","single-stim-button","88","165794","0.0-2.0-22.13-0.13","58ae59babb9e0f0001acb414","A3","batch1","","512","tol_tohand","","","","tol_peg_2","512","512","0","[[2,0,0],[3,0],[0]]","14","[[0,0,0],[1,2],[3]]","4","0","","","","","","7","","","","","","","","",""
"","","","","","single-stim-button","89","166332","0.0-2.0-22.13-1.13","58ae59babb9e0f0001acb414","A3","batch1","","537","tol_toboard","","","","tol_peg_3","537","537","0","[[2,0,0],[3,0],[1]]","14","[[0,0,0],[1,2],[3]]","4","0","","","","","","7","","","","","","","","",""
"","","","","","single-stim-button","90","166793","0.0-2.0-22.14-0.14","58ae59babb9e0f0001acb414","A3","batch1","","460","tol_tohand","","","","tol_peg_2","460","460","0","[[2,0,0],[0,0],[1]]","15","[[0,0,0],[1,2],[3]]","4","0","","","","","","7","","","","","","","","",""
"","","","","","single-stim-button","91","168455","0.0-2.0-22.14-1.14","58ae59babb9e0f0001acb414","A3","batch1","","1662","tol_toboard","","","","tol_peg_1","1662","1662","0","[[2,3,0],[0,0],[1]]","15","[[0,0,0],[1,2],[3]]","4","0","","","","","","7","","","","","","","","",""
"","","","","","single-stim-button","92","168920","0.0-2.0-22.15-0.15","58ae59babb9e0f0001acb414","A3","batch1","","465","tol_tohand","","","","tol_peg_3","465","465","0","[[2,3,0],[0,0],[0]]","16","[[0,0,0],[1,2],[3]]","4","0","","","","","","7","","","","","","","","",""
"","","","","","single-stim-button","93","169507","0.0-2.0-22.15-1.15","58ae59babb9e0f0001acb414","A3","batch1","","586","tol_toboard","","","","tol_peg_2","586","586","0","[[2,3,0],[1,0],[0]]","16","[[0,0,0],[1,2],[3]]","4","0","","","","","","7","","","","","","","","",""
"","","","","","single-stim-button","94","169957","0.0-2.0-22.16-0.16","58ae59babb9e0f0001acb414","A3","batch1","","450","tol_tohand","","","","tol_peg_1","450","450","0","[[2,0,0],[1,0],[0]]","17","[[0,0,0],[1,2],[3]]","4","0","","","","","","7","","","","","","","","",""
"","","","","","single-stim-button","95","170434","0.0-2.0-22.16-1.16","58ae59babb9e0f0001acb414","A3","batch1","","477","tol_toboard","","","","tol_peg_3","477","477","0","[[2,0,0],[1,0],[3]]","17","[[0,0,0],[1,2],[3]]","4","0","","","","","","7","","","","","","","","",""
"","","","","","single-stim-button","96","170801","0.0-2.0-22.17-0.17","58ae59babb9e0f0001acb414","A3","batch1","","366","tol_tohand","","","","tol_peg_1","366","366","0","[[0,0,0],[1,0],[3]]","18","[[0,0,0],[1,2],[3]]","4","0","","","","","","7","","","","","","","","",""
"","","","","","single-stim-button","97","171050","0.0-2.0-22.17-1.17","58ae59babb9e0f0001acb414","A3","batch1","","248","tol_toboard","","","","tol_peg_2","248","248","0","[[0,0,0],[1,2],[3]]","18","[[0,0,0],[1,2],[3]]","4","0","","","","","","7","","","","","","","","",""
"","","","","","poldrack-single-stim","98","172059","0.0-2.0-23.0","58ae59babb9e0f0001acb414","A3","batch1","","-1","tol_feedback","","","true","","1000","1000","500","","","","","","-1","none","true","22187","39041","","","","","","","","","",""
"","","","","","html-button-response","99","172589","0.0-2.0-24.0","58ae59babb9e0f0001acb414","A3","batch1","","529","tol_trial_num","<div class = centerbox><p class = center-block-text>problem <strong>6</strong> out of 25 problems</p></div>","0","","","","","","","","","","","","","","","","","","","","","","","","",""
"","","","","","single-stim-button","100","177417","0.0-2.0-25.0-0.0","58ae59babb9e0f0001acb414","A3","batch1","","4827","tol_tohand","","","","tol_peg_3","4827","4827","0","[[0,0,0],[1,2],[0]]","1","[[1,0,0],[2,3],[0]]","5","0","","","","","","6","","","","","","","","",""
"","","","","","single-stim-button","101","178061","0.0-2.0-25.0-1.0","58ae59babb9e0f0001acb414","A3","batch1","","643","tol_toboard","","","","tol_peg_1","643","643","0","[[3,0,0],[1,2],[0]]","1","[[1,0,0],[2,3],[0]]","5","0","","","","","","6","","","","","","","","",""
"","","","","","single-stim-button","102","178618","0.0-2.0-25.1-0.1","58ae59babb9e0f0001acb414","A3","batch1","","557","tol_tohand","","","","tol_peg_2","557","557","0","[[3,0,0],[1,0],[0]]","2","[[1,0,0],[2,3],[0]]","5","0","","","","","","6","","","","","","","","",""
"","","","","","single-stim-button","103","179592","0.0-2.0-25.1-1.1","58ae59babb9e0f0001acb414","A3","batch1","","973","tol_toboard","","","","tol_peg_1","973","973","0","[[3,2,0],[1,0],[0]]","2","[[1,0,0],[2,3],[0]]","5","0","","","","","","6","","","","","","","","",""
"","","","","","single-stim-button","104","180121","0.0-2.0-25.2-0.2","58ae59babb9e0f0001acb414","A3","batch1","","527","tol_tohand","","","","tol_peg_2","527","527","0","[[3,2,0],[0,0],[0]]","3","[[1,0,0],[2,3],[0]]","5","0","","","","","","6","","","","","","","","",""
"","","","","","single-stim-button","105","181749","0.0-2.0-25.2-1.2","58ae59babb9e0f0001acb414","A3","batch1","","1628","tol_toboard","","","","tol_peg_3","1628","1628","0","[[3,2,0],[0,0],[1]]","3","[[1,0,0],[2,3],[0]]","5","0","","","","","","6","","","","","","","","",""
"","","","","","single-stim-button","106","182484","0.0-2.0-25.3-0.3","58ae59babb9e0f0001acb414","A3","batch1","","735","tol_tohand","","","","tol_peg_1","735","735","0","[[3,0,0],[0,0],[1]]","4","[[1,0,0],[2,3],[0]]","5","0","","","","","","6","","","","","","","","",""
"","","","","","single-stim-button","107","182915","0.0-2.0-25.3-1.3","58ae59babb9e0f0001acb414","A3","batch1","","430","tol_toboard","","","","tol_peg_2","430","430","0","[[3,0,0],[2,0],[1]]","4","[[1,0,0],[2,3],[0]]","5","0","","","","","","6","","","","","","","","",""
"","","","","","single-stim-button","108","183177","0.0-2.0-25.4-0.4","58ae59babb9e0f0001acb414","A3","batch1","","261","tol_tohand","","","","tol_peg_1","261","261","0","[[0,0,0],[2,0],[1]]","5","[[1,0,0],[2,3],[0]]","5","0","","","","","","6","","","","","","","","",""
"","","","","","single-stim-button","109","183432","0.0-2.0-25.4-1.4","58ae59babb9e0f0001acb414","A3","batch1","","254","tol_toboard","","","","tol_peg_2","254","254","0","[[0,0,0],[2,3],[1]]","5","[[1,0,0],[2,3],[0]]","5","0","","","","","","6","","","","","","","","",""
"","","","","","single-stim-button","110","183659","0.0-2.0-25.5-0.5","58ae59babb9e0f0001acb414","A3","batch1","","227","tol_tohand","","","","tol_peg_3","227","227","0","[[0,0,0],[2,3],[0]]","6","[[1,0,0],[2,3],[0]]","5","0","","","","","","6","","","","","","","","",""
"","","","","","single-stim-button","111","184006","0.0-2.0-25.5-1.5","58ae59babb9e0f0001acb414","A3","batch1","","346","tol_toboard","","","","tol_peg_1","346","346","0","[[1,0,0],[2,3],[0]]","6","[[1,0,0],[2,3],[0]]","5","0","","","","","","6","","","","","","","","",""
"","","","","","poldrack-single-stim","112","185008","0.0-2.0-26.0","58ae59babb9e0f0001acb414","A3","batch1","","-1","tol_feedback","","","true","","1000","1000","500","","","","","","-1","none","true","4827","7134","","","","","","","","","",""
"","","","","","html-button-response","113","185400","0.0-2.0-27.0","58ae59babb9e0f0001acb414","A3","batch1","","392","tol_trial_num","<div class = centerbox><p class = center-block-text>problem <strong>7</strong> out of 25 problems</p></div>","0","","","","","","","","","","","","","","","","","","","","","","","","",""
"","","","","","single-stim-button","114","187506","0.0-2.0-28.0-0.0","58ae59babb9e0f0001acb414","A3","batch1","","2105","tol_tohand","","","","tol_peg_3","2105","2105","0","[[2,1,0],[0,0],[0]]","1","[[1,2,0],[3,0],[0]]","6","0","","","","","","5","","","","","","","","",""
"","","","","","single-stim-button","115","188218","0.0-2.0-28.0-1.0","58ae59babb9e0f0001acb414","A3","batch1","","712","tol_toboard","","","","tol_peg_2","712","712","0","[[2,1,0],[3,0],[0]]","1","[[1,2,0],[3,0],[0]]","6","0","","","","","","5","","","","","","","","",""
"","","","","","single-stim-button","116","188573","0.0-2.0-28.1-0.1","58ae59babb9e0f0001acb414","A3","batch1","","354","tol_tohand","","","","tol_peg_1","354","354","0","[[2,0,0],[3,0],[0]]","2","[[1,2,0],[3,0],[0]]","6","0","","","","","","5","","","","","","","","",""
"","","","","","single-stim-button","117","189075","0.0-2.0-28.1-1.1","58ae59babb9e0f0001acb414","A3","batch1","","502","tol_toboard","","","","tol_peg_3","502","502","0","[[2,0,0],[3,0],[1]]","2","[[1,2,0],[3,0],[0]]","6","0","","","","","","5","","","","","","","","",""
"","","","","","single-stim-button","118","190158","0.0-2.0-28.2-0.2","58ae59babb9e0f0001acb414","A3","batch1","","1083","tol_tohand","","","","tol_peg_1","1083","1083","0","[[0,0,0],[3,0],[1]]","3","[[1,2,0],[3,0],[0]]","6","0","","","","","","5","","","","","","","","",""
"","","","","","single-stim-button","119","191010","0.0-2.0-28.2-1.2","58ae59babb9e0f0001acb414","A3","batch1","","852","tol_toboard","","","","tol_peg_2","852","852","0","[[0,0,0],[3,2],[1]]","3","[[1,2,0],[3,0],[0]]","6","0","","","","","","5","","","","","","","","",""
"","","","","","single-stim-button","120","191305","0.0-2.0-28.3-0.3","58ae59babb9e0f0001acb414","A3","batch1","","295","tol_tohand","","","","tol_peg_3","295","295","0","[[0,0,0],[3,2],[0]]","4","[[1,2,0],[3,0],[0]]","6","0","","","","","","5","","","","","","","","",""
"","","","","","single-stim-button","121","191736","0.0-2.0-28.3-1.3","58ae59babb9e0f0001acb414","A3","batch1","","431","tol_toboard","","","","tol_peg_1","431","431","0","[[1,0,0],[3,2],[0]]","4","[[1,2,0],[3,0],[0]]","6","0","","","","","","5","","","","","","","","",""
"","","","","","single-stim-button","122","192382","0.0-2.0-28.4-0.4","58ae59babb9e0f0001acb414","A3","batch1","","646","tol_tohand","","","","tol_peg_2","646","646","0","[[1,0,0],[3,0],[0]]","5","[[1,2,0],[3,0],[0]]","6","0","","","","","","5","","","","","","","","",""
"","","","","","single-stim-button","123","192624","0.0-2.0-28.4-1.4","58ae59babb9e0f0001acb414","A3","batch1","","242","tol_toboard","","","","tol_peg_1","242","242","0","[[1,2,0],[3,0],[0]]","5","[[1,2,0],[3,0],[0]]","6","0","","","","","","5","","","","","","","","",""
"","","","","","poldrack-single-stim","124","193625","0.0-2.0-29.0","58ae59babb9e0f0001acb414","A3","batch1","","-1","tol_feedback","","","true","","1000","1000","500","","","","","","-1","none","true","2105","4483","","","","","","","","","",""
"","","","","","html-button-response","125","194128","0.0-2.0-30.0","58ae59babb9e0f0001acb414","A3","batch1","","503","tol_trial_num","<div class = centerbox><p class = center-block-text>problem <strong>8</strong> out of 25 problems</p></div>","0","","","","","","","","","","","","","","","","","","","","","","","","",""
"","","","","","single-stim-button","126","198188","0.0-2.0-31.0-0.0","58ae59babb9e0f0001acb414","A3","batch1","","4059","tol_tohand","","","","tol_peg_3","4059","4059","0","[[0,0,0],[2,3],[0]]","1","[[1,2,0],[3,0],[0]]","7","0","","","","","","4","","","","","","","","",""
"","","","","","single-stim-button","127","198713","0.0-2.0-31.0-1.0","58ae59babb9e0f0001acb414","A3","batch1","","525","tol_toboard","","","","tol_peg_1","525","525","0","[[1,0,0],[2,3],[0]]","1","[[1,2,0],[3,0],[0]]","7","0","","","","","","4","","","","","","","","",""
"","","","","","single-stim-button","128","199588","0.0-2.0-31.1-0.1","58ae59babb9e0f0001acb414","A3","batch1","","875","tol_tohand","","","","tol_peg_2","875","875","0","[[1,0,0],[2,0],[0]]","2","[[1,2,0],[3,0],[0]]","7","0","","","","","","4","","","","","","","","",""
"","","","","","single-stim-button","129","199941","0.0-2.0-31.1-1.1","58ae59babb9e0f0001acb414","A3","batch1","","353","tol_toboard","","","","tol_peg_3","353","353","0","[[1,0,0],[2,0],[3]]","2","[[1,2,0],[3,0],[0]]","7","0","","","","","","4","","","","","","","","",""
"","","","","","single-stim-button","130","200210","0.0-2.0-31.2-0.2","58ae59babb9e0f0001acb414","A3","batch1","","269","tol_tohand","","","","tol_peg_2","269","269","0","[[1,0,0],[0,0],[3]]","3","[[1,2,0],[3,0],[0]]","7","0","","","","","","4","","","","","","","","",""
"","","","","","single-stim-button","131","200497","0.0-2.0-31.2-1.2","58ae59babb9e0f0001acb414","A3","batch1","","286","tol_toboard","","","","tol_peg_1","286","286","0","[[1,2,0],[0,0],[3]]","3","[[1,2,0],[3,0],[0]]","7","0","","","","","","4","","","","","","","","",""
"","","","","","single-stim-button","132","200994","0.0-2.0-31.3-0.3","58ae59babb9e0f0001acb414","A3","batch1","","497","tol_tohand","","","","tol_peg_3","497","497","0","[[1,2,0],[0,0],[0]]","4","[[1,2,0],[3,0],[0]]","7","0","","","","","","4","","","","","","","","",""
"","","","","","single-stim-button","133","201284","0.0-2.0-31.3-1.3","58ae59babb9e0f0001acb414","A3","batch1","","289","tol_toboard","","","","tol_peg_2","289","289","0","[[1,2,0],[3,0],[0]]","4","[[1,2,0],[3,0],[0]]","7","0","","","","","","4","","","","","","","","",""
"","","","","","poldrack-single-stim","134","202285","0.0-2.0-32.0","58ae59babb9e0f0001acb414","A3","batch1","","-1","tol_feedback","","","true","","1000","1000","500","","","","","","-1","none","true","4059","5700","","","","","","","","","",""
"","","","","","html-button-response","135","202702","0.0-2.0-33.0","58ae59babb9e0f0001acb414","A3","batch1","","418","tol_trial_num","<div class = centerbox><p class = center-block-text>problem <strong>9</strong> out of 25 problems</p></div>","0","","","","","","","","","","","","","","","","","","","","","","","","",""
"","","","","","single-stim-button","136","219937","0.0-2.0-34.0-0.0","58ae59babb9e0f0001acb414","A3","batch1","","17234","tol_tohand","","","","tol_peg_1","17234","17234","0","[[3,0,0],[0,0],[1]]","1","[[2,1,0],[3,0],[0]]","8","0","","","","","","6","","","","","","","","",""
"","","","","","single-stim-button","137","221518","0.0-2.0-34.0-1.0","58ae59babb9e0f0001acb414","A3","batch1","","1580","tol_toboard","","","","tol_peg_2","1580","1580","0","[[3,0,0],[2,0],[1]]","1","[[2,1,0],[3,0],[0]]","8","0","","","","","","6","","","","","","","","",""
"","","","","","single-stim-button","138","221883","0.0-2.0-34.1-0.1","58ae59babb9e0f0001acb414","A3","batch1","","365","tol_tohand","","","","tol_peg_1","365","365","0","[[0,0,0],[2,0],[1]]","2","[[2,1,0],[3,0],[0]]","8","0","","","","","","6","","","","","","","","",""
"","","","","","single-stim-button","139","222353","0.0-2.0-34.1-1.1","58ae59babb9e0f0001acb414","A3","batch1","","468","tol_toboard","","","","tol_peg_2","468","468","0","[[0,0,0],[2,3],[1]]","2","[[2,1,0],[3,0],[0]]","8","0","","","","","","6","","","","","","","","",""
"","","","","","single-stim-button","140","224736","0.0-2.0-34.2-0.2","58ae59babb9e0f0001acb414","A3","batch1","","2382","tol_tohand","","","","tol_peg_2","2382","2382","0","[[0,0,0],[2,0],[1]]","3","[[2,1,0],[3,0],[0]]","8","0","","","","","","6","","","","","","","","",""
"","","","","","single-stim-button","141","226630","0.0-2.0-34.2-1.2","58ae59babb9e0f0001acb414","A3","batch1","","1893","tol_toboard","","","","tol_peg_2","1893","1893","0","[[0,0,0],[2,3],[1]]","3","[[2,1,0],[3,0],[0]]","8","0","","","","","","6","","","","","","","","",""
"","","","","","single-stim-button","142","227026","0.0-2.0-34.3-0.3","58ae59babb9e0f0001acb414","A3","batch1","","396","tol_tohand","","","","tol_peg_3","396","396","0","[[0,0,0],[2,3],[0]]","4","[[2,1,0],[3,0],[0]]","8","0","","","","","","6","","","","","","","","",""
"","","","","","single-stim-button","143","227902","0.0-2.0-34.3-1.3","58ae59babb9e0f0001acb414","A3","batch1","","874","tol_toboard","","","","tol_peg_1","874","874","0","[[1,0,0],[2,3],[0]]","4","[[2,1,0],[3,0],[0]]","8","0","","","","","","6","","","","","","","","",""
"","","","","","single-stim-button","144","228341","0.0-2.0-34.4-0.4","58ae59babb9e0f0001acb414","A3","batch1","","439","tol_tohand","","","","tol_peg_2","439","439","0","[[1,0,0],[2,0],[0]]","5","[[2,1,0],[3,0],[0]]","8","0","","","","","","6","","","","","","","","",""
"","","","","","single-stim-button","145","228796","0.0-2.0-34.4-1.4","58ae59babb9e0f0001acb414","A3","batch1","","455","tol_toboard","","","","tol_peg_3","455","455","0","[[1,0,0],[2,0],[3]]","5","[[2,1,0],[3,0],[0]]","8","0","","","","","","6","","","","","","","","",""
"","","","","","single-stim-button","146","229237","0.0-2.0-34.5-0.5","58ae59babb9e0f0001acb414","A3","batch1","","441","tol_tohand","","","","tol_peg_2","441","441","0","[[1,0,0],[0,0],[3]]","6","[[2,1,0],[3,0],[0]]","8","0","","","","","","6","","","","","","","","",""
"","","","","","single-stim-button","147","229594","0.0-2.0-34.5-1.5","58ae59babb9e0f0001acb414","A3","batch1","","357","tol_toboard","","","","tol_peg_1","357","357","0","[[1,2,0],[0,0],[3]]","6","[[2,1,0],[3,0],[0]]","8","0","","","","","","6","","","","","","","","",""
"","","","","","single-stim-button","148","229970","0.0-2.0-34.6-0.6","58ae59babb9e0f0001acb414","A3","batch1","","375","tol_tohand","","","","tol_peg_3","375","375","0","[[1,2,0],[0,0],[0]]","7","[[2,1,0],[3,0],[0]]","8","0","","","","","","6","","","","","","","","",""
"","","","","","single-stim-button","149","230427","0.0-2.0-34.6-1.6","58ae59babb9e0f0001acb414","A3","batch1","","456","tol_toboard","","","","tol_peg_2","456","456","0","[[1,2,0],[3,0],[0]]","7","[[2,1,0],[3,0],[0]]","8","0","","","","","","6","","","","","","","","",""
"","","","","","single-stim-button","150","230802","0.0-2.0-34.7-0.7","58ae59babb9e0f0001acb414","A3","batch1","","375","tol_tohand","","","","tol_peg_1","375","375","0","[[1,0,0],[3,0],[0]]","8","[[2,1,0],[3,0],[0]]","8","0","","","","","","6","","","","","","","","",""
"","","","","","single-stim-button","151","231241","0.0-2.0-34.7-1.7","58ae59babb9e0f0001acb414","A3","batch1","","438","tol_toboard","","","","tol_peg_3","438","438","0","[[1,0,0],[3,0],[2]]","8","[[2,1,0],[3,0],[0]]","8","0","","","","","","6","","","","","","","","",""
"","","","","","single-stim-button","152","232280","0.0-2.0-34.8-0.8","58ae59babb9e0f0001acb414","A3","batch1","","1039","tol_tohand","","","","tol_peg_1","1039","1039","0","[[0,0,0],[3,0],[2]]","9","[[2,1,0],[3,0],[0]]","8","0","","","","","","6","","","","","","","","",""
"","","","","","single-stim-button","153","232703","0.0-2.0-34.8-1.8","58ae59babb9e0f0001acb414","A3","batch1","","423","tol_toboard","","","","tol_peg_2","423","423","0","[[0,0,0],[3,1],[2]]","9","[[2,1,0],[3,0],[0]]","8","0","","","","","","6","","","","","","","","",""
"","","","","","single-stim-button","154","233001","0.0-2.0-34.9-0.9","58ae59babb9e0f0001acb414","A3","batch1","","297","tol_tohand","","","","tol_peg_3","297","297","0","[[0,0,0],[3,1],[0]]","10","[[2,1,0],[3,0],[0]]","8","0","","","","","","6","","","","","","","","",""
"","","","","","single-stim-button","155","233399","0.0-2.0-34.9-1.9","58ae59babb9e0f0001acb414","A3","batch1","","398","tol_toboard","","","","tol_peg_1","398","398","0","[[2,0,0],[3,1],[0]]","10","[[2,1,0],[3,0],[0]]","8","0","","","","","","6","","","","","","","","",""
"","","","","","single-stim-button","156","233839","0.0-2.0-34.10-0.10","58ae59babb9e0f0001acb414","A3","batch1","","440","tol_tohand","","","","tol_peg_2","440","440","0","[[2,0,0],[3,0],[0]]","11","[[2,1,0],[3,0],[0]]","8","0","","","","","","6","","","","","","","","",""
"","","","","","single-stim-button","157","234055","0.0-2.0-34.10-1.10","58ae59babb9e0f0001acb414","A3","batch1","","216","tol_toboard","","","","tol_peg_1","216","216","0","[[2,1,0],[3,0],[0]]","11","[[2,1,0],[3,0],[0]]","8","0","","","","","","6","","","","","","","","",""
"","","","","","poldrack-single-stim","158","235063","0.0-2.0-35.0","58ae59babb9e0f0001acb414","A3","batch1","","-1","tol_feedback","","","true","","1000","1000","500","","","","","","-1","none","true","17234","23783","","","","","","","","","",""
"","","","","","html-button-response","159","235441","0.0-2.0-36.0","58ae59babb9e0f0001acb414","A3","batch1","","378","tol_trial_num","<div class = centerbox><p class = center-block-text>problem <strong>10</strong> out of 25 problems</p></div>","0","","","","","","","","","","","","","","","","","","","","","","","","",""
"","","","","","single-stim-button","160","238889","0.0-2.0-37.0-0.0","58ae59babb9e0f0001acb414","A3","batch1","","3447","tol_tohand","","","","tol_peg_3","3447","3447","0","[[3,0,0],[1,0],[0]]","1","[[3,0,0],[2,1],[0]]","9","0","","","","","","3","","","","","","","","",""
"","","","","","single-stim-button","161","240960","0.0-2.0-37.0-1.0","58ae59babb9e0f0001acb414","A3","batch1","","2071","tol_toboard","","","","tol_peg_1","2071","2071","0","[[3,2,0],[1,0],[0]]","1","[[3,0,0],[2,1],[0]]","9","0","","","","","","3","","","","","","","","",""
"","","","","","single-stim-button","162","241245","0.0-2.0-37.1-0.1","58ae59babb9e0f0001acb414","A3","batch1","","285","tol_tohand","","","","tol_peg_2","285","285","0","[[3,2,0],[0,0],[0]]","2","[[3,0,0],[2,1],[0]]","9","0","","","","","","3","","","","","","","","",""
"","","","","","single-stim-button","163","241495","0.0-2.0-37.1-1.1","58ae59babb9e0f0001acb414","A3","batch1","","250","tol_toboard","","","","tol_peg_3","250","250","0","[[3,2,0],[0,0],[1]]","2","[[3,0,0],[2,1],[0]]","9","0","","","","","","3","","","","","","","","",""
"","","","","","single-stim-button","164","241987","0.0-2.0-37.2-0.2","58ae59babb9e0f0001acb414","A3","batch1","","492","tol_tohand","","","","tol_peg_1","492","492","0","[[3,0,0],[0,0],[1]]","3","[[3,0,0],[2,1],[0]]","9","0","","","","","","3","","","","","","","","",""
"","","","","","single-stim-button","165","242225","0.0-2.0-37.2-1.2","58ae59babb9e0f0001acb414","A3","batch1","","238","tol_toboard","","","","tol_peg_2","238","238","0","[[3,0,0],[2,0],[1]]","3","[[3,0,0],[2,1],[0]]","9","0","","","","","","3","","","","","","","","",""
"","","","","","single-stim-button","166","242454","0.0-2.0-37.3-0.3","58ae59babb9e0f0001acb414","A3","batch1","","227","tol_tohand","","","","tol_peg_3","227","227","0","[[3,0,0],[2,0],[0]]","4","[[3,0,0],[2,1],[0]]","9","0","","","","","","3","","","","","","","","",""
"","","","","","single-stim-button","167","242686","0.0-2.0-37.3-1.3","58ae59babb9e0f0001acb414","A3","batch1","","232","tol_toboard","","","","tol_peg_2","232","232","0","[[3,0,0],[2,1],[0]]","4","[[3,0,0],[2,1],[0]]","9","0","","","","","","3","","","","","","","","",""
"","","","","","poldrack-single-stim","168","243696","0.0-2.0-38.0","58ae59babb9e0f0001acb414","A3","batch1","","-1","tol_feedback","","","true","","1000","1000","500","","","","","","-1","none","true","3447","4451","","","","","","","","","",""
"","","","","","html-button-response","169","244124","0.0-2.0-39.0","58ae59babb9e0f0001acb414","A3","batch1","","427","tol_trial_num","<div class = centerbox><p class = center-block-text>problem <strong>11</strong> out of 25 problems</p></div>","0","","","","","","","","","","","","","","","","","","","","","","","","",""
"","","","","","single-stim-button","170","248246","0.0-2.0-40.0-0.0","58ae59babb9e0f0001acb414","A3","batch1","","4122","tol_tohand","","","","tol_peg_1","4122","4122","0","[[1,0,0],[3,0],[0]]","1","[[2,0,0],[1,3],[0]]","10","0","","","","","","6","","","","","","","","",""
"","","","","","single-stim-button","171","248969","0.0-2.0-40.0-1.0","58ae59babb9e0f0001acb414","A3","batch1","","722","tol_toboard","","","","tol_peg_3","722","722","0","[[1,0,0],[3,0],[2]]","1","[[2,0,0],[1,3],[0]]","10","0","","","","","","6","","","","","","","","",""
"","","","","","single-stim-button","172","249483","0.0-2.0-40.1-0.1","58ae59babb9e0f0001acb414","A3","batch1","","512","tol_tohand","","","","tol_peg_1","512","512","0","[[0,0,0],[3,0],[2]]","2","[[2,0,0],[1,3],[0]]","10","0","","","","","","6","","","","","","","","",""
"","","","","","single-stim-button","173","249945","0.0-2.0-40.1-1.1","58ae59babb9e0f0001acb414","A3","batch1","","461","tol_toboard","","","","tol_peg_2","461","461","0","[[0,0,0],[3,1],[2]]","2","[[2,0,0],[1,3],[0]]","10","0","","","","","","6","","","","","","","","",""
"","","","","","single-stim-button","174","250439","0.0-2.0-40.2-0.2","58ae59babb9e0f0001acb414","A3","batch1","","494","tol_tohand","","","","tol_peg_3","494","494","0","[[0,0,0],[3,1],[0]]","3","[[2,0,0],[1,3],[0]]","10","0","","","","","","6","","","","","","","","",""
"","","","","","single-stim-button","175","251087","0.0-2.0-40.2-1.2","58ae59babb9e0f0001acb414","A3","batch1","","647","tol_toboard","","","","tol_peg_1","647","647","0","[[2,0,0],[3,1],[0]]","3","[[2,0,0],[1,3],[0]]","10","0","","","","","","6","","","","","","","","",""
"","","","","","single-stim-button","176","251494","0.0-2.0-40.3-0.3","58ae59babb9e0f0001acb414","A3","batch1","","407","tol_tohand","","","","tol_peg_2","407","407","0","[[2,0,0],[3,0],[0]]","4","[[2,0,0],[1,3],[0]]","10","0","","","","","","6","","","","","","","","",""
"","","","","","single-stim-button","177","253931","0.0-2.0-40.3-1.3","58ae59babb9e0f0001acb414","A3","batch1","","2436","tol_toboard","","","","tol_peg_1","2436","2436","0","[[2,1,0],[3,0],[0]]","4","[[2,0,0],[1,3],[0]]","10","0","","","","","","6","","","","","","","","",""
"","","","","","single-stim-button","178","255026","0.0-2.0-40.4-0.4","58ae59babb9e0f0001acb414","A3","batch1","","1094","tol_tohand","","","","tol_peg_2","1094","1094","0","[[2,1,0],[0,0],[0]]","5","[[2,0,0],[1,3],[0]]","10","0","","","","","","6","","","","","","","","",""
"","","","","","single-stim-button","179","255644","0.0-2.0-40.4-1.4","58ae59babb9e0f0001acb414","A3","batch1","","618","tol_toboard","","","","tol_peg_3","618","618","0","[[2,1,0],[0,0],[3]]","5","[[2,0,0],[1,3],[0]]","10","0","","","","","","6","","","","","","","","",""
"","","","","","single-stim-button","180","256541","0.0-2.0-40.5-0.5","58ae59babb9e0f0001acb414","A3","batch1","","897","tol_tohand","","","","tol_peg_1","897","897","0","[[2,0,0],[0,0],[3]]","6","[[2,0,0],[1,3],[0]]","10","0","","","","","","6","","","","","","","","",""
"","","","","","single-stim-button","181","256813","0.0-2.0-40.5-1.5","58ae59babb9e0f0001acb414","A3","batch1","","271","tol_toboard","","","","tol_peg_2","271","271","0","[[2,0,0],[1,0],[3]]","6","[[2,0,0],[1,3],[0]]","10","0","","","","","","6","","","","","","","","",""
"","","","","","single-stim-button","182","257253","0.0-2.0-40.6-0.6","58ae59babb9e0f0001acb414","A3","batch1","","440","tol_tohand","","","","tol_peg_3","440","440","0","[[2,0,0],[1,0],[0]]","7","[[2,0,0],[1,3],[0]]","10","0","","","","","","6","","","","","","","","",""
"","","","","","single-stim-button","183","257514","0.0-2.0-40.6-1.6","58ae59babb9e0f0001acb414","A3","batch1","","259","tol_toboard","","","","tol_peg_2","259","259","0","[[2,0,0],[1,3],[0]]","7","[[2,0,0],[1,3],[0]]","10","0","","","","","","6","","","","","","","","",""
"","","","","","poldrack-single-stim","184","258520","0.0-2.0-41.0","58ae59babb9e0f0001acb414","A3","batch1","","-1","tol_feedback","","","true","","1000","1000","500","","","","","","-1","none","true","4122","7966","","","","","","","","","",""
"","","","","","html-button-response","185","259159","0.0-2.0-42.0","58ae59babb9e0f0001acb414","A3","batch1","","639","tol_trial_num","<div class = centerbox><p class = center-block-text>problem <strong>12</strong> out of 25 problems</p></div>","0","","","","","","","","","","","","","","","","","","","","","","","","",""
"","","","","","single-stim-button","186","261197","0.0-2.0-43.0-0.0","58ae59babb9e0f0001acb414","A3","batch1","","2038","tol_tohand","","","","tol_peg_1","2038","2038","0","[[1,0,0],[3,0],[0]]","1","[[2,3,0],[0,0],[1]]","11","0","","","","","","4","","","","","","","","",""
"","","","","","single-stim-button","187","261706","0.0-2.0-43.0-1.0","58ae59babb9e0f0001acb414","A3","batch1","","508","tol_toboard","","","","tol_peg_2","508","508","0","[[1,0,0],[3,2],[0]]","1","[[2,3,0],[0,0],[1]]","11","0","","","","","","4","","","","","","","","",""
"","","","","","single-stim-button","188","262074","0.0-2.0-43.1-0.1","58ae59babb9e0f0001acb414","A3","batch1","","367","tol_tohand","","","","tol_peg_1","367","367","0","[[0,0,0],[3,2],[0]]","2","[[2,3,0],[0,0],[1]]","11","0","","","","","","4","","","","","","","","",""
"","","","","","single-stim-button","189","262688","0.0-2.0-43.1-1.1","58ae59babb9e0f0001acb414","A3","batch1","","614","tol_toboard","","","","tol_peg_3","614","614","0","[[0,0,0],[3,2],[1]]","2","[[2,3,0],[0,0],[1]]","11","0","","","","","","4","","","","","","","","",""
"","","","","","single-stim-button","190","264081","0.0-2.0-43.2-0.2","58ae59babb9e0f0001acb414","A3","batch1","","1393","tol_tohand","","","","tol_peg_2","1393","1393","0","[[0,0,0],[3,0],[1]]","3","[[2,3,0],[0,0],[1]]","11","0","","","","","","4","","","","","","","","",""
"","","","","","single-stim-button","191","264740","0.0-2.0-43.2-1.2","58ae59babb9e0f0001acb414","A3","batch1","","659","tol_toboard","","","","tol_peg_1","659","659","0","[[2,0,0],[3,0],[1]]","3","[[2,3,0],[0,0],[1]]","11","0","","","","","","4","","","","","","","","",""
"","","","","","single-stim-button","192","265111","0.0-2.0-43.3-0.3","58ae59babb9e0f0001acb414","A3","batch1","","371","tol_tohand","","","","tol_peg_2","371","371","0","[[2,0,0],[0,0],[1]]","4","[[2,3,0],[0,0],[1]]","11","0","","","","","","4","","","","","","","","",""
"","","","","","single-stim-button","193","265386","0.0-2.0-43.3-1.3","58ae59babb9e0f0001acb414","A3","batch1","","274","tol_toboard","","","","tol_peg_1","274","274","0","[[2,3,0],[0,0],[1]]","4","[[2,3,0],[0,0],[1]]","11","0","","","","","","4","","","","","","","","",""
"","","","","","poldrack-single-stim","194","266387","0.0-2.0-44.0","58ae59babb9e0f0001acb414","A3","batch1","","-1","tol_feedback","","","true","","1000","1000","500","","","","","","-1","none","true","2038","4169","","","","","","","","","",""
"","","","","","html-button-response","195","266814","0.0-2.0-45.0","58ae59babb9e0f0001acb414","A3","batch1","","427","tol_trial_num","<div class = centerbox><p class = center-block-text>problem <strong>13</strong> out of 25 problems</p></div>","0","","","","","","","","","","","","","","","","","","","","","","","","",""
"","","","","","single-stim-button","196","269951","0.0-2.0-46.0-0.0","58ae59babb9e0f0001acb414","A3","batch1","","3135","tol_tohand","","","","tol_peg_1","3135","3135","0","[[1,0,0],[3,0],[0]]","1","[[0,0,0],[2,3],[1]]","12","0","","","","","","4","","","","","","","","",""
"","","","","","single-stim-button","197","270321","0.0-2.0-46.0-1.0","58ae59babb9e0f0001acb414","A3","batch1","","370","tol_toboard","","","","tol_peg_2","370","370","0","[[1,0,0],[3,2],[0]]","1","[[0,0,0],[2,3],[1]]","12","0","","","","","","4","","","","","","","","",""
"","","","","","single-stim-button","198","270597","0.0-2.0-46.1-0.1","58ae59babb9e0f0001acb414","A3","batch1","","276","tol_tohand","","","","tol_peg_1","276","276","0","[[0,0,0],[3,2],[0]]","2","[[0,0,0],[2,3],[1]]","12","0","","","","","","4","","","","","","","","",""
"","","","","","single-stim-button","199","271030","0.0-2.0-46.1-1.1","58ae59babb9e0f0001acb414","A3","batch1","","433","tol_toboard","","","","tol_peg_3","433","433","0","[[0,0,0],[3,2],[1]]","2","[[0,0,0],[2,3],[1]]","12","0","","","","","","4","","","","","","","","",""
"","","","","","single-stim-button","200","274837","0.0-2.0-46.2-0.2","58ae59babb9e0f0001acb414","A3","batch1","","3807","tol_tohand","","","","tol_peg_2","3807","3807","0","[[0,0,0],[3,0],[1]]","3","[[0,0,0],[2,3],[1]]","12","0","","","","","","4","","","","","","","","",""
"","","","","","single-stim-button","201","275341","0.0-2.0-46.2-1.2","58ae59babb9e0f0001acb414","A3","batch1","","504","tol_toboard","","","","tol_peg_1","504","504","0","[[2,0,0],[3,0],[1]]","3","[[0,0,0],[2,3],[1]]","12","0","","","","","","4","","","","","","","","",""
"","","","","","single-stim-button","202","277328","0.0-2.0-46.3-0.3","58ae59babb9e0f0001acb414","A3","batch1","","1986","tol_tohand","","","","tol_peg_2","1986","1986","0","[[2,0,0],[0,0],[1]]","4","[[0,0,0],[2,3],[1]]","12","0","","","","","","4","","","","","","","","",""
"","","","","","single-stim-button","203","277943","0.0-2.0-46.3-1.3","58ae59babb9e0f0001acb414","A3","batch1","","615","tol_toboard","","","","tol_peg_1","615","615","0","[[2,3,0],[0,0],[1]]","4","[[0,0,0],[2,3],[1]]","12","0","","","","","","4","","","","","","","","",""
"","","","","","single-stim-button","204","279729","0.0-2.0-46.4-0.4","58ae59babb9e0f0001acb414","A3","batch1","","1786","tol_tohand","","","","tol_peg_1","1786","1786","0","[[2,0,0],[0,0],[1]]","5","[[0,0,0],[2,3],[1]]","12","0","","","","","","4","","","","","","","","",""
"","","","","","single-stim-button","205","280325","0.0-2.0-46.4-1.4","58ae59babb9e0f0001acb414","A3","batch1","","596","tol_toboard","","","","tol_peg_2","596","596","0","[[2,0,0],[3,0],[1]]","5","[[0,0,0],[2,3],[1]]","12","0","","","","","","4","","","","","","","","",""
"","","","","","single-stim-button","206","281125","0.0-2.0-46.5-0.5","58ae59babb9e0f0001acb414","A3","batch1","","800","tol_tohand","","","","tol_peg_1","800","800","0","[[0,0,0],[3,0],[1]]","6","[[0,0,0],[2,3],[1]]","12","0","","","","","","4","","","","","","","","",""
"","","","","","single-stim-button","207","283342","0.0-2.0-46.5-1.5","58ae59babb9e0f0001acb414","A3","batch1","","2216","tol_toboard","","","","tol_peg_2","2216","2216","0","[[0,0,0],[3,2],[1]]","6","[[0,0,0],[2,3],[1]]","12","0","","","","","","4","","","","","","","","",""
"","","","","","single-stim-button","208","284193","0.0-2.0-46.6-0.6","58ae59babb9e0f0001acb414","A3","batch1","","851","tol_tohand","","","","tol_peg_3","851","851","0","[[0,0,0],[3,2],[0]]","7","[[0,0,0],[2,3],[1]]","12","0","","","","","","4","","","","","","","","",""
"","","","","","single-stim-button","209","284730","0.0-2.0-46.6-1.6","58ae59babb9e0f0001acb414","A3","batch1","","536","tol_toboard","","","","tol_peg_1","536","536","0","[[1,0,0],[3,2],[0]]","7","[[0,0,0],[2,3],[1]]","12","0","","","","","","4","","","","","","","","",""
"","","","","","single-stim-button","210","285944","0.0-2.0-46.7-0.7","58ae59babb9e0f0001acb414","A3","batch1","","1214","tol_tohand","","","","tol_peg_2","1214","1214","0","[[1,0,0],[3,0],[0]]","8","[[0,0,0],[2,3],[1]]","12","0","","","","","","4","","","","","","","","",""
"","","","","","single-stim-button","211","287410","0.0-2.0-46.7-1.7","58ae59babb9e0f0001acb414","A3","batch1","","1465","tol_toboard","","","","tol_peg_3","1465","1465","0","[[1,0,0],[3,0],[2]]","8","[[0,0,0],[2,3],[1]]","12","0","","","","","","4","","","","","","","","",""
"","","","","","single-stim-button","212","288467","0.0-2.0-46.8-0.8","58ae59babb9e0f0001acb414","A3","batch1","","1056","tol_tohand","","","","tol_peg_2","1056","1056","0","[[1,0,0],[0,0],[2]]","9","[[0,0,0],[2,3],[1]]","12","0","","","","","","4","","","","","","","","",""
"","","","","","single-stim-button","213","288947","0.0-2.0-46.8-1.8","58ae59babb9e0f0001acb414","A3","batch1","","480","tol_toboard","","","","tol_peg_1","480","480","0","[[1,3,0],[0,0],[2]]","9","[[0,0,0],[2,3],[1]]","12","0","","","","","","4","","","","","","","","",""
"","","","","","single-stim-button","214","289515","0.0-2.0-46.9-0.9","58ae59babb9e0f0001acb414","A3","batch1","","568","tol_tohand","","","","tol_peg_3","568","568","0","[[1,3,0],[0,0],[0]]","10","[[0,0,0],[2,3],[1]]","12","0","","","","","","4","","","","","","","","",""
"","","","","","single-stim-button","215","289842","0.0-2.0-46.9-1.9","58ae59babb9e0f0001acb414","A3","batch1","","326","tol_toboard","","","","tol_peg_2","326","326","0","[[1,3,0],[2,0],[0]]","10","[[0,0,0],[2,3],[1]]","12","0","","","","","","4","","","","","","","","",""
"","","","","","single-stim-button","216","290156","0.0-2.0-46.10-0.10","58ae59babb9e0f0001acb414","A3","batch1","","314","tol_tohand","","","","tol_peg_1","314","314","0","[[1,0,0],[2,0],[0]]","11","[[0,0,0],[2,3],[1]]","12","0","","","","","","4","","","","","","","","",""
"","","","","","single-stim-button","217","290427","0.0-2.0-46.10-1.10","58ae59babb9e0f0001acb414","A3","batch1","","271","tol_toboard","","","","tol_peg_2","271","271","0","[[1,0,0],[2,3],[0]]","11","[[0,0,0],[2,3],[1]]","12","0","","","","","","4","","","","","","","","",""
"","","","","","single-stim-button","218","290822","0.0-2.0-46.11-0.11","58ae59babb9e0f0001acb414","A3","batch1","","393","tol_tohand","","","","tol_peg_1","393","393","0","[[0,0,0],[2,3],[0]]","12","[[0,0,0],[2,3],[1]]","12","0","","","","","","4","","","","","","","","",""
"","","","","","single-stim-button","219","291126","0.0-2.0-46.11-1.11","58ae59babb9e0f0001acb414","A3","batch1","","304","tol_toboard","","","","tol_peg_3","304","304","0","[[0,0,0],[2,3],[1]]","12","[[0,0,0],[2,3],[1]]","12","0","","","","","","4","","","","","","","","",""
"","","","","","poldrack-single-stim","220","292128","0.0-2.0-47.0","58ae59babb9e0f0001acb414","A3","batch1","","-1","tol_feedback","","","true","","1000","1000","500","","","","","","-1","none","true","3135","16186","","","","","","","","","",""
"","","","","","html-button-response","221","295565","0.0-2.0-48.0","58ae59babb9e0f0001acb414","A3","batch1","","3437","attention_check","<p class = block-text>How many balls are in your board<br></p>","1","true","","","","","","","","","","","","","","","","","","","","","","","",""
"","","","","","html-button-response","222","296117","0.0-2.0-49.0","58ae59babb9e0f0001acb414","A3","batch1","","551","tol_trial_num","<div class = centerbox><p class = center-block-text>problem <strong>14</strong> out of 25 problems</p></div>","0","","","","","","","","","","","","","","","","","","","","","","","","",""
"","","","","","single-stim-button","223","300196","0.0-2.0-50.0-0.0","58ae59babb9e0f0001acb414","A3","batch1","","4078","tol_tohand","","","","tol_peg_1","4078","4078","0","[[2,0,0],[3,0],[0]]","1","[[1,2,0],[3,0],[0]]","13","0","","","","","","4","","","","","","","","",""
"","","","","","single-stim-button","224","301051","0.0-2.0-50.0-1.0","58ae59babb9e0f0001acb414","A3","batch1","","855","tol_toboard","","","","tol_peg_2","855","855","0","[[2,0,0],[3,1],[0]]","1","[[1,2,0],[3,0],[0]]","13","0","","","","","","4","","","","","","","","",""
"","","","","","single-stim-button","225","301402","0.0-2.0-50.1-0.1","58ae59babb9e0f0001acb414","A3","batch1","","350","tol_tohand","","","","tol_peg_1","350","350","0","[[0,0,0],[3,1],[0]]","2","[[1,2,0],[3,0],[0]]","13","0","","","","","","4","","","","","","","","",""
"","","","","","single-stim-button","226","302026","0.0-2.0-50.1-1.1","58ae59babb9e0f0001acb414","A3","batch1","","623","tol_toboard","","","","tol_peg_3","623","623","0","[[0,0,0],[3,1],[2]]","2","[[1,2,0],[3,0],[0]]","13","0","","","","","","4","","","","","","","","",""
"","","","","","single-stim-button","227","302447","0.0-2.0-50.2-0.2","58ae59babb9e0f0001acb414","A3","batch1","","421","tol_tohand","","","","tol_peg_2","421","421","0","[[0,0,0],[3,0],[2]]","3","[[1,2,0],[3,0],[0]]","13","0","","","","","","4","","","","","","","","",""
"","","","","","single-stim-button","228","302749","0.0-2.0-50.2-1.2","58ae59babb9e0f0001acb414","A3","batch1","","302","tol_toboard","","","","tol_peg_1","302","302","0","[[1,0,0],[3,0],[2]]","3","[[1,2,0],[3,0],[0]]","13","0","","","","","","4","","","","","","","","",""
"","","","","","single-stim-button","229","303070","0.0-2.0-50.3-0.3","58ae59babb9e0f0001acb414","A3","batch1","","320","tol_tohand","","","","tol_peg_3","320","320","0","[[1,0,0],[3,0],[0]]","4","[[1,2,0],[3,0],[0]]","13","0","","","","","","4","","","","","","","","",""
"","","","","","single-stim-button","230","303373","0.0-2.0-50.3-1.3","58ae59babb9e0f0001acb414","A3","batch1","","302","tol_toboard","","","","tol_peg_1","302","302","0","[[1,2,0],[3,0],[0]]","4","[[1,2,0],[3,0],[0]]","13","0","","","","","","4","","","","","","","","",""
"","","","","","poldrack-single-stim","231","304377","0.0-2.0-51.0","58ae59babb9e0f0001acb414","A3","batch1","","-1","tol_feedback","","","true","","1000","1000","500","","","","","","-1","none","true","4078","5169","","","","","","","","","",""
"","","","","","html-button-response","232","304754","0.0-2.0-52.0","58ae59babb9e0f0001acb414","A3","batch1","","376","tol_trial_num","<div class = centerbox><p class = center-block-text>problem <strong>15</strong> out of 25 problems</p></div>","0","","","","","","","","","","","","","","","","","","","","","","","","",""
"","","","","","single-stim-button","233","306529","0.0-2.0-53.0-0.0","58ae59babb9e0f0001acb414","A3","batch1","","1774","tol_tohand","","","","tol_peg_1","1774","1774","0","[[1,0,0],[3,0],[0]]","1","[[2,0,0],[3,0],[1]]","14","0","","","","","","3","","","","","","","","",""
"","","","","","single-stim-button","234","306945","0.0-2.0-53.0-1.0","58ae59babb9e0f0001acb414","A3","batch1","","415","tol_toboard","","","","tol_peg_2","415","415","0","[[1,0,0],[3,2],[0]]","1","[[2,0,0],[3,0],[1]]","14","0","","","","","","3","","","","","","","","",""
"","","","","","single-stim-button","235","307318","0.0-2.0-53.1-0.1","58ae59babb9e0f0001acb414","A3","batch1","","373","tol_tohand","","","","tol_peg_1","373","373","0","[[0,0,0],[3,2],[0]]","2","[[2,0,0],[3,0],[1]]","14","0","","","","","","3","","","","","","","","",""
"","","","","","single-stim-button","236","307904","0.0-2.0-53.1-1.1","58ae59babb9e0f0001acb414","A3","batch1","","585","tol_toboard","","","","tol_peg_3","585","585","0","[[0,0,0],[3,2],[1]]","2","[[2,0,0],[3,0],[1]]","14","0","","","","","","3","","","","","","","","",""
"","","","","","single-stim-button","237","308221","0.0-2.0-53.2-0.2","58ae59babb9e0f0001acb414","A3","batch1","","317","tol_tohand","","","","tol_peg_2","317","317","0","[[0,0,0],[3,0],[1]]","3","[[2,0,0],[3,0],[1]]","14","0","","","","","","3","","","","","","","","",""
"","","","","","single-stim-button","238","308464","0.0-2.0-53.2-1.2","58ae59babb9e0f0001acb414","A3","batch1","","243","tol_toboard","","","","tol_peg_1","243","243","0","[[2,0,0],[3,0],[1]]","3","[[2,0,0],[3,0],[1]]","14","0","","","","","","3","","","","","","","","",""
"","","","","","poldrack-single-stim","239","309466","0.0-2.0-54.0","58ae59babb9e0f0001acb414","A3","batch1","","-1","tol_feedback","","","true","","1000","1000","500","","","","","","-1","none","true","1774","2464","","","","","","","","","",""
"","","","","","html-button-response","240","309817","0.0-2.0-55.0","58ae59babb9e0f0001acb414","A3","batch1","","351","tol_trial_num","<div class = centerbox><p class = center-block-text>problem <strong>16</strong> out of 25 problems</p></div>","0","","","","","","","","","","","","","","","","","","","","","","","","",""
"","","","","","single-stim-button","241","315338","0.0-2.0-56.0-0.0","58ae59babb9e0f0001acb414","A3","batch1","","5521","tol_tohand","","","","tol_peg_3","5521","5521","0","[[0,0,0],[2,3],[0]]","1","[[2,3,0],[1,0],[0]]","15","0","","","","","","7","","","","","","","","",""
"","","","","","single-stim-button","242","322234","0.0-2.0-56.0-1.0","58ae59babb9e0f0001acb414","A3","batch1","","6894","tol_toboard","","","","tol_peg_1","6894","6894","0","[[1,0,0],[2,3],[0]]","1","[[2,3,0],[1,0],[0]]","15","0","","","","","","7","","","","","","","","",""
"","","","","","single-stim-button","243","323001","0.0-2.0-56.1-0.1","58ae59babb9e0f0001acb414","A3","batch1","","766","tol_tohand","","","","tol_peg_2","766","766","0","[[1,0,0],[2,0],[0]]","2","[[2,3,0],[1,0],[0]]","15","0","","","","","","7","","","","","","","","",""
"","","","","","single-stim-button","244","323457","0.0-2.0-56.1-1.1","58ae59babb9e0f0001acb414","A3","batch1","","456","tol_toboard","","","","tol_peg_3","456","456","0","[[1,0,0],[2,0],[3]]","2","[[2,3,0],[1,0],[0]]","15","0","","","","","","7","","","","","","","","",""
"","","","","","single-stim-button","245","330926","0.0-2.0-56.2-0.2","58ae59babb9e0f0001acb414","A3","batch1","","7468","tol_tohand","","","","tol_peg_1","7468","7468","0","[[0,0,0],[2,0],[3]]","3","[[2,3,0],[1,0],[0]]","15","0","","","","","","7","","","","","","","","",""
"","","","","","single-stim-button","246","332263","0.0-2.0-56.2-1.2","58ae59babb9e0f0001acb414","A3","batch1","","1337","tol_toboard","","","","tol_peg_1","1337","1337","0","[[1,0,0],[2,0],[3]]","3","[[2,3,0],[1,0],[0]]","15","0","","","","","","7","","","","","","","","",""
"","","","","","single-stim-button","247","332716","0.0-2.0-56.3-0.3","58ae59babb9e0f0001acb414","A3","batch1","","453","tol_tohand","","","","tol_peg_2","453","453","0","[[1,0,0],[0,0],[3]]","4","[[2,3,0],[1,0],[0]]","15","0","","","","","","7","","","","","","","","",""
"","","","","","single-stim-button","248","333036","0.0-2.0-56.3-1.3","58ae59babb9e0f0001acb414","A3","batch1","","319","tol_toboard","","","","tol_peg_1","319","319","0","[[1,2,0],[0,0],[3]]","4","[[2,3,0],[1,0],[0]]","15","0","","","","","","7","","","","","","","","",""
"","","","","","single-stim-button","249","333581","0.0-2.0-56.4-0.4","58ae59babb9e0f0001acb414","A3","batch1","","545","tol_tohand","","","","tol_peg_1","545","545","0","[[1,0,0],[0,0],[3]]","5","[[2,3,0],[1,0],[0]]","15","0","","","","","","7","","","","","","","","",""
"","","","","","single-stim-button","250","334087","0.0-2.0-56.4-1.4","58ae59babb9e0f0001acb414","A3","batch1","","506","tol_toboard","","","","tol_peg_2","506","506","0","[[1,0,0],[2,0],[3]]","5","[[2,3,0],[1,0],[0]]","15","0","","","","","","7","","","","","","","","",""
"","","","","","single-stim-button","251","334409","0.0-2.0-56.5-0.5","58ae59babb9e0f0001acb414","A3","batch1","","321","tol_tohand","","","","tol_peg_3","321","321","0","[[1,0,0],[2,0],[0]]","6","[[2,3,0],[1,0],[0]]","15","0","","","","","","7","","","","","","","","",""
"","","","","","single-stim-button","252","335280","0.0-2.0-56.5-1.5","58ae59babb9e0f0001acb414","A3","batch1","","871","tol_toboard","","","","tol_peg_1","871","871","0","[[1,3,0],[2,0],[0]]","6","[[2,3,0],[1,0],[0]]","15","0","","","","","","7","","","","","","","","",""
"","","","","","single-stim-button","253","335627","0.0-2.0-56.6-0.6","58ae59babb9e0f0001acb414","A3","batch1","","347","tol_tohand","","","","tol_peg_2","347","347","0","[[1,3,0],[0,0],[0]]","7","[[2,3,0],[1,0],[0]]","15","0","","","","","","7","","","","","","","","",""
"","","","","","single-stim-button","254","335983","0.0-2.0-56.6-1.6","58ae59babb9e0f0001acb414","A3","batch1","","354","tol_toboard","","","","tol_peg_3","354","354","0","[[1,3,0],[0,0],[2]]","7","[[2,3,0],[1,0],[0]]","15","0","","","","","","7","","","","","","","","",""
"","","","","","single-stim-button","255","336398","0.0-2.0-56.7-0.7","58ae59babb9e0f0001acb414","A3","batch1","","415","tol_tohand","","","","tol_peg_1","415","415","0","[[1,0,0],[0,0],[2]]","8","[[2,3,0],[1,0],[0]]","15","0","","","","","","7","","","","","","","","",""
"","","","","","single-stim-button","256","336715","0.0-2.0-56.7-1.7","58ae59babb9e0f0001acb414","A3","batch1","","316","tol_toboard","","","","tol_peg_2","316","316","0","[[1,0,0],[3,0],[2]]","8","[[2,3,0],[1,0],[0]]","15","0","","","","","","7","","","","","","","","",""
"","","","","","single-stim-button","257","337215","0.0-2.0-56.8-0.8","58ae59babb9e0f0001acb414","A3","batch1","","500","tol_tohand","","","","tol_peg_1","500","500","0","[[0,0,0],[3,0],[2]]","9","[[2,3,0],[1,0],[0]]","15","0","","","","","","7","","","","","","","","",""
"","","","","","single-stim-button","258","337565","0.0-2.0-56.8-1.8","58ae59babb9e0f0001acb414","A3","batch1","","350","tol_toboard","","","","tol_peg_2","350","350","0","[[0,0,0],[3,1],[2]]","9","[[2,3,0],[1,0],[0]]","15","0","","","","","","7","","","","","","","","",""
"","","","","","single-stim-button","259","337876","0.0-2.0-56.9-0.9","58ae59babb9e0f0001acb414","A3","batch1","","310","tol_tohand","","","","tol_peg_3","310","310","0","[[0,0,0],[3,1],[0]]","10","[[2,3,0],[1,0],[0]]","15","0","","","","","","7","","","","","","","","",""
"","","","","","single-stim-button","260","338327","0.0-2.0-56.9-1.9","58ae59babb9e0f0001acb414","A3","batch1","","451","tol_toboard","","","","tol_peg_1","451","451","0","[[2,0,0],[3,1],[0]]","10","[[2,3,0],[1,0],[0]]","15","0","","","","","","7","","","","","","","","",""
"","","","","","single-stim-button","261","338903","0.0-2.0-56.10-0.10","58ae59babb9e0f0001acb414","A3","batch1","","576","tol_tohand","","","","tol_peg_2","576","576","0","[[2,0,0],[3,0],[0]]","11","[[2,3,0],[1,0],[0]]","15","0","","","","","","7","","","","","","","","",""
"","","","","","single-stim-button","262","339150","0.0-2.0-56.10-1.10","58ae59babb9e0f0001acb414","A3","batch1","","245","tol_toboard","","","","tol_peg_3","245","245","0","[[2,0,0],[3,0],[1]]","11","[[2,3,0],[1,0],[0]]","15","0","","","","","","7","","","","","","","","",""
"","","","","","single-stim-button","263","339420","0.0-2.0-56.11-0.11","58ae59babb9e0f0001acb414","A3","batch1","","269","tol_tohand","","","","tol_peg_2","269","269","0","[[2,0,0],[0,0],[1]]","12","[[2,3,0],[1,0],[0]]","15","0","","","","","","7","","","","","","","","",""
"","","","","","single-stim-button","264","339752","0.0-2.0-56.11-1.11","58ae59babb9e0f0001acb414","A3","batch1","","332","tol_toboard","","","","tol_peg_1","332","332","0","[[2,3,0],[0,0],[1]]","12","[[2,3,0],[1,0],[0]]","15","0","","","","","","7","","","","","","","","",""
"","","","","","single-stim-button","265","340206","0.0-2.0-56.12-0.12","58ae59babb9e0f0001acb414","A3","batch1","","453","tol_tohand","","","","tol_peg_3","453","453","0","[[2,3,0],[0,0],[0]]","13","[[2,3,0],[1,0],[0]]","15","0","","","","","","7","","","","","","","","",""
"","","","","","single-stim-button","266","340462","0.0-2.0-56.12-1.12","58ae59babb9e0f0001acb414","A3","batch1","","256","tol_toboard","","","","tol_peg_2","256","256","0","[[2,3,0],[1,0],[0]]","13","[[2,3,0],[1,0],[0]]","15","0","","","","","","7","","","","","","","","",""
"","","","","","poldrack-single-stim","267","341463","0.0-2.0-57.0","58ae59babb9e0f0001acb414","A3","batch1","","-1","tol_feedback","","","true","","1000","1000","500","","","","","","-1","none","true","5521","17944","","","","","","","","","",""
"","","","","","html-button-response","268","341800","0.0-2.0-58.0","58ae59babb9e0f0001acb414","A3","batch1","","337","tol_trial_num","<div class = centerbox><p class = center-block-text>problem <strong>17</strong> out of 25 problems</p></div>","0","","","","","","","","","","","","","","","","","","","","","","","","",""
"","","","","","single-stim-button","269","343531","0.0-2.0-59.0-0.0","58ae59babb9e0f0001acb414","A3","batch1","","1731","tol_tohand","","","","tol_peg_2","1731","1731","0","[[1,2,0],[0,0],[0]]","1","[[3,1,0],[2,0],[0]]","16","0","","","","","","5","","","","","","","","",""
"","","","","","single-stim-button","270","343981","0.0-2.0-59.0-1.0","58ae59babb9e0f0001acb414","A3","batch1","","450","tol_toboard","","","","tol_peg_3","450","450","0","[[1,2,0],[0,0],[3]]","1","[[3,1,0],[2,0],[0]]","16","0","","","","","","5","","","","","","","","",""
"","","","","","single-stim-button","271","344365","0.0-2.0-59.1-0.1","58ae59babb9e0f0001acb414","A3","batch1","","384","tol_tohand","","","","tol_peg_1","384","384","0","[[1,0,0],[0,0],[3]]","2","[[3,1,0],[2,0],[0]]","16","0","","","","","","5","","","","","","","","",""
"","","","","","single-stim-button","272","345019","0.0-2.0-59.1-1.1","58ae59babb9e0f0001acb414","A3","batch1","","654","tol_toboard","","","","tol_peg_2","654","654","0","[[1,0,0],[2,0],[3]]","2","[[3,1,0],[2,0],[0]]","16","0","","","","","","5","","","","","","","","",""
"","","","","","single-stim-button","273","345752","0.0-2.0-59.2-0.2","58ae59babb9e0f0001acb414","A3","batch1","","732","tol_tohand","","","","tol_peg_1","732","732","0","[[0,0,0],[2,0],[3]]","3","[[3,1,0],[2,0],[0]]","16","0","","","","","","5","","","","","","","","",""
"","","","","","single-stim-button","274","346067","0.0-2.0-59.2-1.2","58ae59babb9e0f0001acb414","A3","batch1","","314","tol_toboard","","","","tol_peg_2","314","314","0","[[0,0,0],[2,1],[3]]","3","[[3,1,0],[2,0],[0]]","16","0","","","","","","5","","","","","","","","",""
"","","","","","single-stim-button","275","346298","0.0-2.0-59.3-0.3","58ae59babb9e0f0001acb414","A3","batch1","","231","tol_tohand","","","","tol_peg_3","231","231","0","[[0,0,0],[2,1],[0]]","4","[[3,1,0],[2,0],[0]]","16","0","","","","","","5","","","","","","","","",""
"","","","","","single-stim-button","276","346652","0.0-2.0-59.3-1.3","58ae59babb9e0f0001acb414","A3","batch1","","353","tol_toboard","","","","tol_peg_1","353","353","0","[[3,0,0],[2,1],[0]]","4","[[3,1,0],[2,0],[0]]","16","0","","","","","","5","","","","","","","","",""
"","","","","","single-stim-button","277","346949","0.0-2.0-59.4-0.4","58ae59babb9e0f0001acb414","A3","batch1","","296","tol_tohand","","","","tol_peg_2","296","296","0","[[3,0,0],[2,0],[0]]","5","[[3,1,0],[2,0],[0]]","16","0","","","","","","5","","","","","","","","",""
"","","","","","single-stim-button","278","347145","0.0-2.0-59.4-1.4","58ae59babb9e0f0001acb414","A3","batch1","","195","tol_toboard","","","","tol_peg_1","195","195","0","[[3,1,0],[2,0],[0]]","5","[[3,1,0],[2,0],[0]]","16","0","","","","","","5","","","","","","","","",""
"","","","","","poldrack-single-stim","279","348149","0.0-2.0-60.0","58ae59babb9e0f0001acb414","A3","batch1","","-1","tol_feedback","","","true","","1000","1000","500","","","","","","-1","none","true","1731","3374","","","","","","","","","",""
"","","","","","html-button-response","280","348568","0.0-2.0-61.0","58ae59babb9e0f0001acb414","A3","batch1","","419","tol_trial_num","<div class = centerbox><p class = center-block-text>problem <strong>18</strong> out of 25 problems</p></div>","0","","","","","","","","","","","","","","","","","","","","","","","","",""
"","","","","","single-stim-button","281","352303","0.0-2.0-62.0-0.0","58ae59babb9e0f0001acb414","A3","batch1","","3734","tol_tohand","","","","tol_peg_1","3734","3734","0","[[1,0,0],[3,0],[0]]","1","[[3,0,0],[2,0],[1]]","17","0","","","","","","5","","","","","","","","",""
"","","","","","single-stim-button","282","352631","0.0-2.0-62.0-1.0","58ae59babb9e0f0001acb414","A3","batch1","","327","tol_toboard","","","","tol_peg_2","327","327","0","[[1,0,0],[3,2],[0]]","1","[[3,0,0],[2,0],[1]]","17","0","","","","","","5","","","","","","","","",""
"","","","","","single-stim-button","283","352890","0.0-2.0-62.1-0.1","58ae59babb9e0f0001acb414","A3","batch1","","259","tol_tohand","","","","tol_peg_1","259","259","0","[[0,0,0],[3,2],[0]]","2","[[3,0,0],[2,0],[1]]","17","0","","","","","","5","","","","","","","","",""
"","","","","","single-stim-button","284","353349","0.0-2.0-62.1-1.1","58ae59babb9e0f0001acb414","A3","batch1","","459","tol_toboard","","","","tol_peg_3","459","459","0","[[0,0,0],[3,2],[1]]","2","[[3,0,0],[2,0],[1]]","17","0","","","","","","5","","","","","","","","",""
"","","","","","single-stim-button","285","355085","0.0-2.0-62.2-0.2","58ae59babb9e0f0001acb414","A3","batch1","","1736","tol_tohand","","","","tol_peg_2","1736","1736","0","[[0,0,0],[3,0],[1]]","3","[[3,0,0],[2,0],[1]]","17","0","","","","","","5","","","","","","","","",""
"","","","","","single-stim-button","286","355647","0.0-2.0-62.2-1.2","58ae59babb9e0f0001acb414","A3","batch1","","562","tol_toboard","","","","tol_peg_2","562","562","0","[[0,0,0],[3,2],[1]]","3","[[3,0,0],[2,0],[1]]","17","0","","","","","","5","","","","","","","","",""
"","","","","","single-stim-button","287","356207","0.0-2.0-62.3-0.3","58ae59babb9e0f0001acb414","A3","batch1","","560","tol_tohand","","","","tol_peg_2","560","560","0","[[0,0,0],[3,0],[1]]","4","[[3,0,0],[2,0],[1]]","17","0","","","","","","5","","","","","","","","",""
"","","","","","single-stim-button","288","356518","0.0-2.0-62.3-1.3","58ae59babb9e0f0001acb414","A3","batch1","","311","tol_toboard","","","","tol_peg_1","311","311","0","[[2,0,0],[3,0],[1]]","4","[[3,0,0],[2,0],[1]]","17","0","","","","","","5","","","","","","","","",""
"","","","","","single-stim-button","289","356820","0.0-2.0-62.4-0.4","58ae59babb9e0f0001acb414","A3","batch1","","302","tol_tohand","","","","tol_peg_2","302","302","0","[[2,0,0],[0,0],[1]]","5","[[3,0,0],[2,0],[1]]","17","0","","","","","","5","","","","","","","","",""
"","","","","","single-stim-button","290","357252","0.0-2.0-62.4-1.4","58ae59babb9e0f0001acb414","A3","batch1","","432","tol_toboard","","","","tol_peg_1","432","432","0","[[2,3,0],[0,0],[1]]","5","[[3,0,0],[2,0],[1]]","17","0","","","","","","5","","","","","","","","",""
"","","","","","single-stim-button","291","366790","0.0-2.0-62.5-0.5","58ae59babb9e0f0001acb414","A3","batch1","","9537","tol_tohand","","","","tol_peg_3","9537","9537","0","[[2,3,0],[0,0],[0]]","6","[[3,0,0],[2,0],[1]]","17","0","","","","","","5","","","","","","","","",""
"","","","","","single-stim-button","292","367583","0.0-2.0-62.5-1.5","58ae59babb9e0f0001acb414","A3","batch1","","792","tol_toboard","","","","tol_peg_2","792","792","0","[[2,3,0],[1,0],[0]]","6","[[3,0,0],[2,0],[1]]","17","0","","","","","","5","","","","","","","","",""
"","","","","","single-stim-button","293","368369","0.0-2.0-62.6-0.6","58ae59babb9e0f0001acb414","A3","batch1","","786","tol_tohand","","","","tol_peg_1","786","786","0","[[2,0,0],[1,0],[0]]","7","[[3,0,0],[2,0],[1]]","17","0","","","","","","5","","","","","","","","",""
"","","","","","single-stim-button","294","368718","0.0-2.0-62.6-1.6","58ae59babb9e0f0001acb414","A3","batch1","","349","tol_toboard","","","","tol_peg_3","349","349","0","[[2,0,0],[1,0],[3]]","7","[[3,0,0],[2,0],[1]]","17","0","","","","","","5","","","","","","","","",""
"","","","","","single-stim-button","295","369084","0.0-2.0-62.7-0.7","58ae59babb9e0f0001acb414","A3","batch1","","366","tol_tohand","","","","tol_peg_1","366","366","0","[[0,0,0],[1,0],[3]]","8","[[3,0,0],[2,0],[1]]","17","0","","","","","","5","","","","","","","","",""
"","","","","","single-stim-button","296","369678","0.0-2.0-62.7-1.7","58ae59babb9e0f0001acb414","A3","batch1","","594","tol_toboard","","","","tol_peg_2","594","594","0","[[0,0,0],[1,2],[3]]","8","[[3,0,0],[2,0],[1]]","17","0","","","","","","5","","","","","","","","",""
"","","","","","single-stim-button","297","371127","0.0-2.0-62.8-0.8","58ae59babb9e0f0001acb414","A3","batch1","","1449","tol_tohand","","","","tol_peg_3","1449","1449","0","[[0,0,0],[1,2],[0]]","9","[[3,0,0],[2,0],[1]]","17","0","","","","","","5","","","","","","","","",""
"","","","","","single-stim-button","298","371639","0.0-2.0-62.8-1.8","58ae59babb9e0f0001acb414","A3","batch1","","511","tol_toboard","","","","tol_peg_1","511","511","0","[[3,0,0],[1,2],[0]]","9","[[3,0,0],[2,0],[1]]","17","0","","","","","","5","","","","","","","","",""
"","","","","","single-stim-button","299","372745","0.0-2.0-62.9-0.9","58ae59babb9e0f0001acb414","A3","batch1","","1106","tol_tohand","","","","tol_peg_2","1106","1106","0","[[3,0,0],[1,0],[0]]","10","[[3,0,0],[2,0],[1]]","17","0","","","","","","5","","","","","","","","",""
"","","","","","single-stim-button","300","373070","0.0-2.0-62.9-1.9","58ae59babb9e0f0001acb414","A3","batch1","","324","tol_toboard","","","","tol_peg_1","324","324","0","[[3,2,0],[1,0],[0]]","10","[[3,0,0],[2,0],[1]]","17","0","","","","","","5","","","","","","","","",""
"","","","","","single-stim-button","301","373382","0.0-2.0-62.10-0.10","58ae59babb9e0f0001acb414","A3","batch1","","312","tol_tohand","","","","tol_peg_2","312","312","0","[[3,2,0],[0,0],[0]]","11","[[3,0,0],[2,0],[1]]","17","0","","","","","","5","","","","","","","","",""
"","","","","","single-stim-button","302","373743","0.0-2.0-62.10-1.10","58ae59babb9e0f0001acb414","A3","batch1","","361","tol_toboard","","","","tol_peg_3","361","361","0","[[3,2,0],[0,0],[1]]","11","[[3,0,0],[2,0],[1]]","17","0","","","","","","5","","","","","","","","",""
"","","","","","single-stim-button","303","374053","0.0-2.0-62.11-0.11","58ae59babb9e0f0001acb414","A3","batch1","","310","tol_tohand","","","","tol_peg_1","310","310","0","[[3,0,0],[0,0],[1]]","12","[[3,0,0],[2,0],[1]]","17","0","","","","","","5","","","","","","","","",""
"","","","","","single-stim-button","304","374270","0.0-2.0-62.11-1.11","58ae59babb9e0f0001acb414","A3","batch1","","216","tol_toboard","","","","tol_peg_2","216","216","0","[[3,0,0],[2,0],[1]]","12","[[3,0,0],[2,0],[1]]","17","0","","","","","","5","","","","","","","","",""
"","","","","","poldrack-single-stim","305","375274","0.0-2.0-63.0","58ae59babb9e0f0001acb414","A3","batch1","","-1","tol_feedback","","","true","","1000","1000","500","","","","","","-1","none","true","3734","20457","","","","","","","","","",""
"","","","","","html-button-response","306","375613","0.0-2.0-64.0","58ae59babb9e0f0001acb414","A3","batch1","","338","tol_trial_num","<div class = centerbox><p class = center-block-text>problem <strong>19</strong> out of 25 problems</p></div>","0","","","","","","","","","","","","","","","","","","","","","","","","",""
"","","","","","single-stim-button","307","377194","0.0-2.0-65.0-0.0","58ae59babb9e0f0001acb414","A3","batch1","","1580","tol_tohand","","","","tol_peg_2","1580","1580","0","[[1,2,0],[0,0],[0]]","1","[[0,0,0],[1,2],[3]]","18","0","","","","","","7","","","","","","","","",""
"","","","","","single-stim-button","308","377504","0.0-2.0-65.0-1.0","58ae59babb9e0f0001acb414","A3","batch1","","310","tol_toboard","","","","tol_peg_3","310","310","0","[[1,2,0],[0,0],[3]]","1","[[0,0,0],[1,2],[3]]","18","0","","","","","","7","","","","","","","","",""
"","","","","","single-stim-button","309","378668","0.0-2.0-65.1-0.1","58ae59babb9e0f0001acb414","A3","batch1","","1163","tol_tohand","","","","tol_peg_3","1163","1163","0","[[1,2,0],[0,0],[0]]","2","[[0,0,0],[1,2],[3]]","18","0","","","","","","7","","","","","","","","",""
"","","","","","single-stim-button","310","378905","0.0-2.0-65.1-1.1","58ae59babb9e0f0001acb414","A3","batch1","","236","tol_toboard","","","","tol_peg_2","236","236","0","[[1,2,0],[3,0],[0]]","2","[[0,0,0],[1,2],[3]]","18","0","","","","","","7","","","","","","","","",""
"","","","","","single-stim-button","311","380466","0.0-2.0-65.2-0.2","58ae59babb9e0f0001acb414","A3","batch1","","1559","tol_tohand","","","","tol_peg_1","1559","1559","0","[[1,0,0],[3,0],[0]]","3","[[0,0,0],[1,2],[3]]","18","0","","","","","","7","","","","","","","","",""
"","","","","","single-stim-button","312","381975","0.0-2.0-65.2-1.2","58ae59babb9e0f0001acb414","A3","batch1","","1508","tol_toboard","","","","tol_peg_3","1508","1508","0","[[1,0,0],[3,0],[2]]","3","[[0,0,0],[1,2],[3]]","18","0","","","","","","7","","","","","","","","",""
"","","","","","single-stim-button","313","384810","0.0-2.0-65.3-0.3","58ae59babb9e0f0001acb414","A3","batch1","","2835","tol_tohand","","","","tol_peg_2","2835","2835","0","[[1,0,0],[0,0],[2]]","4","[[0,0,0],[1,2],[3]]","18","0","","","","","","7","","","","","","","","",""
"","","","","","single-stim-button","314","386131","0.0-2.0-65.3-1.3","58ae59babb9e0f0001acb414","A3","batch1","","1321","tol_toboard","","","","tol_peg_2","1321","1321","0","[[1,0,0],[3,0],[2]]","4","[[0,0,0],[1,2],[3]]","18","0","","","","","","7","","","","","","","","",""
"","","","","","single-stim-button","315","394473","0.0-2.0-65.4-0.4","58ae59babb9e0f0001acb414","A3","batch1","","8341","tol_tohand","","","","tol_peg_2","8341","8341","0","[[1,0,0],[0,0],[2]]","5","[[0,0,0],[1,2],[3]]","18","0","","","","","","7","","","","","","","","",""
"","","","","","single-stim-button","316","396956","0.0-2.0-65.4-1.4","58ae59babb9e0f0001acb414","A3","batch1","","2481","tol_toboard","","","","tol_peg_1","2481","2481","0","[[1,3,0],[0,0],[2]]","5","[[0,0,0],[1,2],[3]]","18","0","","","","","","7","","","","","","","","",""
"","","","","","single-stim-button","317","397429","0.0-2.0-65.5-0.5","58ae59babb9e0f0001acb414","A3","batch1","","473","tol_tohand","","","","tol_peg_3","473","473","0","[[1,3,0],[0,0],[0]]","6","[[0,0,0],[1,2],[3]]","18","0","","","","","","7","","","","","","","","",""
"","","","","","single-stim-button","318","397879","0.0-2.0-65.5-1.5","58ae59babb9e0f0001acb414","A3","batch1","","450","tol_toboard","","","","tol_peg_2","450","450","0","[[1,3,0],[2,0],[0]]","6","[[0,0,0],[1,2],[3]]","18","0","","","","","","7","","","","","","","","",""
"","","","","","single-stim-button","319","398186","0.0-2.0-65.6-0.6","58ae59babb9e0f0001acb414","A3","batch1","","305","tol_tohand","","","","tol_peg_1","305","305","0","[[1,0,0],[2,0],[0]]","7","[[0,0,0],[1,2],[3]]","18","0","","","","","","7","","","","","","","","",""
"","","","","","single-stim-button","320","398642","0.0-2.0-65.6-1.6","58ae59babb9e0f0001acb414","A3","batch1","","456","tol_toboard","","","","tol_peg_3","456","456","0","[[1,0,0],[2,0],[3]]","7","[[0,0,0],[1,2],[3]]","18","0","","","","","","7","","","","","","","","",""
"","","","","","single-stim-button","321","399944","0.0-2.0-65.7-0.7","58ae59babb9e0f0001acb414","A3","batch1","","1301","tol_tohand","","","","tol_peg_1","1301","1301","0","[[0,0,0],[2,0],[3]]","8","[[0,0,0],[1,2],[3]]","18","0","","","","","","7","","","","","","","","",""
"","","","","","single-stim-button","322","400947","0.0-2.0-65.7-1.7","58ae59babb9e0f0001acb414","A3","batch1","","1003","tol_toboard","","","","tol_peg_2","1003","1003","0","[[0,0,0],[2,1],[3]]","8","[[0,0,0],[1,2],[3]]","18","0","","","","","","7","","","","","","","","",""
"","","","","","single-stim-button","323","401598","0.0-2.0-65.8-0.8","58ae59babb9e0f0001acb414","A3","batch1","","650","tol_tohand","","","","tol_peg_2","650","650","0","[[0,0,0],[2,0],[3]]","9","[[0,0,0],[1,2],[3]]","18","0","","","","","","7","","","","","","","","",""
"","","","","","single-stim-button","324","401970","0.0-2.0-65.8-1.8","58ae59babb9e0f0001acb414","A3","batch1","","370","tol_toboard","","","","tol_peg_1","370","370","0","[[1,0,0],[2,0],[3]]","9","[[0,0,0],[1,2],[3]]","18","0","","","","","","7","","","","","","","","",""
"","","","","","single-stim-button","325","402306","0.0-2.0-65.9-0.9","58ae59babb9e0f0001acb414","A3","batch1","","336","tol_tohand","","","","tol_peg_2","336","336","0","[[1,0,0],[0,0],[3]]","10","[[0,0,0],[1,2],[3]]","18","0","","","","","","7","","","","","","","","",""
"","","","","","single-stim-button","326","402718","0.0-2.0-65.9-1.9","58ae59babb9e0f0001acb414","A3","batch1","","411","tol_toboard","","","","tol_peg_1","411","411","0","[[1,2,0],[0,0],[3]]","10","[[0,0,0],[1,2],[3]]","18","0","","","","","","7","","","","","","","","",""
"","","","","","single-stim-button","327","405094","0.0-2.0-65.10-0.10","58ae59babb9e0f0001acb414","A3","batch1","","2375","tol_tohand","","","","tol_peg_1","2375","2375","0","[[1,0,0],[0,0],[3]]","11","[[0,0,0],[1,2],[3]]","18","0","","","","","","7","","","","","","","","",""
"","","","","","single-stim-button","328","407424","0.0-2.0-65.10-1.10","58ae59babb9e0f0001acb414","A3","batch1","","2329","tol_toboard","","","","tol_peg_1","2329","2329","0","[[1,2,0],[0,0],[3]]","11","[[0,0,0],[1,2],[3]]","18","0","","","","","","7","","","","","","","","",""
"","","","","","single-stim-button","329","407782","0.0-2.0-65.11-0.11","58ae59babb9e0f0001acb414","A3","batch1","","358","tol_tohand","","","","tol_peg_3","358","358","0","[[1,2,0],[0,0],[0]]","12","[[0,0,0],[1,2],[3]]","18","0","","","","","","7","","","","","","","","",""
"","","","","","single-stim-button","330","408053","0.0-2.0-65.11-1.11","58ae59babb9e0f0001acb414","A3","batch1","","269","tol_toboard","","","","tol_peg_2","269","269","0","[[1,2,0],[3,0],[0]]","12","[[0,0,0],[1,2],[3]]","18","0","","","","","","7","","","","","","","","",""
"","","","","","single-stim-button","331","408316","0.0-2.0-65.12-0.12","58ae59babb9e0f0001acb414","A3","batch1","","263","tol_tohand","","","","tol_peg_1","263","263","0","[[1,0,0],[3,0],[0]]","13","[[0,0,0],[1,2],[3]]","18","0","","","","","","7","","","","","","","","",""
"","","","","","single-stim-button","332","408685","0.0-2.0-65.12-1.12","58ae59babb9e0f0001acb414","A3","batch1","","369","tol_toboard","","","","tol_peg_3","369","369","0","[[1,0,0],[3,0],[2]]","13","[[0,0,0],[1,2],[3]]","18","0","","","","","","7","","","","","","","","",""
"","","","","","single-stim-button","333","408902","0.0-2.0-65.13-0.13","58ae59babb9e0f0001acb414","A3","batch1","","216","tol_tohand","","","","tol_peg_3","216","216","0","[[1,0,0],[3,0],[0]]","14","[[0,0,0],[1,2],[3]]","18","0","","","","","","7","","","","","","","","",""
"","","","","","single-stim-button","334","409670","0.0-2.0-65.13-1.13","58ae59babb9e0f0001acb414","A3","batch1","","768","tol_toboard","","","","tol_peg_3","768","768","0","[[1,0,0],[3,0],[2]]","14","[[0,0,0],[1,2],[3]]","18","0","","","","","","7","","","","","","","","",""
"","","","","","single-stim-button","335","410354","0.0-2.0-65.14-0.14","58ae59babb9e0f0001acb414","A3","batch1","","684","tol_tohand","","","","tol_peg_2","684","684","0","[[1,0,0],[0,0],[2]]","15","[[0,0,0],[1,2],[3]]","18","0","","","","","","7","","","","","","","","",""
"","","","","","single-stim-button","336","413085","0.0-2.0-65.14-1.14","58ae59babb9e0f0001acb414","A3","batch1","","2730","tol_toboard","","","","tol_peg_2","2730","2730","0","[[1,0,0],[3,0],[2]]","15","[[0,0,0],[1,2],[3]]","18","0","","","","","","7","","","","","","","","",""
"","","","","","single-stim-button","337","413394","0.0-2.0-65.15-0.15","58ae59babb9e0f0001acb414","A3","batch1","","308","tol_tohand","","","","tol_peg_1","308","308","0","[[0,0,0],[3,0],[2]]","16","[[0,0,0],[1,2],[3]]","18","0","","","","","","7","","","","","","","","",""
"","","","","","single-stim-button","338","413700","0.0-2.0-65.15-1.15","58ae59babb9e0f0001acb414","A3","batch1","","305","tol_toboard","","","","tol_peg_2","305","305","0","[[0,0,0],[3,1],[2]]","16","[[0,0,0],[1,2],[3]]","18","0","","","","","","7","","","","","","","","",""
"","","","","","single-stim-button","339","416501","0.0-2.0-65.16-0.16","58ae59babb9e0f0001acb414","A3","batch1","","2801","tol_tohand","","","","tol_peg_2","2801","2801","0","[[0,0,0],[3,0],[2]]","17","[[0,0,0],[1,2],[3]]","18","0","","","","","","7","","","","","","","","",""
"","","","","","single-stim-button","340","416957","0.0-2.0-65.16-1.16","58ae59babb9e0f0001acb414","A3","batch1","","456","tol_toboard","","","","tol_peg_1","456","456","0","[[1,0,0],[3,0],[2]]","17","[[0,0,0],[1,2],[3]]","18","0","","","","","","7","","","","","","","","",""
"","","","","","single-stim-button","341","417226","0.0-2.0-65.17-0.17","58ae59babb9e0f0001acb414","A3","batch1","","268","tol_tohand","","","","tol_peg_2","268","268","0","[[1,0,0],[0,0],[2]]","18","[[0,0,0],[1,2],[3]]","18","0","","","","","","7","","","","","","","","",""
"","","","","","single-stim-button","342","417452","0.0-2.0-65.17-1.17","58ae59babb9e0f0001acb414","A3","batch1","","226","tol_toboard","","","","tol_peg_1","226","226","0","[[1,3,0],[0,0],[2]]","18","[[0,0,0],[1,2],[3]]","18","0","","","","","","7","","","","","","","","",""
"","","","","","single-stim-button","343","418099","0.0-2.0-65.18-0.18","58ae59babb9e0f0001acb414","A3","batch1","","646","tol_tohand","","","","tol_peg_3","646","646","0","[[1,3,0],[0,0],[0]]","19","[[0,0,0],[1,2],[3]]","18","0","","","","","","7","","","","","","","","",""
"","","","","","single-stim-button","344","418556","0.0-2.0-65.18-1.18","58ae59babb9e0f0001acb414","A3","batch1","","456","tol_toboard","","","","tol_peg_1","456","456","0","[[1,3,2],[0,0],[0]]","19","[[0,0,0],[1,2],[3]]","18","0","","","","","","7","","","","","","","","",""
"","","","","","single-stim-button","345","420483","0.0-2.0-65.19-0.19","58ae59babb9e0f0001acb414","A3","batch1","","1926","tol_tohand","","","","tol_peg_1","1926","1926","0","[[1,3,0],[0,0],[0]]","20","[[0,0,0],[1,2],[3]]","18","0","","","","","","7","","","","","","","","",""
"","","","","","single-stim-button","346","421110","0.0-2.0-65.19-1.19","58ae59babb9e0f0001acb414","A3","batch1","","627","tol_toboard","","","","tol_peg_2","627","627","0","[[1,3,0],[2,0],[0]]","20","[[0,0,0],[1,2],[3]]","18","0","","","","","","7","","","","","","","","",""
"","","","","","single-stim-button","347","421415","0.0-2.0-65.20-0.20","58ae59babb9e0f0001acb414","A3","batch1","","305","tol_tohand","","","","tol_peg_1","305","305","0","[[1,0,0],[2,0],[0]]","21","[[0,0,0],[1,2],[3]]","18","0","","","","","","7","","","","","","","","",""
"","","","","","single-stim-button","348","421851","0.0-2.0-65.20-1.20","58ae59babb9e0f0001acb414","A3","batch1","","436","tol_toboard","","","","tol_peg_3","436","436","0","[[1,0,0],[2,0],[3]]","21","[[0,0,0],[1,2],[3]]","18","0","","","","","","7","","","","","","","","",""
"","","","","","single-stim-button","349","423045","0.0-2.0-65.21-0.21","58ae59babb9e0f0001acb414","A3","batch1","","1194","tol_tohand","","","","tol_peg_2","1194","1194","0","[[1,0,0],[0,0],[3]]","22","[[0,0,0],[1,2],[3]]","18","0","","","","","","7","","","","","","","","",""
"","","","","","single-stim-button","350","423467","0.0-2.0-65.21-1.21","58ae59babb9e0f0001acb414","A3","batch1","","422","tol_toboard","","","","tol_peg_1","422","422","0","[[1,2,0],[0,0],[3]]","22","[[0,0,0],[1,2],[3]]","18","0","","","","","","7","","","","","","","","",""
"","","","","","single-stim-button","351","424691","0.0-2.0-65.22-0.22","58ae59babb9e0f0001acb414","A3","batch1","","1223","tol_tohand","","","","tol_peg_3","1223","1223","0","[[1,2,0],[0,0],[0]]","23","[[0,0,0],[1,2],[3]]","18","0","","","","","","7","","","","","","","","",""
"","","","","","single-stim-button","352","424908","0.0-2.0-65.22-1.22","58ae59babb9e0f0001acb414","A3","batch1","","217","tol_toboard","","","","tol_peg_2","217","217","0","[[1,2,0],[3,0],[0]]","23","[[0,0,0],[1,2],[3]]","18","0","","","","","","7","","","","","","","","",""
"","","","","","single-stim-button","353","425186","0.0-2.0-65.23-0.23","58ae59babb9e0f0001acb414","A3","batch1","","278","tol_tohand","","","","tol_peg_1","278","278","0","[[1,0,0],[3,0],[0]]","24","[[0,0,0],[1,2],[3]]","18","0","","","","","","7","","","","","","","","",""
"","","","","","single-stim-button","354","425455","0.0-2.0-65.23-1.23","58ae59babb9e0f0001acb414","A3","batch1","","269","tol_toboard","","","","tol_peg_2","269","269","0","[[1,0,0],[3,2],[0]]","24","[[0,0,0],[1,2],[3]]","18","0","","","","","","7","","","","","","","","",""
"","","","","","single-stim-button","355","426893","0.0-2.0-65.24-0.24","58ae59babb9e0f0001acb414","A3","batch1","","1438","tol_tohand","","","","tol_peg_1","1438","1438","0","[[0,0,0],[3,2],[0]]","25","[[0,0,0],[1,2],[3]]","18","0","","","","","","7","","","","","","","","",""
"","","","","","single-stim-button","356","427332","0.0-2.0-65.24-1.24","58ae59babb9e0f0001acb414","A3","batch1","","439","tol_toboard","","","","tol_peg_3","439","439","0","[[0,0,0],[3,2],[1]]","25","[[0,0,0],[1,2],[3]]","18","0","","","","","","7","","","","","","","","",""
"","","","","","single-stim-button","357","429381","0.0-2.0-65.25-0.25","58ae59babb9e0f0001acb414","A3","batch1","","2049","tol_tohand","","","","tol_peg_2","2049","2049","0","[[0,0,0],[3,0],[1]]","26","[[0,0,0],[1,2],[3]]","18","0","","","","","","7","","","","","","","","",""
