"success","timeout","failed_images","failed_audio","failed_video","trial_type","trial_index","time_elapsed","internal_node_id","subject_id","study_id","session_id","view_history","rt","task","stimulus","response","correct","mouse_click","stim_duration","block_duration","timing_post_trial","current_position","tol_num_moves_made","tol_target","tol_problem_id","tol_rt","key_press","possible_responses","tol_correct","preplanning","tol_rt_per_trial","tol_min_moves","answer","item","fiar_detect_rt","fiar_detect_correct","total_correct_fiar_detect","post_trial_gap","choices","spm_correct","spm_rt"
"true","false","[]","[]","[]","preload","0","2878","0.0-0.0","58d069219dbe3f0001258793","D2","batch4","","","","","","","","","","","","","","","","","","","","","","","","","","","","","",""
"true","","","","","fullscreen","1","14377","0.0-1.0-0.0","58d069219dbe3f0001258793","D2","batch4","","","","","","","","","","","","","","","","","","","","","","","","","","","","","",""
"true","","","","","fullscreen","2","17021","0.0-2.0-0.0","58d069219dbe3f0001258793","D2","batch4","","","","","","","","","","","","","","","","","","","","","","","","","","","","","",""
"","","","","","instructions","3","125559","0.0-2.0-1.0-0.0-0.0","58d069219dbe3f0001258793","D2","batch4","[{""page_index"":0,""viewing_time"":74312.90000000596},{""page_index"":1,""viewing_time"":4615.0999999940395},{""page_index"":2,""viewing_time"":3416},{""page_index"":3,""viewing_time"":8200.700000017881},{""page_index"":4,""viewing_time"":7703.899999976158},{""page_index"":5,""viewing_time"":4119.700000017881},{""page_index"":6,""viewing_time"":6168.299999982119}]","108536.90000000596","tol-instructions","","","","","","","","","","","","","","","","","","","","","","","","","","",""
"","","","","","html-button-response","4","126863","0.0-2.0-1.0-1.0-0.0","58d069219dbe3f0001258793","D2","batch4","","1303.4000000059605","tol_enter_quiz","<p class=block-text> Let's answer a few questions <br>","0","","","","","","","","","","","","","","","","","","","","","","","","",""
"","","","","","html-button-response","5","137286","0.0-2.0-1.0-1.0-1.0","58d069219dbe3f0001258793","D2","batch4","","10422.300000011921","tol_quiz","<p class = block-text>True or False: You can only move the ball on top of a peg. <br></p>","0","true","","","","","","","","","","","","","","","","","","","","","","","",""
"","","","","","html-button-response","6","138967","0.0-2.0-1.0-1.0-2.0","58d069219dbe3f0001258793","D2","batch4","","1678.9000000059605","tol_quiz_feedback","<p class = block-text>Correct! You can only move the ball on top of a peg.</p>","0","","","","","","","","","","","","","","","","","","","","","","","","",""
"","","","","","html-button-response","7","142678","0.0-2.0-1.0-1.0-3.0","58d069219dbe3f0001258793","D2","batch4","","3711.4000000059605","tol_quiz","<p class = block-text>True or False: You should try to match your board with the target board with fewest moves possible. <br></p>","0","true","","","","","","","","","","","","","","","","","","","","","","","",""
"","","","","","html-button-response","8","143806","0.0-2.0-1.0-1.0-4.0","58d069219dbe3f0001258793","D2","batch4","","1127.5","tol_quiz_feedback","<p class = block-text>Correct! </p>","0","","","","","","","","","","","","","","","","","","","","","","","","",""
"","","","","","html-button-response","9","145959","0.0-2.0-2.0","58d069219dbe3f0001258793","D2","batch4","","2151.0999999940395","","<p class=block-text> Now that you've understood the game, let's practice a few easier examples before we start!<br> <br>","0","","","","","","","","","","","","","","","","","","","","","","","","",""
"","","","","","single-stim-button","10","148047","0.0-2.0-3.0-0.0","58d069219dbe3f0001258793","D2","batch4","","2087","tol_practice","","","","tol_peg_2","2087","2087","0","[[1,2,0],[0,0],[0]]","1","[[1,2,0],[0,0],[3]]","practice","2087","","","","","","","","","","","","","","",""
"","","","","","single-stim-button","11","149382","0.0-2.0-3.0-1.0","58d069219dbe3f0001258793","D2","batch4","","1335","tol_practice","","","","tol_peg_3","1335","1335","0","[[1,2,0],[0,0],[3]]","1","[[1,2,0],[0,0],[3]]","practice","1335","","","","","","","","","","","","","","",""
"","","","","","poldrack-single-stim","12","150385","0.0-2.0-4.0","58d069219dbe3f0001258793","D2","batch4","","-1","tol_feedback","","","true","","1000","1000","500","","","","","","-1","none","true","","0","","","","","","","","","",""
"","","","","","single-stim-button","13","153920","0.0-2.0-5.0-0.0","58d069219dbe3f0001258793","D2","batch4","","3535","tol_practice","","","","tol_peg_1","3535","3535","0","[[1,0,0],[3,0],[0]]","2","[[0,0,0],[3,1],[2]]","practice","3535","","","","","","","","","","","","","","",""
"","","","","","single-stim-button","14","154806","0.0-2.0-5.0-1.0","58d069219dbe3f0001258793","D2","batch4","","886","tol_practice","","","","tol_peg_3","886","886","0","[[1,0,0],[3,0],[2]]","2","[[0,0,0],[3,1],[2]]","practice","886","","","","","","","","","","","","","","",""
"","","","","","single-stim-button","15","155559","0.0-2.0-5.1-0.1","58d069219dbe3f0001258793","D2","batch4","","752","tol_practice","","","","tol_peg_1","752","752","0","[[0,0,0],[3,0],[2]]","3","[[0,0,0],[3,1],[2]]","practice","752","","","","","","","","","","","","","","",""
"","","","","","single-stim-button","16","156326","0.0-2.0-5.1-1.1","58d069219dbe3f0001258793","D2","batch4","","767","tol_practice","","","","tol_peg_2","767","767","0","[[0,0,0],[3,1],[2]]","3","[[0,0,0],[3,1],[2]]","practice","767","","","","","","","","","","","","","","",""
"","","","","","poldrack-single-stim","17","157328","0.0-2.0-6.0","58d069219dbe3f0001258793","D2","batch4","","-1","tol_feedback","","","true","","1000","1000","500","","","","","","-1","none","true","","0","","","","","","","","","",""
"","","","","","single-stim-button","18","162774","0.0-2.0-7.0-0.0","58d069219dbe3f0001258793","D2","batch4","","5446","tol_practice","","","","tol_peg_2","5446","5446","0","[[1,2,0],[0,0],[0]]","4","[[1,0,0],[2,0],[3]]","practice","5446","","","","","","","","","","","","","","",""
"","","","","","single-stim-button","19","163454","0.0-2.0-7.0-1.0","58d069219dbe3f0001258793","D2","batch4","","680","tol_practice","","","","tol_peg_1","680","680","0","[[1,2,3],[0,0],[0]]","4","[[1,0,0],[2,0],[3]]","practice","680","","","","","","","","","","","","","","",""
"","","","","","single-stim-button","20","164438","0.0-2.0-7.1-0.1","58d069219dbe3f0001258793","D2","batch4","","984","tol_practice","","","","tol_peg_1","984","984","0","[[1,2,0],[0,0],[0]]","5","[[1,0,0],[2,0],[3]]","practice","984","","","","","","","","","","","","","","",""
"","","","","","single-stim-button","21","165518","0.0-2.0-7.1-1.1","58d069219dbe3f0001258793","D2","batch4","","1079","tol_practice","","","","tol_peg_3","1079","1079","0","[[1,2,0],[0,0],[3]]","5","[[1,0,0],[2,0],[3]]","practice","1079","","","","","","","","","","","","","","",""
"","","","","","single-stim-button","22","166311","0.0-2.0-7.2-0.2","58d069219dbe3f0001258793","D2","batch4","","792","tol_practice","","","","tol_peg_1","792","792","0","[[1,0,0],[0,0],[3]]","6","[[1,0,0],[2,0],[3]]","practice","792","","","","","","","","","","","","","","",""
"","","","","","single-stim-button","23","166798","0.0-2.0-7.2-1.2","58d069219dbe3f0001258793","D2","batch4","","486","tol_practice","","","","tol_peg_2","486","486","0","[[1,0,0],[2,0],[3]]","6","[[1,0,0],[2,0],[3]]","practice","486","","","","","","","","","","","","","","",""
"","","","","","poldrack-single-stim","24","167798","0.0-2.0-8.0","58d069219dbe3f0001258793","D2","batch4","","-1","tol_feedback","","","true","","1000","1000","500","","","","","","-1","none","true","","0","","","","","","","","","",""
"","","","","","html-button-response","25","171454","0.0-2.0-9.0","58d069219dbe3f0001258793","D2","batch4","","3655.4000000059605","tol_instruction","<div class = centerbox><p class = center-block-text>Great job! You are done with practice trials<br>You are about to start official trials.<br> <br> Problem <strong>1</strong> out of 25 problems</p></div>","0","","","","","","","","","","","","","","","","","","","","","","","","",""
"","","","","","single-stim-button","26","178414","0.0-2.0-10.0-0.0","58d069219dbe3f0001258793","D2","batch4","","5952","tol_tohand","","","","tol_peg_1","5952","5952","0","[[1,0,0],[3,0],[0]]","1","[[1,3,0],[2,0],[0]]","0","0","","","","","","3","","","","","","","","",""
"","","","","","single-stim-button","27","179462","0.0-2.0-10.0-1.0","58d069219dbe3f0001258793","D2","batch4","","1048","tol_toboard","","","","tol_peg_3","1048","1048","0","[[1,0,0],[3,0],[2]]","1","[[1,3,0],[2,0],[0]]","0","0","","","","","","3","","","","","","","","",""
"","","","","","single-stim-button","28","180167","0.0-2.0-10.1-0.1","58d069219dbe3f0001258793","D2","batch4","","704","tol_tohand","","","","tol_peg_2","704","704","0","[[1,0,0],[0,0],[2]]","2","[[1,3,0],[2,0],[0]]","0","0","","","","","","3","","","","","","","","",""
"","","","","","single-stim-button","29","180894","0.0-2.0-10.1-1.1","58d069219dbe3f0001258793","D2","batch4","","727","tol_toboard","","","","tol_peg_1","727","727","0","[[1,3,0],[0,0],[2]]","2","[[1,3,0],[2,0],[0]]","0","0","","","","","","3","","","","","","","","",""
"","","","","","single-stim-button","30","181693","0.0-2.0-10.2-0.2","58d069219dbe3f0001258793","D2","batch4","","798","tol_tohand","","","","tol_peg_3","798","798","0","[[1,3,0],[0,0],[0]]","3","[[1,3,0],[2,0],[0]]","0","0","","","","","","3","","","","","","","","",""
"","","","","","single-stim-button","31","182334","0.0-2.0-10.2-1.2","58d069219dbe3f0001258793","D2","batch4","","640","tol_toboard","","","","tol_peg_2","640","640","0","[[1,3,0],[2,0],[0]]","3","[[1,3,0],[2,0],[0]]","0","0","","","","","","3","","","","","","","","",""
"","","","","","poldrack-single-stim","32","183340","0.0-2.0-11.0","58d069219dbe3f0001258793","D2","batch4","","-1","tol_feedback","","","true","","1000","1000","500","","","","","","-1","none","true","5952","7454","","","","","","","","","",""
"","","","","","html-button-response","33","184544","0.0-2.0-12.0","58d069219dbe3f0001258793","D2","batch4","","1203.4000000059605","tol_trial_num","<div class = centerbox><p class = center-block-text>problem <strong>2</strong> out of 25 problems</p></div>","0","","","","","","","","","","","","","","","","","","","","","","","","",""
"","","","","","single-stim-button","34","194094","0.0-2.0-13.0-0.0","58d069219dbe3f0001258793","D2","batch4","","9549","tol_tohand","","","","tol_peg_1","9549","9549","0","[[1,0,0],[3,0],[0]]","1","[[2,1,3],[0,0],[0]]","1","0","","","","","","5","","","","","","","","",""
"","","","","","single-stim-button","35","194815","0.0-2.0-13.0-1.0","58d069219dbe3f0001258793","D2","batch4","","721","tol_toboard","","","","tol_peg_3","721","721","0","[[1,0,0],[3,0],[2]]","1","[[2,1,3],[0,0],[0]]","1","0","","","","","","5","","","","","","","","",""
"","","","","","single-stim-button","36","195878","0.0-2.0-13.1-0.1","58d069219dbe3f0001258793","D2","batch4","","1063","tol_tohand","","","","tol_peg_1","1063","1063","0","[[0,0,0],[3,0],[2]]","2","[[2,1,3],[0,0],[0]]","1","0","","","","","","5","","","","","","","","",""
"","","","","","single-stim-button","37","196838","0.0-2.0-13.1-1.1","58d069219dbe3f0001258793","D2","batch4","","960","tol_toboard","","","","tol_peg_2","960","960","0","[[0,0,0],[3,1],[2]]","2","[[2,1,3],[0,0],[0]]","1","0","","","","","","5","","","","","","","","",""
"","","","","","single-stim-button","38","197439","0.0-2.0-13.2-0.2","58d069219dbe3f0001258793","D2","batch4","","600","tol_tohand","","","","tol_peg_3","600","600","0","[[0,0,0],[3,1],[0]]","3","[[2,1,3],[0,0],[0]]","1","0","","","","","","5","","","","","","","","",""
"","","","","","single-stim-button","39","198510","0.0-2.0-13.2-1.2","58d069219dbe3f0001258793","D2","batch4","","1071","tol_toboard","","","","tol_peg_1","1071","1071","0","[[2,0,0],[3,1],[0]]","3","[[2,1,3],[0,0],[0]]","1","0","","","","","","5","","","","","","","","",""
"","","","","","single-stim-button","40","199198","0.0-2.0-13.3-0.3","58d069219dbe3f0001258793","D2","batch4","","688","tol_tohand","","","","tol_peg_2","688","688","0","[[2,0,0],[3,0],[0]]","4","[[2,1,3],[0,0],[0]]","1","0","","","","","","5","","","","","","","","",""
"","","","","","single-stim-button","41","199830","0.0-2.0-13.3-1.3","58d069219dbe3f0001258793","D2","batch4","","632","tol_toboard","","","","tol_peg_1","632","632","0","[[2,1,0],[3,0],[0]]","4","[[2,1,3],[0,0],[0]]","1","0","","","","","","5","","","","","","","","",""
"","","","","","single-stim-button","42","200350","0.0-2.0-13.4-0.4","58d069219dbe3f0001258793","D2","batch4","","519","tol_tohand","","","","tol_peg_2","519","519","0","[[2,1,0],[0,0],[0]]","5","[[2,1,3],[0,0],[0]]","1","0","","","","","","5","","","","","","","","",""
"","","","","","single-stim-button","43","200950","0.0-2.0-13.4-1.4","58d069219dbe3f0001258793","D2","batch4","","599","tol_toboard","","","","tol_peg_1","599","599","0","[[2,1,3],[0,0],[0]]","5","[[2,1,3],[0,0],[0]]","1","0","","","","","","5","","","","","","","","",""
"","","","","","poldrack-single-stim","44","201962","0.0-2.0-14.0","58d069219dbe3f0001258793","D2","batch4","","-1","tol_feedback","","","true","","1000","1000","500","","","","","","-1","none","true","9549","12419","","","","","","","","","",""
"","","","","","html-button-response","45","202864","0.0-2.0-15.0","58d069219dbe3f0001258793","D2","batch4","","901.3000000119209","tol_trial_num","<div class = centerbox><p class = center-block-text>problem <strong>3</strong> out of 25 problems</p></div>","0","","","","","","","","","","","","","","","","","","","","","","","","",""
"","","","","","single-stim-button","46","204694","0.0-2.0-16.0-0.0","58d069219dbe3f0001258793","D2","batch4","","1830","tol_tohand","","","","tol_peg_1","1830","1830","0","[[2,0,0],[0,0],[1]]","1","[[1,2,0],[3,0],[0]]","2","0","","","","","","4","","","","","","","","",""
"","","","","","single-stim-button","47","205494","0.0-2.0-16.0-1.0","58d069219dbe3f0001258793","D2","batch4","","800","tol_toboard","","","","tol_peg_2","800","800","0","[[2,0,0],[3,0],[1]]","1","[[1,2,0],[3,0],[0]]","2","0","","","","","","4","","","","","","","","",""
"","","","","","single-stim-button","48","213094","0.0-2.0-16.1-0.1","58d069219dbe3f0001258793","D2","batch4","","7600","tol_tohand","","","","tol_peg_1","7600","7600","0","[[0,0,0],[3,0],[1]]","2","[[1,2,0],[3,0],[0]]","2","0","","","","","","4","","","","","","","","",""
"","","","","","single-stim-button","49","213878","0.0-2.0-16.1-1.1","58d069219dbe3f0001258793","D2","batch4","","783","tol_toboard","","","","tol_peg_2","783","783","0","[[0,0,0],[3,2],[1]]","2","[[1,2,0],[3,0],[0]]","2","0","","","","","","4","","","","","","","","",""
"","","","","","single-stim-button","50","214334","0.0-2.0-16.2-0.2","58d069219dbe3f0001258793","D2","batch4","","455","tol_tohand","","","","tol_peg_3","455","455","0","[[0,0,0],[3,2],[0]]","3","[[1,2,0],[3,0],[0]]","2","0","","","","","","4","","","","","","","","",""
"","","","","","single-stim-button","51","215046","0.0-2.0-16.2-1.2","58d069219dbe3f0001258793","D2","batch4","","712","tol_toboard","","","","tol_peg_1","712","712","0","[[1,0,0],[3,2],[0]]","3","[[1,2,0],[3,0],[0]]","2","0","","","","","","4","","","","","","","","",""
"","","","","","single-stim-button","52","215479","0.0-2.0-16.3-0.3","58d069219dbe3f0001258793","D2","batch4","","433","tol_tohand","","","","tol_peg_2","433","433","0","[[1,0,0],[3,0],[0]]","4","[[1,2,0],[3,0],[0]]","2","0","","","","","","4","","","","","","","","",""
"","","","","","single-stim-button","53","215918","0.0-2.0-16.3-1.3","58d069219dbe3f0001258793","D2","batch4","","439","tol_toboard","","","","tol_peg_1","439","439","0","[[1,2,0],[3,0],[0]]","4","[[1,2,0],[3,0],[0]]","2","0","","","","","","4","","","","","","","","",""
"","","","","","poldrack-single-stim","54","216934","0.0-2.0-17.0","58d069219dbe3f0001258793","D2","batch4","","-1","tol_feedback","","","true","","1000","1000","500","","","","","","-1","none","true","1830","10318","","","","","","","","","",""
"","","","","","html-button-response","55","218014","0.0-2.0-18.0","58d069219dbe3f0001258793","D2","batch4","","1078.5","tol_trial_num","<div class = centerbox><p class = center-block-text>problem <strong>4</strong> out of 25 problems</p></div>","0","","","","","","","","","","","","","","","","","","","","","","","","",""
"","","","","","single-stim-button","56","221558","0.0-2.0-19.0-0.0","58d069219dbe3f0001258793","D2","batch4","","3544","tol_tohand","","","","tol_peg_2","3544","3544","0","[[3,0,0],[2,0],[0]]","1","[[3,0,0],[1,0],[2]]","3","0","","","","","","3","","","","","","","","",""
"","","","","","single-stim-button","57","222438","0.0-2.0-19.0-1.0","58d069219dbe3f0001258793","D2","batch4","","880","tol_toboard","","","","tol_peg_1","880","880","0","[[3,1,0],[2,0],[0]]","1","[[3,0,0],[1,0],[2]]","3","0","","","","","","3","","","","","","","","",""
"","","","","","single-stim-button","58","222870","0.0-2.0-19.1-0.1","58d069219dbe3f0001258793","D2","batch4","","432","tol_tohand","","","","tol_peg_2","432","432","0","[[3,1,0],[0,0],[0]]","2","[[3,0,0],[1,0],[2]]","3","0","","","","","","3","","","","","","","","",""
"","","","","","single-stim-button","59","223350","0.0-2.0-19.1-1.1","58d069219dbe3f0001258793","D2","batch4","","479","tol_toboard","","","","tol_peg_3","479","479","0","[[3,1,0],[0,0],[2]]","2","[[3,0,0],[1,0],[2]]","3","0","","","","","","3","","","","","","","","",""
"","","","","","single-stim-button","60","224032","0.0-2.0-19.2-0.2","58d069219dbe3f0001258793","D2","batch4","","682","tol_tohand","","","","tol_peg_1","682","682","0","[[3,0,0],[0,0],[2]]","3","[[3,0,0],[1,0],[2]]","3","0","","","","","","3","","","","","","","","",""
"","","","","","single-stim-button","61","224566","0.0-2.0-19.2-1.2","58d069219dbe3f0001258793","D2","batch4","","533","tol_toboard","","","","tol_peg_2","533","533","0","[[3,0,0],[1,0],[2]]","3","[[3,0,0],[1,0],[2]]","3","0","","","","","","3","","","","","","","","",""
"","","","","","poldrack-single-stim","62","225577","0.0-2.0-20.0","58d069219dbe3f0001258793","D2","batch4","","-1","tol_feedback","","","true","","1000","1000","500","","","","","","-1","none","true","3544","4658","","","","","","","","","",""
"","","","","","html-button-response","63","226662","0.0-2.0-21.0","58d069219dbe3f0001258793","D2","batch4","","1083.9000000059605","tol_trial_num","<div class = centerbox><p class = center-block-text>problem <strong>5</strong> out of 25 problems</p></div>","0","","","","","","","","","","","","","","","","","","","","","","","","",""
"","","","","","single-stim-button","64","266845","0.0-2.0-22.0-0.0","58d069219dbe3f0001258793","D2","batch4","","40183","tol_tohand","","","","tol_peg_1","40183","40183","0","[[0,0,0],[2,0],[3]]","1","[[0,0,0],[1,2],[3]]","4","0","","","","","","7","","","","","","","","",""
"","","","","","single-stim-button","65","271719","0.0-2.0-22.0-1.0","58d069219dbe3f0001258793","D2","batch4","","4873","tol_toboard","","","","tol_peg_2","4873","4873","0","[[0,0,0],[2,1],[3]]","1","[[0,0,0],[1,2],[3]]","4","0","","","","","","7","","","","","","","","",""
"","","","","","single-stim-button","66","272230","0.0-2.0-22.1-0.1","58d069219dbe3f0001258793","D2","batch4","","511","tol_tohand","","","","tol_peg_3","511","511","0","[[0,0,0],[2,1],[0]]","2","[[0,0,0],[1,2],[3]]","4","0","","","","","","7","","","","","","","","",""
"","","","","","single-stim-button","67","273785","0.0-2.0-22.1-1.1","58d069219dbe3f0001258793","D2","batch4","","1555","tol_toboard","","","","tol_peg_1","1555","1555","0","[[3,0,0],[2,1],[0]]","2","[[0,0,0],[1,2],[3]]","4","0","","","","","","7","","","","","","","","",""
"","","","","","single-stim-button","68","274637","0.0-2.0-22.2-0.2","58d069219dbe3f0001258793","D2","batch4","","852","tol_tohand","","","","tol_peg_2","852","852","0","[[3,0,0],[2,0],[0]]","3","[[0,0,0],[1,2],[3]]","4","0","","","","","","7","","","","","","","","",""
"","","","","","single-stim-button","69","276503","0.0-2.0-22.2-1.2","58d069219dbe3f0001258793","D2","batch4","","1865","tol_toboard","","","","tol_peg_1","1865","1865","0","[[3,1,0],[2,0],[0]]","3","[[0,0,0],[1,2],[3]]","4","0","","","","","","7","","","","","","","","",""
"","","","","","single-stim-button","70","278807","0.0-2.0-22.3-0.3","58d069219dbe3f0001258793","D2","batch4","","2303","tol_tohand","","","","tol_peg_2","2303","2303","0","[[3,1,0],[0,0],[0]]","4","[[0,0,0],[1,2],[3]]","4","0","","","","","","7","","","","","","","","",""
"","","","","","single-stim-button","71","279622","0.0-2.0-22.3-1.3","58d069219dbe3f0001258793","D2","batch4","","814","tol_toboard","","","","tol_peg_3","814","814","0","[[3,1,0],[0,0],[2]]","4","[[0,0,0],[1,2],[3]]","4","0","","","","","","7","","","","","","","","",""
"","","","","","single-stim-button","72","280190","0.0-2.0-22.4-0.4","58d069219dbe3f0001258793","D2","batch4","","568","tol_tohand","","","","tol_peg_1","568","568","0","[[3,0,0],[0,0],[2]]","5","[[0,0,0],[1,2],[3]]","4","0","","","","","","7","","","","","","","","",""
"","","","","","single-stim-button","73","280855","0.0-2.0-22.4-1.4","58d069219dbe3f0001258793","D2","batch4","","664","tol_toboard","","","","tol_peg_2","664","664","0","[[3,0,0],[1,0],[2]]","5","[[0,0,0],[1,2],[3]]","4","0","","","","","","7","","","","","","","","",""
"","","","","","single-stim-button","74","281975","0.0-2.0-22.5-0.5","58d069219dbe3f0001258793","D2","batch4","","1120","tol_tohand","","","","tol_peg_1","1120","1120","0","[[0,0,0],[1,0],[2]]","6","[[0,0,0],[1,2],[3]]","4","0","","","","","","7","","","","","","","","",""
"","","","","","single-stim-button","75","282446","0.0-2.0-22.5-1.5","58d069219dbe3f0001258793","D2","batch4","","471","tol_toboard","","","","tol_peg_2","471","471","0","[[0,0,0],[1,3],[2]]","6","[[0,0,0],[1,2],[3]]","4","0","","","","","","7","","","","","","","","",""
"","","","","","single-stim-button","76","282919","0.0-2.0-22.6-0.6","58d069219dbe3f0001258793","D2","batch4","","473","tol_tohand","","","","tol_peg_3","473","473","0","[[0,0,0],[1,3],[0]]","7","[[0,0,0],[1,2],[3]]","4","0","","","","","","7","","","","","","","","",""
"","","","","","single-stim-button","77","283557","0.0-2.0-22.6-1.6","58d069219dbe3f0001258793","D2","batch4","","637","tol_toboard","","","","tol_peg_1","637","637","0","[[2,0,0],[1,3],[0]]","7","[[0,0,0],[1,2],[3]]","4","0","","","","","","7","","","","","","","","",""
"","","","","","single-stim-button","78","284157","0.0-2.0-22.7-0.7","58d069219dbe3f0001258793","D2","batch4","","599","tol_tohand","","","","tol_peg_2","599","599","0","[[2,0,0],[1,0],[0]]","8","[[0,0,0],[1,2],[3]]","4","0","","","","","","7","","","","","","","","",""
"","","","","","single-stim-button","79","284527","0.0-2.0-22.7-1.7","58d069219dbe3f0001258793","D2","batch4","","369","tol_toboard","","","","tol_peg_3","369","369","0","[[2,0,0],[1,0],[3]]","8","[[0,0,0],[1,2],[3]]","4","0","","","","","","7","","","","","","","","",""
"","","","","","single-stim-button","80","287549","0.0-2.0-22.8-0.8","58d069219dbe3f0001258793","D2","batch4","","3022","tol_tohand","","","","tol_peg_1","3022","3022","0","[[0,0,0],[1,0],[3]]","9","[[0,0,0],[1,2],[3]]","4","0","","","","","","7","","","","","","","","",""
"","","","","","single-stim-button","81","287821","0.0-2.0-22.8-1.8","58d069219dbe3f0001258793","D2","batch4","","271","tol_toboard","","","","tol_peg_2","271","271","0","[[0,0,0],[1,2],[3]]","9","[[0,0,0],[1,2],[3]]","4","0","","","","","","7","","","","","","","","",""
"","","","","","poldrack-single-stim","82","288827","0.0-2.0-23.0","58d069219dbe3f0001258793","D2","batch4","","-1","tol_feedback","","","true","","1000","1000","500","","","","","","-1","none","true","40183","49631","","","","","","","","","",""
"","","","","","html-button-response","83","289533","0.0-2.0-24.0","58d069219dbe3f0001258793","D2","batch4","","705.1999999880791","tol_trial_num","<div class = centerbox><p class = center-block-text>problem <strong>6</strong> out of 25 problems</p></div>","0","","","","","","","","","","","","","","","","","","","","","","","","",""
"","","","","","single-stim-button","84","295325","0.0-2.0-25.0-0.0","58d069219dbe3f0001258793","D2","batch4","","5792","tol_tohand","","","","tol_peg_2","5792","5792","0","[[0,0,0],[1,0],[3]]","1","[[1,0,0],[2,3],[0]]","5","0","","","","","","6","","","","","","","","",""
"","","","","","single-stim-button","85","296237","0.0-2.0-25.0-1.0","58d069219dbe3f0001258793","D2","batch4","","912","tol_toboard","","","","tol_peg_1","912","912","0","[[2,0,0],[1,0],[3]]","1","[[1,0,0],[2,3],[0]]","5","0","","","","","","6","","","","","","","","",""
"","","","","","single-stim-button","86","305764","0.0-2.0-25.1-0.1","58d069219dbe3f0001258793","D2","batch4","","9527","tol_tohand","","","","tol_peg_3","9527","9527","0","[[2,0,0],[1,0],[0]]","2","[[1,0,0],[2,3],[0]]","5","0","","","","","","6","","","","","","","","",""
"","","","","","single-stim-button","87","306565","0.0-2.0-25.1-1.1","58d069219dbe3f0001258793","D2","batch4","","800","tol_toboard","","","","tol_peg_1","800","800","0","[[2,3,0],[1,0],[0]]","2","[[1,0,0],[2,3],[0]]","5","0","","","","","","6","","","","","","","","",""
"","","","","","single-stim-button","88","307220","0.0-2.0-25.2-0.2","58d069219dbe3f0001258793","D2","batch4","","655","tol_tohand","","","","tol_peg_2","655","655","0","[[2,3,0],[0,0],[0]]","3","[[1,0,0],[2,3],[0]]","5","0","","","","","","6","","","","","","","","",""
"","","","","","single-stim-button","89","308205","0.0-2.0-25.2-1.2","58d069219dbe3f0001258793","D2","batch4","","983","tol_toboard","","","","tol_peg_3","983","983","0","[[2,3,0],[0,0],[1]]","3","[[1,0,0],[2,3],[0]]","5","0","","","","","","6","","","","","","","","",""
"","","","","","single-stim-button","90","309828","0.0-2.0-25.3-0.3","58d069219dbe3f0001258793","D2","batch4","","1623","tol_tohand","","","","tol_peg_1","1623","1623","0","[[2,0,0],[0,0],[1]]","4","[[1,0,0],[2,3],[0]]","5","0","","","","","","6","","","","","","","","",""
"","","","","","single-stim-button","91","311445","0.0-2.0-25.3-1.3","58d069219dbe3f0001258793","D2","batch4","","1617","tol_toboard","","","","tol_peg_2","1617","1617","0","[[2,0,0],[3,0],[1]]","4","[[1,0,0],[2,3],[0]]","5","0","","","","","","6","","","","","","","","",""
"","","","","","single-stim-button","92","312221","0.0-2.0-25.4-0.4","58d069219dbe3f0001258793","D2","batch4","","775","tol_tohand","","","","tol_peg_3","775","775","0","[[2,0,0],[3,0],[0]]","5","[[1,0,0],[2,3],[0]]","5","0","","","","","","6","","","","","","","","",""
"","","","","","single-stim-button","93","313164","0.0-2.0-25.4-1.4","58d069219dbe3f0001258793","D2","batch4","","943","tol_toboard","","","","tol_peg_2","943","943","0","[[2,0,0],[3,1],[0]]","5","[[1,0,0],[2,3],[0]]","5","0","","","","","","6","","","","","","","","",""
"","","","","","single-stim-button","94","313517","0.0-2.0-25.5-0.5","58d069219dbe3f0001258793","D2","batch4","","352","tol_tohand","","","","tol_peg_1","352","352","0","[[0,0,0],[3,1],[0]]","6","[[1,0,0],[2,3],[0]]","5","0","","","","","","6","","","","","","","","",""
"","","","","","single-stim-button","95","314292","0.0-2.0-25.5-1.5","58d069219dbe3f0001258793","D2","batch4","","775","tol_toboard","","","","tol_peg_3","775","775","0","[[0,0,0],[3,1],[2]]","6","[[1,0,0],[2,3],[0]]","5","0","","","","","","6","","","","","","","","",""
"","","","","","single-stim-button","96","314820","0.0-2.0-25.6-0.6","58d069219dbe3f0001258793","D2","batch4","","527","tol_tohand","","","","tol_peg_2","527","527","0","[[0,0,0],[3,0],[2]]","7","[[1,0,0],[2,3],[0]]","5","0","","","","","","6","","","","","","","","",""
"","","","","","single-stim-button","97","315244","0.0-2.0-25.6-1.6","58d069219dbe3f0001258793","D2","batch4","","423","tol_toboard","","","","tol_peg_1","423","423","0","[[1,0,0],[3,0],[2]]","7","[[1,0,0],[2,3],[0]]","5","0","","","","","","6","","","","","","","","",""
"","","","","","single-stim-button","98","316460","0.0-2.0-25.7-0.7","58d069219dbe3f0001258793","D2","batch4","","1215","tol_tohand","","","","tol_peg_2","1215","1215","0","[[1,0,0],[0,0],[2]]","8","[[1,0,0],[2,3],[0]]","5","0","","","","","","6","","","","","","","","",""
"","","","","","single-stim-button","99","316959","0.0-2.0-25.7-1.7","58d069219dbe3f0001258793","D2","batch4","","498","tol_toboard","","","","tol_peg_1","498","498","0","[[1,3,0],[0,0],[2]]","8","[[1,0,0],[2,3],[0]]","5","0","","","","","","6","","","","","","","","",""
"","","","","","single-stim-button","100","317398","0.0-2.0-25.8-0.8","58d069219dbe3f0001258793","D2","batch4","","438","tol_tohand","","","","tol_peg_3","438","438","0","[[1,3,0],[0,0],[0]]","9","[[1,0,0],[2,3],[0]]","5","0","","","","","","6","","","","","","","","",""
"","","","","","single-stim-button","101","317705","0.0-2.0-25.8-1.8","58d069219dbe3f0001258793","D2","batch4","","307","tol_toboard","","","","tol_peg_2","307","307","0","[[1,3,0],[2,0],[0]]","9","[[1,0,0],[2,3],[0]]","5","0","","","","","","6","","","","","","","","",""
"","","","","","single-stim-button","102","318486","0.0-2.0-25.9-0.9","58d069219dbe3f0001258793","D2","batch4","","781","tol_tohand","","","","tol_peg_1","781","781","0","[[1,0,0],[2,0],[0]]","10","[[1,0,0],[2,3],[0]]","5","0","","","","","","6","","","","","","","","",""
"","","","","","single-stim-button","103","318789","0.0-2.0-25.9-1.9","58d069219dbe3f0001258793","D2","batch4","","303","tol_toboard","","","","tol_peg_2","303","303","0","[[1,0,0],[2,3],[0]]","10","[[1,0,0],[2,3],[0]]","5","0","","","","","","6","","","","","","","","",""
"","","","","","poldrack-single-stim","104","319803","0.0-2.0-26.0","58d069219dbe3f0001258793","D2","batch4","","-1","tol_feedback","","","true","","1000","1000","500","","","","","","-1","none","true","5792","21685","","","","","","","","","",""
"","","","","","html-button-response","105","320652","0.0-2.0-27.0","58d069219dbe3f0001258793","D2","batch4","","848.5","tol_trial_num","<div class = centerbox><p class = center-block-text>problem <strong>7</strong> out of 25 problems</p></div>","0","","","","","","","","","","","","","","","","","","","","","","","","",""
"","","","","","single-stim-button","106","325940","0.0-2.0-28.0-0.0","58d069219dbe3f0001258793","D2","batch4","","5288","tol_tohand","","","","tol_peg_1","5288","5288","0","[[2,0,0],[0,0],[3]]","1","[[1,2,0],[3,0],[0]]","6","0","","","","","","5","","","","","","","","",""
"","","","","","single-stim-button","107","326637","0.0-2.0-28.0-1.0","58d069219dbe3f0001258793","D2","batch4","","696","tol_toboard","","","","tol_peg_2","696","696","0","[[2,0,0],[1,0],[3]]","1","[[1,2,0],[3,0],[0]]","6","0","","","","","","5","","","","","","","","",""
"","","","","","single-stim-button","108","329166","0.0-2.0-28.1-0.1","58d069219dbe3f0001258793","D2","batch4","","2529","tol_tohand","","","","tol_peg_3","2529","2529","0","[[2,0,0],[1,0],[0]]","2","[[1,2,0],[3,0],[0]]","6","0","","","","","","5","","","","","","","","",""
"","","","","","single-stim-button","109","329772","0.0-2.0-28.1-1.1","58d069219dbe3f0001258793","D2","batch4","","606","tol_toboard","","","","tol_peg_2","606","606","0","[[2,0,0],[1,3],[0]]","2","[[1,2,0],[3,0],[0]]","6","0","","","","","","5","","","","","","","","",""
"","","","","","single-stim-button","110","330100","0.0-2.0-28.2-0.2","58d069219dbe3f0001258793","D2","batch4","","327","tol_tohand","","","","tol_peg_1","327","327","0","[[0,0,0],[1,3],[0]]","3","[[1,2,0],[3,0],[0]]","6","0","","","","","","5","","","","","","","","",""
"","","","","","single-stim-button","111","331276","0.0-2.0-28.2-1.2","58d069219dbe3f0001258793","D2","batch4","","1175","tol_toboard","","","","tol_peg_3","1175","1175","0","[[0,0,0],[1,3],[2]]","3","[[1,2,0],[3,0],[0]]","6","0","","","","","","5","","","","","","","","",""
"","","","","","single-stim-button","112","331973","0.0-2.0-28.3-0.3","58d069219dbe3f0001258793","D2","batch4","","696","tol_tohand","","","","tol_peg_2","696","696","0","[[0,0,0],[1,0],[2]]","4","[[1,2,0],[3,0],[0]]","6","0","","","","","","5","","","","","","","","",""
"","","","","","single-stim-button","113","332830","0.0-2.0-28.3-1.3","58d069219dbe3f0001258793","D2","batch4","","855","tol_toboard","","","","tol_peg_1","855","855","0","[[3,0,0],[1,0],[2]]","4","[[1,2,0],[3,0],[0]]","6","0","","","","","","5","","","","","","","","",""
"","","","","","single-stim-button","114","335485","0.0-2.0-28.4-0.4","58d069219dbe3f0001258793","D2","batch4","","2655","tol_tohand","","","","tol_peg_3","2655","2655","0","[[3,0,0],[1,0],[0]]","5","[[1,2,0],[3,0],[0]]","6","0","","","","","","5","","","","","","","","",""
"","","","","","single-stim-button","115","336044","0.0-2.0-28.4-1.4","58d069219dbe3f0001258793","D2","batch4","","559","tol_toboard","","","","tol_peg_2","559","559","0","[[3,0,0],[1,2],[0]]","5","[[1,2,0],[3,0],[0]]","6","0","","","","","","5","","","","","","","","",""
"","","","","","single-stim-button","116","336500","0.0-2.0-28.5-0.5","58d069219dbe3f0001258793","D2","batch4","","455","tol_tohand","","","","tol_peg_1","455","455","0","[[0,0,0],[1,2],[0]]","6","[[1,2,0],[3,0],[0]]","6","0","","","","","","5","","","","","","","","",""
"","","","","","single-stim-button","117","337356","0.0-2.0-28.5-1.5","58d069219dbe3f0001258793","D2","batch4","","855","tol_toboard","","","","tol_peg_3","855","855","0","[[0,0,0],[1,2],[3]]","6","[[1,2,0],[3,0],[0]]","6","0","","","","","","5","","","","","","","","",""
"","","","","","single-stim-button","118","341453","0.0-2.0-28.6-0.6","58d069219dbe3f0001258793","D2","batch4","","4097","tol_tohand","","","","tol_peg_3","4097","4097","0","[[0,0,0],[1,2],[0]]","7","[[1,2,0],[3,0],[0]]","6","0","","","","","","5","","","","","","","","",""
"","","","","","single-stim-button","119","342964","0.0-2.0-28.6-1.6","58d069219dbe3f0001258793","D2","batch4","","1511","tol_toboard","","","","tol_peg_1","1511","1511","0","[[3,0,0],[1,2],[0]]","7","[[1,2,0],[3,0],[0]]","6","0","","","","","","5","","","","","","","","",""
"","","","","","single-stim-button","120","343405","0.0-2.0-28.7-0.7","58d069219dbe3f0001258793","D2","batch4","","440","tol_tohand","","","","tol_peg_2","440","440","0","[[3,0,0],[1,0],[0]]","8","[[1,2,0],[3,0],[0]]","6","0","","","","","","5","","","","","","","","",""
"","","","","","single-stim-button","121","343773","0.0-2.0-28.7-1.7","58d069219dbe3f0001258793","D2","batch4","","368","tol_toboard","","","","tol_peg_1","368","368","0","[[3,2,0],[1,0],[0]]","8","[[1,2,0],[3,0],[0]]","6","0","","","","","","5","","","","","","","","",""
"","","","","","single-stim-button","122","349236","0.0-2.0-28.8-0.8","58d069219dbe3f0001258793","D2","batch4","","5463","tol_tohand","","","","tol_peg_2","5463","5463","0","[[3,2,0],[0,0],[0]]","9","[[1,2,0],[3,0],[0]]","6","0","","","","","","5","","","","","","","","",""
"","","","","","single-stim-button","123","350004","0.0-2.0-28.8-1.8","58d069219dbe3f0001258793","D2","batch4","","768","tol_toboard","","","","tol_peg_3","768","768","0","[[3,2,0],[0,0],[1]]","9","[[1,2,0],[3,0],[0]]","6","0","","","","","","5","","","","","","","","",""
"","","","","","single-stim-button","124","350541","0.0-2.0-28.9-0.9","58d069219dbe3f0001258793","D2","batch4","","537","tol_tohand","","","","tol_peg_1","537","537","0","[[3,0,0],[0,0],[1]]","10","[[1,2,0],[3,0],[0]]","6","0","","","","","","5","","","","","","","","",""
"","","","","","single-stim-button","125","351149","0.0-2.0-28.9-1.9","58d069219dbe3f0001258793","D2","batch4","","608","tol_toboard","","","","tol_peg_2","608","608","0","[[3,0,0],[2,0],[1]]","10","[[1,2,0],[3,0],[0]]","6","0","","","","","","5","","","","","","","","",""
"","","","","","single-stim-button","126","351702","0.0-2.0-28.10-0.10","58d069219dbe3f0001258793","D2","batch4","","553","tol_tohand","","","","tol_peg_3","553","553","0","[[3,0,0],[2,0],[0]]","11","[[1,2,0],[3,0],[0]]","6","0","","","","","","5","","","","","","","","",""
"","","","","","single-stim-button","127","352094","0.0-2.0-28.10-1.10","58d069219dbe3f0001258793","D2","batch4","","392","tol_toboard","","","","tol_peg_2","392","392","0","[[3,0,0],[2,1],[0]]","11","[[1,2,0],[3,0],[0]]","6","0","","","","","","5","","","","","","","","",""
"","","","","","single-stim-button","128","352452","0.0-2.0-28.11-0.11","58d069219dbe3f0001258793","D2","batch4","","357","tol_tohand","","","","tol_peg_1","357","357","0","[[0,0,0],[2,1],[0]]","12","[[1,2,0],[3,0],[0]]","6","0","","","","","","5","","","","","","","","",""
"","","","","","single-stim-button","129","353182","0.0-2.0-28.11-1.11","58d069219dbe3f0001258793","D2","batch4","","730","tol_toboard","","","","tol_peg_3","730","730","0","[[0,0,0],[2,1],[3]]","12","[[1,2,0],[3,0],[0]]","6","0","","","","","","5","","","","","","","","",""
"","","","","","single-stim-button","130","353973","0.0-2.0-28.12-0.12","58d069219dbe3f0001258793","D2","batch4","","791","tol_tohand","","","","tol_peg_2","791","791","0","[[0,0,0],[2,0],[3]]","13","[[1,2,0],[3,0],[0]]","6","0","","","","","","5","","","","","","","","",""
"","","","","","single-stim-button","131","354292","0.0-2.0-28.12-1.12","58d069219dbe3f0001258793","D2","batch4","","319","tol_toboard","","","","tol_peg_1","319","319","0","[[1,0,0],[2,0],[3]]","13","[[1,2,0],[3,0],[0]]","6","0","","","","","","5","","","","","","","","",""
"","","","","","single-stim-button","132","354822","0.0-2.0-28.13-0.13","58d069219dbe3f0001258793","D2","batch4","","530","tol_tohand","","","","tol_peg_2","530","530","0","[[1,0,0],[0,0],[3]]","14","[[1,2,0],[3,0],[0]]","6","0","","","","","","5","","","","","","","","",""
"","","","","","single-stim-button","133","355317","0.0-2.0-28.13-1.13","58d069219dbe3f0001258793","D2","batch4","","495","tol_toboard","","","","tol_peg_1","495","495","0","[[1,2,0],[0,0],[3]]","14","[[1,2,0],[3,0],[0]]","6","0","","","","","","5","","","","","","","","",""
"","","","","","single-stim-button","134","357784","0.0-2.0-28.14-0.14","58d069219dbe3f0001258793","D2","batch4","","2467","tol_tohand","","","","tol_peg_3","2467","2467","0","[[1,2,0],[0,0],[0]]","15","[[1,2,0],[3,0],[0]]","6","0","","","","","","5","","","","","","","","",""
"","","","","","single-stim-button","135","358061","0.0-2.0-28.14-1.14","58d069219dbe3f0001258793","D2","batch4","","277","tol_toboard","","","","tol_peg_2","277","277","0","[[1,2,0],[3,0],[0]]","15","[[1,2,0],[3,0],[0]]","6","0","","","","","","5","","","","","","","","",""
"","","","","","poldrack-single-stim","136","359063","0.0-2.0-29.0","58d069219dbe3f0001258793","D2","batch4","","-1","tol_feedback","","","true","","1000","1000","500","","","","","","-1","none","true","5288","27185","","","","","","","","","",""
"","","","","","html-button-response","137","359852","0.0-2.0-30.0","58d069219dbe3f0001258793","D2","batch4","","789.3999999761581","tol_trial_num","<div class = centerbox><p class = center-block-text>problem <strong>8</strong> out of 25 problems</p></div>","0","","","","","","","","","","","","","","","","","","","","","","","","",""
"","","","","","single-stim-button","138","362838","0.0-2.0-31.0-0.0","58d069219dbe3f0001258793","D2","batch4","","2985","tol_tohand","","","","tol_peg_3","2985","2985","0","[[0,0,0],[2,3],[0]]","1","[[1,2,0],[3,0],[0]]","7","0","","","","","","4","","","","","","","","",""
"","","","","","single-stim-button","139","363397","0.0-2.0-31.0-1.0","58d069219dbe3f0001258793","D2","batch4","","559","tol_toboard","","","","tol_peg_1","559","559","0","[[1,0,0],[2,3],[0]]","1","[[1,2,0],[3,0],[0]]","7","0","","","","","","4","","","","","","","","",""
"","","","","","single-stim-button","140","363964","0.0-2.0-31.1-0.1","58d069219dbe3f0001258793","D2","batch4","","567","tol_tohand","","","","tol_peg_2","567","567","0","[[1,0,0],[2,0],[0]]","2","[[1,2,0],[3,0],[0]]","7","0","","","","","","4","","","","","","","","",""
"","","","","","single-stim-button","141","364582","0.0-2.0-31.1-1.1","58d069219dbe3f0001258793","D2","batch4","","618","tol_toboard","","","","tol_peg_3","618","618","0","[[1,0,0],[2,0],[3]]","2","[[1,2,0],[3,0],[0]]","7","0","","","","","","4","","","","","","","","",""
"","","","","","single-stim-button","142","365077","0.0-2.0-31.2-0.2","58d069219dbe3f0001258793","D2","batch4","","495","tol_tohand","","","","tol_peg_2","495","495","0","[[1,0,0],[0,0],[3]]","3","[[1,2,0],[3,0],[0]]","7","0","","","","","","4","","","","","","","","",""
"","","","","","single-stim-button","143","365583","0.0-2.0-31.2-1.2","58d069219dbe3f0001258793","D2","batch4","","505","tol_toboard","","","","tol_peg_1","505","505","0","[[1,2,0],[0,0],[3]]","3","[[1,2,0],[3,0],[0]]","7","0","","","","","","4","","","","","","","","",""
"","","","","","single-stim-button","144","366117","0.0-2.0-31.3-0.3","58d069219dbe3f0001258793","D2","batch4","","533","tol_tohand","","","","tol_peg_3","533","533","0","[[1,2,0],[0,0],[0]]","4","[[1,2,0],[3,0],[0]]","7","0","","","","","","4","","","","","","","","",""
"","","","","","single-stim-button","145","366428","0.0-2.0-31.3-1.3","58d069219dbe3f0001258793","D2","batch4","","311","tol_toboard","","","","tol_peg_2","311","311","0","[[1,2,0],[3,0],[0]]","4","[[1,2,0],[3,0],[0]]","7","0","","","","","","4","","","","","","","","",""
"","","","","","poldrack-single-stim","146","367438","0.0-2.0-32.0","58d069219dbe3f0001258793","D2","batch4","","-1","tol_feedback","","","true","","1000","1000","500","","","","","","-1","none","true","2985","4580","","","","","","","","","",""
"","","","","","html-button-response","147","368236","0.0-2.0-33.0","58d069219dbe3f0001258793","D2","batch4","","797.1999999880791","tol_trial_num","<div class = centerbox><p class = center-block-text>problem <strong>9</strong> out of 25 problems</p></div>","0","","","","","","","","","","","","","","","","","","","","","","","","",""
"","","","","","single-stim-button","148","397844","0.0-2.0-34.0-0.0","58d069219dbe3f0001258793","D2","batch4","","29607","tol_tohand","","","","tol_peg_3","29607","29607","0","[[3,2,0],[0,0],[0]]","1","[[2,1,0],[3,0],[0]]","8","0","","","","","","6","","","","","","","","",""
"","","","","","single-stim-button","149","398380","0.0-2.0-34.0-1.0","58d069219dbe3f0001258793","D2","batch4","","536","tol_toboard","","","","tol_peg_2","536","536","0","[[3,2,0],[1,0],[0]]","1","[[2,1,0],[3,0],[0]]","8","0","","","","","","6","","","","","","","","",""
"","","","","","single-stim-button","150","398868","0.0-2.0-34.1-0.1","58d069219dbe3f0001258793","D2","batch4","","488","tol_tohand","","","","tol_peg_1","488","488","0","[[3,0,0],[1,0],[0]]","2","[[2,1,0],[3,0],[0]]","8","0","","","","","","6","","","","","","","","",""
"","","","","","single-stim-button","151","399364","0.0-2.0-34.1-1.1","58d069219dbe3f0001258793","D2","batch4","","496","tol_toboard","","","","tol_peg_2","496","496","0","[[3,0,0],[1,2],[0]]","2","[[2,1,0],[3,0],[0]]","8","0","","","","","","6","","","","","","","","",""
"","","","","","single-stim-button","152","399740","0.0-2.0-34.2-0.2","58d069219dbe3f0001258793","D2","batch4","","375","tol_tohand","","","","tol_peg_1","375","375","0","[[0,0,0],[1,2],[0]]","3","[[2,1,0],[3,0],[0]]","8","0","","","","","","6","","","","","","","","",""
"","","","","","single-stim-button","153","400812","0.0-2.0-34.2-1.2","58d069219dbe3f0001258793","D2","batch4","","1071","tol_toboard","","","","tol_peg_3","1071","1071","0","[[0,0,0],[1,2],[3]]","3","[[2,1,0],[3,0],[0]]","8","0","","","","","","6","","","","","","","","",""
"","","","","","single-stim-button","154","402253","0.0-2.0-34.3-0.3","58d069219dbe3f0001258793","D2","batch4","","1441","tol_tohand","","","","tol_peg_2","1441","1441","0","[[0,0,0],[1,0],[3]]","4","[[2,1,0],[3,0],[0]]","8","0","","","","","","6","","","","","","","","",""
"","","","","","single-stim-button","155","402861","0.0-2.0-34.3-1.3","58d069219dbe3f0001258793","D2","batch4","","608","tol_toboard","","","","tol_peg_1","608","608","0","[[2,0,0],[1,0],[3]]","4","[[2,1,0],[3,0],[0]]","8","0","","","","","","6","","","","","","","","",""
"","","","","","single-stim-button","156","403309","0.0-2.0-34.4-0.4","58d069219dbe3f0001258793","D2","batch4","","448","tol_tohand","","","","tol_peg_2","448","448","0","[[2,0,0],[0,0],[3]]","5","[[2,1,0],[3,0],[0]]","8","0","","","","","","6","","","","","","","","",""
"","","","","","single-stim-button","157","403780","0.0-2.0-34.4-1.4","58d069219dbe3f0001258793","D2","batch4","","471","tol_toboard","","","","tol_peg_1","471","471","0","[[2,1,0],[0,0],[3]]","5","[[2,1,0],[3,0],[0]]","8","0","","","","","","6","","","","","","","","",""
"","","","","","single-stim-button","158","404580","0.0-2.0-34.5-0.5","58d069219dbe3f0001258793","D2","batch4","","800","tol_tohand","","","","tol_peg_3","800","800","0","[[2,1,0],[0,0],[0]]","6","[[2,1,0],[3,0],[0]]","8","0","","","","","","6","","","","","","","","",""
"","","","","","single-stim-button","159","404908","0.0-2.0-34.5-1.5","58d069219dbe3f0001258793","D2","batch4","","328","tol_toboard","","","","tol_peg_2","328","328","0","[[2,1,0],[3,0],[0]]","6","[[2,1,0],[3,0],[0]]","8","0","","","","","","6","","","","","","","","",""
"","","","","","poldrack-single-stim","160","405910","0.0-2.0-35.0","58d069219dbe3f0001258793","D2","batch4","","-1","tol_feedback","","","true","","1000","1000","500","","","","","","-1","none","true","29607","33159","","","","","","","","","",""
"","","","","","html-button-response","161","407052","0.0-2.0-36.0","58d069219dbe3f0001258793","D2","batch4","","1141.5","tol_trial_num","<div class = centerbox><p class = center-block-text>problem <strong>10</strong> out of 25 problems</p></div>","0","","","","","","","","","","","","","","","","","","","","","","","","",""
"","","","","","single-stim-button","162","410581","0.0-2.0-37.0-0.0","58d069219dbe3f0001258793","D2","batch4","","3529","tol_tohand","","","","tol_peg_2","3529","3529","0","[[3,0,0],[0,0],[2]]","1","[[3,0,0],[2,1],[0]]","9","0","","","","","","3","","","","","","","","",""
"","","","","","single-stim-button","163","411219","0.0-2.0-37.0-1.0","58d069219dbe3f0001258793","D2","batch4","","637","tol_toboard","","","","tol_peg_1","637","637","0","[[3,1,0],[0,0],[2]]","1","[[3,0,0],[2,1],[0]]","9","0","","","","","","3","","","","","","","","",""
"","","","","","single-stim-button","164","411749","0.0-2.0-37.1-0.1","58d069219dbe3f0001258793","D2","batch4","","529","tol_tohand","","","","tol_peg_3","529","529","0","[[3,1,0],[0,0],[0]]","2","[[3,0,0],[2,1],[0]]","9","0","","","","","","3","","","","","","","","",""
"","","","","","single-stim-button","165","412043","0.0-2.0-37.1-1.1","58d069219dbe3f0001258793","D2","batch4","","294","tol_toboard","","","","tol_peg_2","294","294","0","[[3,1,0],[2,0],[0]]","2","[[3,0,0],[2,1],[0]]","9","0","","","","","","3","","","","","","","","",""
"","","","","","single-stim-button","166","412683","0.0-2.0-37.2-0.2","58d069219dbe3f0001258793","D2","batch4","","639","tol_tohand","","","","tol_peg_1","639","639","0","[[3,0,0],[2,0],[0]]","3","[[3,0,0],[2,1],[0]]","9","0","","","","","","3","","","","","","","","",""
"","","","","","single-stim-button","167","413091","0.0-2.0-37.2-1.2","58d069219dbe3f0001258793","D2","batch4","","408","tol_toboard","","","","tol_peg_2","408","408","0","[[3,0,0],[2,1],[0]]","3","[[3,0,0],[2,1],[0]]","9","0","","","","","","3","","","","","","","","",""
"","","","","","poldrack-single-stim","168","414092","0.0-2.0-38.0","58d069219dbe3f0001258793","D2","batch4","","-1","tol_feedback","","","true","","1000","1000","500","","","","","","-1","none","true","3529","4697","","","","","","","","","",""
"","","","","","html-button-response","169","415028","0.0-2.0-39.0","58d069219dbe3f0001258793","D2","batch4","","935","tol_trial_num","<div class = centerbox><p class = center-block-text>problem <strong>11</strong> out of 25 problems</p></div>","0","","","","","","","","","","","","","","","","","","","","","","","","",""
"","","","","","single-stim-button","170","431620","0.0-2.0-40.0-0.0","58d069219dbe3f0001258793","D2","batch4","","16591","tol_tohand","","","","tol_peg_2","16591","16591","0","[[1,2,0],[0,0],[0]]","1","[[2,0,0],[1,3],[0]]","10","0","","","","","","6","","","","","","","","",""
"","","","","","single-stim-button","171","432756","0.0-2.0-40.0-1.0","58d069219dbe3f0001258793","D2","batch4","","1135","tol_toboard","","","","tol_peg_3","1135","1135","0","[[1,2,0],[0,0],[3]]","1","[[2,0,0],[1,3],[0]]","10","0","","","","","","6","","","","","","","","",""
"","","","","","single-stim-button","172","433740","0.0-2.0-40.1-0.1","58d069219dbe3f0001258793","D2","batch4","","984","tol_tohand","","","","tol_peg_1","984","984","0","[[1,0,0],[0,0],[3]]","2","[[2,0,0],[1,3],[0]]","10","0","","","","","","6","","","","","","","","",""
"","","","","","single-stim-button","173","435037","0.0-2.0-40.1-1.1","58d069219dbe3f0001258793","D2","batch4","","1297","tol_toboard","","","","tol_peg_2","1297","1297","0","[[1,0,0],[2,0],[3]]","2","[[2,0,0],[1,3],[0]]","10","0","","","","","","6","","","","","","","","",""
"","","","","","single-stim-button","174","435836","0.0-2.0-40.2-0.2","58d069219dbe3f0001258793","D2","batch4","","798","tol_tohand","","","","tol_peg_1","798","798","0","[[0,0,0],[2,0],[3]]","3","[[2,0,0],[1,3],[0]]","10","0","","","","","","6","","","","","","","","",""
"","","","","","single-stim-button","175","436820","0.0-2.0-40.2-1.2","58d069219dbe3f0001258793","D2","batch4","","984","tol_toboard","","","","tol_peg_2","984","984","0","[[0,0,0],[2,1],[3]]","3","[[2,0,0],[1,3],[0]]","10","0","","","","","","6","","","","","","","","",""
"","","","","","single-stim-button","176","437277","0.0-2.0-40.3-0.3","58d069219dbe3f0001258793","D2","batch4","","456","tol_tohand","","","","tol_peg_3","456","456","0","[[0,0,0],[2,1],[0]]","4","[[2,0,0],[1,3],[0]]","10","0","","","","","","6","","","","","","","","",""
"","","","","","single-stim-button","177","438291","0.0-2.0-40.3-1.3","58d069219dbe3f0001258793","D2","batch4","","1014","tol_toboard","","","","tol_peg_1","1014","1014","0","[[3,0,0],[2,1],[0]]","4","[[2,0,0],[1,3],[0]]","10","0","","","","","","6","","","","","","","","",""
"","","","","","single-stim-button","178","439731","0.0-2.0-40.4-0.4","58d069219dbe3f0001258793","D2","batch4","","1439","tol_tohand","","","","tol_peg_2","1439","1439","0","[[3,0,0],[2,0],[0]]","5","[[2,0,0],[1,3],[0]]","10","0","","","","","","6","","","","","","","","",""
"","","","","","single-stim-button","179","440699","0.0-2.0-40.4-1.4","58d069219dbe3f0001258793","D2","batch4","","967","tol_toboard","","","","tol_peg_1","967","967","0","[[3,1,0],[2,0],[0]]","5","[[2,0,0],[1,3],[0]]","10","0","","","","","","6","","","","","","","","",""
"","","","","","single-stim-button","180","441307","0.0-2.0-40.5-0.5","58d069219dbe3f0001258793","D2","batch4","","607","tol_tohand","","","","tol_peg_2","607","607","0","[[3,1,0],[0,0],[0]]","6","[[2,0,0],[1,3],[0]]","10","0","","","","","","6","","","","","","","","",""
"","","","","","single-stim-button","181","442428","0.0-2.0-40.5-1.5","58d069219dbe3f0001258793","D2","batch4","","1121","tol_toboard","","","","tol_peg_3","1121","1121","0","[[3,1,0],[0,0],[2]]","6","[[2,0,0],[1,3],[0]]","10","0","","","","","","6","","","","","","","","",""
"","","","","","single-stim-button","182","443051","0.0-2.0-40.6-0.6","58d069219dbe3f0001258793","D2","batch4","","623","tol_tohand","","","","tol_peg_1","623","623","0","[[3,0,0],[0,0],[2]]","7","[[2,0,0],[1,3],[0]]","10","0","","","","","","6","","","","","","","","",""
"","","","","","single-stim-button","183","443630","0.0-2.0-40.6-1.6","58d069219dbe3f0001258793","D2","batch4","","579","tol_toboard","","","","tol_peg_2","579","579","0","[[3,0,0],[1,0],[2]]","7","[[2,0,0],[1,3],[0]]","10","0","","","","","","6","","","","","","","","",""
"","","","","","single-stim-button","184","444340","0.0-2.0-40.7-0.7","58d069219dbe3f0001258793","D2","batch4","","709","tol_tohand","","","","tol_peg_1","709","709","0","[[0,0,0],[1,0],[2]]","8","[[2,0,0],[1,3],[0]]","10","0","","","","","","6","","","","","","","","",""
"","","","","","single-stim-button","185","444723","0.0-2.0-40.7-1.7","58d069219dbe3f0001258793","D2","batch4","","383","tol_toboard","","","","tol_peg_2","383","383","0","[[0,0,0],[1,3],[2]]","8","[[2,0,0],[1,3],[0]]","10","0","","","","","","6","","","","","","","","",""
"","","","","","single-stim-button","186","445211","0.0-2.0-40.8-0.8","58d069219dbe3f0001258793","D2","batch4","","487","tol_tohand","","","","tol_peg_3","487","487","0","[[0,0,0],[1,3],[0]]","9","[[2,0,0],[1,3],[0]]","10","0","","","","","","6","","","","","","","","",""
"","","","","","single-stim-button","187","445740","0.0-2.0-40.8-1.8","58d069219dbe3f0001258793","D2","batch4","","527","tol_toboard","","","","tol_peg_1","527","527","0","[[2,0,0],[1,3],[0]]","9","[[2,0,0],[1,3],[0]]","10","0","","","","","","6","","","","","","","","",""
"","","","","","poldrack-single-stim","188","446740","0.0-2.0-41.0","58d069219dbe3f0001258793","D2","batch4","","-1","tol_feedback","","","true","","1000","1000","500","","","","","","-1","none","true","16591","22694","","","","","","","","","",""
"","","","","","html-button-response","189","447828","0.0-2.0-42.0","58d069219dbe3f0001258793","D2","batch4","","1086.800000011921","tol_trial_num","<div class = centerbox><p class = center-block-text>problem <strong>12</strong> out of 25 problems</p></div>","0","","","","","","","","","","","","","","","","","","","","","","","","",""
"","","","","","single-stim-button","190","451629","0.0-2.0-43.0-0.0","58d069219dbe3f0001258793","D2","batch4","","3801","tol_tohand","","","","tol_peg_1","3801","3801","0","[[1,0,0],[3,0],[0]]","1","[[2,3,0],[0,0],[1]]","11","0","","","","","","4","","","","","","","","",""
"","","","","","single-stim-button","191","452636","0.0-2.0-43.0-1.0","58d069219dbe3f0001258793","D2","batch4","","1006","tol_toboard","","","","tol_peg_2","1006","1006","0","[[1,0,0],[3,2],[0]]","1","[[2,3,0],[0,0],[1]]","11","0","","","","","","4","","","","","","","","",""
"","","","","","single-stim-button","192","453236","0.0-2.0-43.1-0.1","58d069219dbe3f0001258793","D2","batch4","","599","tol_tohand","","","","tol_peg_1","599","599","0","[[0,0,0],[3,2],[0]]","2","[[2,3,0],[0,0],[1]]","11","0","","","","","","4","","","","","","","","",""
"","","","","","single-stim-button","193","454060","0.0-2.0-43.1-1.1","58d069219dbe3f0001258793","D2","batch4","","824","tol_toboard","","","","tol_peg_3","824","824","0","[[0,0,0],[3,2],[1]]","2","[[2,3,0],[0,0],[1]]","11","0","","","","","","4","","","","","","","","",""
"","","","","","single-stim-button","194","454619","0.0-2.0-43.2-0.2","58d069219dbe3f0001258793","D2","batch4","","559","tol_tohand","","","","tol_peg_2","559","559","0","[[0,0,0],[3,0],[1]]","3","[[2,3,0],[0,0],[1]]","11","0","","","","","","4","","","","","","","","",""
"","","","","","single-stim-button","195","454973","0.0-2.0-43.2-1.2","58d069219dbe3f0001258793","D2","batch4","","354","tol_toboard","","","","tol_peg_1","354","354","0","[[2,0,0],[3,0],[1]]","3","[[2,3,0],[0,0],[1]]","11","0","","","","","","4","","","","","","","","",""
"","","","","","single-stim-button","196","455492","0.0-2.0-43.3-0.3","58d069219dbe3f0001258793","D2","batch4","","519","tol_tohand","","","","tol_peg_2","519","519","0","[[2,0,0],[0,0],[1]]","4","[[2,3,0],[0,0],[1]]","11","0","","","","","","4","","","","","","","","",""
"","","","","","single-stim-button","197","455811","0.0-2.0-43.3-1.3","58d069219dbe3f0001258793","D2","batch4","","319","tol_toboard","","","","tol_peg_1","319","319","0","[[2,3,0],[0,0],[1]]","4","[[2,3,0],[0,0],[1]]","11","0","","","","","","4","","","","","","","","",""
"","","","","","poldrack-single-stim","198","456812","0.0-2.0-44.0","58d069219dbe3f0001258793","D2","batch4","","-1","tol_feedback","","","true","","1000","1000","500","","","","","","-1","none","true","3801","5478","","","","","","","","","",""
"","","","","","html-button-response","199","457611","0.0-2.0-45.0","58d069219dbe3f0001258793","D2","batch4","","798.1999999880791","tol_trial_num","<div class = centerbox><p class = center-block-text>problem <strong>13</strong> out of 25 problems</p></div>","0","","","","","","","","","","","","","","","","","","","","","","","","",""
"","","","","","single-stim-button","200","461222","0.0-2.0-46.0-0.0","58d069219dbe3f0001258793","D2","batch4","","3610","tol_tohand","","","","tol_peg_2","3610","3610","0","[[1,2,0],[0,0],[0]]","1","[[0,0,0],[2,3],[1]]","12","0","","","","","","4","","","","","","","","",""
"","","","","","single-stim-button","201","461660","0.0-2.0-46.0-1.0","58d069219dbe3f0001258793","D2","batch4","","437","tol_toboard","","","","tol_peg_3","437","437","0","[[1,2,0],[0,0],[3]]","1","[[0,0,0],[2,3],[1]]","12","0","","","","","","4","","","","","","","","",""
"","","","","","single-stim-button","202","462437","0.0-2.0-46.1-0.1","58d069219dbe3f0001258793","D2","batch4","","777","tol_tohand","","","","tol_peg_1","777","777","0","[[1,0,0],[0,0],[3]]","2","[[0,0,0],[2,3],[1]]","12","0","","","","","","4","","","","","","","","",""
"","","","","","single-stim-button","203","463116","0.0-2.0-46.1-1.1","58d069219dbe3f0001258793","D2","batch4","","679","tol_toboard","","","","tol_peg_2","679","679","0","[[1,0,0],[2,0],[3]]","2","[[0,0,0],[2,3],[1]]","12","0","","","","","","4","","","","","","","","",""
"","","","","","single-stim-button","204","463644","0.0-2.0-46.2-0.2","58d069219dbe3f0001258793","D2","batch4","","528","tol_tohand","","","","tol_peg_3","528","528","0","[[1,0,0],[2,0],[0]]","3","[[0,0,0],[2,3],[1]]","12","0","","","","","","4","","","","","","","","",""
"","","","","","single-stim-button","205","464037","0.0-2.0-46.2-1.2","58d069219dbe3f0001258793","D2","batch4","","392","tol_toboard","","","","tol_peg_2","392","392","0","[[1,0,0],[2,3],[0]]","3","[[0,0,0],[2,3],[1]]","12","0","","","","","","4","","","","","","","","",""
"","","","","","single-stim-button","206","464731","0.0-2.0-46.3-0.3","58d069219dbe3f0001258793","D2","batch4","","694","tol_tohand","","","","tol_peg_1","694","694","0","[[0,0,0],[2,3],[0]]","4","[[0,0,0],[2,3],[1]]","12","0","","","","","","4","","","","","","","","",""
"","","","","","single-stim-button","207","465323","0.0-2.0-46.3-1.3","58d069219dbe3f0001258793","D2","batch4","","592","tol_toboard","","","","tol_peg_3","592","592","0","[[0,0,0],[2,3],[1]]","4","[[0,0,0],[2,3],[1]]","12","0","","","","","","4","","","","","","","","",""
"","","","","","poldrack-single-stim","208","466323","0.0-2.0-47.0","58d069219dbe3f0001258793","D2","batch4","","-1","tol_feedback","","","true","","1000","1000","500","","","","","","-1","none","true","3610","5609","","","","","","","","","",""
"","","","","","html-button-response","209","472755","0.0-2.0-48.0","58d069219dbe3f0001258793","D2","batch4","","6430.9000000059605","attention_check","<p class = block-text>How many balls are in your board<br></p>","1","true","","","","","","","","","","","","","","","","","","","","","","","",""
"","","","","","html-button-response","210","474755","0.0-2.0-49.0","58d069219dbe3f0001258793","D2","batch4","","1999.4000000059605","tol_trial_num","<div class = centerbox><p class = center-block-text>problem <strong>14</strong> out of 25 problems</p></div>","0","","","","","","","","","","","","","","","","","","","","","","","","",""
"","","","","","single-stim-button","211","477619","0.0-2.0-50.0-0.0","58d069219dbe3f0001258793","D2","batch4","","2864","tol_tohand","","","","tol_peg_1","2864","2864","0","[[2,0,0],[3,0],[0]]","1","[[1,2,0],[3,0],[0]]","13","0","","","","","","4","","","","","","","","",""
"","","","","","single-stim-button","212","479947","0.0-2.0-50.0-1.0","58d069219dbe3f0001258793","D2","batch4","","2326","tol_toboard","","","","tol_peg_2","2326","2326","0","[[2,0,0],[3,1],[0]]","1","[[1,2,0],[3,0],[0]]","13","0","","","","","","4","","","","","","","","",""
"","","","","","single-stim-button","213","480571","0.0-2.0-50.1-0.1","58d069219dbe3f0001258793","D2","batch4","","624","tol_tohand","","","","tol_peg_1","624","624","0","[[0,0,0],[3,1],[0]]","2","[[1,2,0],[3,0],[0]]","13","0","","","","","","4","","","","","","","","",""
"","","","","","single-stim-button","214","481115","0.0-2.0-50.1-1.1","58d069219dbe3f0001258793","D2","batch4","","544","tol_toboard","","","","tol_peg_3","544","544","0","[[0,0,0],[3,1],[2]]","2","[[1,2,0],[3,0],[0]]","13","0","","","","","","4","","","","","","","","",""
"","","","","","single-stim-button","215","481644","0.0-2.0-50.2-0.2","58d069219dbe3f0001258793","D2","batch4","","528","tol_tohand","","","","tol_peg_2","528","528","0","[[0,0,0],[3,0],[2]]","3","[[1,2,0],[3,0],[0]]","13","0","","","","","","4","","","","","","","","",""
"","","","","","single-stim-button","216","482300","0.0-2.0-50.2-1.2","58d069219dbe3f0001258793","D2","batch4","","656","tol_toboard","","","","tol_peg_1","656","656","0","[[1,0,0],[3,0],[2]]","3","[[1,2,0],[3,0],[0]]","13","0","","","","","","4","","","","","","","","",""
"","","","","","single-stim-button","217","483053","0.0-2.0-50.3-0.3","58d069219dbe3f0001258793","D2","batch4","","752","tol_tohand","","","","tol_peg_3","752","752","0","[[1,0,0],[3,0],[0]]","4","[[1,2,0],[3,0],[0]]","13","0","","","","","","4","","","","","","","","",""
"","","","","","single-stim-button","218","483556","0.0-2.0-50.3-1.3","58d069219dbe3f0001258793","D2","batch4","","503","tol_toboard","","","","tol_peg_1","503","503","0","[[1,2,0],[3,0],[0]]","4","[[1,2,0],[3,0],[0]]","13","0","","","","","","4","","","","","","","","",""
"","","","","","poldrack-single-stim","219","484567","0.0-2.0-51.0","58d069219dbe3f0001258793","D2","batch4","","-1","tol_feedback","","","true","","1000","1000","500","","","","","","-1","none","true","2864","4768","","","","","","","","","",""
"","","","","","html-button-response","220","485523","0.0-2.0-52.0","58d069219dbe3f0001258793","D2","batch4","","954.6999999880791","tol_trial_num","<div class = centerbox><p class = center-block-text>problem <strong>15</strong> out of 25 problems</p></div>","0","","","","","","","","","","","","","","","","","","","","","","","","",""
"","","","","","single-stim-button","221","488460","0.0-2.0-53.0-0.0","58d069219dbe3f0001258793","D2","batch4","","2937","tol_tohand","","","","tol_peg_1","2937","2937","0","[[1,0,0],[3,0],[0]]","1","[[2,0,0],[3,0],[1]]","14","0","","","","","","3","","","","","","","","",""
"","","","","","single-stim-button","222","488971","0.0-2.0-53.0-1.0","58d069219dbe3f0001258793","D2","batch4","","510","tol_toboard","","","","tol_peg_2","510","510","0","[[1,0,0],[3,2],[0]]","1","[[2,0,0],[3,0],[1]]","14","0","","","","","","3","","","","","","","","",""
"","","","","","single-stim-button","223","489516","0.0-2.0-53.1-0.1","58d069219dbe3f0001258793","D2","batch4","","545","tol_tohand","","","","tol_peg_1","545","545","0","[[0,0,0],[3,2],[0]]","2","[[2,0,0],[3,0],[1]]","14","0","","","","","","3","","","","","","","","",""
"","","","","","single-stim-button","224","490107","0.0-2.0-53.1-1.1","58d069219dbe3f0001258793","D2","batch4","","591","tol_toboard","","","","tol_peg_3","591","591","0","[[0,0,0],[3,2],[1]]","2","[[2,0,0],[3,0],[1]]","14","0","","","","","","3","","","","","","","","",""
"","","","","","single-stim-button","225","490638","0.0-2.0-53.2-0.2","58d069219dbe3f0001258793","D2","batch4","","531","tol_tohand","","","","tol_peg_2","531","531","0","[[0,0,0],[3,0],[1]]","3","[[2,0,0],[3,0],[1]]","14","0","","","","","","3","","","","","","","","",""
"","","","","","single-stim-button","226","491203","0.0-2.0-53.2-1.2","58d069219dbe3f0001258793","D2","batch4","","565","tol_toboard","","","","tol_peg_1","565","565","0","[[2,0,0],[3,0],[1]]","3","[[2,0,0],[3,0],[1]]","14","0","","","","","","3","","","","","","","","",""
"","","","","","poldrack-single-stim","227","492205","0.0-2.0-54.0","58d069219dbe3f0001258793","D2","batch4","","-1","tol_feedback","","","true","","1000","1000","500","","","","","","-1","none","true","2937","4013","","","","","","","","","",""
"","","","","","html-button-response","228","493123","0.0-2.0-55.0","58d069219dbe3f0001258793","D2","batch4","","916.2999999821186","tol_trial_num","<div class = centerbox><p class = center-block-text>problem <strong>16</strong> out of 25 problems</p></div>","0","","","","","","","","","","","","","","","","","","","","","","","","",""
"","","","","","single-stim-button","229","503547","0.0-2.0-56.0-0.0","58d069219dbe3f0001258793","D2","batch4","","10423","tol_tohand","","","","tol_peg_3","10423","10423","0","[[0,0,0],[2,3],[0]]","1","[[2,3,0],[1,0],[0]]","15","0","","","","","","7","","","","","","","","",""
"","","","","","single-stim-button","230","504547","0.0-2.0-56.0-1.0","58d069219dbe3f0001258793","D2","batch4","","1000","tol_toboard","","","","tol_peg_1","1000","1000","0","[[1,0,0],[2,3],[0]]","1","[[2,3,0],[1,0],[0]]","15","0","","","","","","7","","","","","","","","",""
"","","","","","single-stim-button","231","506355","0.0-2.0-56.1-0.1","58d069219dbe3f0001258793","D2","batch4","","1808","tol_tohand","","","","tol_peg_2","1808","1808","0","[[1,0,0],[2,0],[0]]","2","[[2,3,0],[1,0],[0]]","15","0","","","","","","7","","","","","","","","",""
"","","","","","single-stim-button","232","507130","0.0-2.0-56.1-1.1","58d069219dbe3f0001258793","D2","batch4","","775","tol_toboard","","","","tol_peg_3","775","775","0","[[1,0,0],[2,0],[3]]","2","[[2,3,0],[1,0],[0]]","15","0","","","","","","7","","","","","","","","",""
"","","","","","single-stim-button","233","508819","0.0-2.0-56.2-0.2","58d069219dbe3f0001258793","D2","batch4","","1689","tol_tohand","","","","tol_peg_2","1689","1689","0","[[1,0,0],[0,0],[3]]","3","[[2,3,0],[1,0],[0]]","15","0","","","","","","7","","","","","","","","",""
"","","","","","single-stim-button","234","509244","0.0-2.0-56.2-1.2","58d069219dbe3f0001258793","D2","batch4","","424","tol_toboard","","","","tol_peg_1","424","424","0","[[1,2,0],[0,0],[3]]","3","[[2,3,0],[1,0],[0]]","15","0","","","","","","7","","","","","","","","",""
"","","","","","single-stim-button","235","509844","0.0-2.0-56.3-0.3","58d069219dbe3f0001258793","D2","batch4","","599","tol_tohand","","","","tol_peg_3","599","599","0","[[1,2,0],[0,0],[0]]","4","[[2,3,0],[1,0],[0]]","15","0","","","","","","7","","","","","","","","",""
"","","","","","single-stim-button","236","510170","0.0-2.0-56.3-1.3","58d069219dbe3f0001258793","D2","batch4","","326","tol_toboard","","","","tol_peg_2","326","326","0","[[1,2,0],[3,0],[0]]","4","[[2,3,0],[1,0],[0]]","15","0","","","","","","7","","","","","","","","",""
"","","","","","single-stim-button","237","510900","0.0-2.0-56.4-0.4","58d069219dbe3f0001258793","D2","batch4","","728","tol_tohand","","","","tol_peg_1","728","728","0","[[1,0,0],[3,0],[0]]","5","[[2,3,0],[1,0],[0]]","15","0","","","","","","7","","","","","","","","",""
"","","","","","single-stim-button","238","511699","0.0-2.0-56.4-1.4","58d069219dbe3f0001258793","D2","batch4","","799","tol_toboard","","","","tol_peg_2","799","799","0","[[1,0,0],[3,2],[0]]","5","[[2,3,0],[1,0],[0]]","15","0","","","","","","7","","","","","","","","",""
"","","","","","single-stim-button","239","512228","0.0-2.0-56.5-0.5","58d069219dbe3f0001258793","D2","batch4","","528","tol_tohand","","","","tol_peg_1","528","528","0","[[0,0,0],[3,2],[0]]","6","[[2,3,0],[1,0],[0]]","15","0","","","","","","7","","","","","","","","",""
"","","","","","single-stim-button","240","512922","0.0-2.0-56.5-1.5","58d069219dbe3f0001258793","D2","batch4","","694","tol_toboard","","","","tol_peg_3","694","694","0","[[0,0,0],[3,2],[1]]","6","[[2,3,0],[1,0],[0]]","15","0","","","","","","7","","","","","","","","",""
"","","","","","single-stim-button","241","513306","0.0-2.0-56.6-0.6","58d069219dbe3f0001258793","D2","batch4","","384","tol_tohand","","","","tol_peg_2","384","384","0","[[0,0,0],[3,0],[1]]","7","[[2,3,0],[1,0],[0]]","15","0","","","","","","7","","","","","","","","",""
"","","","","","single-stim-button","242","513698","0.0-2.0-56.6-1.6","58d069219dbe3f0001258793","D2","batch4","","391","tol_toboard","","","","tol_peg_1","391","391","0","[[2,0,0],[3,0],[1]]","7","[[2,3,0],[1,0],[0]]","15","0","","","","","","7","","","","","","","","",""
"","","","","","single-stim-button","243","514333","0.0-2.0-56.7-0.7","58d069219dbe3f0001258793","D2","batch4","","633","tol_tohand","","","","tol_peg_2","633","633","0","[[2,0,0],[0,0],[1]]","8","[[2,3,0],[1,0],[0]]","15","0","","","","","","7","","","","","","","","",""
"","","","","","single-stim-button","244","514651","0.0-2.0-56.7-1.7","58d069219dbe3f0001258793","D2","batch4","","317","tol_toboard","","","","tol_peg_1","317","317","0","[[2,3,0],[0,0],[1]]","8","[[2,3,0],[1,0],[0]]","15","0","","","","","","7","","","","","","","","",""
"","","","","","single-stim-button","245","515235","0.0-2.0-56.8-0.8","58d069219dbe3f0001258793","D2","batch4","","584","tol_tohand","","","","tol_peg_3","584","584","0","[[2,3,0],[0,0],[0]]","9","[[2,3,0],[1,0],[0]]","15","0","","","","","","7","","","","","","","","",""
"","","","","","single-stim-button","246","515675","0.0-2.0-56.8-1.8","58d069219dbe3f0001258793","D2","batch4","","440","tol_toboard","","","","tol_peg_2","440","440","0","[[2,3,0],[1,0],[0]]","9","[[2,3,0],[1,0],[0]]","15","0","","","","","","7","","","","","","","","",""
"","","","","","poldrack-single-stim","247","516684","0.0-2.0-57.0","58d069219dbe3f0001258793","D2","batch4","","-1","tol_feedback","","","true","","1000","1000","500","","","","","","-1","none","true","10423","17376","","","","","","","","","",""
"","","","","","html-button-response","248","517579","0.0-2.0-58.0","58d069219dbe3f0001258793","D2","batch4","","893.0999999940395","tol_trial_num","<div class = centerbox><p class = center-block-text>problem <strong>17</strong> out of 25 problems</p></div>","0","","","","","","","","","","","","","","","","","","","","","","","","",""
"","","","","","single-stim-button","249","524341","0.0-2.0-59.0-0.0","58d069219dbe3f0001258793","D2","batch4","","6762","tol_tohand","","","","tol_peg_2","6762","6762","0","[[1,2,0],[0,0],[0]]","1","[[3,1,0],[2,0],[0]]","16","0","","","","","","5","","","","","","","","",""
"","","","","","single-stim-button","250","525028","0.0-2.0-59.0-1.0","58d069219dbe3f0001258793","D2","batch4","","686","tol_toboard","","","","tol_peg_3","686","686","0","[[1,2,0],[0,0],[3]]","1","[[3,1,0],[2,0],[0]]","16","0","","","","","","5","","","","","","","","",""
"","","","","","single-stim-button","251","525882","0.0-2.0-59.1-0.1","58d069219dbe3f0001258793","D2","batch4","","854","tol_tohand","","","","tol_peg_1","854","854","0","[[1,0,0],[0,0],[3]]","2","[[3,1,0],[2,0],[0]]","16","0","","","","","","5","","","","","","","","",""
"","","","","","single-stim-button","252","526708","0.0-2.0-59.1-1.1","58d069219dbe3f0001258793","D2","batch4","","826","tol_toboard","","","","tol_peg_2","826","826","0","[[1,0,0],[2,0],[3]]","2","[[3,1,0],[2,0],[0]]","16","0","","","","","","5","","","","","","","","",""
"","","","","","single-stim-button","253","527835","0.0-2.0-59.2-0.2","58d069219dbe3f0001258793","D2","batch4","","1125","tol_tohand","","","","tol_peg_3","1125","1125","0","[[1,0,0],[2,0],[0]]","3","[[3,1,0],[2,0],[0]]","16","0","","","","","","5","","","","","","","","",""
"","","","","","single-stim-button","254","528220","0.0-2.0-59.2-1.2","58d069219dbe3f0001258793","D2","batch4","","385","tol_toboard","","","","tol_peg_2","385","385","0","[[1,0,0],[2,3],[0]]","3","[[3,1,0],[2,0],[0]]","16","0","","","","","","5","","","","","","","","",""
"","","","","","single-stim-button","255","528755","0.0-2.0-59.3-0.3","58d069219dbe3f0001258793","D2","batch4","","534","tol_tohand","","","","tol_peg_1","534","534","0","[[0,0,0],[2,3],[0]]","4","[[3,1,0],[2,0],[0]]","16","0","","","","","","5","","","","","","","","",""
"","","","","","single-stim-button","256","529292","0.0-2.0-59.3-1.3","58d069219dbe3f0001258793","D2","batch4","","535","tol_toboard","","","","tol_peg_3","535","535","0","[[0,0,0],[2,3],[1]]","4","[[3,1,0],[2,0],[0]]","16","0","","","","","","5","","","","","","","","",""
"","","","","","single-stim-button","257","529754","0.0-2.0-59.4-0.4","58d069219dbe3f0001258793","D2","batch4","","462","tol_tohand","","","","tol_peg_2","462","462","0","[[0,0,0],[2,0],[1]]","5","[[3,1,0],[2,0],[0]]","16","0","","","","","","5","","","","","","","","",""
"","","","","","single-stim-button","258","530213","0.0-2.0-59.4-1.4","58d069219dbe3f0001258793","D2","batch4","","458","tol_toboard","","","","tol_peg_1","458","458","0","[[3,0,0],[2,0],[1]]","5","[[3,1,0],[2,0],[0]]","16","0","","","","","","5","","","","","","","","",""
"","","","","","single-stim-button","259","530875","0.0-2.0-59.5-0.5","58d069219dbe3f0001258793","D2","batch4","","662","tol_tohand","","","","tol_peg_3","662","662","0","[[3,0,0],[2,0],[0]]","6","[[3,1,0],[2,0],[0]]","16","0","","","","","","5","","","","","","","","",""
"","","","","","single-stim-button","260","531363","0.0-2.0-59.5-1.5","58d069219dbe3f0001258793","D2","batch4","","488","tol_toboard","","","","tol_peg_1","488","488","0","[[3,1,0],[2,0],[0]]","6","[[3,1,0],[2,0],[0]]","16","0","","","","","","5","","","","","","","","",""
"","","","","","poldrack-single-stim","261","532364","0.0-2.0-60.0","58d069219dbe3f0001258793","D2","batch4","","-1","tol_feedback","","","true","","1000","1000","500","","","","","","-1","none","true","6762","10399","","","","","","","","","",""
"","","","","","html-button-response","262","533419","0.0-2.0-61.0","58d069219dbe3f0001258793","D2","batch4","","1055.199999988079","tol_trial_num","<div class = centerbox><p class = center-block-text>problem <strong>18</strong> out of 25 problems</p></div>","0","","","","","","","","","","","","","","","","","","","","","","","","",""
"","","","","","single-stim-button","263","536787","0.0-2.0-62.0-0.0","58d069219dbe3f0001258793","D2","batch4","","3368","tol_tohand","","","","tol_peg_1","3368","3368","0","[[1,0,0],[3,0],[0]]","1","[[3,0,0],[2,0],[1]]","17","0","","","","","","5","","","","","","","","",""
"","","","","","single-stim-button","264","537469","0.0-2.0-62.0-1.0","58d069219dbe3f0001258793","D2","batch4","","682","tol_toboard","","","","tol_peg_2","682","682","0","[[1,0,0],[3,2],[0]]","1","[[3,0,0],[2,0],[1]]","17","0","","","","","","5","","","","","","","","",""
"","","","","","single-stim-button","265","537884","0.0-2.0-62.1-0.1","58d069219dbe3f0001258793","D2","batch4","","414","tol_tohand","","","","tol_peg_1","414","414","0","[[0,0,0],[3,2],[0]]","2","[[3,0,0],[2,0],[1]]","17","0","","","","","","5","","","","","","","","",""
"","","","","","single-stim-button","266","538428","0.0-2.0-62.1-1.1","58d069219dbe3f0001258793","D2","batch4","","544","tol_toboard","","","","tol_peg_3","544","544","0","[[0,0,0],[3,2],[1]]","2","[[3,0,0],[2,0],[1]]","17","0","","","","","","5","","","","","","","","",""
"","","","","","single-stim-button","267","539187","0.0-2.0-62.2-0.2","58d069219dbe3f0001258793","D2","batch4","","759","tol_tohand","","","","tol_peg_2","759","759","0","[[0,0,0],[3,0],[1]]","3","[[3,0,0],[2,0],[1]]","17","0","","","","","","5","","","","","","","","",""
"","","","","","single-stim-button","268","539812","0.0-2.0-62.2-1.2","58d069219dbe3f0001258793","D2","batch4","","624","tol_toboard","","","","tol_peg_1","624","624","0","[[2,0,0],[3,0],[1]]","3","[[3,0,0],[2,0],[1]]","17","0","","","","","","5","","","","","","","","",""
"","","","","","single-stim-button","269","541740","0.0-2.0-62.3-0.3","58d069219dbe3f0001258793","D2","batch4","","1928","tol_tohand","","","","tol_peg_3","1928","1928","0","[[2,0,0],[3,0],[0]]","4","[[3,0,0],[2,0],[1]]","17","0","","","","","","5","","","","","","","","",""
"","","","","","single-stim-button","270","542020","0.0-2.0-62.3-1.3","58d069219dbe3f0001258793","D2","batch4","","279","tol_toboard","","","","tol_peg_2","279","279","0","[[2,0,0],[3,1],[0]]","4","[[3,0,0],[2,0],[1]]","17","0","","","","","","5","","","","","","","","",""
"","","","","","single-stim-button","271","542371","0.0-2.0-62.4-0.4","58d069219dbe3f0001258793","D2","batch4","","351","tol_tohand","","","","tol_peg_1","351","351","0","[[0,0,0],[3,1],[0]]","5","[[3,0,0],[2,0],[1]]","17","0","","","","","","5","","","","","","","","",""
"","","","","","single-stim-button","272","542891","0.0-2.0-62.4-1.4","58d069219dbe3f0001258793","D2","batch4","","520","tol_toboard","","","","tol_peg_3","520","520","0","[[0,0,0],[3,1],[2]]","5","[[3,0,0],[2,0],[1]]","17","0","","","","","","5","","","","","","","","",""
"","","","","","single-stim-button","273","544019","0.0-2.0-62.5-0.5","58d069219dbe3f0001258793","D2","batch4","","1127","tol_tohand","","","","tol_peg_2","1127","1127","0","[[0,0,0],[3,0],[2]]","6","[[3,0,0],[2,0],[1]]","17","0","","","","","","5","","","","","","","","",""
"","","","","","single-stim-button","274","544652","0.0-2.0-62.5-1.5","58d069219dbe3f0001258793","D2","batch4","","633","tol_toboard","","","","tol_peg_1","633","633","0","[[1,0,0],[3,0],[2]]","6","[[3,0,0],[2,0],[1]]","17","0","","","","","","5","","","","","","","","",""
"","","","","","single-stim-button","275","546732","0.0-2.0-62.6-0.6","58d069219dbe3f0001258793","D2","batch4","","2080","tol_tohand","","","","tol_peg_2","2080","2080","0","[[1,0,0],[0,0],[2]]","7","[[3,0,0],[2,0],[1]]","17","0","","","","","","5","","","","","","","","",""
"","","","","","single-stim-button","276","547075","0.0-2.0-62.6-1.6","58d069219dbe3f0001258793","D2","batch4","","343","tol_toboard","","","","tol_peg_1","343","343","0","[[1,3,0],[0,0],[2]]","7","[[3,0,0],[2,0],[1]]","17","0","","","","","","5","","","","","","","","",""
"","","","","","single-stim-button","277","548413","0.0-2.0-62.7-0.7","58d069219dbe3f0001258793","D2","batch4","","1337","tol_tohand","","","","tol_peg_3","1337","1337","0","[[1,3,0],[0,0],[0]]","8","[[3,0,0],[2,0],[1]]","17","0","","","","","","5","","","","","","","","",""
"","","","","","single-stim-button","278","548764","0.0-2.0-62.7-1.7","58d069219dbe3f0001258793","D2","batch4","","351","tol_toboard","","","","tol_peg_2","351","351","0","[[1,3,0],[2,0],[0]]","8","[[3,0,0],[2,0],[1]]","17","0","","","","","","5","","","","","","","","",""
"","","","","","single-stim-button","279","549069","0.0-2.0-62.8-0.8","58d069219dbe3f0001258793","D2","batch4","","304","tol_tohand","","","","tol_peg_2","304","304","0","[[1,3,0],[0,0],[0]]","9","[[3,0,0],[2,0],[1]]","17","0","","","","","","5","","","","","","","","",""
"","","","","","single-stim-button","280","549972","0.0-2.0-62.8-1.8","58d069219dbe3f0001258793","D2","batch4","","903","tol_toboard","","","","tol_peg_2","903","903","0","[[1,3,0],[2,0],[0]]","9","[[3,0,0],[2,0],[1]]","17","0","","","","","","5","","","","","","","","",""
"","","","","","single-stim-button","281","551611","0.0-2.0-62.9-0.9","58d069219dbe3f0001258793","D2","batch4","","1638","tol_tohand","","","","tol_peg_1","1638","1638","0","[[1,0,0],[2,0],[0]]","10","[[3,0,0],[2,0],[1]]","17","0","","","","","","5","","","","","","","","",""
"","","","","","single-stim-button","282","552493","0.0-2.0-62.9-1.9","58d069219dbe3f0001258793","D2","batch4","","880","tol_toboard","","","","tol_peg_3","880","880","0","[[1,0,0],[2,0],[3]]","10","[[3,0,0],[2,0],[1]]","17","0","","","","","","5","","","","","","","","",""
"","","","","","single-stim-button","283","553939","0.0-2.0-62.10-0.10","58d069219dbe3f0001258793","D2","batch4","","1446","tol_tohand","","","","tol_peg_1","1446","1446","0","[[0,0,0],[2,0],[3]]","11","[[3,0,0],[2,0],[1]]","17","0","","","","","","5","","","","","","","","",""
"","","","","","single-stim-button","284","554339","0.0-2.0-62.10-1.10","58d069219dbe3f0001258793","D2","batch4","","399","tol_toboard","","","","tol_peg_2","399","399","0","[[0,0,0],[2,1],[3]]","11","[[3,0,0],[2,0],[1]]","17","0","","","","","","5","","","","","","","","",""
"","","","","","single-stim-button","285","554715","0.0-2.0-62.11-0.11","58d069219dbe3f0001258793","D2","batch4","","376","tol_tohand","","","","tol_peg_3","376","376","0","[[0,0,0],[2,1],[0]]","12","[[3,0,0],[2,0],[1]]","17","0","","","","","","5","","","","","","","","",""
"","","","","","single-stim-button","286","555573","0.0-2.0-62.11-1.11","58d069219dbe3f0001258793","D2","batch4","","856","tol_toboard","","","","tol_peg_1","856","856","0","[[3,0,0],[2,1],[0]]","12","[[3,0,0],[2,0],[1]]","17","0","","","","","","5","","","","","","","","",""
"","","","","","single-stim-button","287","556245","0.0-2.0-62.12-0.12","58d069219dbe3f0001258793","D2","batch4","","672","tol_tohand","","","","tol_peg_2","672","672","0","[[3,0,0],[2,0],[0]]","13","[[3,0,0],[2,0],[1]]","17","0","","","","","","5","","","","","","","","",""
"","","","","","single-stim-button","288","556875","0.0-2.0-62.12-1.12","58d069219dbe3f0001258793","D2","batch4","","630","tol_toboard","","","","tol_peg_3","630","630","0","[[3,0,0],[2,0],[1]]","13","[[3,0,0],[2,0],[1]]","17","0","","","","","","5","","","","","","","","",""
"","","","","","poldrack-single-stim","289","557879","0.0-2.0-63.0","58d069219dbe3f0001258793","D2","batch4","","-1","tol_feedback","","","true","","1000","1000","500","","","","","","-1","none","true","3368","15800","","","","","","","","","",""
"","","","","","html-button-response","290","558716","0.0-2.0-64.0","58d069219dbe3f0001258793","D2","batch4","","836.3000000119209","tol_trial_num","<div class = centerbox><p class = center-block-text>problem <strong>19</strong> out of 25 problems</p></div>","0","","","","","","","","","","","","","","","","","","","","","","","","",""
"","","","","","single-stim-button","291","561771","0.0-2.0-65.0-0.0","58d069219dbe3f0001258793","D2","batch4","","3054","tol_tohand","","","","tol_peg_2","3054","3054","0","[[1,2,0],[0,0],[0]]","1","[[0,0,0],[1,2],[3]]","18","0","","","","","","7","","","","","","","","",""
"","","","","","single-stim-button","292","562539","0.0-2.0-65.0-1.0","58d069219dbe3f0001258793","D2","batch4","","768","tol_toboard","","","","tol_peg_3","768","768","0","[[1,2,0],[0,0],[3]]","1","[[0,0,0],[1,2],[3]]","18","0","","","","","","7","","","","","","","","",""
"","","","","","single-stim-button","293","565284","0.0-2.0-65.1-0.1","58d069219dbe3f0001258793","D2","batch4","","2745","tol_tohand","","","","tol_peg_3","2745","2745","0","[[1,2,0],[0,0],[0]]","2","[[0,0,0],[1,2],[3]]","18","0","","","","","","7","","","","","","","","",""
"","","","","","single-stim-button","294","565659","0.0-2.0-65.1-1.1","58d069219dbe3f0001258793","D2","batch4","","375","tol_toboard","","","","tol_peg_2","375","375","0","[[1,2,0],[3,0],[0]]","2","[[0,0,0],[1,2],[3]]","18","0","","","","","","7","","","","","","","","",""
"","","","","","single-stim-button","295","566269","0.0-2.0-65.2-0.2","58d069219dbe3f0001258793","D2","batch4","","610","tol_tohand","","","","tol_peg_1","610","610","0","[[1,0,0],[3,0],[0]]","3","[[0,0,0],[1,2],[3]]","18","0","","","","","","7","","","","","","","","",""
"","","","","","single-stim-button","296","566820","0.0-2.0-65.2-1.2","58d069219dbe3f0001258793","D2","batch4","","550","tol_toboard","","","","tol_peg_3","550","550","0","[[1,0,0],[3,0],[2]]","3","[[0,0,0],[1,2],[3]]","18","0","","","","","","7","","","","","","","","",""
"","","","","","single-stim-button","297","568315","0.0-2.0-65.3-0.3","58d069219dbe3f0001258793","D2","batch4","","1495","tol_tohand","","","","tol_peg_1","1495","1495","0","[[0,0,0],[3,0],[2]]","4","[[0,0,0],[1,2],[3]]","18","0","","","","","","7","","","","","","","","",""
"","","","","","single-stim-button","298","568779","0.0-2.0-65.3-1.3","58d069219dbe3f0001258793","D2","batch4","","464","tol_toboard","","","","tol_peg_2","464","464","0","[[0,0,0],[3,1],[2]]","4","[[0,0,0],[1,2],[3]]","18","0","","","","","","7","","","","","","","","",""
"","","","","","single-stim-button","299","569276","0.0-2.0-65.4-0.4","58d069219dbe3f0001258793","D2","batch4","","497","tol_tohand","","","","tol_peg_3","497","497","0","[[0,0,0],[3,1],[0]]","5","[[0,0,0],[1,2],[3]]","18","0","","","","","","7","","","","","","","","",""
"","","","","","single-stim-button","300","569885","0.0-2.0-65.4-1.4","58d069219dbe3f0001258793","D2","batch4","","609","tol_toboard","","","","tol_peg_1","609","609","0","[[2,0,0],[3,1],[0]]","5","[[0,0,0],[1,2],[3]]","18","0","","","","","","7","","","","","","","","",""
"","","","","","single-stim-button","301","570461","0.0-2.0-65.5-0.5","58d069219dbe3f0001258793","D2","batch4","","575","tol_tohand","","","","tol_peg_2","575","575","0","[[2,0,0],[3,0],[0]]","6","[[0,0,0],[1,2],[3]]","18","0","","","","","","7","","","","","","","","",""
"","","","","","single-stim-button","302","571283","0.0-2.0-65.5-1.5","58d069219dbe3f0001258793","D2","batch4","","822","tol_toboard","","","","tol_peg_3","822","822","0","[[2,0,0],[3,0],[1]]","6","[[0,0,0],[1,2],[3]]","18","0","","","","","","7","","","","","","","","",""
"","","","","","single-stim-button","303","572291","0.0-2.0-65.6-0.6","58d069219dbe3f0001258793","D2","batch4","","1007","tol_tohand","","","","tol_peg_2","1007","1007","0","[[2,0,0],[0,0],[1]]","7","[[0,0,0],[1,2],[3]]","18","0","","","","","","7","","","","","","","","",""
"","","","","","single-stim-button","304","572867","0.0-2.0-65.6-1.6","58d069219dbe3f0001258793","D2","batch4","","576","tol_toboard","","","","tol_peg_1","576","576","0","[[2,3,0],[0,0],[1]]","7","[[0,0,0],[1,2],[3]]","18","0","","","","","","7","","","","","","","","",""
"","","","","","single-stim-button","305","573507","0.0-2.0-65.7-0.7","58d069219dbe3f0001258793","D2","batch4","","639","tol_tohand","","","","tol_peg_3","639","639","0","[[2,3,0],[0,0],[0]]","8","[[0,0,0],[1,2],[3]]","18","0","","","","","","7","","","","","","","","",""
"","","","","","single-stim-button","306","573859","0.0-2.0-65.7-1.7","58d069219dbe3f0001258793","D2","batch4","","351","tol_toboard","","","","tol_peg_2","351","351","0","[[2,3,0],[1,0],[0]]","8","[[0,0,0],[1,2],[3]]","18","0","","","","","","7","","","","","","","","",""
"","","","","","single-stim-button","307","574563","0.0-2.0-65.8-0.8","58d069219dbe3f0001258793","D2","batch4","","703","tol_tohand","","","","tol_peg_1","703","703","0","[[2,0,0],[1,0],[0]]","9","[[0,0,0],[1,2],[3]]","18","0","","","","","","7","","","","","","","","",""
"","","","","","single-stim-button","308","575157","0.0-2.0-65.8-1.8","58d069219dbe3f0001258793","D2","batch4","","592","tol_toboard","","","","tol_peg_3","592","592","0","[[2,0,0],[1,0],[3]]","9","[[0,0,0],[1,2],[3]]","18","0","","","","","","7","","","","","","","","",""
"","","","","","single-stim-button","309","576027","0.0-2.0-65.9-0.9","58d069219dbe3f0001258793","D2","batch4","","870","tol_tohand","","","","tol_peg_1","870","870","0","[[0,0,0],[1,0],[3]]","10","[[0,0,0],[1,2],[3]]","18","0","","","","","","7","","","","","","","","",""
"","","","","","single-stim-button","310","576443","0.0-2.0-65.9-1.9","58d069219dbe3f0001258793","D2","batch4","","416","tol_toboard","","","","tol_peg_2","416","416","0","[[0,0,0],[1,2],[3]]","10","[[0,0,0],[1,2],[3]]","18","0","","","","","","7","","","","","","","","",""
"","","","","","poldrack-single-stim","311","577445","0.0-2.0-66.0","58d069219dbe3f0001258793","D2","batch4","","-1","tol_feedback","","","true","","1000","1000","500","","","","","","-1","none","true","3054","12195","","","","","","","","","",""
"","","","","","html-button-response","312","578227","0.0-2.0-67.0","58d069219dbe3f0001258793","D2","batch4","","781.0999999940395","tol_trial_num","<div class = centerbox><p class = center-block-text>problem <strong>20</strong> out of 25 problems</p></div>","0","","","","","","","","","","","","","","","","","","","","","","","","",""
"","","","","","single-stim-button","313","579875","0.0-2.0-68.0-0.0","58d069219dbe3f0001258793","D2","batch4","","1648","tol_tohand","","","","tol_peg_2","1648","1648","0","[[1,2,0],[0,0],[0]]","1","[[2,1,0],[0,0],[3]]","19","0","","","","","","5","","","","","","","","",""
"","","","","","single-stim-button","314","580373","0.0-2.0-68.0-1.0","58d069219dbe3f0001258793","D2","batch4","","498","tol_toboard","","","","tol_peg_3","498","498","0","[[1,2,0],[0,0],[3]]","1","[[2,1,0],[0,0],[3]]","19","0","","","","","","5","","","","","","","","",""
"","","","","","single-stim-button","315","584307","0.0-2.0-68.1-0.1","58d069219dbe3f0001258793","D2","batch4","","3934","tol_tohand","","","","tol_peg_3","3934","3934","0","[[1,2,0],[0,0],[0]]","2","[[2,1,0],[0,0],[3]]","19","0","","","","","","5","","","","","","","","",""
"","","","","","single-stim-button","316","584835","0.0-2.0-68.1-1.1","58d069219dbe3f0001258793","D2","batch4","","527","tol_toboard","","","","tol_peg_2","527","527","0","[[1,2,0],[3,0],[0]]","2","[[2,1,0],[0,0],[3]]","19","0","","","","","","5","","","","","","","","",""
"","","","","","single-stim-button","317","585579","0.0-2.0-68.2-0.2","58d069219dbe3f0001258793","D2","batch4","","743","tol_tohand","","","","tol_peg_1","743","743","0","[[1,0,0],[3,0],[0]]","3","[[2,1,0],[0,0],[3]]","19","0","","","","","","5","","","","","","","","",""
"","","","","","single-stim-button","318","586451","0.0-2.0-68.2-1.2","58d069219dbe3f0001258793","D2","batch4","","871","tol_toboard","","","","tol_peg_3","871","871","0","[[1,0,0],[3,0],[2]]","3","[[2,1,0],[0,0],[3]]","19","0","","","","","","5","","","","","","","","",""
"","","","","","single-stim-button","319","586963","0.0-2.0-68.3-0.3","58d069219dbe3f0001258793","D2","batch4","","511","tol_tohand","","","","tol_peg_1","511","511","0","[[0,0,0],[3,0],[2]]","4","[[2,1,0],[0,0],[3]]","19","0","","","","","","5","","","","","","","","",""
"","","","","","single-stim-button","320","587331","0.0-2.0-68.3-1.3","58d069219dbe3f0001258793","D2","batch4","","367","tol_toboard","","","","tol_peg_2","367","367","0","[[0,0,0],[3,1],[2]]","4","[[2,1,0],[0,0],[3]]","19","0","","","","","","5","","","","","","","","",""
"","","","","","single-stim-button","321","587675","0.0-2.0-68.4-0.4","58d069219dbe3f0001258793","D2","batch4","","343","tol_tohand","","","","tol_peg_3","343","343","0","[[0,0,0],[3,1],[0]]","5","[[2,1,0],[0,0],[3]]","19","0","","","","","","5","","","","","","","","",""
"","","","","","single-stim-button","322","588227","0.0-2.0-68.4-1.4","58d069219dbe3f0001258793","D2","batch4","","552","tol_toboard","","","","tol_peg_1","552","552","0","[[2,0,0],[3,1],[0]]","5","[[2,1,0],[0,0],[3]]","19","0","","","","","","5","","","","","","","","",""
"","","","","","single-stim-button","323","588932","0.0-2.0-68.5-0.5","58d069219dbe3f0001258793","D2","batch4","","705","tol_tohand","","","","tol_peg_2","705","705","0","[[2,0,0],[3,0],[0]]","6","[[2,1,0],[0,0],[3]]","19","0","","","","","","5","","","","","","","","",""
"","","","","","single-stim-button","324","589403","0.0-2.0-68.5-1.5","58d069219dbe3f0001258793","D2","batch4","","470","tol_toboard","","","","tol_peg_1","470","470","0","[[2,1,0],[3,0],[0]]","6","[[2,1,0],[0,0],[3]]","19","0","","","","","","5","","","","","","","","",""
"","","","","","single-stim-button","325","589811","0.0-2.0-68.6-0.6","58d069219dbe3f0001258793","D2","batch4","","407","tol_tohand","","","","tol_peg_2","407","407","0","[[2,1,0],[0,0],[0]]","7","[[2,1,0],[0,0],[3]]","19","0","","","","","","5","","","","","","","","",""
"","","","","","single-stim-button","326","590242","0.0-2.0-68.6-1.6","58d069219dbe3f0001258793","D2","batch4","","431","tol_toboard","","","","tol_peg_3","431","431","0","[[2,1,0],[0,0],[3]]","7","[[2,1,0],[0,0],[3]]","19","0","","","","","","5","","","","","","","","",""
"","","","","","poldrack-single-stim","327","591244","0.0-2.0-69.0","58d069219dbe3f0001258793","D2","batch4","","-1","tol_feedback","","","true","","1000","1000","500","","","","","","-1","none","true","1648","8291","","","","","","","","","",""
"","","","","","html-button-response","328","592058","0.0-2.0-70.0","58d069219dbe3f0001258793","D2","batch4","","813.2000000178814","tol_trial_num","<div class = centerbox><p class = center-block-text>problem <strong>21</strong> out of 25 problems</p></div>","0","","","","","","","","","","","","","","","","","","","","","","","","",""
"","","","","","single-stim-button","329","600866","0.0-2.0-71.0-0.0","58d069219dbe3f0001258793","D2","batch4","","8807","tol_tohand","","","","tol_peg_1","8807","8807","0","[[1,0,0],[3,0],[0]]","1","[[3,2,0],[0,0],[1]]","20","0","","","","","","6","","","","","","","","",""
"","","","","","single-stim-button","330","601626","0.0-2.0-71.0-1.0","58d069219dbe3f0001258793","D2","batch4","","760","tol_toboard","","","","tol_peg_2","760","760","0","[[1,0,0],[3,2],[0]]","1","[[3,2,0],[0,0],[1]]","20","0","","","","","","6","","","","","","","","",""
"","","","","","single-stim-button","331","601994","0.0-2.0-71.1-0.1","58d069219dbe3f0001258793","D2","batch4","","368","tol_tohand","","","","tol_peg_1","368","368","0","[[0,0,0],[3,2],[0]]","2","[[3,2,0],[0,0],[1]]","20","0","","","","","","6","","","","","","","","",""
"","","","","","single-stim-button","332","602762","0.0-2.0-71.1-1.1","58d069219dbe3f0001258793","D2","batch4","","768","tol_toboard","","","","tol_peg_3","768","768","0","[[0,0,0],[3,2],[1]]","2","[[3,2,0],[0,0],[1]]","20","0","","","","","","6","","","","","","","","",""
"","","","","","single-stim-button","333","604027","0.0-2.0-71.2-0.2","58d069219dbe3f0001258793","D2","batch4","","1264","tol_tohand","","","","tol_peg_2","1264","1264","0","[[0,0,0],[3,0],[1]]","3","[[3,2,0],[0,0],[1]]","20","0","","","","","","6","","","","","","","","",""
"","","","","","single-stim-button","334","604442","0.0-2.0-71.2-1.2","58d069219dbe3f0001258793","D2","batch4","","415","tol_toboard","","","","tol_peg_1","415","415","0","[[2,0,0],[3,0],[1]]","3","[[3,2,0],[0,0],[1]]","20","0","","","","","","6","","","","","","","","",""
"","","","","","single-stim-button","335","607659","0.0-2.0-71.3-0.3","58d069219dbe3f0001258793","D2","batch4","","3216","tol_tohand","","","","tol_peg_3","3216","3216","0","[[2,0,0],[3,0],[0]]","4","[[3,2,0],[0,0],[1]]","20","0","","","","","","6","","","","","","","","",""
"","","","","","single-stim-button","336","608379","0.0-2.0-71.3-1.3","58d069219dbe3f0001258793","D2","batch4","","720","tol_toboard","","","","tol_peg_1","720","720","0","[[2,1,0],[3,0],[0]]","4","[[3,2,0],[0,0],[1]]","20","0","","","","","","6","","","","","","","","",""
"","","","","","single-stim-button","337","608890","0.0-2.0-71.4-0.4","58d069219dbe3f0001258793","D2","batch4","","511","tol_tohand","","","","tol_peg_2","511","511","0","[[2,1,0],[0,0],[0]]","5","[[3,2,0],[0,0],[1]]","20","0","","","","","","6","","","","","","","","",""
"","","","","","single-stim-button","338","609283","0.0-2.0-71.4-1.4","58d069219dbe3f0001258793","D2","batch4","","393","tol_toboard","","","","tol_peg_3","393","393","0","[[2,1,0],[0,0],[3]]","5","[[3,2,0],[0,0],[1]]","20","0","","","","","","6","","","","","","","","",""
"","","","","","single-stim-button","339","609939","0.0-2.0-71.5-0.5","58d069219dbe3f0001258793","D2","batch4","","654","tol_tohand","","","","tol_peg_1","654","654","0","[[2,0,0],[0,0],[3]]","6","[[3,2,0],[0,0],[1]]","20","0","","","","","","6","","","","","","","","",""
"","","","","","single-stim-button","340","610427","0.0-2.0-71.5-1.5","58d069219dbe3f0001258793","D2","batch4","","488","tol_toboard","","","","tol_peg_2","488","488","0","[[2,0,0],[1,0],[3]]","6","[[3,2,0],[0,0],[1]]","20","0","","","","","","6","","","","","","","","",""
"","","","","","single-stim-button","341","611547","0.0-2.0-71.6-0.6","58d069219dbe3f0001258793","D2","batch4","","1120","tol_tohand","","","","tol_peg_3","1120","1120","0","[[2,0,0],[1,0],[0]]","7","[[3,2,0],[0,0],[1]]","20","0","","","","","","6","","","","","","","","",""
"","","","","","single-stim-button","342","612619","0.0-2.0-71.6-1.6","58d069219dbe3f0001258793","D2","batch4","","1071","tol_toboard","","","","tol_peg_2","1071","1071","0","[[2,0,0],[1,3],[0]]","7","[[3,2,0],[0,0],[1]]","20","0","","","","","","6","","","","","","","","",""
"","","","","","single-stim-button","343","613682","0.0-2.0-71.7-0.7","58d069219dbe3f0001258793","D2","batch4","","1062","tol_tohand","","","","tol_peg_1","1062","1062","0","[[0,0,0],[1,3],[0]]","8","[[3,2,0],[0,0],[1]]","20","0","","","","","","6","","","","","","","","",""
"","","","","","single-stim-button","344","614844","0.0-2.0-71.7-1.7","58d069219dbe3f0001258793","D2","batch4","","1161","tol_toboard","","","","tol_peg_3","1161","1161","0","[[0,0,0],[1,3],[2]]","8","[[3,2,0],[0,0],[1]]","20","0","","","","","","6","","","","","","","","",""
"","","","","","single-stim-button","345","615554","0.0-2.0-71.8-0.8","58d069219dbe3f0001258793","D2","batch4","","710","tol_tohand","","","","tol_peg_2","710","710","0","[[0,0,0],[1,0],[2]]","9","[[3,2,0],[0,0],[1]]","20","0","","","","","","6","","","","","","","","",""
"","","","","","single-stim-button","346","615986","0.0-2.0-71.8-1.8","58d069219dbe3f0001258793","D2","batch4","","431","tol_toboard","","","","tol_peg_1","431","431","0","[[3,0,0],[1,0],[2]]","9","[[3,2,0],[0,0],[1]]","20","0","","","","","","6","","","","","","","","",""
"","","","","","single-stim-button","347","616444","0.0-2.0-71.9-0.9","58d069219dbe3f0001258793","D2","batch4","","458","tol_tohand","","","","tol_peg_3","458","458","0","[[3,0,0],[1,0],[0]]","10","[[3,2,0],[0,0],[1]]","20","0","","","","","","6","","","","","","","","",""
"","","","","","single-stim-button","348","616922","0.0-2.0-71.9-1.9","58d069219dbe3f0001258793","D2","batch4","","478","tol_toboard","","","","tol_peg_1","478","478","0","[[3,2,0],[1,0],[0]]","10","[[3,2,0],[0,0],[1]]","20","0","","","","","","6","","","","","","","","",""
"","","","","","single-stim-button","349","617593","0.0-2.0-71.10-0.10","58d069219dbe3f0001258793","D2","batch4","","671","tol_tohand","","","","tol_peg_2","671","671","0","[[3,2,0],[0,0],[0]]","11","[[3,2,0],[0,0],[1]]","20","0","","","","","","6","","","","","","","","",""
"","","","","","single-stim-button","350","618018","0.0-2.0-71.10-1.10","58d069219dbe3f0001258793","D2","batch4","","424","tol_toboard","","","","tol_peg_3","424","424","0","[[3,2,0],[0,0],[1]]","11","[[3,2,0],[0,0],[1]]","20","0","","","","","","6","","","","","","","","",""
"","","","","","poldrack-single-stim","351","619027","0.0-2.0-72.0","58d069219dbe3f0001258793","D2","batch4","","-1","tol_feedback","","","true","","1000","1000","500","","","","","","-1","none","true","8807","18841","","","","","","","","","",""
"","","","","","html-button-response","352","619850","0.0-2.0-73.0","58d069219dbe3f0001258793","D2","batch4","","821.8000000119209","tol_trial_num","<div class = centerbox><p class = center-block-text>problem <strong>22</strong> out of 25 problems</p></div>","0","","","","","","","","","","","","","","","","","","","","","","","","",""
"","","","","","single-stim-button","353","622899","0.0-2.0-74.0-0.0","58d069219dbe3f0001258793","D2","batch4","","3049","tol_tohand","","","","tol_peg_2","3049","3049","0","[[1,0,0],[2,0],[0]]","1","[[0,0,0],[1,2],[3]]","21","0","","","","","","6","","","","","","","","",""
"","","","","","single-stim-button","354","625370","0.0-2.0-74.0-1.0","58d069219dbe3f0001258793","D2","batch4","","2471","tol_toboard","","","","tol_peg_1","2471","2471","0","[[1,3,0],[2,0],[0]]","1","[[0,0,0],[1,2],[3]]","21","0","","","","","","6","","","","","","","","",""
"","","","","","single-stim-button","355","626058","0.0-2.0-74.1-0.1","58d069219dbe3f0001258793","D2","batch4","","688","tol_tohand","","","","tol_peg_2","688","688","0","[[1,3,0],[0,0],[0]]","2","[[0,0,0],[1,2],[3]]","21","0","","","","","","6","","","","","","","","",""
"","","","","","single-stim-button","356","626499","0.0-2.0-74.1-1.1","58d069219dbe3f0001258793","D2","batch4","","441","tol_toboard","","","","tol_peg_3","441","441","0","[[1,3,0],[0,0],[2]]","2","[[0,0,0],[1,2],[3]]","21","0","","","","","","6","","","","","","","","",""
