"success","timeout","failed_images","failed_audio","failed_video","trial_type","trial_index","time_elapsed","internal_node_id","subject_id","study_id","session_id","view_history","rt","stimulus","response","task","correct","answer","item","fiar_detect_rt","fiar_detect_correct","total_correct_fiar_detect","post_trial_gap","choices","spm_correct","spm_rt","mouse_click","stim_duration","block_duration","timing_post_trial","current_position","tol_num_moves_made","tol_target","tol_problem_id","tol_rt","key_press","possible_responses","tol_correct","preplanning","tol_rt_per_trial","tol_min_moves"
"true","false","[]","[]","[]","preload","0","6622","0.0-0.0","59107216127b0b00011fabea","A3","batch1","","","","","","","","","","","","","","","","","","","","","","","","","","","","","",""
"true","","","","","fullscreen","1","414865","0.0-1.0-0.0","59107216127b0b00011fabea","A3","batch1","","","","","","","","","","","","","","","","","","","","","","","","","","","","","",""
"true","","","","","fullscreen","2","418981","0.0-2.0-0.0","59107216127b0b00011fabea","A3","batch1","","","","","","","","","","","","","","","","","","","","","","","","","","","","","",""
"","","","","","instructions","3","421837","0.0-2.0-1.0-0.0","59107216127b0b00011fabea","A3","batch1","[{""page_index"":0,""viewing_time"":1889.7000000001863},{""page_index"":1,""viewing_time"":965.5999999996275}]","2855.600000000093","","","","","","","","","","","","","","","","","","","","","","","","","","","",""
"","","","","","html-button-response","4","422904","0.0-2.0-1.0-1.0-0.0","59107216127b0b00011fabea","A3","batch1","","1065.3000000002794","<p class=block-text> Let's answer a few questions <br>","0","pattern_enter_quiz","","","","","","","","","","","","","","","","","","","","","","","","",""
"","","","","","html-button-response","5","425847","0.0-2.0-1.0-1.0-1.0","59107216127b0b00011fabea","A3","batch1","","2942.6999999997206","<p class = block-text>True or False: You will have as much time as you want to make each choice. <br></p>","1","pattern_quiz","true","","","","","","","","","","","","","","","","","","","","","","","",""
"","","","","","html-button-response","6","427059","0.0-2.0-1.0-1.0-2.0","59107216127b0b00011fabea","A3","batch1","","1211.1000000000931","<p class = block-text>Correct! You should make your choice <strong> as fast as you can</strong>.</p>","0","pattern_quiz_feedback","","","","","","","","","","","","","","","","","","","","","","","","",""
"","","","","","html-button-response","7","430915","0.0-2.0-1.0-1.0-3.0","59107216127b0b00011fabea","A3","batch1","","3855.399999999907","<p class = block-text>True or False: You will look for 4 pieces in black or white color connected in a row either horizontally, vertically or diagonally. <br></p>","0","pattern_quiz","true","","","","","","","","","","","","","","","","","","","","","","","",""
"","","","","","html-button-response","8","431508","0.0-2.0-1.0-1.0-4.0","59107216127b0b00011fabea","A3","batch1","","592.6000000000931","<p class = block-text>Correct! </p>","0","pattern_quiz_feedback","","","","","","","","","","","","","","","","","","","","","","","","",""
"","","","","","html-button-response","9","432259","0.0-2.0-2.0","59107216127b0b00011fabea","A3","batch1","","749.1999999997206","<p class=block-text> Now that you've understood the game, let's do a few practice trials before we start!<br> <br>","0","pattern_enter_practice","","","","","","","","","","","","","","","","","","","","","","","","",""
"","","","","","image-keyboard-response","10","442734","0.0-2.0-3.0-0.0","59107216127b0b00011fabea","A3","batch1","","10469","stim/prac_yes_18_hor_w1.png","f","pattern_practice","true","f","","","","","","","","","","","","","","","","","","","","","","",""
"","","","","","html-keyboard-response","11","443745","0.0-2.0-3.0-1.0","59107216127b0b00011fabea","A3","batch1","","null","<p style=""font-size:30px;color:green;"">Correct!</p>","null","pattern_feedback","","","","","","","","","","","","","","","","","","","","","","","","",""
"","","","","","image-keyboard-response","12","446303","0.0-2.0-3.0-0.1","59107216127b0b00011fabea","A3","batch1","","2557.600000000093","stim/prac_no_18_1.png","j","pattern_practice","true","j","","","","","","","","","","","","","","","","","","","","","","",""
"","","","","","html-keyboard-response","13","447322","0.0-2.0-3.0-1.1","59107216127b0b00011fabea","A3","batch1","","null","<p style=""font-size:30px;color:green;"">Correct!</p>","null","pattern_feedback","","","","","","","","","","","","","","","","","","","","","","","","",""
"","","","","","image-keyboard-response","14","448093","0.0-2.0-3.0-0.2","59107216127b0b00011fabea","A3","batch1","","770.3999999999069","stim/prac_yes_16_ver_w1.png","f","pattern_practice","true","f","","","","","","","","","","","","","","","","","","","","","","",""
"","","","","","html-keyboard-response","15","449110","0.0-2.0-3.0-1.2","59107216127b0b00011fabea","A3","batch1","","null","<p style=""font-size:30px;color:green;"">Correct!</p>","null","pattern_feedback","","","","","","","","","","","","","","","","","","","","","","","","",""
"","","","","","image-keyboard-response","16","450284","0.0-2.0-3.0-0.3","59107216127b0b00011fabea","A3","batch1","","1173.5","stim/prac_no_16_1.png","j","pattern_practice","true","j","","","","","","","","","","","","","","","","","","","","","","",""
"","","","","","html-keyboard-response","17","451301","0.0-2.0-3.0-1.3","59107216127b0b00011fabea","A3","batch1","","null","<p style=""font-size:30px;color:green;"">Correct!</p>","null","pattern_feedback","","","","","","","","","","","","","","","","","","","","","","","","",""
"","","","","","image-keyboard-response","18","452103","0.0-2.0-3.0-0.4","59107216127b0b00011fabea","A3","batch1","","800.8999999999069","stim/prac_yes_20_dia_b1.png","f","pattern_practice","true","f","","","","","","","","","","","","","","","","","","","","","","",""
"","","","","","html-keyboard-response","19","453120","0.0-2.0-3.0-1.4","59107216127b0b00011fabea","A3","batch1","","null","<p style=""font-size:30px;color:green;"">Correct!</p>","null","pattern_feedback","","","","","","","","","","","","","","","","","","","","","","","","",""
"","","","","","html-button-response","20","454835","0.0-2.0-4.0","59107216127b0b00011fabea","A3","batch1","","1714.5","<p class=block-text> Good job! You are done with practice trials!<br>
        You responded correctly on 100% of the trials.<br>
        Press the button below to start official trials. Now you won't see any feedback about your response</p>","0","pattern_enter_official_trials","","","","","","","","","","","","","","","","","","","","","","","","",""
"","","","","","html-keyboard-response","21","455637","0.0-2.0-5.0-0.0","59107216127b0b00011fabea","A3","batch1","","null","<p class=block-text>Trial 1 out of 78</p>","null","pattern_show_trial_num","","","","","","","","","","","","","","","","","","","","","","","","",""
"","","","","","image-keyboard-response","22","456651","0.0-2.0-5.0-1.0","59107216127b0b00011fabea","A3","batch1","","1013.5","stim/yes_26_dia_w2_w.png","f","pattern_response","true","f","pattern_50","1013.5","true","1","","","","","","","","","","","","","","","","","","",""
"","","","","","html-keyboard-response","23","457967","0.0-2.0-5.0-0.1","59107216127b0b00011fabea","A3","batch1","","null","<p class=block-text>Trial 2 out of 78</p>","null","pattern_show_trial_num","","","","","","","","","","","","","","","","","","","","","","","","",""
"","","","","","image-keyboard-response","24","459172","0.0-2.0-5.0-1.1","59107216127b0b00011fabea","A3","batch1","","1204.5","stim/yes_23_ver_b1.png","f","pattern_response","true","f","pattern_48","1204.5","true","2","","","","","","","","","","","","","","","","","","",""
"","","","","","html-keyboard-response","25","460486","0.0-2.0-5.0-0.2","59107216127b0b00011fabea","A3","batch1","","null","<p class=block-text>Trial 3 out of 78</p>","null","pattern_show_trial_num","","","","","","","","","","","","","","","","","","","","","","","","",""
"","","","","","image-keyboard-response","26","462232","0.0-2.0-5.0-1.2","59107216127b0b00011fabea","A3","batch1","","1745.3999999999069","stim/no_30_1_b.png","j","pattern_response","true","j","pattern_13","1745.3999999999069","true","3","","","","","","","","","","","","","","","","","","",""
"","","","","","html-keyboard-response","27","463542","0.0-2.0-5.0-0.3","59107216127b0b00011fabea","A3","batch1","","null","<p class=block-text>Trial 4 out of 78</p>","null","pattern_show_trial_num","","","","","","","","","","","","","","","","","","","","","","","","",""
"","","","","","image-keyboard-response","28","465602","0.0-2.0-5.0-1.3","59107216127b0b00011fabea","A3","batch1","","2058.399999999907","stim/yes_49_hor_w1_b.png","f","pattern_response","true","f","pattern_70","2058.399999999907","true","4","","","","","","","","","","","","","","","","","","",""
"","","","","","html-keyboard-response","29","466921","0.0-2.0-5.0-0.4","59107216127b0b00011fabea","A3","batch1","","null","<p class=block-text>Trial 5 out of 78</p>","null","pattern_show_trial_num","","","","","","","","","","","","","","","","","","","","","","","","",""
"","","","","","image-keyboard-response","30","467674","0.0-2.0-5.0-1.4","59107216127b0b00011fabea","A3","batch1","","751.3999999999069","stim/yes_36_ver_w1_w.png","f","pattern_response","true","f","pattern_58","751.3999999999069","true","5","","","","","","","","","","","","","","","","","","",""
"","","","","","html-keyboard-response","31","468992","0.0-2.0-5.0-0.5","59107216127b0b00011fabea","A3","batch1","","null","<p class=block-text>Trial 6 out of 78</p>","null","pattern_show_trial_num","","","","","","","","","","","","","","","","","","","","","","","","",""
"","","","","","image-keyboard-response","32","473231","0.0-2.0-5.0-1.5","59107216127b0b00011fabea","A3","batch1","","4238.799999999814","stim/no_36_1_b.png","j","pattern_response","true","j","pattern_17","4238.799999999814","true","6","","","","","","","","","","","","","","","","","","",""
"","","","","","html-keyboard-response","33","474541","0.0-2.0-5.0-0.6","59107216127b0b00011fabea","A3","batch1","","null","<p class=block-text>Trial 7 out of 78</p>","null","pattern_show_trial_num","","","","","","","","","","","","","","","","","","","","","","","","",""
"","","","","","image-keyboard-response","34","476441","0.0-2.0-5.0-1.6","59107216127b0b00011fabea","A3","batch1","","1898.6000000000931","stim/yes_46_ver_b1_b.png","f","pattern_response","true","f","pattern_68","1898.6000000000931","true","7","","","","","","","","","","","","","","","","","","",""
"","","","","","html-keyboard-response","35","477758","0.0-2.0-5.0-0.7","59107216127b0b00011fabea","A3","batch1","","null","<p class=block-text>Trial 8 out of 78</p>","null","pattern_show_trial_num","","","","","","","","","","","","","","","","","","","","","","","","",""
"","","","","","image-keyboard-response","36","482162","0.0-2.0-5.0-1.7","59107216127b0b00011fabea","A3","batch1","","4402.899999999907","stim/no_58_1_w.png","j","pattern_response","true","j","pattern_35","4402.899999999907","true","8","","","","","","","","","","","","","","","","","","",""
"","","","","","html-keyboard-response","37","483478","0.0-2.0-5.0-0.8","59107216127b0b00011fabea","A3","batch1","","null","<p class=block-text>Trial 9 out of 78</p>","null","pattern_show_trial_num","","","","","","","","","","","","","","","","","","","","","","","","",""
"","","","","","image-keyboard-response","38","484421","0.0-2.0-5.0-1.8","59107216127b0b00011fabea","A3","batch1","","941.8999999999069","stim/no_12_1.png","j","pattern_response","true","j","pattern_01","941.8999999999069","true","9","","","","","","","","","","","","","","","","","","",""
"","","","","","html-keyboard-response","39","485733","0.0-2.0-5.0-0.9","59107216127b0b00011fabea","A3","batch1","","null","<p class=block-text>Trial 10 out of 78</p>","null","pattern_show_trial_num","","","","","","","","","","","","","","","","","","","","","","","","",""
"","","","","","image-keyboard-response","40","488450","0.0-2.0-5.0-1.9","59107216127b0b00011fabea","A3","batch1","","2715.7999999998137","stim/no_33_1_b.png","j","pattern_response","true","j","pattern_15","2715.7999999998137","true","10","","","","","","","","","","","","","","","","","","",""
"","","","","","html-keyboard-response","41","489766","0.0-2.0-5.0-0.10","59107216127b0b00011fabea","A3","batch1","","null","<p class=block-text>Trial 11 out of 78</p>","null","pattern_show_trial_num","","","","","","","","","","","","","","","","","","","","","","","","",""
"","","","","","image-keyboard-response","42","492839","0.0-2.0-5.0-1.10","59107216127b0b00011fabea","A3","batch1","","3071.9000000003725","stim/no_28_2.png","j","pattern_response","true","j","pattern_11","3071.9000000003725","true","11","","","","","","","","","","","","","","","","","","",""
"","","","","","html-keyboard-response","43","494157","0.0-2.0-5.0-0.11","59107216127b0b00011fabea","A3","batch1","","null","<p class=block-text>Trial 12 out of 78</p>","null","pattern_show_trial_num","","","","","","","","","","","","","","","","","","","","","","","","",""
"","","","","","image-keyboard-response","44","499769","0.0-2.0-5.0-1.11","59107216127b0b00011fabea","A3","batch1","","5611.399999999907","stim/no_53_1_b.png","j","pattern_response","true","j","pattern_33","5611.399999999907","true","12","","","","","","","","","","","","","","","","","","",""
"","","","","","html-keyboard-response","45","501083","0.0-2.0-5.0-0.12","59107216127b0b00011fabea","A3","batch1","","null","<p class=block-text>Trial 13 out of 78</p>","null","pattern_show_trial_num","","","","","","","","","","","","","","","","","","","","","","","","",""
"","","","","","image-keyboard-response","46","501990","0.0-2.0-5.0-1.12","59107216127b0b00011fabea","A3","batch1","","905.2999999998137","stim/yes_70_ver_b1.png","f","pattern_response","true","f","pattern_80","905.2999999998137","true","13","","","","","","","","","","","","","","","","","","",""
"","","","","","html-keyboard-response","47","503303","0.0-2.0-5.0-0.13","59107216127b0b00011fabea","A3","batch1","","null","<p class=block-text>Trial 14 out of 78</p>","null","pattern_show_trial_num","","","","","","","","","","","","","","","","","","","","","","","","",""
"","","","","","image-keyboard-response","48","506660","0.0-2.0-5.0-1.13","59107216127b0b00011fabea","A3","batch1","","3356.4000000003725","stim/no_39_1_w.png","j","pattern_response","true","j","pattern_21","3356.4000000003725","true","14","","","","","","","","","","","","","","","","","","",""
"","","","","","html-keyboard-response","49","507973","0.0-2.0-5.0-0.14","59107216127b0b00011fabea","A3","batch1","","null","<p class=block-text>Trial 15 out of 78</p>","null","pattern_show_trial_num","","","","","","","","","","","","","","","","","","","","","","","","",""
"","","","","","image-keyboard-response","50","508679","0.0-2.0-5.0-1.14","59107216127b0b00011fabea","A3","batch1","","705.1000000000931","stim/yes_39_hor_w1_w.png","f","pattern_response","true","f","pattern_62","705.1000000000931","true","15","","","","","","","","","","","","","","","","","","",""
"","","","","","html-keyboard-response","51","509989","0.0-2.0-5.0-0.15","59107216127b0b00011fabea","A3","batch1","","null","<p class=block-text>Trial 16 out of 78</p>","null","pattern_show_trial_num","","","","","","","","","","","","","","","","","","","","","","","","",""
"","","","","","image-keyboard-response","52","510549","0.0-2.0-5.0-1.15","59107216127b0b00011fabea","A3","batch1","","559.2999999998137","stim/yes_12_hor_w1_w.png","f","pattern_response","true","f","pattern_42","559.2999999998137","true","16","","","","","","","","","","","","","","","","","","",""
"","","","","","html-keyboard-response","53","511859","0.0-2.0-5.0-0.16","59107216127b0b00011fabea","A3","batch1","","null","<p class=block-text>Trial 17 out of 78</p>","null","pattern_show_trial_num","","","","","","","","","","","","","","","","","","","","","","","","",""
"","","","","","image-keyboard-response","54","515459","0.0-2.0-5.0-1.16","59107216127b0b00011fabea","A3","batch1","","3599.2999999998137","stim/yes_58_dia_w1_w.png","j","pattern_response","false","f","pattern_76","3599.2999999998137","false","16","","","","","","","","","","","","","","","","","","",""
"","","","","","html-keyboard-response","55","516772","0.0-2.0-5.0-0.17","59107216127b0b00011fabea","A3","batch1","","null","<p class=block-text>Trial 18 out of 78</p>","null","pattern_show_trial_num","","","","","","","","","","","","","","","","","","","","","","","","",""
"","","","","","image-keyboard-response","56","518959","0.0-2.0-5.0-1.17","59107216127b0b00011fabea","A3","batch1","","2185.6999999997206","stim/yes_42_dia_w1_w.png","j","pattern_response","false","f","pattern_64","2185.6999999997206","false","16","","","","","","","","","","","","","","","","","","",""
"","","","","","html-keyboard-response","57","520275","0.0-2.0-5.0-0.18","59107216127b0b00011fabea","A3","batch1","","null","<p class=block-text>Trial 19 out of 78</p>","null","pattern_show_trial_num","","","","","","","","","","","","","","","","","","","","","","","","",""
"","","","","","image-keyboard-response","58","521288","0.0-2.0-5.0-1.18","59107216127b0b00011fabea","A3","batch1","","1012.2000000001863","stim/yes_37_hor_w1_w.png","f","pattern_response","true","f","pattern_60","1012.2000000001863","true","17","","","","","","","","","","","","","","","","","","",""
"","","","","","html-keyboard-response","59","522605","0.0-2.0-5.0-0.19","59107216127b0b00011fabea","A3","batch1","","null","<p class=block-text>Trial 20 out of 78</p>","null","pattern_show_trial_num","","","","","","","","","","","","","","","","","","","","","","","","",""
"","","","","","image-keyboard-response","60","523968","0.0-2.0-5.0-1.19","59107216127b0b00011fabea","A3","batch1","","1362.3999999999069","stim/no_47_1_b.png","j","pattern_response","true","j","pattern_27","1362.3999999999069","true","18","","","","","","","","","","","","","","","","","","",""
"","","","","","html-keyboard-response","61","525285","0.0-2.0-5.0-0.20","59107216127b0b00011fabea","A3","batch1","","null","<p class=block-text>Trial 21 out of 78</p>","null","pattern_show_trial_num","","","","","","","","","","","","","","","","","","","","","","","","",""
"","","","","","image-keyboard-response","62","526608","0.0-2.0-5.0-1.20","59107216127b0b00011fabea","A3","batch1","","1322","stim/no_22_1_b.png","j","pattern_response","true","j","pattern_07","1322","true","19","","","","","","","","","","","","","","","","","","",""
"","","","","","html-keyboard-response","63","527925","0.0-2.0-5.0-0.21","59107216127b0b00011fabea","A3","batch1","","null","<p class=block-text>Trial 22 out of 78</p>","null","pattern_show_trial_num","","","","","","","","","","","","","","","","","","","","","","","","",""
"","","","","","image-keyboard-response","64","529588","0.0-2.0-5.0-1.21","59107216127b0b00011fabea","A3","batch1","","1662.8999999999069","stim/no_37_2_w.png","j","pattern_response","true","j","pattern_19","1662.8999999999069","true","20","","","","","","","","","","","","","","","","","","",""
"","","","","","html-keyboard-response","65","530898","0.0-2.0-5.0-0.22","59107216127b0b00011fabea","A3","batch1","","null","<p class=block-text>Trial 23 out of 78</p>","null","pattern_show_trial_num","","","","","","","","","","","","","","","","","","","","","","","","",""
"","","","","","image-keyboard-response","66","531999","0.0-2.0-5.0-1.22","59107216127b0b00011fabea","A3","batch1","","1100.7999999998137","stim/no_18_1_b.png","j","pattern_response","true","j","pattern_05","1100.7999999998137","true","21","","","","","","","","","","","","","","","","","","",""
"","","","","","html-keyboard-response","67","533313","0.0-2.0-5.0-0.23","59107216127b0b00011fabea","A3","batch1","","null","<p class=block-text>Trial 24 out of 78</p>","null","pattern_show_trial_num","","","","","","","","","","","","","","","","","","","","","","","","",""
"","","","","","image-keyboard-response","68","535908","0.0-2.0-5.0-1.23","59107216127b0b00011fabea","A3","batch1","","2594.2000000001863","stim/no_45_1_w.png","j","pattern_response","true","j","pattern_25","2594.2000000001863","true","22","","","","","","","","","","","","","","","","","","",""
"","","","","","html-keyboard-response","69","537219","0.0-2.0-5.0-0.24","59107216127b0b00011fabea","A3","batch1","","null","<p class=block-text>Trial 25 out of 78</p>","null","pattern_show_trial_num","","","","","","","","","","","","","","","","","","","","","","","","",""
"","","","","","image-keyboard-response","70","538018","0.0-2.0-5.0-1.24","59107216127b0b00011fabea","A3","batch1","","797.5999999996275","stim/yes_29_hor_b1_b.png","f","pattern_response","true","f","pattern_52","797.5999999996275","true","23","","","","","","","","","","","","","","","","","","",""
"","","","","","html-keyboard-response","71","539332","0.0-2.0-5.0-0.25","59107216127b0b00011fabea","A3","batch1","","null","<p class=block-text>Trial 26 out of 78</p>","null","pattern_show_trial_num","","","","","","","","","","","","","","","","","","","","","","","","",""
"","","","","","image-keyboard-response","72","540447","0.0-2.0-5.0-1.25","59107216127b0b00011fabea","A3","batch1","","1114.3999999999069","stim/yes_33_dia_w1_w.png","f","pattern_response","true","f","pattern_56","1114.3999999999069","true","24","","","","","","","","","","","","","","","","","","",""
"","","","","","html-keyboard-response","73","541761","0.0-2.0-5.0-0.26","59107216127b0b00011fabea","A3","batch1","","null","<p class=block-text>Trial 27 out of 78</p>","null","pattern_show_trial_num","","","","","","","","","","","","","","","","","","","","","","","","",""
"","","","","","image-keyboard-response","74","542477","0.0-2.0-5.0-1.26","59107216127b0b00011fabea","A3","batch1","","715.5999999996275","stim/no_15_1_w.png","j","pattern_response","true","j","pattern_03","715.5999999996275","true","25","","","","","","","","","","","","","","","","","","",""
"","","","","","html-keyboard-response","75","543792","0.0-2.0-5.0-0.27","59107216127b0b00011fabea","A3","batch1","","null","<p class=block-text>Trial 28 out of 78</p>","null","pattern_show_trial_num","","","","","","","","","","","","","","","","","","","","","","","","",""
"","","","","","image-keyboard-response","76","546857","0.0-2.0-5.0-1.27","59107216127b0b00011fabea","A3","batch1","","3064.5","stim/no_67_1.png","j","pattern_response","true","j","pattern_39","3064.5","true","26","","","","","","","","","","","","","","","","","","",""
"","","","","","html-keyboard-response","77","548170","0.0-2.0-5.0-0.28","59107216127b0b00011fabea","A3","batch1","","null","<p class=block-text>Trial 29 out of 78</p>","null","pattern_show_trial_num","","","","","","","","","","","","","","","","","","","","","","","","",""
"","","","","","image-keyboard-response","78","549546","0.0-2.0-5.0-1.28","59107216127b0b00011fabea","A3","batch1","","1374.6000000000931","stim/no_43_2_b.png","j","pattern_response","true","j","pattern_23","1374.6000000000931","true","27","","","","","","","","","","","","","","","","","","",""
"","","","","","html-keyboard-response","79","550857","0.0-2.0-5.0-0.29","59107216127b0b00011fabea","A3","batch1","","null","<p class=block-text>Trial 30 out of 78</p>","null","pattern_show_trial_num","","","","","","","","","","","","","","","","","","","","","","","","",""
"","","","","","image-keyboard-response","80","553397","0.0-2.0-5.0-1.29","59107216127b0b00011fabea","A3","batch1","","2539.5","stim/no_51_1.png","j","pattern_response","true","j","pattern_31","2539.5","true","28","","","","","","","","","","","","","","","","","","",""
"","","","","","html-keyboard-response","81","554716","0.0-2.0-5.0-0.30","59107216127b0b00011fabea","A3","batch1","","null","<p class=block-text>Trial 31 out of 78</p>","null","pattern_show_trial_num","","","","","","","","","","","","","","","","","","","","","","","","",""
"","","","","","image-keyboard-response","82","557716","0.0-2.0-5.0-1.30","59107216127b0b00011fabea","A3","batch1","","2998.600000000093","stim/yes_53_ver_b1_b.png","j","pattern_response","false","f","pattern_74","2998.600000000093","false","28","","","","","","","","","","","","","","","","","","",""
"","","","","","html-keyboard-response","83","559032","0.0-2.0-5.0-0.31","59107216127b0b00011fabea","A3","batch1","","null","<p class=block-text>Trial 32 out of 78</p>","null","pattern_show_trial_num","","","","","","","","","","","","","","","","","","","","","","","","",""
"","","","","","image-keyboard-response","84","559717","0.0-2.0-5.0-1.31","59107216127b0b00011fabea","A3","batch1","","683.8000000002794","stim/yes_15_dia_b1u_b.png","f","pattern_response","true","f","pattern_44","683.8000000002794","true","29","","","","","","","","","","","","","","","","","","",""
"","","","","","html-keyboard-response","85","561031","0.0-2.0-5.0-0.32","59107216127b0b00011fabea","A3","batch1","","null","<p class=block-text>Trial 33 out of 78</p>","null","pattern_show_trial_num","","","","","","","","","","","","","","","","","","","","","","","","",""
"","","","","","image-keyboard-response","86","562496","0.0-2.0-5.0-1.32","59107216127b0b00011fabea","A3","batch1","","1464.3000000002794","stim/yes_30_ver_b1_b.png","j","pattern_response","false","f","pattern_54","1464.3000000002794","false","29","","","","","","","","","","","","","","","","","","",""
"","","","","","html-keyboard-response","87","563806","0.0-2.0-5.0-0.33","59107216127b0b00011fabea","A3","batch1","","null","<p class=block-text>Trial 34 out of 78</p>","null","pattern_show_trial_num","","","","","","","","","","","","","","","","","","","","","","","","",""
"","","","","","image-keyboard-response","88","566357","0.0-2.0-5.0-1.33","59107216127b0b00011fabea","A3","batch1","","2549.600000000093","stim/yes_44_ver_w1_w.png","j","pattern_response","false","f","pattern_66","2549.600000000093","false","29","","","","","","","","","","","","","","","","","","",""
"","","","","","html-keyboard-response","89","567672","0.0-2.0-5.0-0.34","59107216127b0b00011fabea","A3","batch1","","null","<p class=block-text>Trial 35 out of 78</p>","null","pattern_show_trial_num","","","","","","","","","","","","","","","","","","","","","","","","",""
"","","","","","image-keyboard-response","90","569626","0.0-2.0-5.0-1.34","59107216127b0b00011fabea","A3","batch1","","1952.8999999999069","stim/yes_51_dia_b1.png","f","pattern_response","true","f","pattern_72","1952.8999999999069","true","30","","","","","","","","","","","","","","","","","","",""
"","","","","","html-keyboard-response","91","570936","0.0-2.0-5.0-0.35","59107216127b0b00011fabea","A3","batch1","","null","<p class=block-text>Trial 36 out of 78</p>","null","pattern_show_trial_num","","","","","","","","","","","","","","","","","","","","","","","","",""
"","","","","","image-keyboard-response","92","571646","0.0-2.0-5.0-1.35","59107216127b0b00011fabea","A3","batch1","","709.3999999999069","stim/yes_17_ver_b1_b.png","f","pattern_response","true","f","pattern_46","709.3999999999069","true","31","","","","","","","","","","","","","","","","","","",""
"","","","","","html-keyboard-response","93","572952","0.0-2.0-5.0-0.36","59107216127b0b00011fabea","A3","batch1","","null","<p class=block-text>Trial 37 out of 78</p>","null","pattern_show_trial_num","","","","","","","","","","","","","","","","","","","","","","","","",""
"","","","","","image-keyboard-response","94","574105","0.0-2.0-5.0-1.36","59107216127b0b00011fabea","A3","batch1","","1152.2000000001863","stim/yes_63_dia_b1.png","f","pattern_response","true","f","pattern_78","1152.2000000001863","true","32","","","","","","","","","","","","","","","","","","",""
"","","","","","html-keyboard-response","95","575415","0.0-2.0-5.0-0.37","59107216127b0b00011fabea","A3","batch1","","null","<p class=block-text>Trial 38 out of 78</p>","null","pattern_show_trial_num","","","","","","","","","","","","","","","","","","","","","","","","",""
"","","","","","image-keyboard-response","96","577937","0.0-2.0-5.0-1.37","59107216127b0b00011fabea","A3","batch1","","2521.899999999907","stim/no_49_2_b.png","j","pattern_response","true","j","pattern_29","2521.899999999907","true","33","","","","","","","","","","","","","","","","","","",""
"","","","","","html-keyboard-response","97","579255","0.0-2.0-5.0-0.38","59107216127b0b00011fabea","A3","batch1","","null","<p class=block-text>Trial 39 out of 78</p>","null","pattern_show_trial_num","","","","","","","","","","","","","","","","","","","","","","","","",""
"","","","","","image-keyboard-response","98","580395","0.0-2.0-5.0-1.38","59107216127b0b00011fabea","A3","batch1","","1138.7000000001863","stim/no_25_1_b.png","j","pattern_response","true","j","pattern_09","1138.7000000001863","true","34","","","","","","","","","","","","","","","","","","",""
"","","","","","image-keyboard-response","99","583145","0.0-2.0-6.0","59107216127b0b00011fabea","A3","batch1","","2242.7999999998137","stim/empty_board.png","j","attention_check","true","j","","","","","500","[""f"",""j""]","","","","","","","","","","","","","","","","",""
"","","","","","html-keyboard-response","100","583951","0.0-2.0-7.0-0.0","59107216127b0b00011fabea","A3","batch1","","null","<p class=block-text>Trial 40 out of 78</p>","null","pattern_show_trial_num","","","","","","","","","","","","","","","","","","","","","","","","",""
"","","","","","image-keyboard-response","101","585735","0.0-2.0-7.0-1.0","59107216127b0b00011fabea","A3","batch1","","1782.2999999998137","stim/yes_40_dia_b1_b.png","f","pattern_response","true","f","pattern_63","1782.2999999998137","true","35","","","","","","","","","","","","","","","","","","",""
"","","","","","html-keyboard-response","102","587050","0.0-2.0-7.0-0.1","59107216127b0b00011fabea","A3","batch1","","null","<p class=block-text>Trial 41 out of 78</p>","null","pattern_show_trial_num","","","","","","","","","","","","","","","","","","","","","","","","",""
"","","","","","image-keyboard-response","103","589014","0.0-2.0-7.0-1.1","59107216127b0b00011fabea","A3","batch1","","1962.7999999998137","stim/no_44_1.png","j","pattern_response","true","j","pattern_24","1962.7999999998137","true","36","","","","","","","","","","","","","","","","","","",""
"","","","","","html-keyboard-response","104","590326","0.0-2.0-7.0-0.2","59107216127b0b00011fabea","A3","batch1","","null","<p class=block-text>Trial 42 out of 78</p>","null","pattern_show_trial_num","","","","","","","","","","","","","","","","","","","","","","","","",""
"","","","","","image-keyboard-response","105","590994","0.0-2.0-7.0-1.2","59107216127b0b00011fabea","A3","batch1","","667.5","stim/yes_22_ver_w1.png","f","pattern_response","true","f","pattern_47","667.5","true","37","","","","","","","","","","","","","","","","","","",""
"","","","","","html-keyboard-response","106","592311","0.0-2.0-7.0-0.3","59107216127b0b00011fabea","A3","batch1","","null","<p class=block-text>Trial 43 out of 78</p>","null","pattern_show_trial_num","","","","","","","","","","","","","","","","","","","","","","","","",""
"","","","","","image-keyboard-response","107","593464","0.0-2.0-7.0-1.3","59107216127b0b00011fabea","A3","batch1","","1152.3999999999069","stim/no_29_1_b.png","j","pattern_response","true","j","pattern_12","1152.3999999999069","true","38","","","","","","","","","","","","","","","","","","",""
"","","","","","html-keyboard-response","108","594774","0.0-2.0-7.0-0.4","59107216127b0b00011fabea","A3","batch1","","null","<p class=block-text>Trial 44 out of 78</p>","null","pattern_show_trial_num","","","","","","","","","","","","","","","","","","","","","","","","",""
"","","","","","image-keyboard-response","109","596884","0.0-2.0-7.0-1.4","59107216127b0b00011fabea","A3","batch1","","2109.899999999907","stim/no_48_1_w.png","j","pattern_response","true","j","pattern_28","2109.899999999907","true","39","","","","","","","","","","","","","","","","","","",""
"","","","","","html-keyboard-response","110","598201","0.0-2.0-7.0-0.5","59107216127b0b00011fabea","A3","batch1","","null","<p class=block-text>Trial 45 out of 78</p>","null","pattern_show_trial_num","","","","","","","","","","","","","","","","","","","","","","","","",""
"","","","","","image-keyboard-response","111","599233","0.0-2.0-7.0-1.5","59107216127b0b00011fabea","A3","batch1","","1031.1999999997206","stim/no_23_1.png","j","pattern_response","true","j","pattern_08","1031.1999999997206","true","40","","","","","","","","","","","","","","","","","","",""
"","","","","","html-keyboard-response","112","600550","0.0-2.0-7.0-0.6","59107216127b0b00011fabea","A3","batch1","","null","<p class=block-text>Trial 46 out of 78</p>","null","pattern_show_trial_num","","","","","","","","","","","","","","","","","","","","","","","","",""
"","","","","","image-keyboard-response","113","601774","0.0-2.0-7.0-1.6","59107216127b0b00011fabea","A3","batch1","","1222.6000000000931","stim/yes_29_ver_w1.png","f","pattern_response","true","f","pattern_53","1222.6000000000931","true","41","","","","","","","","","","","","","","","","","","",""
"","","","","","html-keyboard-response","114","603087","0.0-2.0-7.0-0.7","59107216127b0b00011fabea","A3","batch1","","null","<p class=block-text>Trial 47 out of 78</p>","null","pattern_show_trial_num","","","","","","","","","","","","","","","","","","","","","","","","",""
"","","","","","image-keyboard-response","115","604493","0.0-2.0-7.0-1.7","59107216127b0b00011fabea","A3","batch1","","1404.8999999999069","stim/yes_52_ver_w1.png","f","pattern_response","true","f","pattern_73","1404.8999999999069","true","42","","","","","","","","","","","","","","","","","","",""
"","","","","","html-keyboard-response","116","605805","0.0-2.0-7.0-0.8","59107216127b0b00011fabea","A3","batch1","","null","<p class=block-text>Trial 48 out of 78</p>","null","pattern_show_trial_num","","","","","","","","","","","","","","","","","","","","","","","","",""
"","","","","","image-keyboard-response","117","608133","0.0-2.0-7.0-1.8","59107216127b0b00011fabea","A3","batch1","","2327.4000000003725","stim/no_42_1_w.png","j","pattern_response","true","j","pattern_22","2327.4000000003725","true","43","","","","","","","","","","","","","","","","","","",""
"","","","","","html-keyboard-response","118","609444","0.0-2.0-7.0-0.9","59107216127b0b00011fabea","A3","batch1","","null","<p class=block-text>Trial 49 out of 78</p>","null","pattern_show_trial_num","","","","","","","","","","","","","","","","","","","","","","","","",""
"","","","","","image-keyboard-response","119","611662","0.0-2.0-7.0-1.9","59107216127b0b00011fabea","A3","batch1","","2217.5","stim/no_62_1_w.png","j","pattern_response","true","j","pattern_36","2217.5","true","44","","","","","","","","","","","","","","","","","","",""
"","","","","","html-keyboard-response","120","612972","0.0-2.0-7.0-0.10","59107216127b0b00011fabea","A3","batch1","","null","<p class=block-text>Trial 50 out of 78</p>","null","pattern_show_trial_num","","","","","","","","","","","","","","","","","","","","","","","","",""
"","","","","","image-keyboard-response","121","614404","0.0-2.0-7.0-1.10","59107216127b0b00011fabea","A3","batch1","","1430.8999999999069","stim/yes_50_dia_w1.png","j","pattern_response","false","f","pattern_71","1430.8999999999069","false","44","","","","","","","","","","","","","","","","","","",""
"","","","","","html-keyboard-response","122","615716","0.0-2.0-7.0-0.11","59107216127b0b00011fabea","A3","batch1","","null","<p class=block-text>Trial 51 out of 78</p>","null","pattern_show_trial_num","","","","","","","","","","","","","","","","","","","","","","","","",""
"","","","","","image-keyboard-response","123","616532","0.0-2.0-7.0-1.11","59107216127b0b00011fabea","A3","batch1","","814.6999999997206","stim/yes_25_hor_b1_b.png","f","pattern_response","true","f","pattern_49","814.6999999997206","true","45","","","","","","","","","","","","","","","","","","",""
"","","","","","html-keyboard-response","124","617847","0.0-2.0-7.0-0.12","59107216127b0b00011fabea","A3","batch1","","null","<p class=block-text>Trial 52 out of 78</p>","null","pattern_show_trial_num","","","","","","","","","","","","","","","","","","","","","","","","",""
"","","","","","image-keyboard-response","125","619322","0.0-2.0-7.0-1.12","59107216127b0b00011fabea","A3","batch1","","1474.3999999999069","stim/yes_45_hor_b2_b.png","f","pattern_response","true","f","pattern_67","1474.3999999999069","true","46","","","","","","","","","","","","","","","","","","",""
"","","","","","html-keyboard-response","126","620636","0.0-2.0-7.0-0.13","59107216127b0b00011fabea","A3","batch1","","null","<p class=block-text>Trial 53 out of 78</p>","null","pattern_show_trial_num","","","","","","","","","","","","","","","","","","","","","","","","",""
"","","","","","image-keyboard-response","127","621602","0.0-2.0-7.0-1.13","59107216127b0b00011fabea","A3","batch1","","965.8000000002794","stim/yes_35_dia_b1.png","f","pattern_response","true","f","pattern_57","965.8000000002794","true","47","","","","","","","","","","","","","","","","","","",""
"","","","","","html-keyboard-response","128","622916","0.0-2.0-7.0-0.14","59107216127b0b00011fabea","A3","batch1","","null","<p class=block-text>Trial 54 out of 78</p>","null","pattern_show_trial_num","","","","","","","","","","","","","","","","","","","","","","","","",""
"","","","","","image-keyboard-response","129","625523","0.0-2.0-7.0-1.14","59107216127b0b00011fabea","A3","batch1","","2606","stim/no_36_2_w.png","j","pattern_response","true","j","pattern_18","2606","true","48","","","","","","","","","","","","","","","","","","",""
"","","","","","html-keyboard-response","130","626835","0.0-2.0-7.0-0.15","59107216127b0b00011fabea","A3","batch1","","null","<p class=block-text>Trial 55 out of 78</p>","null","pattern_show_trial_num","","","","","","","","","","","","","","","","","","","","","","","","",""
"","","","","","image-keyboard-response","131","628002","0.0-2.0-7.0-1.15","59107216127b0b00011fabea","A3","batch1","","1165.5999999996275","stim/yes_43_ver_w1_w.png","f","pattern_response","true","f","pattern_65","1165.5999999996275","true","49","","","","","","","","","","","","","","","","","","",""
"","","","","","html-keyboard-response","132","629315","0.0-2.0-7.0-0.16","59107216127b0b00011fabea","A3","batch1","","null","<p class=block-text>Trial 56 out of 78</p>","null","pattern_show_trial_num","","","","","","","","","","","","","","","","","","","","","","","","",""
"","","","","","image-keyboard-response","133","632282","0.0-2.0-7.0-1.16","59107216127b0b00011fabea","A3","batch1","","2965.899999999907","stim/no_70_2.png","j","pattern_response","true","j","pattern_40","2965.899999999907","true","50","","","","","","","","","","","","","","","","","","",""
"","","","","","html-keyboard-response","134","633599","0.0-2.0-7.0-0.17","59107216127b0b00011fabea","A3","batch1","","null","<p class=block-text>Trial 57 out of 78</p>","null","pattern_show_trial_num","","","","","","","","","","","","","","","","","","","","","","","","",""
"","","","","","image-keyboard-response","135","634892","0.0-2.0-7.0-1.17","59107216127b0b00011fabea","A3","batch1","","1292.1000000000931","stim/no_32_1_w.png","j","pattern_response","true","j","pattern_14","1292.1000000000931","true","51","","","","","","","","","","","","","","","","","","",""
"","","","","","html-keyboard-response","136","636207","0.0-2.0-7.0-0.18","59107216127b0b00011fabea","A3","batch1","","null","<p class=block-text>Trial 58 out of 78</p>","null","pattern_show_trial_num","","","","","","","","","","","","","","","","","","","","","","","","",""
"","","","","","image-keyboard-response","137","638082","0.0-2.0-7.0-1.18","59107216127b0b00011fabea","A3","batch1","","1874.5","stim/yes_48_dia_w1_w.png","j","pattern_response","false","f","pattern_69","1874.5","false","51","","","","","","","","","","","","","","","","","","",""
"","","","","","html-keyboard-response","138","639398","0.0-2.0-7.0-0.19","59107216127b0b00011fabea","A3","batch1","","null","<p class=block-text>Trial 59 out of 78</p>","null","pattern_show_trial_num","","","","","","","","","","","","","","","","","","","","","","","","",""
"","","","","","image-keyboard-response","139","640262","0.0-2.0-7.0-1.19","59107216127b0b00011fabea","A3","batch1","","862.7999999998137","stim/no_17_1_w.png","j","pattern_response","true","j","pattern_04","862.7999999998137","true","52","","","","","","","","","","","","","","","","","","",""
"","","","","","html-keyboard-response","140","641575","0.0-2.0-7.0-0.20","59107216127b0b00011fabea","A3","batch1","","null","<p class=block-text>Trial 60 out of 78</p>","null","pattern_show_trial_num","","","","","","","","","","","","","","","","","","","","","","","","",""
"","","","","","image-keyboard-response","141","642271","0.0-2.0-7.0-1.20","59107216127b0b00011fabea","A3","batch1","","694.6000000000931","stim/no_20_1_w.png","j","pattern_response","true","j","pattern_06","694.6000000000931","true","53","","","","","","","","","","","","","","","","","","",""
"","","","","","html-keyboard-response","142","643590","0.0-2.0-7.0-0.21","59107216127b0b00011fabea","A3","batch1","","null","<p class=block-text>Trial 61 out of 78</p>","null","pattern_show_trial_num","","","","","","","","","","","","","","","","","","","","","","","","",""
"","","","","","image-keyboard-response","143","644473","0.0-2.0-7.0-1.21","59107216127b0b00011fabea","A3","batch1","","882.6999999997206","stim/yes_17_dia_w1.png","f","pattern_response","true","f","pattern_45","882.6999999997206","true","54","","","","","","","","","","","","","","","","","","",""
"","","","","","html-keyboard-response","144","645790","0.0-2.0-7.0-0.22","59107216127b0b00011fabea","A3","batch1","","null","<p class=block-text>Trial 62 out of 78</p>","null","pattern_show_trial_num","","","","","","","","","","","","","","","","","","","","","","","","",""
"","","","","","image-keyboard-response","145","647490","0.0-2.0-7.0-1.22","59107216127b0b00011fabea","A3","batch1","","1699.5999999996275","stim/no_52_1.png","j","pattern_response","true","j","pattern_32","1699.5999999996275","true","55","","","","","","","","","","","","","","","","","","",""
"","","","","","html-keyboard-response","146","648805","0.0-2.0-7.0-0.23","59107216127b0b00011fabea","A3","batch1","","null","<p class=block-text>Trial 63 out of 78</p>","null","pattern_show_trial_num","","","","","","","","","","","","","","","","","","","","","","","","",""
"","","","","","image-keyboard-response","147","649621","0.0-2.0-7.0-1.23","59107216127b0b00011fabea","A3","batch1","","814.7000000001863","stim/yes_28_ver_b1.png","f","pattern_response","true","f","pattern_51","814.7000000001863","true","56","","","","","","","","","","","","","","","","","","",""
"","","","","","html-keyboard-response","148","650931","0.0-2.0-7.0-0.24","59107216127b0b00011fabea","A3","batch1","","null","<p class=block-text>Trial 64 out of 78</p>","null","pattern_show_trial_num","","","","","","","","","","","","","","","","","","","","","","","","",""
"","","","","","image-keyboard-response","149","651941","0.0-2.0-7.0-1.24","59107216127b0b00011fabea","A3","batch1","","1009.2000000001863","stim/yes_38_hor_b1_b.png","f","pattern_response","true","f","pattern_61","1009.2000000001863","true","57","","","","","","","","","","","","","","","","","","",""
"","","","","","html-keyboard-response","150","653250","0.0-2.0-7.0-0.25","59107216127b0b00011fabea","A3","batch1","","null","<p class=block-text>Trial 65 out of 78</p>","null","pattern_show_trial_num","","","","","","","","","","","","","","","","","","","","","","","","",""
"","","","","","image-keyboard-response","151","653900","0.0-2.0-7.0-1.25","59107216127b0b00011fabea","A3","batch1","","649.0999999996275","stim/yes_14_hor_b1_w.png","f","pattern_response","true","f","pattern_43","649.0999999996275","true","58","","","","","","","","","","","","","","","","","","",""
"","","","","","html-keyboard-response","152","655210","0.0-2.0-7.0-0.26","59107216127b0b00011fabea","A3","batch1","","null","<p class=block-text>Trial 66 out of 78</p>","null","pattern_show_trial_num","","","","","","","","","","","","","","","","","","","","","","","","",""
"","","","","","image-keyboard-response","153","656211","0.0-2.0-7.0-1.26","59107216127b0b00011fabea","A3","batch1","","999.8999999999069","stim/no_38_1_b.png","j","pattern_response","true","j","pattern_20","999.8999999999069","true","59","","","","","","","","","","","","","","","","","","",""
"","","","","","html-keyboard-response","154","657523","0.0-2.0-7.0-0.27","59107216127b0b00011fabea","A3","batch1","","null","<p class=block-text>Trial 67 out of 78</p>","null","pattern_show_trial_num","","","","","","","","","","","","","","","","","","","","","","","","",""
"","","","","","image-keyboard-response","155","659370","0.0-2.0-7.0-1.27","59107216127b0b00011fabea","A3","batch1","","1846.2999999998137","stim/no_55_1_w.png","j","pattern_response","true","j","pattern_34","1846.2999999998137","true","60","","","","","","","","","","","","","","","","","","",""
"","","","","","html-keyboard-response","156","660680","0.0-2.0-7.0-0.28","59107216127b0b00011fabea","A3","batch1","","null","<p class=block-text>Trial 68 out of 78</p>","null","pattern_show_trial_num","","","","","","","","","","","","","","","","","","","","","","","","",""
"","","","","","image-keyboard-response","157","664179","0.0-2.0-7.0-1.28","59107216127b0b00011fabea","A3","batch1","","3497.899999999907","stim/no_65_1_b.png","j","pattern_response","true","j","pattern_38","3497.899999999907","true","61","","","","","","","","","","","","","","","","","","",""
"","","","","","html-keyboard-response","158","665491","0.0-2.0-7.0-0.29","59107216127b0b00011fabea","A3","batch1","","null","<p class=block-text>Trial 69 out of 78</p>","null","pattern_show_trial_num","","","","","","","","","","","","","","","","","","","","","","","","",""
"","","","","","image-keyboard-response","159","666450","0.0-2.0-7.0-1.29","59107216127b0b00011fabea","A3","batch1","","957.6000000000931","stim/no_26_1_w.png","j","pattern_response","true","j","pattern_10","957.6000000000931","true","62","","","","","","","","","","","","","","","","","","",""
"","","","","","html-keyboard-response","160","667763","0.0-2.0-7.0-0.30","59107216127b0b00011fabea","A3","batch1","","null","<p class=block-text>Trial 70 out of 78</p>","null","pattern_show_trial_num","","","","","","","","","","","","","","","","","","","","","","","","",""
"","","","","","image-keyboard-response","161","669140","0.0-2.0-7.0-1.30","59107216127b0b00011fabea","A3","batch1","","1375.3999999999069","stim/yes_37_dia_w1.png","j","pattern_response","false","f","pattern_59","1375.3999999999069","false","62","","","","","","","","","","","","","","","","","","",""
"","","","","","html-keyboard-response","162","670450","0.0-2.0-7.0-0.31","59107216127b0b00011fabea","A3","batch1","","null","<p class=block-text>Trial 71 out of 78</p>","null","pattern_show_trial_num","","","","","","","","","","","","","","","","","","","","","","","","",""
"","","","","","image-keyboard-response","163","671259","0.0-2.0-7.0-1.31","59107216127b0b00011fabea","A3","batch1","","808.2999999998137","stim/yes_55_hor_w1_w.png","f","pattern_response","true","f","pattern_75","808.2999999998137","true","63","","","","","","","","","","","","","","","","","","",""
"","","","","","html-keyboard-response","164","672570","0.0-2.0-7.0-0.32","59107216127b0b00011fabea","A3","batch1","","null","<p class=block-text>Trial 72 out of 78</p>","null","pattern_show_trial_num","","","","","","","","","","","","","","","","","","","","","","","","",""
"","","","","","image-keyboard-response","165","674228","0.0-2.0-7.0-1.32","59107216127b0b00011fabea","A3","batch1","","1657.6000000000931","stim/yes_31_hor_b1.png","f","pattern_response","true","f","pattern_55","1657.6000000000931","true","64","","","","","","","","","","","","","","","","","","",""
"","","","","","html-keyboard-response","166","675546","0.0-2.0-7.0-0.33","59107216127b0b00011fabea","A3","batch1","","null","<p class=block-text>Trial 73 out of 78</p>","null","pattern_show_trial_num","","","","","","","","","","","","","","","","","","","","","","","","",""
"","","","","","image-keyboard-response","167","677018","0.0-2.0-7.0-1.33","59107216127b0b00011fabea","A3","batch1","","1471.5","stim/yes_67_hor_b1.png","j","pattern_response","false","f","pattern_79","1471.5","false","64","","","","","","","","","","","","","","","","","","",""
"","","","","","html-keyboard-response","168","678329","0.0-2.0-7.0-0.34","59107216127b0b00011fabea","A3","batch1","","null","<p class=block-text>Trial 74 out of 78</p>","null","pattern_show_trial_num","","","","","","","","","","","","","","","","","","","","","","","","",""
"","","","","","image-keyboard-response","169","680118","0.0-2.0-7.0-1.34","59107216127b0b00011fabea","A3","batch1","","1787.7999999998137","stim/no_50_1.png","j","pattern_response","true","j","pattern_30","1787.7999999998137","true","65","","","","","","","","","","","","","","","","","","",""
"","","","","","html-keyboard-response","170","681432","0.0-2.0-7.0-0.35","59107216127b0b00011fabea","A3","batch1","","null","<p class=block-text>Trial 75 out of 78</p>","null","pattern_show_trial_num","","","","","","","","","","","","","","","","","","","","","","","","",""
"","","","","","image-keyboard-response","171","682979","0.0-2.0-7.0-1.35","59107216127b0b00011fabea","A3","batch1","","1546","stim/no_34_1_b.png","j","pattern_response","true","j","pattern_16","1546","true","66","","","","","","","","","","","","","","","","","","",""
"","","","","","html-keyboard-response","172","684288","0.0-2.0-7.0-0.36","59107216127b0b00011fabea","A3","batch1","","null","<p class=block-text>Trial 76 out of 78</p>","null","pattern_show_trial_num","","","","","","","","","","","","","","","","","","","","","","","","",""
"","","","","","image-keyboard-response","173","684929","0.0-2.0-7.0-1.36","59107216127b0b00011fabea","A3","batch1","","640.1000000000931","stim/no_13_2_b.png","j","pattern_response","true","j","pattern_02","640.1000000000931","true","67","","","","","","","","","","","","","","","","","","",""
"","","","","","html-keyboard-response","174","686240","0.0-2.0-7.0-0.37","59107216127b0b00011fabea","A3","batch1","","null","<p class=block-text>Trial 77 out of 78</p>","null","pattern_show_trial_num","","","","","","","","","","","","","","","","","","","","","","","","",""
"","","","","","image-keyboard-response","175","687888","0.0-2.0-7.0-1.37","59107216127b0b00011fabea","A3","batch1","","1646.7999999998137","stim/no_46_1_b.png","j","pattern_response","true","j","pattern_26","1646.7999999998137","true","68","","","","","","","","","","","","","","","","","","",""
"","","","","","html-keyboard-response","176","689202","0.0-2.0-7.0-0.38","59107216127b0b00011fabea","A3","batch1","","null","<p class=block-text>Trial 78 out of 78</p>","null","pattern_show_trial_num","","","","","","","","","","","","","","","","","","","","","","","","",""
"","","","","","image-keyboard-response","177","690649","0.0-2.0-7.0-1.38","59107216127b0b00011fabea","A3","batch1","","1446","stim/yes_60_ver_b1_b.png","f","pattern_response","true","f","pattern_77","1446","true","69","","","","","","","","","","","","","","","","","","",""
"","","","","","html-button-response","178","699123","0.0-2.0-8.0","59107216127b0b00011fabea","A3","batch1","","7971.300000000279","<p class = block-text>This concludes the 4-in-a-row detection game.Thank you for your responses!<br>
            You responded correctly on 88% of the trials.<br>
            When you are ready, press ""Continue"" button to continue </p>","0","","","","","","","","","","","","","","","","","","","","","","","","","",""
"true","","","","","fullscreen","179","701264","0.0-3.0-0.0","59107216127b0b00011fabea","A3","batch1","","","","","spm_fullscreen","","","","","","","","","","","","","","","","","","","","","","","","",""
"","","","","","html-button-response","180","708386","0.0-3.0-1.0","59107216127b0b00011fabea","A3","batch1","","7121.700000000186","<p class = block-text><b>Instructions</b> <br>This is a widely used intelligence test in research. <br>In this test, a figure with a missing piece will be presented.<br>Below the figure are alternative pieces to complete the figure, only one of which is correct.<br> Different figures might involve different principles for obtaining the missing piece<br>Your job is to select the most logical piece to complete the figure.</p>","0","","","","","","","","","","","","","","","","","","","","","","","","","",""
"","","","","","html-keyboard-response","181","709194","0.0-3.0-2.0-0.0","59107216127b0b00011fabea","A3","batch1","","null","<p class=block-text>Trial 1 out of 60</p>","null","spm_show_trial_num","","","","","","","","","","","","","","","","","","","","","","","","",""
"","","","","","image-button-response","182","713500","0.0-3.0-2.0-1.0","59107216127b0b00011fabea","A3","batch1","","4304.700000000186","img/question_1_1.jpeg","3","spm_respsonse","1","4","mat_01","","","","","","1","4304.700000000186","","","","","","","","","","","","","","",""
"","","","","","html-keyboard-response","183","714570","0.0-3.0-2.0-0.1","59107216127b0b00011fabea","A3","batch1","","null","<p class=block-text>Trial 2 out of 60</p>","null","spm_show_trial_num","","","","","","","","","","","","","","","","","","","","","","","","",""
"","","","","","image-button-response","184","716884","0.0-3.0-2.0-1.1","59107216127b0b00011fabea","A3","batch1","","2312.4000000003725","img/question_1_2.jpeg","4","spm_respsonse","1","5","mat_02","","","","","","1","2312.4000000003725","","","","","","","","","","","","","","",""
"","","","","","html-keyboard-response","185","717947","0.0-3.0-2.0-0.2","59107216127b0b00011fabea","A3","batch1","","null","<p class=block-text>Trial 3 out of 60</p>","null","spm_show_trial_num","","","","","","","","","","","","","","","","","","","","","","","","",""
"","","","","","image-button-response","186","720829","0.0-3.0-2.0-1.2","59107216127b0b00011fabea","A3","batch1","","2881","img/question_1_3.jpeg","0","spm_respsonse","1","1","mat_03","","","","","","1","2881","","","","","","","","","","","","","","",""
"","","","","","html-keyboard-response","187","721893","0.0-3.0-2.0-0.3","59107216127b0b00011fabea","A3","batch1","","null","<p class=block-text>Trial 4 out of 60</p>","null","spm_show_trial_num","","","","","","","","","","","","","","","","","","","","","","","","",""
"","","","","","image-button-response","188","724345","0.0-3.0-2.0-1.3","59107216127b0b00011fabea","A3","batch1","","2450.8000000002794","img/question_1_4.jpeg","1","spm_respsonse","1","2","mat_04","","","","","","1","2450.8000000002794","","","","","","","","","","","","","","",""
"","","","","","html-keyboard-response","189","725406","0.0-3.0-2.0-0.4","59107216127b0b00011fabea","A3","batch1","","null","<p class=block-text>Trial 5 out of 60</p>","null","spm_show_trial_num","","","","","","","","","","","","","","","","","","","","","","","","",""
"","","","","","image-button-response","190","728871","0.0-3.0-2.0-1.4","59107216127b0b00011fabea","A3","batch1","","3464.2000000001863","img/question_1_5.jpeg","5","spm_respsonse","1","6","mat_05","","","","","","1","3464.2000000001863","","","","","","","","","","","","","","",""
"","","","","","html-keyboard-response","191","729929","0.0-3.0-2.0-0.5","59107216127b0b00011fabea","A3","batch1","","null","<p class=block-text>Trial 6 out of 60</p>","null","spm_show_trial_num","","","","","","","","","","","","","","","","","","","","","","","","",""
"","","","","","image-button-response","192","732593","0.0-3.0-2.0-1.5","59107216127b0b00011fabea","A3","batch1","","2662.2000000001863","img/question_1_6.jpeg","2","spm_respsonse","1","3","mat_06","","","","","","1","2662.2000000001863","","","","","","","","","","","","","","",""
"","","","","","html-keyboard-response","193","733653","0.0-3.0-2.0-0.6","59107216127b0b00011fabea","A3","batch1","","null","<p class=block-text>Trial 7 out of 60</p>","null","spm_show_trial_num","","","","","","","","","","","","","","","","","","","","","","","","",""
"","","","","","image-button-response","194","736934","0.0-3.0-2.0-1.6","59107216127b0b00011fabea","A3","batch1","","3279.600000000093","img/question_1_7.jpeg","5","spm_respsonse","1","6","mat_07","","","","","","1","3279.600000000093","","","","","","","","","","","","","","",""
"","","","","","html-keyboard-response","195","738001","0.0-3.0-2.0-0.7","59107216127b0b00011fabea","A3","batch1","","null","<p class=block-text>Trial 8 out of 60</p>","null","spm_show_trial_num","","","","","","","","","","","","","","","","","","","","","","","","",""
"","","","","","image-button-response","196","741962","0.0-3.0-2.0-1.7","59107216127b0b00011fabea","A3","batch1","","3959.7999999998137","img/question_1_8.jpeg","1","spm_respsonse","1","2","mat_08","","","","","","1","3959.7999999998137","","","","","","","","","","","","","","",""
"","","","","","html-keyboard-response","197","743030","0.0-3.0-2.0-0.8","59107216127b0b00011fabea","A3","batch1","","null","<p class=block-text>Trial 9 out of 60</p>","null","spm_show_trial_num","","","","","","","","","","","","","","","","","","","","","","","","",""
"","","","","","image-button-response","198","745284","0.0-3.0-2.0-1.8","59107216127b0b00011fabea","A3","batch1","","2252.600000000093","img/question_1_9.jpeg","0","spm_respsonse","1","1","mat_09","","","","","","1","2252.600000000093","","","","","","","","","","","","","","",""
"","","","","","html-keyboard-response","199","746349","0.0-3.0-2.0-0.9","59107216127b0b00011fabea","A3","batch1","","null","<p class=block-text>Trial 10 out of 60</p>","null","spm_show_trial_num","","","","","","","","","","","","","","","","","","","","","","","","",""
"","","","","","image-button-response","200","749170","0.0-3.0-2.0-1.9","59107216127b0b00011fabea","A3","batch1","","2819.600000000093","img/question_1_10.jpeg","2","spm_respsonse","1","3","mat_10","","","","","","1","2819.600000000093","","","","","","","","","","","","","","",""
"","","","","","html-keyboard-response","201","750235","0.0-3.0-2.0-0.10","59107216127b0b00011fabea","A3","batch1","","null","<p class=block-text>Trial 11 out of 60</p>","null","spm_show_trial_num","","","","","","","","","","","","","","","","","","","","","","","","",""
"","","","","","image-button-response","202","754801","0.0-3.0-2.0-1.10","59107216127b0b00011fabea","A3","batch1","","4565.100000000093","img/question_1_11.jpeg","3","spm_respsonse","1","4","mat_11","","","","","","1","4565.100000000093","","","","","","","","","","","","","","",""
"","","","","","html-keyboard-response","203","757125","0.0-3.0-2.0-0.11","59107216127b0b00011fabea","A3","batch1","","null","<p class=block-text>Trial 12 out of 60</p>","null","spm_show_trial_num","","","","","","","","","","","","","","","","","","","","","","","","",""
"","","","","","image-button-response","204","767369","0.0-3.0-2.0-1.11","59107216127b0b00011fabea","A3","batch1","","10243.399999999907","img/question_1_12.jpeg","4","spm_respsonse","1","5","mat_12","","","","","","1","10243.399999999907","","","","","","","","","","","","","","",""
"","","","","","html-keyboard-response","205","768437","0.0-3.0-2.0-0.12","59107216127b0b00011fabea","A3","batch1","","null","<p class=block-text>Trial 13 out of 60</p>","null","spm_show_trial_num","","","","","","","","","","","","","","","","","","","","","","","","",""
"","","","","","image-button-response","206","770598","0.0-3.0-2.0-1.12","59107216127b0b00011fabea","A3","batch1","","2160.2000000001863","img/question_2_1.jpeg","1","spm_respsonse","1","2","mat_13","","","","","","1","2160.2000000001863","","","","","","","","","","","","","","",""
"","","","","","html-keyboard-response","207","771660","0.0-3.0-2.0-0.13","59107216127b0b00011fabea","A3","batch1","","null","<p class=block-text>Trial 14 out of 60</p>","null","spm_show_trial_num","","","","","","","","","","","","","","","","","","","","","","","","",""
"","","","","","image-button-response","208","775048","0.0-3.0-2.0-1.13","59107216127b0b00011fabea","A3","batch1","","3387.5","img/question_2_2.jpeg","4","spm_respsonse","0","6","mat_14","","","","","","0","3387.5","","","","","","","","","","","","","","",""
"","","","","","html-keyboard-response","209","776113","0.0-3.0-2.0-0.14","59107216127b0b00011fabea","A3","batch1","","null","<p class=block-text>Trial 15 out of 60</p>","null","spm_show_trial_num","","","","","","","","","","","","","","","","","","","","","","","","",""
"","","","","","image-button-response","210","778769","0.0-3.0-2.0-1.14","59107216127b0b00011fabea","A3","batch1","","2655.600000000093","img/question_2_3.jpeg","0","spm_respsonse","1","1","mat_15","","","","","","1","2655.600000000093","","","","","","","","","","","","","","",""
"","","","","","html-keyboard-response","211","779836","0.0-3.0-2.0-0.15","59107216127b0b00011fabea","A3","batch1","","null","<p class=block-text>Trial 16 out of 60</p>","null","spm_show_trial_num","","","","","","","","","","","","","","","","","","","","","","","","",""
"","","","","","image-button-response","212","783274","0.0-3.0-2.0-1.15","59107216127b0b00011fabea","A3","batch1","","3437.100000000093","img/question_2_4.jpeg","1","spm_respsonse","1","2","mat_16","","","","","","1","3437.100000000093","","","","","","","","","","","","","","",""
"","","","","","html-keyboard-response","213","784339","0.0-3.0-2.0-0.16","59107216127b0b00011fabea","A3","batch1","","null","<p class=block-text>Trial 17 out of 60</p>","null","spm_show_trial_num","","","","","","","","","","","","","","","","","","","","","","","","",""
"","","","","","image-button-response","214","788295","0.0-3.0-2.0-1.16","59107216127b0b00011fabea","A3","batch1","","3954.600000000093","img/question_2_5.jpeg","0","spm_respsonse","1","1","mat_17","","","","","","1","3954.600000000093","","","","","","","","","","","","","","",""
"","","","","","html-keyboard-response","215","789356","0.0-3.0-2.0-0.17","59107216127b0b00011fabea","A3","batch1","","null","<p class=block-text>Trial 18 out of 60</p>","null","spm_show_trial_num","","","","","","","","","","","","","","","","","","","","","","","","",""
"","","","","","image-button-response","216","793207","0.0-3.0-2.0-1.17","59107216127b0b00011fabea","A3","batch1","","3850.399999999907","img/question_2_6.jpeg","2","spm_respsonse","1","3","mat_18","","","","","","1","3850.399999999907","","","","","","","","","","","","","","",""
"","","","","","html-keyboard-response","217","794275","0.0-3.0-2.0-0.18","59107216127b0b00011fabea","A3","batch1","","null","<p class=block-text>Trial 19 out of 60</p>","null","spm_show_trial_num","","","","","","","","","","","","","","","","","","","","","","","","",""
"","","","","","image-button-response","218","799558","0.0-3.0-2.0-1.18","59107216127b0b00011fabea","A3","batch1","","5281.700000000186","img/question_2_7.jpeg","4","spm_respsonse","1","5","mat_19","","","","","","1","5281.700000000186","","","","","","","","","","","","","","",""
"","","","","","html-keyboard-response","219","800619","0.0-3.0-2.0-0.19","59107216127b0b00011fabea","A3","batch1","","null","<p class=block-text>Trial 20 out of 60</p>","null","spm_show_trial_num","","","","","","","","","","","","","","","","","","","","","","","","",""
"","","","","","image-button-response","220","804971","0.0-3.0-2.0-1.19","59107216127b0b00011fabea","A3","batch1","","4350.399999999907","img/question_2_8.jpeg","5","spm_respsonse","1","6","mat_20","","","","","","1","4350.399999999907","","","","","","","","","","","","","","",""
"","","","","","html-keyboard-response","221","806033","0.0-3.0-2.0-0.20","59107216127b0b00011fabea","A3","batch1","","null","<p class=block-text>Trial 21 out of 60</p>","null","spm_show_trial_num","","","","","","","","","","","","","","","","","","","","","","","","",""
"","","","","","image-button-response","222","809088","0.0-3.0-2.0-1.20","59107216127b0b00011fabea","A3","batch1","","3053.899999999907","img/question_2_9.jpeg","3","spm_respsonse","1","4","mat_21","","","","","","1","3053.899999999907","","","","","","","","","","","","","","",""
"","","","","","html-keyboard-response","223","810147","0.0-3.0-2.0-0.21","59107216127b0b00011fabea","A3","batch1","","null","<p class=block-text>Trial 22 out of 60</p>","null","spm_show_trial_num","","","","","","","","","","","","","","","","","","","","","","","","",""
"","","","","","image-button-response","224","814580","0.0-3.0-2.0-1.21","59107216127b0b00011fabea","A3","batch1","","4432.100000000093","img/question_2_10.jpeg","2","spm_respsonse","1","3","mat_22","","","","","","1","4432.100000000093","","","","","","","","","","","","","","",""
"","","","","","html-keyboard-response","225","815642","0.0-3.0-2.0-0.22","59107216127b0b00011fabea","A3","batch1","","null","<p class=block-text>Trial 23 out of 60</p>","null","spm_show_trial_num","","","","","","","","","","","","","","","","","","","","","","","","",""
"","","","","","image-button-response","226","820420","0.0-3.0-2.0-1.22","59107216127b0b00011fabea","A3","batch1","","4776.600000000093","img/question_2_11.jpeg","3","spm_respsonse","1","4","mat_23","","","","","","1","4776.600000000093","","","","","","","","","","","","","","",""
"","","","","","html-keyboard-response","227","821481","0.0-3.0-2.0-0.23","59107216127b0b00011fabea","A3","batch1","","null","<p class=block-text>Trial 24 out of 60</p>","null","spm_show_trial_num","","","","","","","","","","","","","","","","","","","","","","","","",""
"","","","","","image-button-response","228","842256","0.0-3.0-2.0-1.23","59107216127b0b00011fabea","A3","batch1","","20774.5","img/question_2_12.jpeg","4","spm_respsonse","1","5","mat_24","","","","","","1","20774.5","","","","","","","","","","","","","","",""
"","","","","","html-button-response","229","844232","0.0-3.0-3.0","59107216127b0b00011fabea","A3","batch1","","1719","<p class = block-text>Attention check: Please choose 1<br></p>","0","attention_check","true","","","","","","","","","","","","","","","","","","","","","","","",""
"","","","","","html-keyboard-response","230","845040","0.0-3.0-4.0-0.0","59107216127b0b00011fabea","A3","batch1","","null","<p class=block-text>Trial 25 out of 60</p>","null","spm_show_trial_num","","","","","","","","","","","","","","","","","","","","","","","","",""
"","","","","","image-button-response","231","854868","0.0-3.0-4.0-1.0","59107216127b0b00011fabea","A3","batch1","","9826.700000000186","img/question_3_1.jpeg","7","spm_respsonse","1","8","mat_25","","","","","","1","9826.700000000186","","","","","","","","","","","","","","",""
"","","","","","html-keyboard-response","232","855925","0.0-3.0-4.0-0.1","59107216127b0b00011fabea","A3","batch1","","null","<p class=block-text>Trial 26 out of 60</p>","null","spm_show_trial_num","","","","","","","","","","","","","","","","","","","","","","","","",""
"","","","","","image-button-response","233","860945","0.0-3.0-4.0-1.1","59107216127b0b00011fabea","A3","batch1","","5018.899999999907","img/question_3_2.jpeg","2","spm_respsonse","0","2","mat_26","","","","","","0","5018.899999999907","","","","","","","","","","","","","","",""
"","","","","","html-keyboard-response","234","862007","0.0-3.0-4.0-0.2","59107216127b0b00011fabea","A3","batch1","","null","<p class=block-text>Trial 27 out of 60</p>","null","spm_show_trial_num","","","","","","","","","","","","","","","","","","","","","","","","",""
"","","","","","image-button-response","235","865401","0.0-3.0-4.0-1.2","59107216127b0b00011fabea","A3","batch1","","3393","img/question_3_3.jpeg","2","spm_respsonse","1","3","mat_27","","","","","","1","3393","","","","","","","","","","","","","","",""
"","","","","","html-keyboard-response","236","866463","0.0-3.0-4.0-0.3","59107216127b0b00011fabea","A3","batch1","","null","<p class=block-text>Trial 28 out of 60</p>","null","spm_show_trial_num","","","","","","","","","","","","","","","","","","","","","","","","",""
"","","","","","image-button-response","237","875716","0.0-3.0-4.0-1.3","59107216127b0b00011fabea","A3","batch1","","9252.600000000093","img/question_3_4.jpeg","7","spm_respsonse","1","8","mat_28","","","","","","1","9252.600000000093","","","","","","","","","","","","","","",""
"","","","","","html-keyboard-response","238","876784","0.0-3.0-4.0-0.4","59107216127b0b00011fabea","A3","batch1","","null","<p class=block-text>Trial 29 out of 60</p>","null","spm_show_trial_num","","","","","","","","","","","","","","","","","","","","","","","","",""
"","","","","","image-button-response","239","881632","0.0-3.0-4.0-1.4","59107216127b0b00011fabea","A3","batch1","","4846.5","img/question_3_5.jpeg","6","spm_respsonse","1","7","mat_29","","","","","","1","4846.5","","","","","","","","","","","","","","",""
"","","","","","html-keyboard-response","240","882693","0.0-3.0-4.0-0.5","59107216127b0b00011fabea","A3","batch1","","null","<p class=block-text>Trial 30 out of 60</p>","null","spm_show_trial_num","","","","","","","","","","","","","","","","","","","","","","","","",""
"","","","","","image-button-response","241","886730","0.0-3.0-4.0-1.5","59107216127b0b00011fabea","A3","batch1","","4035","img/question_3_6.jpeg","3","spm_respsonse","1","4","mat_30","","","","","","1","4035","","","","","","","","","","","","","","",""
"","","","","","html-keyboard-response","242","887798","0.0-3.0-4.0-0.6","59107216127b0b00011fabea","A3","batch1","","null","<p class=block-text>Trial 31 out of 60</p>","null","spm_show_trial_num","","","","","","","","","","","","","","","","","","","","","","","","",""
"","","","","","image-button-response","243","895687","0.0-3.0-4.0-1.6","59107216127b0b00011fabea","A3","batch1","","7888.5","img/question_3_7.jpeg","4","spm_respsonse","1","5","mat_31","","","","","","1","7888.5","","","","","","","","","","","","","","",""
"","","","","","html-keyboard-response","244","896749","0.0-3.0-4.0-0.7","59107216127b0b00011fabea","A3","batch1","","null","<p class=block-text>Trial 32 out of 60</p>","null","spm_show_trial_num","","","","","","","","","","","","","","","","","","","","","","","","",""
"","","","","","image-button-response","245","901818","0.0-3.0-4.0-1.7","59107216127b0b00011fabea","A3","batch1","","5067.399999999907","img/question_3_8.jpeg","0","spm_respsonse","1","1","mat_32","","","","","","1","5067.399999999907","","","","","","","","","","","","","","",""
"","","","","","html-keyboard-response","246","902885","0.0-3.0-4.0-0.8","59107216127b0b00011fabea","A3","batch1","","null","<p class=block-text>Trial 33 out of 60</p>","null","spm_show_trial_num","","","","","","","","","","","","","","","","","","","","","","","","",""
"","","","","","image-button-response","247","912754","0.0-3.0-4.0-1.8","59107216127b0b00011fabea","A3","batch1","","9867.69999999972","img/question_3_9.jpeg","6","spm_respsonse","1","7","mat_33","","","","","","1","9867.69999999972","","","","","","","","","","","","","","",""
"","","","","","html-keyboard-response","248","913821","0.0-3.0-4.0-0.9","59107216127b0b00011fabea","A3","batch1","","null","<p class=block-text>Trial 34 out of 60</p>","null","spm_show_trial_num","","","","","","","","","","","","","","","","","","","","","","","","",""
"","","","","","image-button-response","249","921851","0.0-3.0-4.0-1.9","59107216127b0b00011fabea","A3","batch1","","8029.200000000186","img/question_3_10.jpeg","3","spm_respsonse","0","6","mat_34","","","","","","0","8029.200000000186","","","","","","","","","","","","","","",""
"","","","","","html-keyboard-response","250","922915","0.0-3.0-4.0-0.10","59107216127b0b00011fabea","A3","batch1","","null","<p class=block-text>Trial 35 out of 60</p>","null","spm_show_trial_num","","","","","","","","","","","","","","","","","","","","","","","","",""
"","","","","","image-button-response","251","925187","0.0-3.0-4.0-1.10","59107216127b0b00011fabea","A3","batch1","","2270.100000000093","img/question_3_11.jpeg","3","spm_respsonse","0","1","mat_35","","","","","","0","2270.100000000093","","","","","","","","","","","","","","",""
"","","","","","html-keyboard-response","252","926243","0.0-3.0-4.0-0.11","59107216127b0b00011fabea","A3","batch1","","null","<p class=block-text>Trial 36 out of 60</p>","null","spm_show_trial_num","","","","","","","","","","","","","","","","","","","","","","","","",""
"","","","","","image-button-response","253","953244","0.0-3.0-4.0-1.11","59107216127b0b00011fabea","A3","batch1","","27001.100000000093","img/question_3_12.jpeg","1","spm_respsonse","1","2","mat_36","","","","","","1","27001.100000000093","","","","","","","","","","","","","","",""
"","","","","","html-keyboard-response","254","954299","0.0-3.0-4.0-0.12","59107216127b0b00011fabea","A3","batch1","","null","<p class=block-text>Trial 37 out of 60</p>","null","spm_show_trial_num","","","","","","","","","","","","","","","","","","","","","","","","",""
"","","","","","image-button-response","255","956287","0.0-3.0-4.0-1.12","59107216127b0b00011fabea","A3","batch1","","1986.3999999999069","img/question_4_1.jpeg","2","spm_respsonse","1","3","mat_37","","","","","","1","1986.3999999999069","","","","","","","","","","","","","","",""
"","","","","","html-keyboard-response","256","957346","0.0-3.0-4.0-0.13","59107216127b0b00011fabea","A3","batch1","","null","<p class=block-text>Trial 38 out of 60</p>","null","spm_show_trial_num","","","","","","","","","","","","","","","","","","","","","","","","",""
"","","","","","image-button-response","257","960618","0.0-3.0-4.0-1.13","59107216127b0b00011fabea","A3","batch1","","3272","img/question_4_2.jpeg","3","spm_respsonse","1","4","mat_38","","","","","","1","3272","","","","","","","","","","","","","","",""
"","","","","","html-keyboard-response","258","961682","0.0-3.0-4.0-0.14","59107216127b0b00011fabea","A3","batch1","","null","<p class=block-text>Trial 39 out of 60</p>","null","spm_show_trial_num","","","","","","","","","","","","","","","","","","","","","","","","",""
"","","","","","image-button-response","259","977316","0.0-3.0-4.0-1.14","59107216127b0b00011fabea","A3","batch1","","15633.299999999814","img/question_4_3.jpeg","2","spm_respsonse","1","3","mat_39","","","","","","1","15633.299999999814","","","","","","","","","","","","","","",""
"","","","","","html-keyboard-response","260","978378","0.0-3.0-4.0-0.15","59107216127b0b00011fabea","A3","batch1","","null","<p class=block-text>Trial 40 out of 60</p>","null","spm_show_trial_num","","","","","","","","","","","","","","","","","","","","","","","","",""
"","","","","","image-button-response","261","987532","0.0-3.0-4.0-1.15","59107216127b0b00011fabea","A3","batch1","","8970.899999999907","img/question_4_4.jpeg","6","spm_respsonse","1","7","mat_40","","","","","","1","8970.899999999907","","","","","","","","","","","","","","",""
"","","","","","html-keyboard-response","262","988589","0.0-3.0-4.0-0.16","59107216127b0b00011fabea","A3","batch1","","null","<p class=block-text>Trial 41 out of 60</p>","null","spm_show_trial_num","","","","","","","","","","","","","","","","","","","","","","","","",""
"","","","","","image-button-response","263","997047","0.0-3.0-4.0-1.16","59107216127b0b00011fabea","A3","batch1","","8456","img/question_4_5.jpeg","7","spm_respsonse","1","8","mat_41","","","","","","1","8456","","","","","","","","","","","","","","",""
"","","","","","html-keyboard-response","264","998109","0.0-3.0-4.0-0.17","59107216127b0b00011fabea","A3","batch1","","null","<p class=block-text>Trial 42 out of 60</p>","null","spm_show_trial_num","","","","","","","","","","","","","","","","","","","","","","","","",""
"","","","","","image-button-response","265","1007372","0.0-3.0-4.0-1.17","59107216127b0b00011fabea","A3","batch1","","9261.30000000028","img/question_4_6.jpeg","5","spm_respsonse","1","6","mat_42","","","","","","1","9261.30000000028","","","","","","","","","","","","","","",""
"","","","","","html-keyboard-response","266","1008437","0.0-3.0-4.0-0.18","59107216127b0b00011fabea","A3","batch1","","null","<p class=block-text>Trial 43 out of 60</p>","null","spm_show_trial_num","","","","","","","","","","","","","","","","","","","","","","","","",""
"","","","","","image-button-response","267","1021776","0.0-3.0-4.0-1.18","59107216127b0b00011fabea","A3","batch1","","13337.100000000093","img/question_4_7.jpeg","4","spm_respsonse","1","5","mat_43","","","","","","1","13337.100000000093","","","","","","","","","","","","","","",""
"","","","","","html-keyboard-response","268","1022838","0.0-3.0-4.0-0.19","59107216127b0b00011fabea","A3","batch1","","null","<p class=block-text>Trial 44 out of 60</p>","null","spm_show_trial_num","","","","","","","","","","","","","","","","","","","","","","","","",""
"","","","","","image-button-response","269","1030758","0.0-3.0-4.0-1.19","59107216127b0b00011fabea","A3","batch1","","7918.899999999907","img/question_4_8.jpeg","3","spm_respsonse","1","4","mat_44","","","","","","1","7918.899999999907","","","","","","","","","","","","","","",""
"","","","","","html-keyboard-response","270","1031823","0.0-3.0-4.0-0.20","59107216127b0b00011fabea","A3","batch1","","null","<p class=block-text>Trial 45 out of 60</p>","null","spm_show_trial_num","","","","","","","","","","","","","","","","","","","","","","","","",""
"","","","","","image-button-response","271","1050916","0.0-3.0-4.0-1.20","59107216127b0b00011fabea","A3","batch1","","19091.80000000028","img/question_4_9.jpeg","0","spm_respsonse","1","1","mat_45","","","","","","1","19091.80000000028","","","","","","","","","","","","","","",""
"","","","","","html-keyboard-response","272","1051983","0.0-3.0-4.0-0.21","59107216127b0b00011fabea","A3","batch1","","null","<p class=block-text>Trial 46 out of 60</p>","null","spm_show_trial_num","","","","","","","","","","","","","","","","","","","","","","","","",""
"","","","","","image-button-response","273","1067235","0.0-3.0-4.0-1.21","59107216127b0b00011fabea","A3","batch1","","15250.30000000028","img/question_4_10.jpeg","1","spm_respsonse","1","2","mat_46","","","","","","1","15250.30000000028","","","","","","","","","","","","","","",""
"","","","","","html-keyboard-response","274","1068303","0.0-3.0-4.0-0.22","59107216127b0b00011fabea","A3","batch1","","null","<p class=block-text>Trial 47 out of 60</p>","null","spm_show_trial_num","","","","","","","","","","","","","","","","","","","","","","","","",""
"","","","","","image-button-response","275","1149099","0.0-3.0-4.0-1.22","59107216127b0b00011fabea","A3","batch1","","80792.5","img/question_4_11.jpeg","4","spm_respsonse","1","5","mat_47","","","","","","1","80792.5","","","","","","","","","","","","","","",""
"","","","","","html-keyboard-response","276","1150164","0.0-3.0-4.0-0.23","59107216127b0b00011fabea","A3","batch1","","null","<p class=block-text>Trial 48 out of 60</p>","null","spm_show_trial_num","","","","","","","","","","","","","","","","","","","","","","","","",""
"","","","","","image-button-response","277","1194571","0.0-3.0-4.0-1.23","59107216127b0b00011fabea","A3","batch1","","44404.700000000186","img/question_4_12.jpeg","5","spm_respsonse","1","6","mat_48","","","","","","1","44404.700000000186","","","","","","","","","","","","","","",""
"","","","","","html-keyboard-response","278","1195635","0.0-3.0-4.0-0.24","59107216127b0b00011fabea","A3","batch1","","null","<p class=block-text>Trial 49 out of 60</p>","null","spm_show_trial_num","","","","","","","","","","","","","","","","","","","","","","","","",""
"","","","","","image-button-response","279","1200478","0.0-3.0-4.0-1.24","59107216127b0b00011fabea","A3","batch1","","4841.700000000186","img/question_5_1.jpeg","6","spm_respsonse","1","7","mat_49","","","","","","1","4841.700000000186","","","","","","","","","","","","","","",""
"","","","","","html-keyboard-response","280","1201540","0.0-3.0-4.0-0.25","59107216127b0b00011fabea","A3","batch1","","null","<p class=block-text>Trial 50 out of 60</p>","null","spm_show_trial_num","","","","","","","","","","","","","","","","","","","","","","","","",""
"","","","","","image-button-response","281","1219116","0.0-3.0-4.0-1.25","59107216127b0b00011fabea","A3","batch1","","17574.599999999627","img/question_5_2.jpeg","5","spm_respsonse","1","6","mat_50","","","","","","1","17574.599999999627","","","","","","","","","","","","","","",""
"","","","","","html-keyboard-response","282","1220182","0.0-3.0-4.0-0.26","59107216127b0b00011fabea","A3","batch1","","null","<p class=block-text>Trial 51 out of 60</p>","null","spm_show_trial_num","","","","","","","","","","","","","","","","","","","","","","","","",""
"","","","","","image-button-response","283","1231422","0.0-3.0-4.0-1.26","59107216127b0b00011fabea","A3","batch1","","11238.400000000373","img/question_5_3.jpeg","7","spm_respsonse","1","8","mat_51","","","","","","1","11238.400000000373","","","","","","","","","","","","","","",""
"","","","","","html-keyboard-response","284","1232485","0.0-3.0-4.0-0.27","59107216127b0b00011fabea","A3","batch1","","null","<p class=block-text>Trial 52 out of 60</p>","null","spm_show_trial_num","","","","","","","","","","","","","","","","","","","","","","","","",""
"","","","","","image-button-response","285","1241336","0.0-3.0-4.0-1.27","59107216127b0b00011fabea","A3","batch1","","8849.800000000745","img/question_5_4.jpeg","1","spm_respsonse","1","2","mat_52","","","","","","1","8849.800000000745","","","","","","","","","","","","","","",""
"","","","","","html-keyboard-response","286","1242398","0.0-3.0-4.0-0.28","59107216127b0b00011fabea","A3","batch1","","null","<p class=block-text>Trial 53 out of 60</p>","null","spm_show_trial_num","","","","","","","","","","","","","","","","","","","","","","","","",""
"","","","","","image-button-response","287","1248701","0.0-3.0-4.0-1.28","59107216127b0b00011fabea","A3","batch1","","6301.700000000186","img/question_5_5.jpeg","0","spm_respsonse","1","1","mat_53","","","","","","1","6301.700000000186","","","","","","","","","","","","","","",""
"","","","","","html-keyboard-response","288","1249756","0.0-3.0-4.0-0.29","59107216127b0b00011fabea","A3","batch1","","null","<p class=block-text>Trial 54 out of 60</p>","null","spm_show_trial_num","","","","","","","","","","","","","","","","","","","","","","","","",""
"","","","","","image-button-response","289","1258165","0.0-3.0-4.0-1.29","59107216127b0b00011fabea","A3","batch1","","8407.700000000186","img/question_5_6.jpeg","4","spm_respsonse","1","5","mat_54","","","","","","1","8407.700000000186","","","","","","","","","","","","","","",""
"","","","","","html-keyboard-response","290","1259229","0.0-3.0-4.0-0.30","59107216127b0b00011fabea","A3","batch1","","null","<p class=block-text>Trial 55 out of 60</p>","null","spm_show_trial_num","","","","","","","","","","","","","","","","","","","","","","","","",""
"","","","","","image-button-response","291","1334768","0.0-3.0-4.0-1.30","59107216127b0b00011fabea","A3","batch1","","75534.40000000037","img/question_5_7.jpeg","5","spm_respsonse","0","1","mat_55","","","","","","0","75534.40000000037","","","","","","","","","","","","","","",""
"","","","","","html-keyboard-response","292","1335832","0.0-3.0-4.0-0.31","59107216127b0b00011fabea","A3","batch1","","null","<p class=block-text>Trial 56 out of 60</p>","null","spm_show_trial_num","","","","","","","","","","","","","","","","","","","","","","","","",""
"","","","","","image-button-response","293","1348099","0.0-3.0-4.0-1.31","59107216127b0b00011fabea","A3","batch1","","12265.700000000186","img/question_5_8.jpeg","5","spm_respsonse","1","6","mat_56","","","","","","1","12265.700000000186","","","","","","","","","","","","","","",""
"","","","","","html-keyboard-response","294","1349164","0.0-3.0-4.0-0.32","59107216127b0b00011fabea","A3","batch1","","null","<p class=block-text>Trial 57 out of 60</p>","null","spm_show_trial_num","","","","","","","","","","","","","","","","","","","","","","","","",""
"","","","","","image-button-response","295","1363983","0.0-3.0-4.0-1.32","59107216127b0b00011fabea","A3","batch1","","14817","img/question_5_9.jpeg","2","spm_respsonse","1","3","mat_57","","","","","","1","14817","","","","","","","","","","","","","","",""
"","","","","","html-keyboard-response","296","1365049","0.0-3.0-4.0-0.33","59107216127b0b00011fabea","A3","batch1","","null","<p class=block-text>Trial 58 out of 60</p>","null","spm_show_trial_num","","","","","","","","","","","","","","","","","","","","","","","","",""
"","","","","","image-button-response","297","1399741","0.0-3.0-4.0-1.33","59107216127b0b00011fabea","A3","batch1","","34690.10000000056","img/question_5_10.jpeg","1","spm_respsonse","1","2","mat_58","","","","","","1","34690.10000000056","","","","","","","","","","","","","","",""
"","","","","","html-keyboard-response","298","1400802","0.0-3.0-4.0-0.34","59107216127b0b00011fabea","A3","batch1","","null","<p class=block-text>Trial 59 out of 60</p>","null","spm_show_trial_num","","","","","","","","","","","","","","","","","","","","","","","","",""
"","","","","","image-button-response","299","1439298","0.0-3.0-4.0-1.34","59107216127b0b00011fabea","A3","batch1","","38493.90000000037","img/question_5_11.jpeg","3","spm_respsonse","1","4","mat_59","","","","","","1","38493.90000000037","","","","","","","","","","","","","","",""
"","","","","","html-keyboard-response","300","1440362","0.0-3.0-4.0-0.35","59107216127b0b00011fabea","A3","batch1","","null","<p class=block-text>Trial 60 out of 60</p>","null","spm_show_trial_num","","","","","","","","","","","","","","","","","","","","","","","","",""
"","","","","","image-button-response","301","1506044","0.0-3.0-4.0-1.35","59107216127b0b00011fabea","A3","batch1","","65678.5","img/question_5_12.jpeg","4","spm_respsonse","1","5","mat_60","","","","","","1","65678.5","","","","","","","","","","","","","","",""
"","","","","","html-button-response","302","1508735","0.0-3.0-5.0","59107216127b0b00011fabea","A3","batch1","","2439.7000000001863","<p class= block-text>This concludes the Standard Progressive Matrix game. Thank you for your responses!<br> When you are ready, click the button continue</p>","0","spm_goodbye","","","","","","","","","","","","","","","","","","","","","","","","",""
"true","","","","","fullscreen","303","1546359","0.0-4.0-0.0","59107216127b0b00011fabea","A3","batch1","","","","","","","","","","","","","","","","","","","","","","","","","","","","","",""
"","","","","","instructions","304","1598516","0.0-4.0-1.0-0.0-0.0","59107216127b0b00011fabea","A3","batch1","[{""page_index"":0,""viewing_time"":12244.299999999814},{""page_index"":1,""viewing_time"":7109.799999999814},{""page_index"":2,""viewing_time"":4098.600000000559},{""page_index"":3,""viewing_time"":8651.399999999441},{""page_index"":4,""viewing_time"":14624.100000000559},{""page_index"":5,""viewing_time"":3773.699999999255},{""page_index"":6,""viewing_time"":1652.300000000745}]","52154.200000000186","","","tol-instructions","","","","","","","","","","","","","","","","","","","","","","","","",""
"","","","","","html-button-response","305","1599365","0.0-4.0-1.0-1.0-0.0","59107216127b0b00011fabea","A3","batch1","","849","<p class=block-text> Let's answer a few questions <br>","0","tol_enter_quiz","","","","","","","","","","","","","","","","","","","","","","","","",""
"","","","","","html-button-response","306","1602999","0.0-4.0-1.0-1.0-1.0","59107216127b0b00011fabea","A3","batch1","","3633.100000000559","<p class = block-text>True or False: You can only move the ball on top of a peg. <br></p>","0","tol_quiz","true","","","","","","","","","","","","","","","","","","","","","","","",""
"","","","","","html-button-response","307","1603648","0.0-4.0-1.0-1.0-2.0","59107216127b0b00011fabea","A3","batch1","","647.5999999996275","<p class = block-text>Correct! You can only move the ball on top of a peg.</p>","0","tol_quiz_feedback","","","","","","","","","","","","","","","","","","","","","","","","",""
"","","","","","html-button-response","308","1606828","0.0-4.0-1.0-1.0-3.0","59107216127b0b00011fabea","A3","batch1","","3179.7999999998137","<p class = block-text>True or False: You should try to match your board with the target board with fewest moves possible. <br></p>","0","tol_quiz","true","","","","","","","","","","","","","","","","","","","","","","","",""
"","","","","","html-button-response","309","1607330","0.0-4.0-1.0-1.0-4.0","59107216127b0b00011fabea","A3","batch1","","501.09999999962747","<p class = block-text>Correct! </p>","0","tol_quiz_feedback","","","","","","","","","","","","","","","","","","","","","","","","",""
"","","","","","html-button-response","310","1608533","0.0-4.0-2.0","59107216127b0b00011fabea","A3","batch1","","1202.2000000001863","<p class=block-text> Now that you've understood the game, let's practice a few easier examples before we start!<br> <br>","0","","","","","","","","","","","","","","","","","","","","","","","","","",""
"","","","","","single-stim-button","311","1610263","0.0-4.0-3.0-0.0","59107216127b0b00011fabea","A3","batch1","","1728","","","tol_practice","","","","","","","","","","","tol_peg_2","1728","1728","0","[[1,2,0],[0,0],[0]]","1","[[1,2,0],[0,0],[3]]","practice","1728","","","","","",""
"","","","","","single-stim-button","312","1611798","0.0-4.0-3.0-1.0","59107216127b0b00011fabea","A3","batch1","","1533","","","tol_practice","","","","","","","","","","","tol_peg_3","1533","1533","0","[[1,2,0],[0,0],[3]]","1","[[1,2,0],[0,0],[3]]","practice","1533","","","","","",""
"","","","","","poldrack-single-stim","313","1612802","0.0-4.0-4.0","59107216127b0b00011fabea","A3","batch1","","-1","","","tol_feedback","true","","","","","","","","","","","1000","1000","500","","","","","","-1","none","true","","0",""
"","","","","","single-stim-button","314","1615828","0.0-4.0-5.0-0.0","59107216127b0b00011fabea","A3","batch1","","3026","","","tol_practice","","","","","","","","","","","tol_peg_1","3026","3026","0","[[1,0,0],[3,0],[0]]","2","[[0,0,0],[3,1],[2]]","practice","3026","","","","","",""
"","","","","","single-stim-button","315","1616552","0.0-4.0-5.0-1.0","59107216127b0b00011fabea","A3","batch1","","724","","","tol_practice","","","","","","","","","","","tol_peg_3","724","724","0","[[1,0,0],[3,0],[2]]","2","[[0,0,0],[3,1],[2]]","practice","724","","","","","",""
"","","","","","single-stim-button","316","1617170","0.0-4.0-5.1-0.1","59107216127b0b00011fabea","A3","batch1","","618","","","tol_practice","","","","","","","","","","","tol_peg_1","618","618","0","[[0,0,0],[3,0],[2]]","3","[[0,0,0],[3,1],[2]]","practice","618","","","","","",""
"","","","","","single-stim-button","317","1617712","0.0-4.0-5.1-1.1","59107216127b0b00011fabea","A3","batch1","","542","","","tol_practice","","","","","","","","","","","tol_peg_2","542","542","0","[[0,0,0],[3,1],[2]]","3","[[0,0,0],[3,1],[2]]","practice","542","","","","","",""
"","","","","","poldrack-single-stim","318","1618719","0.0-4.0-6.0","59107216127b0b00011fabea","A3","batch1","","-1","","","tol_feedback","true","","","","","","","","","","","1000","1000","500","","","","","","-1","none","true","","0",""
"","","","","","single-stim-button","319","1620366","0.0-4.0-7.0-0.0","59107216127b0b00011fabea","A3","batch1","","1647","","","tol_practice","","","","","","","","","","","tol_peg_2","1647","1647","0","[[1,2,0],[0,0],[0]]","4","[[1,0,0],[2,0],[3]]","practice","1647","","","","","",""
"","","","","","single-stim-button","320","1621069","0.0-4.0-7.0-1.0","59107216127b0b00011fabea","A3","batch1","","701","","","tol_practice","","","","","","","","","","","tol_peg_3","701","701","0","[[1,2,0],[0,0],[3]]","4","[[1,0,0],[2,0],[3]]","practice","701","","","","","",""
"","","","","","single-stim-button","321","1621925","0.0-4.0-7.1-0.1","59107216127b0b00011fabea","A3","batch1","","855","","","tol_practice","","","","","","","","","","","tol_peg_1","855","855","0","[[1,0,0],[0,0],[3]]","5","[[1,0,0],[2,0],[3]]","practice","855","","","","","",""
"","","","","","single-stim-button","322","1622426","0.0-4.0-7.1-1.1","59107216127b0b00011fabea","A3","batch1","","501","","","tol_practice","","","","","","","","","","","tol_peg_2","501","501","0","[[1,0,0],[2,0],[3]]","5","[[1,0,0],[2,0],[3]]","practice","501","","","","","",""
"","","","","","poldrack-single-stim","323","1623427","0.0-4.0-8.0","59107216127b0b00011fabea","A3","batch1","","-1","","","tol_feedback","true","","","","","","","","","","","1000","1000","500","","","","","","-1","none","true","","0",""
"","","","","","html-button-response","324","1624241","0.0-4.0-9.0","59107216127b0b00011fabea","A3","batch1","","813.2000000001863","<div class = centerbox><p class = center-block-text>Great job! You are done with practice trials<br>You are about to start official trials.<br> <br> Problem <strong>1</strong> out of 25 problems</p></div>","0","tol_instruction","","","","","","","","","","","","","","","","","","","","","","","","",""
"","","","","","single-stim-button","325","1629273","0.0-4.0-10.0-0.0","59107216127b0b00011fabea","A3","batch1","","4025","","","tol_tohand","","","","","","","","","","","tol_peg_1","4025","4025","0","[[1,0,0],[3,0],[0]]","1","[[1,3,0],[2,0],[0]]","0","0","","","","","","3"
"","","","","","single-stim-button","326","1630885","0.0-4.0-10.0-1.0","59107216127b0b00011fabea","A3","batch1","","1612","","","tol_toboard","","","","","","","","","","","tol_peg_2","1612","1612","0","[[1,0,0],[3,2],[0]]","1","[[1,3,0],[2,0],[0]]","0","0","","","","","","3"
"","","","","","single-stim-button","327","1634542","0.0-4.0-10.1-0.1","59107216127b0b00011fabea","A3","batch1","","3657","","","tol_tohand","","","","","","","","","","","tol_peg_2","3657","3657","0","[[1,0,0],[3,0],[0]]","2","[[1,3,0],[2,0],[0]]","0","0","","","","","","3"
"","","","","","single-stim-button","328","1635531","0.0-4.0-10.1-1.1","59107216127b0b00011fabea","A3","batch1","","988","","","tol_toboard","","","","","","","","","","","tol_peg_3","988","988","0","[[1,0,0],[3,0],[2]]","2","[[1,3,0],[2,0],[0]]","0","0","","","","","","3"
"","","","","","single-stim-button","329","1635995","0.0-4.0-10.2-0.2","59107216127b0b00011fabea","A3","batch1","","464","","","tol_tohand","","","","","","","","","","","tol_peg_2","464","464","0","[[1,0,0],[0,0],[2]]","3","[[1,3,0],[2,0],[0]]","0","0","","","","","","3"
"","","","","","single-stim-button","330","1636929","0.0-4.0-10.2-1.2","59107216127b0b00011fabea","A3","batch1","","934","","","tol_toboard","","","","","","","","","","","tol_peg_1","934","934","0","[[1,3,0],[0,0],[2]]","3","[[1,3,0],[2,0],[0]]","0","0","","","","","","3"
"","","","","","single-stim-button","331","1637801","0.0-4.0-10.3-0.3","59107216127b0b00011fabea","A3","batch1","","872","","","tol_tohand","","","","","","","","","","","tol_peg_3","872","872","0","[[1,3,0],[0,0],[0]]","4","[[1,3,0],[2,0],[0]]","0","0","","","","","","3"
"","","","","","single-stim-button","332","1638165","0.0-4.0-10.3-1.3","59107216127b0b00011fabea","A3","batch1","","364","","","tol_toboard","","","","","","","","","","","tol_peg_2","364","364","0","[[1,3,0],[2,0],[0]]","4","[[1,3,0],[2,0],[0]]","0","0","","","","","","3"
"","","","","","poldrack-single-stim","333","1639166","0.0-4.0-11.0","59107216127b0b00011fabea","A3","batch1","","-1","","","tol_feedback","true","","","","","","","","","","","1000","1000","500","","","","","","-1","none","true","4025","9018",""
"","","","","","html-button-response","334","1640816","0.0-4.0-12.0","59107216127b0b00011fabea","A3","batch1","","1649.9000000003725","<div class = centerbox><p class = center-block-text>problem <strong>2</strong> out of 25 problems</p></div>","0","tol_trial_num","","","","","","","","","","","","","","","","","","","","","","","","",""
"","","","","","single-stim-button","335","1653105","0.0-4.0-13.0-0.0","59107216127b0b00011fabea","A3","batch1","","12288","","","tol_tohand","","","","","","","","","","","tol_peg_1","12288","12288","0","[[1,0,0],[3,0],[0]]","1","[[2,1,3],[0,0],[0]]","1","0","","","","","","5"
"","","","","","single-stim-button","336","1654301","0.0-4.0-13.0-1.0","59107216127b0b00011fabea","A3","batch1","","1195","","","tol_toboard","","","","","","","","","","","tol_peg_3","1195","1195","0","[[1,0,0],[3,0],[2]]","1","[[2,1,3],[0,0],[0]]","1","0","","","","","","5"
"","","","","","single-stim-button","337","1654787","0.0-4.0-13.1-0.1","59107216127b0b00011fabea","A3","batch1","","486","","","tol_tohand","","","","","","","","","","","tol_peg_1","486","486","0","[[0,0,0],[3,0],[2]]","2","[[2,1,3],[0,0],[0]]","1","0","","","","","","5"
"","","","","","single-stim-button","338","1655415","0.0-4.0-13.1-1.1","59107216127b0b00011fabea","A3","batch1","","627","","","tol_toboard","","","","","","","","","","","tol_peg_2","627","627","0","[[0,0,0],[3,1],[2]]","2","[[2,1,3],[0,0],[0]]","1","0","","","","","","5"
"","","","","","single-stim-button","339","1655937","0.0-4.0-13.2-0.2","59107216127b0b00011fabea","A3","batch1","","522","","","tol_tohand","","","","","","","","","","","tol_peg_3","522","522","0","[[0,0,0],[3,1],[0]]","3","[[2,1,3],[0,0],[0]]","1","0","","","","","","5"
"","","","","","single-stim-button","340","1657017","0.0-4.0-13.2-1.2","59107216127b0b00011fabea","A3","batch1","","1080","","","tol_toboard","","","","","","","","","","","tol_peg_1","1080","1080","0","[[2,0,0],[3,1],[0]]","3","[[2,1,3],[0,0],[0]]","1","0","","","","","","5"
"","","","","","single-stim-button","341","1657552","0.0-4.0-13.3-0.3","59107216127b0b00011fabea","A3","batch1","","534","","","tol_tohand","","","","","","","","","","","tol_peg_2","534","534","0","[[2,0,0],[3,0],[0]]","4","[[2,1,3],[0,0],[0]]","1","0","","","","","","5"
"","","","","","single-stim-button","342","1657968","0.0-4.0-13.3-1.3","59107216127b0b00011fabea","A3","batch1","","415","","","tol_toboard","","","","","","","","","","","tol_peg_1","415","415","0","[[2,1,0],[3,0],[0]]","4","[[2,1,3],[0,0],[0]]","1","0","","","","","","5"
"","","","","","single-stim-button","343","1658537","0.0-4.0-13.4-0.4","59107216127b0b00011fabea","A3","batch1","","569","","","tol_tohand","","","","","","","","","","","tol_peg_2","569","569","0","[[2,1,0],[0,0],[0]]","5","[[2,1,3],[0,0],[0]]","1","0","","","","","","5"
"","","","","","single-stim-button","344","1658886","0.0-4.0-13.4-1.4","59107216127b0b00011fabea","A3","batch1","","347","","","tol_toboard","","","","","","","","","","","tol_peg_1","347","347","0","[[2,1,3],[0,0],[0]]","5","[[2,1,3],[0,0],[0]]","1","0","","","","","","5"
"","","","","","poldrack-single-stim","345","1659890","0.0-4.0-14.0","59107216127b0b00011fabea","A3","batch1","","-1","","","tol_feedback","true","","","","","","","","","","","1000","1000","500","","","","","","-1","none","true","12288","14399",""
"","","","","","html-button-response","346","1660708","0.0-4.0-15.0","59107216127b0b00011fabea","A3","batch1","","816.5999999996275","<div class = centerbox><p class = center-block-text>problem <strong>3</strong> out of 25 problems</p></div>","0","tol_trial_num","","","","","","","","","","","","","","","","","","","","","","","","",""
"","","","","","single-stim-button","347","1662622","0.0-4.0-16.0-0.0","59107216127b0b00011fabea","A3","batch1","","1914","","","tol_tohand","","","","","","","","","","","tol_peg_1","1914","1914","0","[[2,0,0],[0,0],[1]]","1","[[1,2,0],[3,0],[0]]","2","0","","","","","","4"
