"success","timeout","failed_images","failed_audio","failed_video","trial_type","trial_index","time_elapsed","internal_node_id","subject_id","study_id","session_id","view_history","rt","stimulus","response","task","correct","answer","item","fiar_detect_rt","fiar_detect_correct","total_correct_fiar_detect","post_trial_gap","choices","mouse_click","stim_duration","block_duration","timing_post_trial","current_position","tol_num_moves_made","tol_target","tol_problem_id","tol_rt","key_press","possible_responses","tol_correct","preplanning","tol_rt_per_trial","tol_min_moves","spm_correct","spm_rt"
"true","false","[]","[]","[]","preload","0","1506","0.0-0.0","59298c0b0b19ce0001202f22","B2","batch2","","","","","","","","","","","","","","","","","","","","","","","","","","","","","",""
"true","","","","","fullscreen","1","16146","0.0-1.0-0.0","59298c0b0b19ce0001202f22","B2","batch2","","","","","","","","","","","","","","","","","","","","","","","","","","","","","",""
"true","","","","","fullscreen","2","19275","0.0-2.0-0.0","59298c0b0b19ce0001202f22","B2","batch2","","","","","","","","","","","","","","","","","","","","","","","","","","","","","",""
"","","","","","instructions","3","53730","0.0-2.0-1.0-0.0","59298c0b0b19ce0001202f22","B2","batch2","[{""page_index"":0,""viewing_time"":2125.5999999940395},{""page_index"":1,""viewing_time"":4401.9000000059605},{""page_index"":0,""viewing_time"":15766.09999999404},{""page_index"":1,""viewing_time"":8064.70000000298},{""page_index"":0,""viewing_time"":2678.2999999970198},{""page_index"":1,""viewing_time"":1416.7999999970198}]","34453.69999998808","","","","","","","","","","","","","","","","","","","","","","","","","","","",""
"","","","","","html-button-response","4","55257","0.0-2.0-1.0-1.0-0.0","59298c0b0b19ce0001202f22","B2","batch2","","1525.9000000059605","<p class=block-text> Let's answer a few questions <br>","0","pattern_enter_quiz","","","","","","","","","","","","","","","","","","","","","","","","",""
"","","","","","html-button-response","5","59407","0.0-2.0-1.0-1.0-1.0","59298c0b0b19ce0001202f22","B2","batch2","","4148","<p class = block-text>True or False: You will have as much time as you want to make each choice. <br></p>","1","pattern_quiz","true","","","","","","","","","","","","","","","","","","","","","","","",""
"","","","","","html-button-response","6","61020","0.0-2.0-1.0-1.0-2.0","59298c0b0b19ce0001202f22","B2","batch2","","1611.7999999970198","<p class = block-text>Correct! You should make your choice <strong> as fast as you can</strong>.</p>","0","pattern_quiz_feedback","","","","","","","","","","","","","","","","","","","","","","","","",""
"","","","","","html-button-response","7","65921","0.0-2.0-1.0-1.0-3.0","59298c0b0b19ce0001202f22","B2","batch2","","4899.9000000059605","<p class = block-text>True or False: You will look for 4 pieces in black or white color connected in a row either horizontally, vertically or diagonally. <br></p>","0","pattern_quiz","true","","","","","","","","","","","","","","","","","","","","","","","",""
"","","","","","html-button-response","8","67442","0.0-2.0-1.0-1.0-4.0","59298c0b0b19ce0001202f22","B2","batch2","","1520.7000000029802","<p class = block-text>Correct! </p>","0","pattern_quiz_feedback","","","","","","","","","","","","","","","","","","","","","","","","",""
"","","","","","html-button-response","9","70053","0.0-2.0-2.0","59298c0b0b19ce0001202f22","B2","batch2","","2608.7999999970198","<p class=block-text> Now that you've understood the game, let's do a few practice trials before we start!<br> <br>","0","pattern_enter_practice","","","","","","","","","","","","","","","","","","","","","","","","",""
"","","","","","image-keyboard-response","10","72860","0.0-2.0-3.0-0.0","59298c0b0b19ce0001202f22","B2","batch2","","2802","stim/prac_yes_20_dia_b1.png","j","pattern_practice","false","f","","","","","","","","","","","","","","","","","","","","","","",""
"","","","","","html-keyboard-response","11","73874","0.0-2.0-3.0-1.0","59298c0b0b19ce0001202f22","B2","batch2","","null","<p style=""font-size:30px;color:red;"">Wrong.</p>","null","pattern_feedback","","","","","","","","","","","","","","","","","","","","","","","","",""
"","","","","","image-keyboard-response","12","75021","0.0-2.0-3.0-0.1","59298c0b0b19ce0001202f22","B2","batch2","","1143.5","stim/prac_yes_16_ver_w1.png","j","pattern_practice","false","f","","","","","","","","","","","","","","","","","","","","","","",""
"","","","","","html-keyboard-response","13","76053","0.0-2.0-3.0-1.1","59298c0b0b19ce0001202f22","B2","batch2","","null","<p style=""font-size:30px;color:red;"">Wrong.</p>","null","pattern_feedback","","","","","","","","","","","","","","","","","","","","","","","","",""
"","","","","","image-keyboard-response","14","80009","0.0-2.0-3.0-0.2","59298c0b0b19ce0001202f22","B2","batch2","","3953.300000011921","stim/prac_no_18_1.png","j","pattern_practice","true","j","","","","","","","","","","","","","","","","","","","","","","",""
"","","","","","html-keyboard-response","15","81026","0.0-2.0-3.0-1.2","59298c0b0b19ce0001202f22","B2","batch2","","null","<p style=""font-size:30px;color:green;"">Correct!</p>","null","pattern_feedback","","","","","","","","","","","","","","","","","","","","","","","","",""
"","","","","","image-keyboard-response","16","82116","0.0-2.0-3.0-0.3","59298c0b0b19ce0001202f22","B2","batch2","","1085.7999999970198","stim/prac_yes_18_hor_w1.png","f","pattern_practice","true","f","","","","","","","","","","","","","","","","","","","","","","",""
"","","","","","html-keyboard-response","17","83138","0.0-2.0-3.0-1.3","59298c0b0b19ce0001202f22","B2","batch2","","null","<p style=""font-size:30px;color:green;"">Correct!</p>","null","pattern_feedback","","","","","","","","","","","","","","","","","","","","","","","","",""
"","","","","","image-keyboard-response","18","85816","0.0-2.0-3.0-0.4","59298c0b0b19ce0001202f22","B2","batch2","","2674.2000000029802","stim/prac_no_16_1.png","j","pattern_practice","true","j","","","","","","","","","","","","","","","","","","","","","","",""
"","","","","","html-keyboard-response","19","86823","0.0-2.0-3.0-1.4","59298c0b0b19ce0001202f22","B2","batch2","","null","<p style=""font-size:30px;color:green;"">Correct!</p>","null","pattern_feedback","","","","","","","","","","","","","","","","","","","","","","","","",""
"","","","","","html-button-response","20","92154","0.0-2.0-4.0","59298c0b0b19ce0001202f22","B2","batch2","","5329","<p class=block-text> Good job! You are done with practice trials!<br>
        You responded correctly on 60% of the trials.<br>
        Press the button below to start official trials. Now you won't see any feedback about your response</p>","0","pattern_enter_official_trials","","","","","","","","","","","","","","","","","","","","","","","","",""
"","","","","","html-keyboard-response","21","92967","0.0-2.0-5.0-0.0","59298c0b0b19ce0001202f22","B2","batch2","","null","<p class=block-text>Trial 1 out of 78</p>","null","pattern_show_trial_num","","","","","","","","","","","","","","","","","","","","","","","","",""
"","","","","","image-keyboard-response","22","104401","0.0-2.0-5.0-1.0","59298c0b0b19ce0001202f22","B2","batch2","","11430.79999999702","stim/no_58_1_w.png","j","pattern_response","true","j","pattern_35","11430.79999999702","true","1","","","","","","","","","","","","","","","","","","",""
"","","","","","html-keyboard-response","23","105705","0.0-2.0-5.0-0.1","59298c0b0b19ce0001202f22","B2","batch2","","null","<p class=block-text>Trial 2 out of 78</p>","null","pattern_show_trial_num","","","","","","","","","","","","","","","","","","","","","","","","",""
"","","","","","image-keyboard-response","24","110933","0.0-2.0-5.0-1.1","59298c0b0b19ce0001202f22","B2","batch2","","5224.9000000059605","stim/yes_33_dia_w1_w.png","f","pattern_response","true","f","pattern_56","5224.9000000059605","true","2","","","","","","","","","","","","","","","","","","",""
"","","","","","html-keyboard-response","25","112253","0.0-2.0-5.0-0.2","59298c0b0b19ce0001202f22","B2","batch2","","null","<p class=block-text>Trial 3 out of 78</p>","null","pattern_show_trial_num","","","","","","","","","","","","","","","","","","","","","","","","",""
"","","","","","image-keyboard-response","26","113411","0.0-2.0-5.0-1.2","59298c0b0b19ce0001202f22","B2","batch2","","1153.2999999970198","stim/yes_15_dia_b1u_b.png","f","pattern_response","true","f","pattern_44","1153.2999999970198","true","3","","","","","","","","","","","","","","","","","","",""
"","","","","","html-keyboard-response","27","114734","0.0-2.0-5.0-0.3","59298c0b0b19ce0001202f22","B2","batch2","","null","<p class=block-text>Trial 4 out of 78</p>","null","pattern_show_trial_num","","","","","","","","","","","","","","","","","","","","","","","","",""
"","","","","","image-keyboard-response","28","120625","0.0-2.0-5.0-1.3","59298c0b0b19ce0001202f22","B2","batch2","","5886.4000000059605","stim/no_33_1_b.png","j","pattern_response","true","j","pattern_15","5886.4000000059605","true","4","","","","","","","","","","","","","","","","","","",""
"","","","","","html-keyboard-response","29","121942","0.0-2.0-5.0-0.4","59298c0b0b19ce0001202f22","B2","batch2","","null","<p class=block-text>Trial 5 out of 78</p>","null","pattern_show_trial_num","","","","","","","","","","","","","","","","","","","","","","","","",""
"","","","","","image-keyboard-response","30","133596","0.0-2.0-5.0-1.4","59298c0b0b19ce0001202f22","B2","batch2","","11649","stim/no_51_1.png","j","pattern_response","true","j","pattern_31","11649","true","5","","","","","","","","","","","","","","","","","","",""
"","","","","","html-keyboard-response","31","134922","0.0-2.0-5.0-0.5","59298c0b0b19ce0001202f22","B2","batch2","","null","<p class=block-text>Trial 6 out of 78</p>","null","pattern_show_trial_num","","","","","","","","","","","","","","","","","","","","","","","","",""
"","","","","","image-keyboard-response","32","136492","0.0-2.0-5.0-1.5","59298c0b0b19ce0001202f22","B2","batch2","","1567","stim/yes_23_ver_b1.png","f","pattern_response","true","f","pattern_48","1567","true","6","","","","","","","","","","","","","","","","","","",""
"","","","","","html-keyboard-response","33","137812","0.0-2.0-5.0-0.6","59298c0b0b19ce0001202f22","B2","batch2","","null","<p class=block-text>Trial 7 out of 78</p>","null","pattern_show_trial_num","","","","","","","","","","","","","","","","","","","","","","","","",""
"","","","","","image-keyboard-response","34","144115","0.0-2.0-5.0-1.6","59298c0b0b19ce0001202f22","B2","batch2","","6299.29999999702","stim/no_28_2.png","j","pattern_response","true","j","pattern_11","6299.29999999702","true","7","","","","","","","","","","","","","","","","","","",""
"","","","","","html-keyboard-response","35","145437","0.0-2.0-5.0-0.7","59298c0b0b19ce0001202f22","B2","batch2","","null","<p class=block-text>Trial 8 out of 78</p>","null","pattern_show_trial_num","","","","","","","","","","","","","","","","","","","","","","","","",""
"","","","","","image-keyboard-response","36","150599","0.0-2.0-5.0-1.7","59298c0b0b19ce0001202f22","B2","batch2","","5158.0999999940395","stim/no_25_1_b.png","j","pattern_response","true","j","pattern_09","5158.0999999940395","true","8","","","","","","","","","","","","","","","","","","",""
"","","","","","html-keyboard-response","37","151921","0.0-2.0-5.0-0.8","59298c0b0b19ce0001202f22","B2","batch2","","null","<p class=block-text>Trial 9 out of 78</p>","null","pattern_show_trial_num","","","","","","","","","","","","","","","","","","","","","","","","",""
"","","","","","image-keyboard-response","38","152884","0.0-2.0-5.0-1.8","59298c0b0b19ce0001202f22","B2","batch2","","959.2999999970198","stim/yes_39_hor_w1_w.png","f","pattern_response","true","f","pattern_62","959.2999999970198","true","9","","","","","","","","","","","","","","","","","","",""
"","","","","","html-keyboard-response","39","154191","0.0-2.0-5.0-0.9","59298c0b0b19ce0001202f22","B2","batch2","","null","<p class=block-text>Trial 10 out of 78</p>","null","pattern_show_trial_num","","","","","","","","","","","","","","","","","","","","","","","","",""
"","","","","","image-keyboard-response","40","155049","0.0-2.0-5.0-1.9","59298c0b0b19ce0001202f22","B2","batch2","","856.2999999970198","stim/yes_29_hor_b1_b.png","f","pattern_response","true","f","pattern_52","856.2999999970198","true","10","","","","","","","","","","","","","","","","","","",""
"","","","","","html-keyboard-response","41","156368","0.0-2.0-5.0-0.10","59298c0b0b19ce0001202f22","B2","batch2","","null","<p class=block-text>Trial 11 out of 78</p>","null","pattern_show_trial_num","","","","","","","","","","","","","","","","","","","","","","","","",""
"","","","","","image-keyboard-response","42","158749","0.0-2.0-5.0-1.10","59298c0b0b19ce0001202f22","B2","batch2","","2377.7999999970198","stim/yes_51_dia_b1.png","f","pattern_response","true","f","pattern_72","2377.7999999970198","true","11","","","","","","","","","","","","","","","","","","",""
"","","","","","html-keyboard-response","43","160058","0.0-2.0-5.0-0.11","59298c0b0b19ce0001202f22","B2","batch2","","null","<p class=block-text>Trial 12 out of 78</p>","null","pattern_show_trial_num","","","","","","","","","","","","","","","","","","","","","","","","",""
"","","","","","image-keyboard-response","44","163140","0.0-2.0-5.0-1.11","59298c0b0b19ce0001202f22","B2","batch2","","3079","stim/no_22_1_b.png","j","pattern_response","true","j","pattern_07","3079","true","12","","","","","","","","","","","","","","","","","","",""
"","","","","","html-keyboard-response","45","164468","0.0-2.0-5.0-0.12","59298c0b0b19ce0001202f22","B2","batch2","","null","<p class=block-text>Trial 13 out of 78</p>","null","pattern_show_trial_num","","","","","","","","","","","","","","","","","","","","","","","","",""
"","","","","","image-keyboard-response","46","165560","0.0-2.0-5.0-1.12","59298c0b0b19ce0001202f22","B2","batch2","","1088.7999999970198","stim/yes_12_hor_w1_w.png","f","pattern_response","true","f","pattern_42","1088.7999999970198","true","13","","","","","","","","","","","","","","","","","","",""
"","","","","","html-keyboard-response","47","166886","0.0-2.0-5.0-0.13","59298c0b0b19ce0001202f22","B2","batch2","","null","<p class=block-text>Trial 14 out of 78</p>","null","pattern_show_trial_num","","","","","","","","","","","","","","","","","","","","","","","","",""
"","","","","","image-keyboard-response","48","174311","0.0-2.0-5.0-1.13","59298c0b0b19ce0001202f22","B2","batch2","","7421.79999999702","stim/no_37_2_w.png","j","pattern_response","true","j","pattern_19","7421.79999999702","true","14","","","","","","","","","","","","","","","","","","",""
"","","","","","html-keyboard-response","49","175634","0.0-2.0-5.0-0.14","59298c0b0b19ce0001202f22","B2","batch2","","null","<p class=block-text>Trial 15 out of 78</p>","null","pattern_show_trial_num","","","","","","","","","","","","","","","","","","","","","","","","",""
"","","","","","image-keyboard-response","50","176452","0.0-2.0-5.0-1.14","59298c0b0b19ce0001202f22","B2","batch2","","812.9000000059605","stim/yes_17_ver_b1_b.png","f","pattern_response","true","f","pattern_46","812.9000000059605","true","15","","","","","","","","","","","","","","","","","","",""
"","","","","","html-keyboard-response","51","177770","0.0-2.0-5.0-0.15","59298c0b0b19ce0001202f22","B2","batch2","","null","<p class=block-text>Trial 16 out of 78</p>","null","pattern_show_trial_num","","","","","","","","","","","","","","","","","","","","","","","","",""
"","","","","","image-keyboard-response","52","185795","0.0-2.0-5.0-1.15","59298c0b0b19ce0001202f22","B2","batch2","","8020.9000000059605","stim/no_45_1_w.png","j","pattern_response","true","j","pattern_25","8020.9000000059605","true","16","","","","","","","","","","","","","","","","","","",""
"","","","","","html-keyboard-response","53","187101","0.0-2.0-5.0-0.16","59298c0b0b19ce0001202f22","B2","batch2","","null","<p class=block-text>Trial 17 out of 78</p>","null","pattern_show_trial_num","","","","","","","","","","","","","","","","","","","","","","","","",""
"","","","","","image-keyboard-response","54","191784","0.0-2.0-5.0-1.16","59298c0b0b19ce0001202f22","B2","batch2","","4677.70000000298","stim/yes_53_ver_b1_b.png","f","pattern_response","true","f","pattern_74","4677.70000000298","true","17","","","","","","","","","","","","","","","","","","",""
"","","","","","html-keyboard-response","55","193100","0.0-2.0-5.0-0.17","59298c0b0b19ce0001202f22","B2","batch2","","null","<p class=block-text>Trial 18 out of 78</p>","null","pattern_show_trial_num","","","","","","","","","","","","","","","","","","","","","","","","",""
"","","","","","image-keyboard-response","56","201079","0.0-2.0-5.0-1.17","59298c0b0b19ce0001202f22","B2","batch2","","7977","stim/no_39_1_w.png","j","pattern_response","true","j","pattern_21","7977","true","18","","","","","","","","","","","","","","","","","","",""
"","","","","","html-keyboard-response","57","202392","0.0-2.0-5.0-0.18","59298c0b0b19ce0001202f22","B2","batch2","","null","<p class=block-text>Trial 19 out of 78</p>","null","pattern_show_trial_num","","","","","","","","","","","","","","","","","","","","","","","","",""
"","","","","","image-keyboard-response","58","204120","0.0-2.0-5.0-1.18","59298c0b0b19ce0001202f22","B2","batch2","","1724.2000000029802","stim/no_12_1.png","j","pattern_response","true","j","pattern_01","1724.2000000029802","true","19","","","","","","","","","","","","","","","","","","",""
"","","","","","html-keyboard-response","59","205443","0.0-2.0-5.0-0.19","59298c0b0b19ce0001202f22","B2","batch2","","null","<p class=block-text>Trial 20 out of 78</p>","null","pattern_show_trial_num","","","","","","","","","","","","","","","","","","","","","","","","",""
"","","","","","image-keyboard-response","60","218085","0.0-2.0-5.0-1.19","59298c0b0b19ce0001202f22","B2","batch2","","12638.70000000298","stim/no_67_1.png","j","pattern_response","true","j","pattern_39","12638.70000000298","true","20","","","","","","","","","","","","","","","","","","",""
"","","","","","html-keyboard-response","61","219399","0.0-2.0-5.0-0.20","59298c0b0b19ce0001202f22","B2","batch2","","null","<p class=block-text>Trial 21 out of 78</p>","null","pattern_show_trial_num","","","","","","","","","","","","","","","","","","","","","","","","",""
"","","","","","image-keyboard-response","62","230570","0.0-2.0-5.0-1.20","59298c0b0b19ce0001202f22","B2","batch2","","11166.89999999106","stim/yes_58_dia_w1_w.png","j","pattern_response","false","f","pattern_76","11166.89999999106","false","20","","","","","","","","","","","","","","","","","","",""
"","","","","","html-keyboard-response","63","231900","0.0-2.0-5.0-0.21","59298c0b0b19ce0001202f22","B2","batch2","","null","<p class=block-text>Trial 22 out of 78</p>","null","pattern_show_trial_num","","","","","","","","","","","","","","","","","","","","","","","","",""
"","","","","","image-keyboard-response","64","233124","0.0-2.0-5.0-1.21","59298c0b0b19ce0001202f22","B2","batch2","","1219.300000011921","stim/yes_63_dia_b1.png","f","pattern_response","true","f","pattern_78","1219.300000011921","true","21","","","","","","","","","","","","","","","","","","",""
"","","","","","html-keyboard-response","65","234450","0.0-2.0-5.0-0.22","59298c0b0b19ce0001202f22","B2","batch2","","null","<p class=block-text>Trial 23 out of 78</p>","null","pattern_show_trial_num","","","","","","","","","","","","","","","","","","","","","","","","",""
"","","","","","image-keyboard-response","66","235420","0.0-2.0-5.0-1.22","59298c0b0b19ce0001202f22","B2","batch2","","966.1000000089407","stim/yes_30_ver_b1_b.png","f","pattern_response","true","f","pattern_54","966.1000000089407","true","22","","","","","","","","","","","","","","","","","","",""
"","","","","","html-keyboard-response","67","236751","0.0-2.0-5.0-0.23","59298c0b0b19ce0001202f22","B2","batch2","","null","<p class=block-text>Trial 24 out of 78</p>","null","pattern_show_trial_num","","","","","","","","","","","","","","","","","","","","","","","","",""
"","","","","","image-keyboard-response","68","244869","0.0-2.0-5.0-1.23","59298c0b0b19ce0001202f22","B2","batch2","","8114.5","stim/yes_42_dia_w1_w.png","j","pattern_response","false","f","pattern_64","8114.5","false","22","","","","","","","","","","","","","","","","","","",""
"","","","","","html-keyboard-response","69","246190","0.0-2.0-5.0-0.24","59298c0b0b19ce0001202f22","B2","batch2","","null","<p class=block-text>Trial 25 out of 78</p>","null","pattern_show_trial_num","","","","","","","","","","","","","","","","","","","","","","","","",""
"","","","","","image-keyboard-response","70","254348","0.0-2.0-5.0-1.24","59298c0b0b19ce0001202f22","B2","batch2","","8153.9000000059605","stim/no_49_2_b.png","j","pattern_response","true","j","pattern_29","8153.9000000059605","true","23","","","","","","","","","","","","","","","","","","",""
"","","","","","html-keyboard-response","71","255665","0.0-2.0-5.0-0.25","59298c0b0b19ce0001202f22","B2","batch2","","null","<p class=block-text>Trial 26 out of 78</p>","null","pattern_show_trial_num","","","","","","","","","","","","","","","","","","","","","","","","",""
"","","","","","image-keyboard-response","72","261544","0.0-2.0-5.0-1.25","59298c0b0b19ce0001202f22","B2","batch2","","5875.100000008941","stim/no_47_1_b.png","j","pattern_response","true","j","pattern_27","5875.100000008941","true","24","","","","","","","","","","","","","","","","","","",""
"","","","","","html-keyboard-response","73","262870","0.0-2.0-5.0-0.26","59298c0b0b19ce0001202f22","B2","batch2","","null","<p class=block-text>Trial 27 out of 78</p>","null","pattern_show_trial_num","","","","","","","","","","","","","","","","","","","","","","","","",""
"","","","","","image-keyboard-response","74","269710","0.0-2.0-5.0-1.26","59298c0b0b19ce0001202f22","B2","batch2","","6836.5","stim/no_30_1_b.png","j","pattern_response","true","j","pattern_13","6836.5","true","25","","","","","","","","","","","","","","","","","","",""
"","","","","","html-keyboard-response","75","271019","0.0-2.0-5.0-0.27","59298c0b0b19ce0001202f22","B2","batch2","","null","<p class=block-text>Trial 28 out of 78</p>","null","pattern_show_trial_num","","","","","","","","","","","","","","","","","","","","","","","","",""
"","","","","","image-keyboard-response","76","274115","0.0-2.0-5.0-1.27","59298c0b0b19ce0001202f22","B2","batch2","","3091.5","stim/no_18_1_b.png","j","pattern_response","true","j","pattern_05","3091.5","true","26","","","","","","","","","","","","","","","","","","",""
"","","","","","html-keyboard-response","77","275431","0.0-2.0-5.0-0.28","59298c0b0b19ce0001202f22","B2","batch2","","null","<p class=block-text>Trial 29 out of 78</p>","null","pattern_show_trial_num","","","","","","","","","","","","","","","","","","","","","","","","",""
"","","","","","image-keyboard-response","78","282275","0.0-2.0-5.0-1.28","59298c0b0b19ce0001202f22","B2","batch2","","6840.70000000298","stim/no_36_1_b.png","j","pattern_response","true","j","pattern_17","6840.70000000298","true","27","","","","","","","","","","","","","","","","","","",""
"","","","","","html-keyboard-response","79","283584","0.0-2.0-5.0-0.29","59298c0b0b19ce0001202f22","B2","batch2","","null","<p class=block-text>Trial 30 out of 78</p>","null","pattern_show_trial_num","","","","","","","","","","","","","","","","","","","","","","","","",""
"","","","","","image-keyboard-response","80","285864","0.0-2.0-5.0-1.29","59298c0b0b19ce0001202f22","B2","batch2","","2275.5999999940395","stim/no_15_1_w.png","j","pattern_response","true","j","pattern_03","2275.5999999940395","true","28","","","","","","","","","","","","","","","","","","",""
"","","","","","html-keyboard-response","81","287171","0.0-2.0-5.0-0.30","59298c0b0b19ce0001202f22","B2","batch2","","null","<p class=block-text>Trial 31 out of 78</p>","null","pattern_show_trial_num","","","","","","","","","","","","","","","","","","","","","","","","",""
"","","","","","image-keyboard-response","82","292340","0.0-2.0-5.0-1.30","59298c0b0b19ce0001202f22","B2","batch2","","5171.20000000298","stim/yes_26_dia_w2_w.png","j","pattern_response","false","f","pattern_50","5171.20000000298","false","28","","","","","","","","","","","","","","","","","","",""
"","","","","","html-keyboard-response","83","293663","0.0-2.0-5.0-0.31","59298c0b0b19ce0001202f22","B2","batch2","","null","<p class=block-text>Trial 32 out of 78</p>","null","pattern_show_trial_num","","","","","","","","","","","","","","","","","","","","","","","","",""
"","","","","","image-keyboard-response","84","300134","0.0-2.0-5.0-1.31","59298c0b0b19ce0001202f22","B2","batch2","","6467.5","stim/no_43_2_b.png","j","pattern_response","true","j","pattern_23","6467.5","true","29","","","","","","","","","","","","","","","","","","",""
"","","","","","html-keyboard-response","85","301460","0.0-2.0-5.0-0.32","59298c0b0b19ce0001202f22","B2","batch2","","null","<p class=block-text>Trial 33 out of 78</p>","null","pattern_show_trial_num","","","","","","","","","","","","","","","","","","","","","","","","",""
"","","","","","image-keyboard-response","86","309711","0.0-2.0-5.0-1.32","59298c0b0b19ce0001202f22","B2","batch2","","8247.29999999702","stim/no_53_1_b.png","j","pattern_response","true","j","pattern_33","8247.29999999702","true","30","","","","","","","","","","","","","","","","","","",""
"","","","","","html-keyboard-response","87","311030","0.0-2.0-5.0-0.33","59298c0b0b19ce0001202f22","B2","batch2","","null","<p class=block-text>Trial 34 out of 78</p>","null","pattern_show_trial_num","","","","","","","","","","","","","","","","","","","","","","","","",""
"","","","","","image-keyboard-response","88","314852","0.0-2.0-5.0-1.33","59298c0b0b19ce0001202f22","B2","batch2","","3817.1000000089407","stim/yes_37_hor_w1_w.png","f","pattern_response","true","f","pattern_60","3817.1000000089407","true","31","","","","","","","","","","","","","","","","","","",""
"","","","","","html-keyboard-response","89","316180","0.0-2.0-5.0-0.34","59298c0b0b19ce0001202f22","B2","batch2","","null","<p class=block-text>Trial 35 out of 78</p>","null","pattern_show_trial_num","","","","","","","","","","","","","","","","","","","","","","","","",""
"","","","","","image-keyboard-response","90","324095","0.0-2.0-5.0-1.34","59298c0b0b19ce0001202f22","B2","batch2","","7909.899999991059","stim/yes_44_ver_w1_w.png","j","pattern_response","false","f","pattern_66","7909.899999991059","false","31","","","","","","","","","","","","","","","","","","",""
"","","","","","html-keyboard-response","91","325412","0.0-2.0-5.0-0.35","59298c0b0b19ce0001202f22","B2","batch2","","null","<p class=block-text>Trial 36 out of 78</p>","null","pattern_show_trial_num","","","","","","","","","","","","","","","","","","","","","","","","",""
"","","","","","image-keyboard-response","92","326674","0.0-2.0-5.0-1.35","59298c0b0b19ce0001202f22","B2","batch2","","1257.5","stim/yes_36_ver_w1_w.png","f","pattern_response","true","f","pattern_58","1257.5","true","32","","","","","","","","","","","","","","","","","","",""
"","","","","","html-keyboard-response","93","327987","0.0-2.0-5.0-0.36","59298c0b0b19ce0001202f22","B2","batch2","","null","<p class=block-text>Trial 37 out of 78</p>","null","pattern_show_trial_num","","","","","","","","","","","","","","","","","","","","","","","","",""
"","","","","","image-keyboard-response","94","331058","0.0-2.0-5.0-1.36","59298c0b0b19ce0001202f22","B2","batch2","","3067.7000000029802","stim/yes_70_ver_b1.png","f","pattern_response","true","f","pattern_80","3067.7000000029802","true","33","","","","","","","","","","","","","","","","","","",""
"","","","","","html-keyboard-response","95","332377","0.0-2.0-5.0-0.37","59298c0b0b19ce0001202f22","B2","batch2","","null","<p class=block-text>Trial 38 out of 78</p>","null","pattern_show_trial_num","","","","","","","","","","","","","","","","","","","","","","","","",""
"","","","","","image-keyboard-response","96","333223","0.0-2.0-5.0-1.37","59298c0b0b19ce0001202f22","B2","batch2","","842.3000000119209","stim/yes_46_ver_b1_b.png","f","pattern_response","true","f","pattern_68","842.3000000119209","true","34","","","","","","","","","","","","","","","","","","",""
"","","","","","html-keyboard-response","97","334530","0.0-2.0-5.0-0.38","59298c0b0b19ce0001202f22","B2","batch2","","null","<p class=block-text>Trial 39 out of 78</p>","null","pattern_show_trial_num","","","","","","","","","","","","","","","","","","","","","","","","",""
"","","","","","image-keyboard-response","98","337192","0.0-2.0-5.0-1.38","59298c0b0b19ce0001202f22","B2","batch2","","2659.2000000029802","stim/yes_49_hor_w1_b.png","j","pattern_response","false","f","pattern_70","2659.2000000029802","false","34","","","","","","","","","","","","","","","","","","",""
"","","","","","image-keyboard-response","99","340239","0.0-2.0-6.0","59298c0b0b19ce0001202f22","B2","batch2","","2539.2999999970198","stim/empty_board.png","j","attention_check","true","j","","","","","500","[""f"",""j""]","","","","","","","","","","","","","","","","",""
"","","","","","html-keyboard-response","100","341046","0.0-2.0-7.0-0.0","59298c0b0b19ce0001202f22","B2","batch2","","null","<p class=block-text>Trial 40 out of 78</p>","null","pattern_show_trial_num","","","","","","","","","","","","","","","","","","","","","","","","",""
"","","","","","image-keyboard-response","101","344032","0.0-2.0-7.0-1.0","59298c0b0b19ce0001202f22","B2","batch2","","2981.699999988079","stim/yes_35_dia_b1.png","f","pattern_response","true","f","pattern_57","2981.699999988079","true","35","","","","","","","","","","","","","","","","","","",""
"","","","","","html-keyboard-response","102","345348","0.0-2.0-7.0-0.1","59298c0b0b19ce0001202f22","B2","batch2","","null","<p class=block-text>Trial 41 out of 78</p>","null","pattern_show_trial_num","","","","","","","","","","","","","","","","","","","","","","","","",""
"","","","","","image-keyboard-response","103","350117","0.0-2.0-7.0-1.1","59298c0b0b19ce0001202f22","B2","batch2","","4765.0999999940395","stim/yes_40_dia_b1_b.png","j","pattern_response","false","f","pattern_63","4765.0999999940395","false","35","","","","","","","","","","","","","","","","","","",""
"","","","","","html-keyboard-response","104","351442","0.0-2.0-7.0-0.2","59298c0b0b19ce0001202f22","B2","batch2","","null","<p class=block-text>Trial 42 out of 78</p>","null","pattern_show_trial_num","","","","","","","","","","","","","","","","","","","","","","","","",""
"","","","","","image-keyboard-response","105","352689","0.0-2.0-7.0-1.2","59298c0b0b19ce0001202f22","B2","batch2","","1237.4000000059605","stim/no_13_2_b.png","j","pattern_response","true","j","pattern_02","1237.4000000059605","true","36","","","","","","","","","","","","","","","","","","",""
"","","","","","html-keyboard-response","106","354014","0.0-2.0-7.0-0.3","59298c0b0b19ce0001202f22","B2","batch2","","null","<p class=block-text>Trial 43 out of 78</p>","null","pattern_show_trial_num","","","","","","","","","","","","","","","","","","","","","","","","",""
"","","","","","image-keyboard-response","107","359803","0.0-2.0-7.0-1.3","59298c0b0b19ce0001202f22","B2","batch2","","5786.4000000059605","stim/no_50_1.png","j","pattern_response","true","j","pattern_30","5786.4000000059605","true","37","","","","","","","","","","","","","","","","","","",""
"","","","","","html-keyboard-response","108","361117","0.0-2.0-7.0-0.4","59298c0b0b19ce0001202f22","B2","batch2","","null","<p class=block-text>Trial 44 out of 78</p>","null","pattern_show_trial_num","","","","","","","","","","","","","","","","","","","","","","","","",""
"","","","","","image-keyboard-response","109","372317","0.0-2.0-7.0-1.4","59298c0b0b19ce0001202f22","B2","batch2","","11196.29999999702","stim/no_65_1_b.png","j","pattern_response","true","j","pattern_38","11196.29999999702","true","38","","","","","","","","","","","","","","","","","","",""
"","","","","","html-keyboard-response","110","373634","0.0-2.0-7.0-0.5","59298c0b0b19ce0001202f22","B2","batch2","","null","<p class=block-text>Trial 45 out of 78</p>","null","pattern_show_trial_num","","","","","","","","","","","","","","","","","","","","","","","","",""
"","","","","","image-keyboard-response","111","377724","0.0-2.0-7.0-1.5","59298c0b0b19ce0001202f22","B2","batch2","","4085.3999999910593","stim/no_34_1_b.png","j","pattern_response","true","j","pattern_16","4085.3999999910593","true","39","","","","","","","","","","","","","","","","","","",""
"","","","","","html-keyboard-response","112","379035","0.0-2.0-7.0-0.6","59298c0b0b19ce0001202f22","B2","batch2","","null","<p class=block-text>Trial 46 out of 78</p>","null","pattern_show_trial_num","","","","","","","","","","","","","","","","","","","","","","","","",""
"","","","","","image-keyboard-response","113","385174","0.0-2.0-7.0-1.6","59298c0b0b19ce0001202f22","B2","batch2","","6137.199999988079","stim/no_52_1.png","j","pattern_response","true","j","pattern_32","6137.199999988079","true","40","","","","","","","","","","","","","","","","","","",""
"","","","","","html-keyboard-response","114","386484","0.0-2.0-7.0-0.7","59298c0b0b19ce0001202f22","B2","batch2","","null","<p class=block-text>Trial 47 out of 78</p>","null","pattern_show_trial_num","","","","","","","","","","","","","","","","","","","","","","","","",""
"","","","","","image-keyboard-response","115","393532","0.0-2.0-7.0-1.7","59298c0b0b19ce0001202f22","B2","batch2","","7044.0999999940395","stim/yes_67_hor_b1.png","j","pattern_response","false","f","pattern_79","7044.0999999940395","false","40","","","","","","","","","","","","","","","","","","",""
"","","","","","html-keyboard-response","116","394850","0.0-2.0-7.0-0.8","59298c0b0b19ce0001202f22","B2","batch2","","null","<p class=block-text>Trial 48 out of 78</p>","null","pattern_show_trial_num","","","","","","","","","","","","","","","","","","","","","","","","",""
"","","","","","image-keyboard-response","117","395751","0.0-2.0-7.0-1.8","59298c0b0b19ce0001202f22","B2","batch2","","896.7999999970198","stim/yes_14_hor_b1_w.png","f","pattern_response","true","f","pattern_43","896.7999999970198","true","41","","","","","","","","","","","","","","","","","","",""
"","","","","","html-keyboard-response","118","397068","0.0-2.0-7.0-0.9","59298c0b0b19ce0001202f22","B2","batch2","","null","<p class=block-text>Trial 49 out of 78</p>","null","pattern_show_trial_num","","","","","","","","","","","","","","","","","","","","","","","","",""
"","","","","","image-keyboard-response","119","399180","0.0-2.0-7.0-1.9","59298c0b0b19ce0001202f22","B2","batch2","","2108","stim/no_23_1.png","j","pattern_response","true","j","pattern_08","2108","true","42","","","","","","","","","","","","","","","","","","",""
"","","","","","html-keyboard-response","120","400498","0.0-2.0-7.0-0.10","59298c0b0b19ce0001202f22","B2","batch2","","null","<p class=block-text>Trial 50 out of 78</p>","null","pattern_show_trial_num","","","","","","","","","","","","","","","","","","","","","","","","",""
"","","","","","image-keyboard-response","121","401564","0.0-2.0-7.0-1.10","59298c0b0b19ce0001202f22","B2","batch2","","1062.4000000059605","stim/yes_28_ver_b1.png","f","pattern_response","true","f","pattern_51","1062.4000000059605","true","43","","","","","","","","","","","","","","","","","","",""
"","","","","","html-keyboard-response","122","402878","0.0-2.0-7.0-0.11","59298c0b0b19ce0001202f22","B2","batch2","","null","<p class=block-text>Trial 51 out of 78</p>","null","pattern_show_trial_num","","","","","","","","","","","","","","","","","","","","","","","","",""
"","","","","","image-keyboard-response","123","404088","0.0-2.0-7.0-1.11","59298c0b0b19ce0001202f22","B2","batch2","","1207","stim/yes_43_ver_w1_w.png","f","pattern_response","true","f","pattern_65","1207","true","44","","","","","","","","","","","","","","","","","","",""
"","","","","","html-keyboard-response","124","405412","0.0-2.0-7.0-0.12","59298c0b0b19ce0001202f22","B2","batch2","","null","<p class=block-text>Trial 52 out of 78</p>","null","pattern_show_trial_num","","","","","","","","","","","","","","","","","","","","","","","","",""
"","","","","","image-keyboard-response","125","410101","0.0-2.0-7.0-1.12","59298c0b0b19ce0001202f22","B2","batch2","","4684.29999999702","stim/no_42_1_w.png","j","pattern_response","true","j","pattern_22","4684.29999999702","true","45","","","","","","","","","","","","","","","","","","",""
"","","","","","html-keyboard-response","126","411431","0.0-2.0-7.0-0.13","59298c0b0b19ce0001202f22","B2","batch2","","null","<p class=block-text>Trial 53 out of 78</p>","null","pattern_show_trial_num","","","","","","","","","","","","","","","","","","","","","","","","",""
"","","","","","image-keyboard-response","127","413271","0.0-2.0-7.0-1.13","59298c0b0b19ce0001202f22","B2","batch2","","1835.8999999910593","stim/no_20_1_w.png","j","pattern_response","true","j","pattern_06","1835.8999999910593","true","46","","","","","","","","","","","","","","","","","","",""
"","","","","","html-keyboard-response","128","414596","0.0-2.0-7.0-0.14","59298c0b0b19ce0001202f22","B2","batch2","","null","<p class=block-text>Trial 54 out of 78</p>","null","pattern_show_trial_num","","","","","","","","","","","","","","","","","","","","","","","","",""
"","","","","","image-keyboard-response","129","417860","0.0-2.0-7.0-1.14","59298c0b0b19ce0001202f22","B2","batch2","","3260.2000000029802","stim/no_26_1_w.png","j","pattern_response","true","j","pattern_10","3260.2000000029802","true","47","","","","","","","","","","","","","","","","","","",""
"","","","","","html-keyboard-response","130","419165","0.0-2.0-7.0-0.15","59298c0b0b19ce0001202f22","B2","batch2","","null","<p class=block-text>Trial 55 out of 78</p>","null","pattern_show_trial_num","","","","","","","","","","","","","","","","","","","","","","","","",""
"","","","","","image-keyboard-response","131","430869","0.0-2.0-7.0-1.15","59298c0b0b19ce0001202f22","B2","batch2","","11700.20000000298","stim/no_70_2.png","j","pattern_response","true","j","pattern_40","11700.20000000298","true","48","","","","","","","","","","","","","","","","","","",""
"","","","","","html-keyboard-response","132","432182","0.0-2.0-7.0-0.16","59298c0b0b19ce0001202f22","B2","batch2","","null","<p class=block-text>Trial 56 out of 78</p>","null","pattern_show_trial_num","","","","","","","","","","","","","","","","","","","","","","","","",""
"","","","","","image-keyboard-response","133","440296","0.0-2.0-7.0-1.16","59298c0b0b19ce0001202f22","B2","batch2","","8109.600000008941","stim/yes_60_ver_b1_b.png","j","pattern_response","false","f","pattern_77","8109.600000008941","false","48","","","","","","","","","","","","","","","","","","",""
"","","","","","html-keyboard-response","134","441614","0.0-2.0-7.0-0.17","59298c0b0b19ce0001202f22","B2","batch2","","null","<p class=block-text>Trial 57 out of 78</p>","null","pattern_show_trial_num","","","","","","","","","","","","","","","","","","","","","","","","",""
"","","","","","image-keyboard-response","135","443541","0.0-2.0-7.0-1.17","59298c0b0b19ce0001202f22","B2","batch2","","1922.800000011921","stim/no_17_1_w.png","j","pattern_response","true","j","pattern_04","1922.800000011921","true","49","","","","","","","","","","","","","","","","","","",""
"","","","","","html-keyboard-response","136","444866","0.0-2.0-7.0-0.18","59298c0b0b19ce0001202f22","B2","batch2","","null","<p class=block-text>Trial 58 out of 78</p>","null","pattern_show_trial_num","","","","","","","","","","","","","","","","","","","","","","","","",""
"","","","","","image-keyboard-response","137","445976","0.0-2.0-7.0-1.18","59298c0b0b19ce0001202f22","B2","batch2","","1106.5999999940395","stim/yes_38_hor_b1_b.png","f","pattern_response","true","f","pattern_61","1106.5999999940395","true","50","","","","","","","","","","","","","","","","","","",""
"","","","","","html-keyboard-response","138","447284","0.0-2.0-7.0-0.19","59298c0b0b19ce0001202f22","B2","batch2","","null","<p class=block-text>Trial 59 out of 78</p>","null","pattern_show_trial_num","","","","","","","","","","","","","","","","","","","","","","","","",""
"","","","","","image-keyboard-response","139","454701","0.0-2.0-7.0-1.19","59298c0b0b19ce0001202f22","B2","batch2","","7413.600000008941","stim/no_62_1_w.png","j","pattern_response","true","j","pattern_36","7413.600000008941","true","51","","","","","","","","","","","","","","","","","","",""
"","","","","","html-keyboard-response","140","456029","0.0-2.0-7.0-0.20","59298c0b0b19ce0001202f22","B2","batch2","","null","<p class=block-text>Trial 60 out of 78</p>","null","pattern_show_trial_num","","","","","","","","","","","","","","","","","","","","","","","","",""
"","","","","","image-keyboard-response","141","465110","0.0-2.0-7.0-1.20","59298c0b0b19ce0001202f22","B2","batch2","","9076.39999999106","stim/no_46_1_b.png","j","pattern_response","true","j","pattern_26","9076.39999999106","true","52","","","","","","","","","","","","","","","","","","",""
"","","","","","html-keyboard-response","142","466427","0.0-2.0-7.0-0.21","59298c0b0b19ce0001202f22","B2","batch2","","null","<p class=block-text>Trial 61 out of 78</p>","null","pattern_show_trial_num","","","","","","","","","","","","","","","","","","","","","","","","",""
"","","","","","image-keyboard-response","143","472760","0.0-2.0-7.0-1.21","59298c0b0b19ce0001202f22","B2","batch2","","6328.0999999940395","stim/yes_37_dia_w1.png","j","pattern_response","false","f","pattern_59","6328.0999999940395","false","52","","","","","","","","","","","","","","","","","","",""
"","","","","","html-keyboard-response","144","474070","0.0-2.0-7.0-0.22","59298c0b0b19ce0001202f22","B2","batch2","","null","<p class=block-text>Trial 62 out of 78</p>","null","pattern_show_trial_num","","","","","","","","","","","","","","","","","","","","","","","","",""
"","","","","","image-keyboard-response","145","479327","0.0-2.0-7.0-1.22","59298c0b0b19ce0001202f22","B2","batch2","","5252.9000000059605","stim/no_55_1_w.png","j","pattern_response","true","j","pattern_34","5252.9000000059605","true","53","","","","","","","","","","","","","","","","","","",""
"","","","","","html-keyboard-response","146","480634","0.0-2.0-7.0-0.23","59298c0b0b19ce0001202f22","B2","batch2","","null","<p class=block-text>Trial 63 out of 78</p>","null","pattern_show_trial_num","","","","","","","","","","","","","","","","","","","","","","","","",""
"","","","","","image-keyboard-response","147","489987","0.0-2.0-7.0-1.23","59298c0b0b19ce0001202f22","B2","batch2","","9349.199999988079","stim/yes_50_dia_w1.png","j","pattern_response","false","f","pattern_71","9349.199999988079","false","53","","","","","","","","","","","","","","","","","","",""
"","","","","","html-keyboard-response","148","491314","0.0-2.0-7.0-0.24","59298c0b0b19ce0001202f22","B2","batch2","","null","<p class=block-text>Trial 64 out of 78</p>","null","pattern_show_trial_num","","","","","","","","","","","","","","","","","","","","","","","","",""
"","","","","","image-keyboard-response","149","500396","0.0-2.0-7.0-1.24","59298c0b0b19ce0001202f22","B2","batch2","","9077.39999999106","stim/no_29_1_b.png","j","pattern_response","true","j","pattern_12","9077.39999999106","true","54","","","","","","","","","","","","","","","","","","",""
"","","","","","html-keyboard-response","150","501703","0.0-2.0-7.0-0.25","59298c0b0b19ce0001202f22","B2","batch2","","null","<p class=block-text>Trial 65 out of 78</p>","null","pattern_show_trial_num","","","","","","","","","","","","","","","","","","","","","","","","",""
"","","","","","image-keyboard-response","151","512732","0.0-2.0-7.0-1.25","59298c0b0b19ce0001202f22","B2","batch2","","11024.60000000894","stim/no_48_1_w.png","j","pattern_response","true","j","pattern_28","11024.60000000894","true","55","","","","","","","","","","","","","","","","","","",""
"","","","","","html-keyboard-response","152","514061","0.0-2.0-7.0-0.26","59298c0b0b19ce0001202f22","B2","batch2","","null","<p class=block-text>Trial 66 out of 78</p>","null","pattern_show_trial_num","","","","","","","","","","","","","","","","","","","","","","","","",""
"","","","","","image-keyboard-response","153","515979","0.0-2.0-7.0-1.26","59298c0b0b19ce0001202f22","B2","batch2","","1913.2000000029802","stim/yes_29_ver_w1.png","f","pattern_response","true","f","pattern_53","1913.2000000029802","true","56","","","","","","","","","","","","","","","","","","",""
"","","","","","html-keyboard-response","154","517295","0.0-2.0-7.0-0.27","59298c0b0b19ce0001202f22","B2","batch2","","null","<p class=block-text>Trial 67 out of 78</p>","null","pattern_show_trial_num","","","","","","","","","","","","","","","","","","","","","","","","",""
"","","","","","image-keyboard-response","155","527596","0.0-2.0-7.0-1.27","59298c0b0b19ce0001202f22","B2","batch2","","10296.89999999106","stim/no_44_1.png","j","pattern_response","true","j","pattern_24","10296.89999999106","true","57","","","","","","","","","","","","","","","","","","",""
"","","","","","html-keyboard-response","156","528912","0.0-2.0-7.0-0.28","59298c0b0b19ce0001202f22","B2","batch2","","null","<p class=block-text>Trial 68 out of 78</p>","null","pattern_show_trial_num","","","","","","","","","","","","","","","","","","","","","","","","",""
"","","","","","image-keyboard-response","157","530089","0.0-2.0-7.0-1.28","59298c0b0b19ce0001202f22","B2","batch2","","1171.5","stim/yes_45_hor_b2_b.png","f","pattern_response","true","f","pattern_67","1171.5","true","58","","","","","","","","","","","","","","","","","","",""
"","","","","","html-keyboard-response","158","531393","0.0-2.0-7.0-0.29","59298c0b0b19ce0001202f22","B2","batch2","","null","<p class=block-text>Trial 69 out of 78</p>","null","pattern_show_trial_num","","","","","","","","","","","","","","","","","","","","","","","","",""
"","","","","","image-keyboard-response","159","541656","0.0-2.0-7.0-1.29","59298c0b0b19ce0001202f22","B2","batch2","","10260.40000000596","stim/no_38_1_b.png","j","pattern_response","true","j","pattern_20","10260.40000000596","true","59","","","","","","","","","","","","","","","","","","",""
"","","","","","html-keyboard-response","160","542978","0.0-2.0-7.0-0.30","59298c0b0b19ce0001202f22","B2","batch2","","null","<p class=block-text>Trial 70 out of 78</p>","null","pattern_show_trial_num","","","","","","","","","","","","","","","","","","","","","","","","",""
"","","","","","image-keyboard-response","161","543803","0.0-2.0-7.0-1.30","59298c0b0b19ce0001202f22","B2","batch2","","820.7999999970198","stim/yes_25_hor_b1_b.png","f","pattern_response","true","f","pattern_49","820.7999999970198","true","60","","","","","","","","","","","","","","","","","","",""
"","","","","","html-keyboard-response","162","545126","0.0-2.0-7.0-0.31","59298c0b0b19ce0001202f22","B2","batch2","","null","<p class=block-text>Trial 71 out of 78</p>","null","pattern_show_trial_num","","","","","","","","","","","","","","","","","","","","","","","","",""
"","","","","","image-keyboard-response","163","546081","0.0-2.0-7.0-1.31","59298c0b0b19ce0001202f22","B2","batch2","","951.8999999910593","stim/yes_31_hor_b1.png","f","pattern_response","true","f","pattern_55","951.8999999910593","true","61","","","","","","","","","","","","","","","","","","",""
"","","","","","html-keyboard-response","164","547407","0.0-2.0-7.0-0.32","59298c0b0b19ce0001202f22","B2","batch2","","null","<p class=block-text>Trial 72 out of 78</p>","null","pattern_show_trial_num","","","","","","","","","","","","","","","","","","","","","","","","",""
"","","","","","image-keyboard-response","165","553528","0.0-2.0-7.0-1.32","59298c0b0b19ce0001202f22","B2","batch2","","6117.100000008941","stim/no_36_2_w.png","j","pattern_response","true","j","pattern_18","6117.100000008941","true","62","","","","","","","","","","","","","","","","","","",""
"","","","","","html-keyboard-response","166","554845","0.0-2.0-7.0-0.33","59298c0b0b19ce0001202f22","B2","batch2","","null","<p class=block-text>Trial 73 out of 78</p>","null","pattern_show_trial_num","","","","","","","","","","","","","","","","","","","","","","","","",""
"","","","","","image-keyboard-response","167","565563","0.0-2.0-7.0-1.33","59298c0b0b19ce0001202f22","B2","batch2","","10713.59999999404","stim/yes_48_dia_w1_w.png","j","pattern_response","false","f","pattern_69","10713.59999999404","false","62","","","","","","","","","","","","","","","","","","",""
"","","","","","html-keyboard-response","168","566885","0.0-2.0-7.0-0.34","59298c0b0b19ce0001202f22","B2","batch2","","null","<p class=block-text>Trial 74 out of 78</p>","null","pattern_show_trial_num","","","","","","","","","","","","","","","","","","","","","","","","",""
"","","","","","image-keyboard-response","169","573516","0.0-2.0-7.0-1.34","59298c0b0b19ce0001202f22","B2","batch2","","6626.4000000059605","stim/yes_55_hor_w1_w.png","j","pattern_response","false","f","pattern_75","6626.4000000059605","false","62","","","","","","","","","","","","","","","","","","",""
"","","","","","html-keyboard-response","170","574829","0.0-2.0-7.0-0.35","59298c0b0b19ce0001202f22","B2","batch2","","null","<p class=block-text>Trial 75 out of 78</p>","null","pattern_show_trial_num","","","","","","","","","","","","","","","","","","","","","","","","",""
"","","","","","image-keyboard-response","171","575964","0.0-2.0-7.0-1.35","59298c0b0b19ce0001202f22","B2","batch2","","1130.4000000059605","stim/yes_22_ver_w1.png","f","pattern_response","true","f","pattern_47","1130.4000000059605","true","63","","","","","","","","","","","","","","","","","","",""
"","","","","","html-keyboard-response","172","577292","0.0-2.0-7.0-0.36","59298c0b0b19ce0001202f22","B2","batch2","","null","<p class=block-text>Trial 76 out of 78</p>","null","pattern_show_trial_num","","","","","","","","","","","","","","","","","","","","","","","","",""
"","","","","","image-keyboard-response","173","578745","0.0-2.0-7.0-1.36","59298c0b0b19ce0001202f22","B2","batch2","","1450.5","stim/yes_52_ver_w1.png","f","pattern_response","true","f","pattern_73","1450.5","true","64","","","","","","","","","","","","","","","","","","",""
"","","","","","html-keyboard-response","174","580075","0.0-2.0-7.0-0.37","59298c0b0b19ce0001202f22","B2","batch2","","null","<p class=block-text>Trial 77 out of 78</p>","null","pattern_show_trial_num","","","","","","","","","","","","","","","","","","","","","","","","",""
"","","","","","image-keyboard-response","175","586020","0.0-2.0-7.0-1.37","59298c0b0b19ce0001202f22","B2","batch2","","5942.70000000298","stim/no_32_1_w.png","j","pattern_response","true","j","pattern_14","5942.70000000298","true","65","","","","","","","","","","","","","","","","","","",""
"","","","","","html-keyboard-response","176","587345","0.0-2.0-7.0-0.38","59298c0b0b19ce0001202f22","B2","batch2","","null","<p class=block-text>Trial 78 out of 78</p>","null","pattern_show_trial_num","","","","","","","","","","","","","","","","","","","","","","","","",""
"","","","","","image-keyboard-response","177","589126","0.0-2.0-7.0-1.38","59298c0b0b19ce0001202f22","B2","batch2","","1777.1000000089407","stim/yes_17_dia_w1.png","f","pattern_response","true","f","pattern_45","1777.1000000089407","true","66","","","","","","","","","","","","","","","","","","",""
"","","","","","html-button-response","178","680332","0.0-2.0-8.0","59298c0b0b19ce0001202f22","B2","batch2","","90687.29999999702","<p class = block-text>This concludes the 4-in-a-row detection game.Thank you for your responses!<br>
            You responded correctly on 85% of the trials.<br>
            When you are ready, press ""Continue"" button to continue </p>","0","","","","","","","","","","","","","","","","","","","","","","","","","",""
"true","","","","","fullscreen","179","684861","0.0-3.0-0.0","59298c0b0b19ce0001202f22","B2","batch2","","","","","","","","","","","","","","","","","","","","","","","","","","","","","",""
"","","","","","instructions","180","753149","0.0-3.0-1.0-0.0-0.0","59298c0b0b19ce0001202f22","B2","batch2","[{""page_index"":0,""viewing_time"":15009.29999999702},{""page_index"":1,""viewing_time"":10336},{""page_index"":2,""viewing_time"":8780.59999999404},{""page_index"":3,""viewing_time"":10608.300000011921},{""page_index"":4,""viewing_time"":6822.199999988079},{""page_index"":5,""viewing_time"":14322.70000000298},{""page_index"":6,""viewing_time"":2407.2999999970198}]","68286.5","","","tol-instructions","","","","","","","","","","","","","","","","","","","","","","","","",""
"","","","","","html-button-response","181","754312","0.0-3.0-1.0-1.0-0.0","59298c0b0b19ce0001202f22","B2","batch2","","1161.7999999970198","<p class=block-text> Let's answer a few questions <br>","0","tol_enter_quiz","","","","","","","","","","","","","","","","","","","","","","","","",""
"","","","","","html-button-response","182","759703","0.0-3.0-1.0-1.0-1.0","59298c0b0b19ce0001202f22","B2","batch2","","5390.0999999940395","<p class = block-text>True or False: You can only move the ball on top of a peg. <br></p>","0","tol_quiz","true","","","","","","","","","","","","","","","","","","","","","","","",""
"","","","","","html-button-response","183","761750","0.0-3.0-1.0-1.0-2.0","59298c0b0b19ce0001202f22","B2","batch2","","2046.2000000029802","<p class = block-text>Correct! You can only move the ball on top of a peg.</p>","0","tol_quiz_feedback","","","","","","","","","","","","","","","","","","","","","","","","",""
"","","","","","html-button-response","184","764363","0.0-3.0-1.0-1.0-3.0","59298c0b0b19ce0001202f22","B2","batch2","","2612","<p class = block-text>True or False: You should try to match your board with the target board with fewest moves possible. <br></p>","0","tol_quiz","true","","","","","","","","","","","","","","","","","","","","","","","",""
"","","","","","html-button-response","185","765064","0.0-3.0-1.0-1.0-4.0","59298c0b0b19ce0001202f22","B2","batch2","","700.7999999970198","<p class = block-text>Correct! </p>","0","tol_quiz_feedback","","","","","","","","","","","","","","","","","","","","","","","","",""
"","","","","","html-button-response","186","767118","0.0-3.0-2.0","59298c0b0b19ce0001202f22","B2","batch2","","2052.699999988079","<p class=block-text> Now that you've understood the game, let's practice a few easier examples before we start!<br> <br>","0","","","","","","","","","","","","","","","","","","","","","","","","","",""
"","","","","","single-stim-button","187","769758","0.0-3.0-3.0-0.0","59298c0b0b19ce0001202f22","B2","batch2","","2638","","","tol_practice","","","","","","","","","tol_peg_2","2638","2638","0","[[1,2,0],[0,0],[0]]","1","[[1,2,0],[0,0],[3]]","practice","2638","","","","","","","",""
"","","","","","single-stim-button","188","770601","0.0-3.0-3.0-1.0","59298c0b0b19ce0001202f22","B2","batch2","","843","","","tol_practice","","","","","","","","","tol_peg_3","843","843","0","[[1,2,0],[0,0],[3]]","1","[[1,2,0],[0,0],[3]]","practice","843","","","","","","","",""
"","","","","","poldrack-single-stim","189","771606","0.0-3.0-4.0","59298c0b0b19ce0001202f22","B2","batch2","","-1","","","tol_feedback","true","","","","","","","","","1000","1000","500","","","","","","-1","none","true","","0","","",""
"","","","","","single-stim-button","190","775521","0.0-3.0-5.0-0.0","59298c0b0b19ce0001202f22","B2","batch2","","3913","","","tol_practice","","","","","","","","","tol_peg_1","3913","3913","0","[[1,0,0],[3,0],[0]]","2","[[0,0,0],[3,1],[2]]","practice","3913","","","","","","","",""
"","","","","","single-stim-button","191","776641","0.0-3.0-5.0-1.0","59298c0b0b19ce0001202f22","B2","batch2","","1120","","","tol_practice","","","","","","","","","tol_peg_3","1120","1120","0","[[1,0,0],[3,0],[2]]","2","[[0,0,0],[3,1],[2]]","practice","1120","","","","","","","",""
"","","","","","single-stim-button","192","777459","0.0-3.0-5.1-0.1","59298c0b0b19ce0001202f22","B2","batch2","","817","","","tol_practice","","","","","","","","","tol_peg_1","817","817","0","[[0,0,0],[3,0],[2]]","3","[[0,0,0],[3,1],[2]]","practice","817","","","","","","","",""
"","","","","","single-stim-button","193","778060","0.0-3.0-5.1-1.1","59298c0b0b19ce0001202f22","B2","batch2","","601","","","tol_practice","","","","","","","","","tol_peg_2","601","601","0","[[0,0,0],[3,1],[2]]","3","[[0,0,0],[3,1],[2]]","practice","601","","","","","","","",""
"","","","","","poldrack-single-stim","194","779070","0.0-3.0-6.0","59298c0b0b19ce0001202f22","B2","batch2","","-1","","","tol_feedback","true","","","","","","","","","1000","1000","500","","","","","","-1","none","true","","0","","",""
"","","","","","single-stim-button","195","782720","0.0-3.0-7.0-0.0","59298c0b0b19ce0001202f22","B2","batch2","","3649","","","tol_practice","","","","","","","","","tol_peg_2","3649","3649","0","[[1,2,0],[0,0],[0]]","4","[[1,0,0],[2,0],[3]]","practice","3649","","","","","","","",""
"","","","","","single-stim-button","196","784295","0.0-3.0-7.0-1.0","59298c0b0b19ce0001202f22","B2","batch2","","1574","","","tol_practice","","","","","","","","","tol_peg_3","1574","1574","0","[[1,2,0],[0,0],[3]]","4","[[1,0,0],[2,0],[3]]","practice","1574","","","","","","","",""
"","","","","","single-stim-button","197","785063","0.0-3.0-7.1-0.1","59298c0b0b19ce0001202f22","B2","batch2","","766","","","tol_practice","","","","","","","","","tol_peg_1","766","766","0","[[1,0,0],[0,0],[3]]","5","[[1,0,0],[2,0],[3]]","practice","766","","","","","","","",""
"","","","","","single-stim-button","198","785632","0.0-3.0-7.1-1.1","59298c0b0b19ce0001202f22","B2","batch2","","568","","","tol_practice","","","","","","","","","tol_peg_2","568","568","0","[[1,0,0],[2,0],[3]]","5","[[1,0,0],[2,0],[3]]","practice","568","","","","","","","",""
"","","","","","poldrack-single-stim","199","786648","0.0-3.0-8.0","59298c0b0b19ce0001202f22","B2","batch2","","-1","","","tol_feedback","true","","","","","","","","","1000","1000","500","","","","","","-1","none","true","","0","","",""
"","","","","","html-button-response","200","788981","0.0-3.0-9.0","59298c0b0b19ce0001202f22","B2","batch2","","2331.2000000029802","<div class = centerbox><p class = center-block-text>Great job! You are done with practice trials<br>You are about to start official trials.<br> <br> Problem <strong>1</strong> out of 25 problems</p></div>","0","tol_instruction","","","","","","","","","","","","","","","","","","","","","","","","",""
"","","","","","single-stim-button","201","800568","0.0-3.0-10.0-0.0","59298c0b0b19ce0001202f22","B2","batch2","","10571","","","tol_tohand","","","","","","","","","tol_peg_1","10571","10571","0","[[1,0,0],[3,0],[0]]","1","[[1,3,0],[2,0],[0]]","0","0","","","","","","3","",""
"","","","","","single-stim-button","202","801710","0.0-3.0-10.0-1.0","59298c0b0b19ce0001202f22","B2","batch2","","1142","","","tol_toboard","","","","","","","","","tol_peg_3","1142","1142","0","[[1,0,0],[3,0],[2]]","1","[[1,3,0],[2,0],[0]]","0","0","","","","","","3","",""
"","","","","","single-stim-button","203","802357","0.0-3.0-10.1-0.1","59298c0b0b19ce0001202f22","B2","batch2","","646","","","tol_tohand","","","","","","","","","tol_peg_2","646","646","0","[[1,0,0],[0,0],[2]]","2","[[1,3,0],[2,0],[0]]","0","0","","","","","","3","",""
"","","","","","single-stim-button","204","803120","0.0-3.0-10.1-1.1","59298c0b0b19ce0001202f22","B2","batch2","","763","","","tol_toboard","","","","","","","","","tol_peg_1","763","763","0","[[1,3,0],[0,0],[2]]","2","[[1,3,0],[2,0],[0]]","0","0","","","","","","3","",""
"","","","","","single-stim-button","205","803951","0.0-3.0-10.2-0.2","59298c0b0b19ce0001202f22","B2","batch2","","830","","","tol_tohand","","","","","","","","","tol_peg_3","830","830","0","[[1,3,0],[0,0],[0]]","3","[[1,3,0],[2,0],[0]]","0","0","","","","","","3","",""
"","","","","","single-stim-button","206","804737","0.0-3.0-10.2-1.2","59298c0b0b19ce0001202f22","B2","batch2","","786","","","tol_toboard","","","","","","","","","tol_peg_2","786","786","0","[[1,3,0],[2,0],[0]]","3","[[1,3,0],[2,0],[0]]","0","0","","","","","","3","",""
"","","","","","poldrack-single-stim","207","805740","0.0-3.0-11.0","59298c0b0b19ce0001202f22","B2","batch2","","-1","","","tol_feedback","true","","","","","","","","","1000","1000","500","","","","","","-1","none","true","10571","12047","","",""
"","","","","","html-button-response","208","806956","0.0-3.0-12.0","59298c0b0b19ce0001202f22","B2","batch2","","1214.800000011921","<div class = centerbox><p class = center-block-text>problem <strong>2</strong> out of 25 problems</p></div>","0","tol_trial_num","","","","","","","","","","","","","","","","","","","","","","","","",""
"","","","","","single-stim-button","209","815947","0.0-3.0-13.0-0.0","59298c0b0b19ce0001202f22","B2","batch2","","8991","","","tol_tohand","","","","","","","","","tol_peg_1","8991","8991","0","[[1,0,0],[3,0],[0]]","1","[[2,1,3],[0,0],[0]]","1","0","","","","","","5","",""
"","","","","","single-stim-button","210","833565","0.0-3.0-13.0-1.0","59298c0b0b19ce0001202f22","B2","batch2","","17618","","","tol_toboard","","","","","","","","","tol_peg_1","17618","17618","0","[[1,2,0],[3,0],[0]]","1","[[2,1,3],[0,0],[0]]","1","0","","","","","","5","",""
"","","","","","single-stim-button","211","834505","0.0-3.0-13.1-0.1","59298c0b0b19ce0001202f22","B2","batch2","","939","","","tol_tohand","","","","","","","","","tol_peg_2","939","939","0","[[1,2,0],[0,0],[0]]","2","[[2,1,3],[0,0],[0]]","1","0","","","","","","5","",""
"","","","","","single-stim-button","212","835283","0.0-3.0-13.1-1.1","59298c0b0b19ce0001202f22","B2","batch2","","778","","","tol_toboard","","","","","","","","","tol_peg_3","778","778","0","[[1,2,0],[0,0],[3]]","2","[[2,1,3],[0,0],[0]]","1","0","","","","","","5","",""
"","","","","","single-stim-button","213","835918","0.0-3.0-13.2-0.2","59298c0b0b19ce0001202f22","B2","batch2","","634","","","tol_tohand","","","","","","","","","tol_peg_1","634","634","0","[[1,0,0],[0,0],[3]]","3","[[2,1,3],[0,0],[0]]","1","0","","","","","","5","",""
"","","","","","single-stim-button","214","837088","0.0-3.0-13.2-1.2","59298c0b0b19ce0001202f22","B2","batch2","","1169","","","tol_toboard","","","","","","","","","tol_peg_2","1169","1169","0","[[1,0,0],[2,0],[3]]","3","[[2,1,3],[0,0],[0]]","1","0","","","","","","5","",""
"","","","","","single-stim-button","215","837833","0.0-3.0-13.3-0.3","59298c0b0b19ce0001202f22","B2","batch2","","744","","","tol_tohand","","","","","","","","","tol_peg_1","744","744","0","[[0,0,0],[2,0],[3]]","4","[[2,1,3],[0,0],[0]]","1","0","","","","","","5","",""
"","","","","","single-stim-button","216","838678","0.0-3.0-13.3-1.3","59298c0b0b19ce0001202f22","B2","batch2","","845","","","tol_toboard","","","","","","","","","tol_peg_2","845","845","0","[[0,0,0],[2,1],[3]]","4","[[2,1,3],[0,0],[0]]","1","0","","","","","","5","",""
"","","","","","single-stim-button","217","839139","0.0-3.0-13.4-0.4","59298c0b0b19ce0001202f22","B2","batch2","","460","","","tol_tohand","","","","","","","","","tol_peg_3","460","460","0","[[0,0,0],[2,1],[0]]","5","[[2,1,3],[0,0],[0]]","1","0","","","","","","5","",""
"","","","","","single-stim-button","218","840639","0.0-3.0-13.4-1.4","59298c0b0b19ce0001202f22","B2","batch2","","1500","","","tol_toboard","","","","","","","","","tol_peg_3","1500","1500","0","[[0,0,0],[2,1],[3]]","5","[[2,1,3],[0,0],[0]]","1","0","","","","","","5","",""
"","","","","","single-stim-button","219","844596","0.0-3.0-13.5-0.5","59298c0b0b19ce0001202f22","B2","batch2","","3957","","","tol_tohand","","","","","","","","","tol_peg_3","3957","3957","0","[[0,0,0],[2,1],[0]]","6","[[2,1,3],[0,0],[0]]","1","0","","","","","","5","",""
"","","","","","single-stim-button","220","845437","0.0-3.0-13.5-1.5","59298c0b0b19ce0001202f22","B2","batch2","","839","","","tol_toboard","","","","","","","","","tol_peg_1","839","839","0","[[3,0,0],[2,1],[0]]","6","[[2,1,3],[0,0],[0]]","1","0","","","","","","5","",""
"","","","","","single-stim-button","221","845843","0.0-3.0-13.6-0.6","59298c0b0b19ce0001202f22","B2","batch2","","405","","","tol_tohand","","","","","","","","","tol_peg_2","405","405","0","[[3,0,0],[2,0],[0]]","7","[[2,1,3],[0,0],[0]]","1","0","","","","","","5","",""
"","","","","","single-stim-button","222","846503","0.0-3.0-13.6-1.6","59298c0b0b19ce0001202f22","B2","batch2","","660","","","tol_toboard","","","","","","","","","tol_peg_3","660","660","0","[[3,0,0],[2,0],[1]]","7","[[2,1,3],[0,0],[0]]","1","0","","","","","","5","",""
"","","","","","single-stim-button","223","850528","0.0-3.0-13.7-0.7","59298c0b0b19ce0001202f22","B2","batch2","","4025","","","tol_tohand","","","","","","","","","tol_peg_2","4025","4025","0","[[3,0,0],[0,0],[1]]","8","[[2,1,3],[0,0],[0]]","1","0","","","","","","5","",""
"","","","","","single-stim-button","224","851242","0.0-3.0-13.7-1.7","59298c0b0b19ce0001202f22","B2","batch2","","713","","","tol_toboard","","","","","","","","","tol_peg_1","713","713","0","[[3,2,0],[0,0],[1]]","8","[[2,1,3],[0,0],[0]]","1","0","","","","","","5","",""
"","","","","","single-stim-button","225","851698","0.0-3.0-13.8-0.8","59298c0b0b19ce0001202f22","B2","batch2","","455","","","tol_tohand","","","","","","","","","tol_peg_3","455","455","0","[[3,2,0],[0,0],[0]]","9","[[2,1,3],[0,0],[0]]","1","0","","","","","","5","",""
"","","","","","single-stim-button","226","852299","0.0-3.0-13.8-1.8","59298c0b0b19ce0001202f22","B2","batch2","","601","","","tol_toboard","","","","","","","","","tol_peg_2","601","601","0","[[3,2,0],[1,0],[0]]","9","[[2,1,3],[0,0],[0]]","1","0","","","","","","5","",""
"","","","","","single-stim-button","227","853250","0.0-3.0-13.9-0.9","59298c0b0b19ce0001202f22","B2","batch2","","949","","","tol_tohand","","","","","","","","","tol_peg_1","949","949","0","[[3,0,0],[1,0],[0]]","10","[[2,1,3],[0,0],[0]]","1","0","","","","","","5","",""
"","","","","","single-stim-button","228","854703","0.0-3.0-13.9-1.9","59298c0b0b19ce0001202f22","B2","batch2","","1452","","","tol_toboard","","","","","","","","","tol_peg_2","1452","1452","0","[[3,0,0],[1,2],[0]]","10","[[2,1,3],[0,0],[0]]","1","0","","","","","","5","",""
"","","","","","single-stim-button","229","855612","0.0-3.0-13.10-0.10","59298c0b0b19ce0001202f22","B2","batch2","","909","","","tol_tohand","","","","","","","","","tol_peg_1","909","909","0","[[0,0,0],[1,2],[0]]","11","[[2,1,3],[0,0],[0]]","1","0","","","","","","5","",""
"","","","","","single-stim-button","230","856392","0.0-3.0-13.10-1.10","59298c0b0b19ce0001202f22","B2","batch2","","780","","","tol_toboard","","","","","","","","","tol_peg_3","780","780","0","[[0,0,0],[1,2],[3]]","11","[[2,1,3],[0,0],[0]]","1","0","","","","","","5","",""
"","","","","","single-stim-button","231","856872","0.0-3.0-13.11-0.11","59298c0b0b19ce0001202f22","B2","batch2","","479","","","tol_tohand","","","","","","","","","tol_peg_2","479","479","0","[[0,0,0],[1,0],[3]]","12","[[2,1,3],[0,0],[0]]","1","0","","","","","","5","",""
"","","","","","single-stim-button","232","857615","0.0-3.0-13.11-1.11","59298c0b0b19ce0001202f22","B2","batch2","","742","","","tol_toboard","","","","","","","","","tol_peg_1","742","742","0","[[2,0,0],[1,0],[3]]","12","[[2,1,3],[0,0],[0]]","1","0","","","","","","5","",""
"","","","","","single-stim-button","233","858063","0.0-3.0-13.12-0.12","59298c0b0b19ce0001202f22","B2","batch2","","446","","","tol_tohand","","","","","","","","","tol_peg_2","446","446","0","[[2,0,0],[0,0],[3]]","13","[[2,1,3],[0,0],[0]]","1","0","","","","","","5","",""
"","","","","","single-stim-button","234","858766","0.0-3.0-13.12-1.12","59298c0b0b19ce0001202f22","B2","batch2","","703","","","tol_toboard","","","","","","","","","tol_peg_1","703","703","0","[[2,1,0],[0,0],[3]]","13","[[2,1,3],[0,0],[0]]","1","0","","","","","","5","",""
"","","","","","single-stim-button","235","859433","0.0-3.0-13.13-0.13","59298c0b0b19ce0001202f22","B2","batch2","","665","","","tol_tohand","","","","","","","","","tol_peg_3","665","665","0","[[2,1,0],[0,0],[0]]","14","[[2,1,3],[0,0],[0]]","1","0","","","","","","5","",""
"","","","","","single-stim-button","236","860021","0.0-3.0-13.13-1.13","59298c0b0b19ce0001202f22","B2","batch2","","588","","","tol_toboard","","","","","","","","","tol_peg_1","588","588","0","[[2,1,3],[0,0],[0]]","14","[[2,1,3],[0,0],[0]]","1","0","","","","","","5","",""
"","","","","","poldrack-single-stim","237","861033","0.0-3.0-14.0","59298c0b0b19ce0001202f22","B2","batch2","","-1","","","tol_feedback","true","","","","","","","","","1000","1000","500","","","","","","-1","none","true","8991","24058","","",""
"","","","","","html-button-response","238","862016","0.0-3.0-15.0","59298c0b0b19ce0001202f22","B2","batch2","","982.1000000089407","<div class = centerbox><p class = center-block-text>problem <strong>3</strong> out of 25 problems</p></div>","0","tol_trial_num","","","","","","","","","","","","","","","","","","","","","","","","",""
"","","","","","single-stim-button","239","878667","0.0-3.0-16.0-0.0","59298c0b0b19ce0001202f22","B2","batch2","","16650","","","tol_tohand","","","","","","","","","tol_peg_1","16650","16650","0","[[2,0,0],[0,0],[1]]","1","[[1,2,0],[3,0],[0]]","2","0","","","","","","4","",""
"","","","","","single-stim-button","240","879363","0.0-3.0-16.0-1.0","59298c0b0b19ce0001202f22","B2","batch2","","696","","","tol_toboard","","","","","","","","","tol_peg_2","696","696","0","[[2,0,0],[3,0],[1]]","1","[[1,2,0],[3,0],[0]]","2","0","","","","","","4","",""
"","","","","","single-stim-button","241","881277","0.0-3.0-16.1-0.1","59298c0b0b19ce0001202f22","B2","batch2","","1914","","","tol_tohand","","","","","","","","","tol_peg_1","1914","1914","0","[[0,0,0],[3,0],[1]]","2","[[1,2,0],[3,0],[0]]","2","0","","","","","","4","",""
"","","","","","single-stim-button","242","881977","0.0-3.0-16.1-1.1","59298c0b0b19ce0001202f22","B2","batch2","","700","","","tol_toboard","","","","","","","","","tol_peg_2","700","700","0","[[0,0,0],[3,2],[1]]","2","[[1,2,0],[3,0],[0]]","2","0","","","","","","4","",""
"","","","","","single-stim-button","243","882605","0.0-3.0-16.2-0.2","59298c0b0b19ce0001202f22","B2","batch2","","626","","","tol_tohand","","","","","","","","","tol_peg_3","626","626","0","[[0,0,0],[3,2],[0]]","3","[[1,2,0],[3,0],[0]]","2","0","","","","","","4","",""
"","","","","","single-stim-button","244","883591","0.0-3.0-16.2-1.2","59298c0b0b19ce0001202f22","B2","batch2","","985","","","tol_toboard","","","","","","","","","tol_peg_1","985","985","0","[[1,0,0],[3,2],[0]]","3","[[1,2,0],[3,0],[0]]","2","0","","","","","","4","",""
"","","","","","single-stim-button","245","884134","0.0-3.0-16.3-0.3","59298c0b0b19ce0001202f22","B2","batch2","","543","","","tol_tohand","","","","","","","","","tol_peg_2","543","543","0","[[1,0,0],[3,0],[0]]","4","[[1,2,0],[3,0],[0]]","2","0","","","","","","4","",""
"","","","","","single-stim-button","246","884904","0.0-3.0-16.3-1.3","59298c0b0b19ce0001202f22","B2","batch2","","768","","","tol_toboard","","","","","","","","","tol_peg_1","768","768","0","[[1,2,0],[3,0],[0]]","4","[[1,2,0],[3,0],[0]]","2","0","","","","","","4","",""
"","","","","","poldrack-single-stim","247","885910","0.0-3.0-17.0","59298c0b0b19ce0001202f22","B2","batch2","","-1","","","tol_feedback","true","","","","","","","","","1000","1000","500","","","","","","-1","none","true","16650","19733","","",""
"","","","","","html-button-response","248","886784","0.0-3.0-18.0","59298c0b0b19ce0001202f22","B2","batch2","","872","<div class = centerbox><p class = center-block-text>problem <strong>4</strong> out of 25 problems</p></div>","0","tol_trial_num","","","","","","","","","","","","","","","","","","","","","","","","",""
"","","","","","single-stim-button","249","892102","0.0-3.0-19.0-0.0","59298c0b0b19ce0001202f22","B2","batch2","","5318","","","tol_tohand","","","","","","","","","tol_peg_2","5318","5318","0","[[3,0,0],[2,0],[0]]","1","[[3,0,0],[1,0],[2]]","3","0","","","","","","3","",""
"","","","","","single-stim-button","250","892740","0.0-3.0-19.0-1.0","59298c0b0b19ce0001202f22","B2","batch2","","637","","","tol_toboard","","","","","","","","","tol_peg_1","637","637","0","[[3,1,0],[2,0],[0]]","1","[[3,0,0],[1,0],[2]]","3","0","","","","","","3","",""
"","","","","","single-stim-button","251","893256","0.0-3.0-19.1-0.1","59298c0b0b19ce0001202f22","B2","batch2","","515","","","tol_tohand","","","","","","","","","tol_peg_2","515","515","0","[[3,1,0],[0,0],[0]]","2","[[3,0,0],[1,0],[2]]","3","0","","","","","","3","",""
"","","","","","single-stim-button","252","893958","0.0-3.0-19.1-1.1","59298c0b0b19ce0001202f22","B2","batch2","","701","","","tol_toboard","","","","","","","","","tol_peg_3","701","701","0","[[3,1,0],[0,0],[2]]","2","[[3,0,0],[1,0],[2]]","3","0","","","","","","3","",""
"","","","","","single-stim-button","253","894628","0.0-3.0-19.2-0.2","59298c0b0b19ce0001202f22","B2","batch2","","670","","","tol_tohand","","","","","","","","","tol_peg_1","670","670","0","[[3,0,0],[0,0],[2]]","3","[[3,0,0],[1,0],[2]]","3","0","","","","","","3","",""
"","","","","","single-stim-button","254","895402","0.0-3.0-19.2-1.2","59298c0b0b19ce0001202f22","B2","batch2","","774","","","tol_toboard","","","","","","","","","tol_peg_2","774","774","0","[[3,0,0],[1,0],[2]]","3","[[3,0,0],[1,0],[2]]","3","0","","","","","","3","",""
"","","","","","poldrack-single-stim","255","896409","0.0-3.0-20.0","59298c0b0b19ce0001202f22","B2","batch2","","-1","","","tol_feedback","true","","","","","","","","","1000","1000","500","","","","","","-1","none","true","5318","6503","","",""
"","","","","","html-button-response","256","897361","0.0-3.0-21.0","59298c0b0b19ce0001202f22","B2","batch2","","951.2000000029802","<div class = centerbox><p class = center-block-text>problem <strong>5</strong> out of 25 problems</p></div>","0","tol_trial_num","","","","","","","","","","","","","","","","","","","","","","","","",""
"","","","","","single-stim-button","257","928731","0.0-3.0-22.0-0.0","59298c0b0b19ce0001202f22","B2","batch2","","31369","","","tol_tohand","","","","","","","","","tol_peg_1","31369","31369","0","[[0,0,0],[2,0],[3]]","1","[[0,0,0],[1,2],[3]]","4","0","","","","","","7","",""
"","","","","","single-stim-button","258","932062","0.0-3.0-22.0-1.0","59298c0b0b19ce0001202f22","B2","batch2","","3330","","","tol_toboard","","","","","","","","","tol_peg_2","3330","3330","0","[[0,0,0],[2,1],[3]]","1","[[0,0,0],[1,2],[3]]","4","0","","","","","","7","",""
"","","","","","single-stim-button","259","932609","0.0-3.0-22.1-0.1","59298c0b0b19ce0001202f22","B2","batch2","","547","","","tol_tohand","","","","","","","","","tol_peg_3","547","547","0","[[0,0,0],[2,1],[0]]","2","[[0,0,0],[1,2],[3]]","4","0","","","","","","7","",""
"","","","","","single-stim-button","260","933343","0.0-3.0-22.1-1.1","59298c0b0b19ce0001202f22","B2","batch2","","732","","","tol_toboard","","","","","","","","","tol_peg_1","732","732","0","[[3,0,0],[2,1],[0]]","2","[[0,0,0],[1,2],[3]]","4","0","","","","","","7","",""
"","","","","","single-stim-button","261","934463","0.0-3.0-22.2-0.2","59298c0b0b19ce0001202f22","B2","batch2","","1120","","","tol_tohand","","","","","","","","","tol_peg_2","1120","1120","0","[[3,0,0],[2,0],[0]]","3","[[0,0,0],[1,2],[3]]","4","0","","","","","","7","",""
"","","","","","single-stim-button","262","936676","0.0-3.0-22.2-1.2","59298c0b0b19ce0001202f22","B2","batch2","","2212","","","tol_toboard","","","","","","","","","tol_peg_3","2212","2212","0","[[3,0,0],[2,0],[1]]","3","[[0,0,0],[1,2],[3]]","4","0","","","","","","7","",""
"","","","","","single-stim-button","263","937221","0.0-3.0-22.3-0.3","59298c0b0b19ce0001202f22","B2","batch2","","545","","","tol_tohand","","","","","","","","","tol_peg_2","545","545","0","[[3,0,0],[0,0],[1]]","4","[[0,0,0],[1,2],[3]]","4","0","","","","","","7","",""
"","","","","","single-stim-button","264","939128","0.0-3.0-22.3-1.3","59298c0b0b19ce0001202f22","B2","batch2","","1906","","","tol_toboard","","","","","","","","","tol_peg_1","1906","1906","0","[[3,2,0],[0,0],[1]]","4","[[0,0,0],[1,2],[3]]","4","0","","","","","","7","",""
"","","","","","single-stim-button","265","939734","0.0-3.0-22.4-0.4","59298c0b0b19ce0001202f22","B2","batch2","","605","","","tol_tohand","","","","","","","","","tol_peg_3","605","605","0","[[3,2,0],[0,0],[0]]","5","[[0,0,0],[1,2],[3]]","4","0","","","","","","7","",""
"","","","","","single-stim-button","266","940347","0.0-3.0-22.4-1.4","59298c0b0b19ce0001202f22","B2","batch2","","613","","","tol_toboard","","","","","","","","","tol_peg_2","613","613","0","[[3,2,0],[1,0],[0]]","5","[[0,0,0],[1,2],[3]]","4","0","","","","","","7","",""
"","","","","","single-stim-button","267","940881","0.0-3.0-22.5-0.5","59298c0b0b19ce0001202f22","B2","batch2","","534","","","tol_tohand","","","","","","","","","tol_peg_1","534","534","0","[[3,0,0],[1,0],[0]]","6","[[0,0,0],[1,2],[3]]","4","0","","","","","","7","",""
"","","","","","single-stim-button","268","941558","0.0-3.0-22.5-1.5","59298c0b0b19ce0001202f22","B2","batch2","","677","","","tol_toboard","","","","","","","","","tol_peg_2","677","677","0","[[3,0,0],[1,2],[0]]","6","[[0,0,0],[1,2],[3]]","4","0","","","","","","7","",""
"","","","","","single-stim-button","269","942077","0.0-3.0-22.6-0.6","59298c0b0b19ce0001202f22","B2","batch2","","517","","","tol_tohand","","","","","","","","","tol_peg_1","517","517","0","[[0,0,0],[1,2],[0]]","7","[[0,0,0],[1,2],[3]]","4","0","","","","","","7","",""
"","","","","","single-stim-button","270","942808","0.0-3.0-22.6-1.6","59298c0b0b19ce0001202f22","B2","batch2","","731","","","tol_toboard","","","","","","","","","tol_peg_3","731","731","0","[[0,0,0],[1,2],[3]]","7","[[0,0,0],[1,2],[3]]","4","0","","","","","","7","",""
"","","","","","poldrack-single-stim","271","943825","0.0-3.0-23.0","59298c0b0b19ce0001202f22","B2","batch2","","-1","","","tol_feedback","true","","","","","","","","","1000","1000","500","","","","","","-1","none","true","31369","35237","","",""
"","","","","","html-button-response","272","944718","0.0-3.0-24.0","59298c0b0b19ce0001202f22","B2","batch2","","891.7000000029802","<div class = centerbox><p class = center-block-text>problem <strong>6</strong> out of 25 problems</p></div>","0","tol_trial_num","","","","","","","","","","","","","","","","","","","","","","","","",""
"","","","","","single-stim-button","273","983759","0.0-3.0-25.0-0.0","59298c0b0b19ce0001202f22","B2","batch2","","39041","","","tol_tohand","","","","","","","","","tol_peg_2","39041","39041","0","[[0,0,0],[1,0],[3]]","1","[[1,0,0],[2,3],[0]]","5","0","","","","","","6","",""
"","","","","","single-stim-button","274","987504","0.0-3.0-25.0-1.0","59298c0b0b19ce0001202f22","B2","batch2","","3744","","","tol_toboard","","","","","","","","","tol_peg_1","3744","3744","0","[[2,0,0],[1,0],[3]]","1","[[1,0,0],[2,3],[0]]","5","0","","","","","","6","",""
"","","","","","single-stim-button","275","992622","0.0-3.0-25.1-0.1","59298c0b0b19ce0001202f22","B2","batch2","","5117","","","tol_tohand","","","","","","","","","tol_peg_3","5117","5117","0","[[2,0,0],[1,0],[0]]","2","[[1,0,0],[2,3],[0]]","5","0","","","","","","6","",""
"","","","","","single-stim-button","276","996357","0.0-3.0-25.1-1.1","59298c0b0b19ce0001202f22","B2","batch2","","3735","","","tol_toboard","","","","","","","","","tol_peg_2","3735","3735","0","[[2,0,0],[1,3],[0]]","2","[[1,0,0],[2,3],[0]]","5","0","","","","","","6","",""
"","","","","","single-stim-button","277","997995","0.0-3.0-25.2-0.2","59298c0b0b19ce0001202f22","B2","batch2","","1638","","","tol_tohand","","","","","","","","","tol_peg_1","1638","1638","0","[[0,0,0],[1,3],[0]]","3","[[1,0,0],[2,3],[0]]","5","0","","","","","","6","",""
"","","","","","single-stim-button","278","998957","0.0-3.0-25.2-1.2","59298c0b0b19ce0001202f22","B2","batch2","","961","","","tol_toboard","","","","","","","","","tol_peg_3","961","961","0","[[0,0,0],[1,3],[2]]","3","[[1,0,0],[2,3],[0]]","5","0","","","","","","6","",""
"","","","","","single-stim-button","279","999451","0.0-3.0-25.3-0.3","59298c0b0b19ce0001202f22","B2","batch2","","494","","","tol_tohand","","","","","","","","","tol_peg_2","494","494","0","[[0,0,0],[1,0],[2]]","4","[[1,0,0],[2,3],[0]]","5","0","","","","","","6","",""
"","","","","","single-stim-button","280","1000106","0.0-3.0-25.3-1.3","59298c0b0b19ce0001202f22","B2","batch2","","653","","","tol_toboard","","","","","","","","","tol_peg_1","653","653","0","[[3,0,0],[1,0],[2]]","4","[[1,0,0],[2,3],[0]]","5","0","","","","","","6","",""
"","","","","","single-stim-button","281","1001661","0.0-3.0-25.4-0.4","59298c0b0b19ce0001202f22","B2","batch2","","1555","","","tol_tohand","","","","","","","","","tol_peg_2","1555","1555","0","[[3,0,0],[0,0],[2]]","5","[[1,0,0],[2,3],[0]]","5","0","","","","","","6","",""
"","","","","","single-stim-button","282","1002884","0.0-3.0-25.4-1.4","59298c0b0b19ce0001202f22","B2","batch2","","1223","","","tol_toboard","","","","","","","","","tol_peg_1","1223","1223","0","[[3,1,0],[0,0],[2]]","5","[[1,0,0],[2,3],[0]]","5","0","","","","","","6","",""
"","","","","","single-stim-button","283","1003389","0.0-3.0-25.5-0.5","59298c0b0b19ce0001202f22","B2","batch2","","505","","","tol_tohand","","","","","","","","","tol_peg_3","505","505","0","[[3,1,0],[0,0],[0]]","6","[[1,0,0],[2,3],[0]]","5","0","","","","","","6","",""
"","","","","","single-stim-button","284","1004013","0.0-3.0-25.5-1.5","59298c0b0b19ce0001202f22","B2","batch2","","624","","","tol_toboard","","","","","","","","","tol_peg_2","624","624","0","[[3,1,0],[2,0],[0]]","6","[[1,0,0],[2,3],[0]]","5","0","","","","","","6","",""
"","","","","","single-stim-button","285","1004535","0.0-3.0-25.6-0.6","59298c0b0b19ce0001202f22","B2","batch2","","522","","","tol_tohand","","","","","","","","","tol_peg_1","522","522","0","[[3,0,0],[2,0],[0]]","7","[[1,0,0],[2,3],[0]]","5","0","","","","","","6","",""
"","","","","","single-stim-button","286","1005388","0.0-3.0-25.6-1.6","59298c0b0b19ce0001202f22","B2","batch2","","853","","","tol_toboard","","","","","","","","","tol_peg_3","853","853","0","[[3,0,0],[2,0],[1]]","7","[[1,0,0],[2,3],[0]]","5","0","","","","","","6","",""
"","","","","","single-stim-button","287","1006014","0.0-3.0-25.7-0.7","59298c0b0b19ce0001202f22","B2","batch2","","626","","","tol_tohand","","","","","","","","","tol_peg_1","626","626","0","[[0,0,0],[2,0],[1]]","8","[[1,0,0],[2,3],[0]]","5","0","","","","","","6","",""
"","","","","","single-stim-button","288","1006535","0.0-3.0-25.7-1.7","59298c0b0b19ce0001202f22","B2","batch2","","520","","","tol_toboard","","","","","","","","","tol_peg_2","520","520","0","[[0,0,0],[2,3],[1]]","8","[[1,0,0],[2,3],[0]]","5","0","","","","","","6","",""
"","","","","","single-stim-button","289","1007089","0.0-3.0-25.8-0.8","59298c0b0b19ce0001202f22","B2","batch2","","554","","","tol_tohand","","","","","","","","","tol_peg_3","554","554","0","[[0,0,0],[2,3],[0]]","9","[[1,0,0],[2,3],[0]]","5","0","","","","","","6","",""
"","","","","","single-stim-button","290","1007806","0.0-3.0-25.8-1.8","59298c0b0b19ce0001202f22","B2","batch2","","716","","","tol_toboard","","","","","","","","","tol_peg_1","716","716","0","[[1,0,0],[2,3],[0]]","9","[[1,0,0],[2,3],[0]]","5","0","","","","","","6","",""
"","","","","","poldrack-single-stim","291","1008808","0.0-3.0-26.0","59298c0b0b19ce0001202f22","B2","batch2","","-1","","","tol_feedback","true","","","","","","","","","1000","1000","500","","","","","","-1","none","true","39041","50052","","",""
"","","","","","html-button-response","292","1009531","0.0-3.0-27.0","59298c0b0b19ce0001202f22","B2","batch2","","721.2000000029802","<div class = centerbox><p class = center-block-text>problem <strong>7</strong> out of 25 problems</p></div>","0","tol_trial_num","","","","","","","","","","","","","","","","","","","","","","","","",""
"","","","","","single-stim-button","293","1018508","0.0-3.0-28.0-0.0","59298c0b0b19ce0001202f22","B2","batch2","","8977","","","tol_tohand","","","","","","","","","tol_peg_1","8977","8977","0","[[2,0,0],[0,0],[3]]","1","[[1,2,0],[3,0],[0]]","6","0","","","","","","5","",""
"","","","","","single-stim-button","294","1019385","0.0-3.0-28.0-1.0","59298c0b0b19ce0001202f22","B2","batch2","","875","","","tol_toboard","","","","","","","","","tol_peg_2","875","875","0","[[2,0,0],[1,0],[3]]","1","[[1,2,0],[3,0],[0]]","6","0","","","","","","5","",""
"","","","","","single-stim-button","295","1019863","0.0-3.0-28.1-0.1","59298c0b0b19ce0001202f22","B2","batch2","","477","","","tol_tohand","","","","","","","","","tol_peg_1","477","477","0","[[0,0,0],[1,0],[3]]","2","[[1,2,0],[3,0],[0]]","6","0","","","","","","5","",""
"","","","","","single-stim-button","296","1020619","0.0-3.0-28.1-1.1","59298c0b0b19ce0001202f22","B2","batch2","","755","","","tol_toboard","","","","","","","","","tol_peg_2","755","755","0","[[0,0,0],[1,2],[3]]","2","[[1,2,0],[3,0],[0]]","6","0","","","","","","5","",""
"","","","","","single-stim-button","297","1021851","0.0-3.0-28.2-0.2","59298c0b0b19ce0001202f22","B2","batch2","","1232","","","tol_tohand","","","","","","","","","tol_peg_3","1232","1232","0","[[0,0,0],[1,2],[0]]","3","[[1,2,0],[3,0],[0]]","6","0","","","","","","5","",""
"","","","","","single-stim-button","298","1024917","0.0-3.0-28.2-1.2","59298c0b0b19ce0001202f22","B2","batch2","","3066","","","tol_toboard","","","","","","","","","tol_peg_1","3066","3066","0","[[3,0,0],[1,2],[0]]","3","[[1,2,0],[3,0],[0]]","6","0","","","","","","5","",""
"","","","","","single-stim-button","299","1026604","0.0-3.0-28.3-0.3","59298c0b0b19ce0001202f22","B2","batch2","","1687","","","tol_tohand","","","","","","","","","tol_peg_2","1687","1687","0","[[3,0,0],[1,0],[0]]","4","[[1,2,0],[3,0],[0]]","6","0","","","","","","5","",""
"","","","","","single-stim-button","300","1028877","0.0-3.0-28.3-1.3","59298c0b0b19ce0001202f22","B2","batch2","","2271","","","tol_toboard","","","","","","","","","tol_peg_1","2271","2271","0","[[3,2,0],[1,0],[0]]","4","[[1,2,0],[3,0],[0]]","6","0","","","","","","5","",""
"","","","","","single-stim-button","301","1029569","0.0-3.0-28.4-0.4","59298c0b0b19ce0001202f22","B2","batch2","","692","","","tol_tohand","","","","","","","","","tol_peg_2","692","692","0","[[3,2,0],[0,0],[0]]","5","[[1,2,0],[3,0],[0]]","6","0","","","","","","5","",""
"","","","","","single-stim-button","302","1030192","0.0-3.0-28.4-1.4","59298c0b0b19ce0001202f22","B2","batch2","","621","","","tol_toboard","","","","","","","","","tol_peg_3","621","621","0","[[3,2,0],[0,0],[1]]","5","[[1,2,0],[3,0],[0]]","6","0","","","","","","5","",""
"","","","","","single-stim-button","303","1030744","0.0-3.0-28.5-0.5","59298c0b0b19ce0001202f22","B2","batch2","","552","","","tol_tohand","","","","","","","","","tol_peg_1","552","552","0","[[3,0,0],[0,0],[1]]","6","[[1,2,0],[3,0],[0]]","6","0","","","","","","5","",""
"","","","","","single-stim-button","304","1031410","0.0-3.0-28.5-1.5","59298c0b0b19ce0001202f22","B2","batch2","","665","","","tol_toboard","","","","","","","","","tol_peg_2","665","665","0","[[3,0,0],[2,0],[1]]","6","[[1,2,0],[3,0],[0]]","6","0","","","","","","5","",""
"","","","","","single-stim-button","305","1032416","0.0-3.0-28.6-0.6","59298c0b0b19ce0001202f22","B2","batch2","","1006","","","tol_tohand","","","","","","","","","tol_peg_1","1006","1006","0","[[0,0,0],[2,0],[1]]","7","[[1,2,0],[3,0],[0]]","6","0","","","","","","5","",""
"","","","","","single-stim-button","306","1034159","0.0-3.0-28.6-1.6","59298c0b0b19ce0001202f22","B2","batch2","","1743","","","tol_toboard","","","","","","","","","tol_peg_2","1743","1743","0","[[0,0,0],[2,3],[1]]","7","[[1,2,0],[3,0],[0]]","6","0","","","","","","5","",""
"","","","","","single-stim-button","307","1034903","0.0-3.0-28.7-0.7","59298c0b0b19ce0001202f22","B2","batch2","","743","","","tol_tohand","","","","","","","","","tol_peg_3","743","743","0","[[0,0,0],[2,3],[0]]","8","[[1,2,0],[3,0],[0]]","6","0","","","","","","5","",""
"","","","","","single-stim-button","308","1035671","0.0-3.0-28.7-1.7","59298c0b0b19ce0001202f22","B2","batch2","","768","","","tol_toboard","","","","","","","","","tol_peg_1","768","768","0","[[1,0,0],[2,3],[0]]","8","[[1,2,0],[3,0],[0]]","6","0","","","","","","5","",""
"","","","","","single-stim-button","309","1036119","0.0-3.0-28.8-0.8","59298c0b0b19ce0001202f22","B2","batch2","","447","","","tol_tohand","","","","","","","","","tol_peg_2","447","447","0","[[1,0,0],[2,0],[0]]","9","[[1,2,0],[3,0],[0]]","6","0","","","","","","5","",""
"","","","","","single-stim-button","310","1036740","0.0-3.0-28.8-1.8","59298c0b0b19ce0001202f22","B2","batch2","","620","","","tol_toboard","","","","","","","","","tol_peg_3","620","620","0","[[1,0,0],[2,0],[3]]","9","[[1,2,0],[3,0],[0]]","6","0","","","","","","5","",""
"","","","","","single-stim-button","311","1037111","0.0-3.0-28.9-0.9","59298c0b0b19ce0001202f22","B2","batch2","","371","","","tol_tohand","","","","","","","","","tol_peg_2","371","371","0","[[1,0,0],[0,0],[3]]","10","[[1,2,0],[3,0],[0]]","6","0","","","","","","5","",""
"","","","","","single-stim-button","312","1037628","0.0-3.0-28.9-1.9","59298c0b0b19ce0001202f22","B2","batch2","","516","","","tol_toboard","","","","","","","","","tol_peg_1","516","516","0","[[1,2,0],[0,0],[3]]","10","[[1,2,0],[3,0],[0]]","6","0","","","","","","5","",""
"","","","","","single-stim-button","313","1038156","0.0-3.0-28.10-0.10","59298c0b0b19ce0001202f22","B2","batch2","","527","","","tol_tohand","","","","","","","","","tol_peg_3","527","527","0","[[1,2,0],[0,0],[0]]","11","[[1,2,0],[3,0],[0]]","6","0","","","","","","5","",""
"","","","","","single-stim-button","314","1038716","0.0-3.0-28.10-1.10","59298c0b0b19ce0001202f22","B2","batch2","","560","","","tol_toboard","","","","","","","","","tol_peg_2","560","560","0","[[1,2,0],[3,0],[0]]","11","[[1,2,0],[3,0],[0]]","6","0","","","","","","5","",""
"","","","","","poldrack-single-stim","315","1039724","0.0-3.0-29.0","59298c0b0b19ce0001202f22","B2","batch2","","-1","","","tol_feedback","true","","","","","","","","","1000","1000","500","","","","","","-1","none","true","8977","16711","","",""
"","","","","","html-button-response","316","1040459","0.0-3.0-30.0","59298c0b0b19ce0001202f22","B2","batch2","","733.3999999910593","<div class = centerbox><p class = center-block-text>problem <strong>8</strong> out of 25 problems</p></div>","0","tol_trial_num","","","","","","","","","","","","","","","","","","","","","","","","",""
"","","","","","single-stim-button","317","1045083","0.0-3.0-31.0-0.0","59298c0b0b19ce0001202f22","B2","batch2","","4624","","","tol_tohand","","","","","","","","","tol_peg_3","4624","4624","0","[[0,0,0],[2,3],[0]]","1","[[1,2,0],[3,0],[0]]","7","0","","","","","","4","",""
"","","","","","single-stim-button","318","1046149","0.0-3.0-31.0-1.0","59298c0b0b19ce0001202f22","B2","batch2","","1065","","","tol_toboard","","","","","","","","","tol_peg_1","1065","1065","0","[[1,0,0],[2,3],[0]]","1","[[1,2,0],[3,0],[0]]","7","0","","","","","","4","",""
"","","","","","single-stim-button","319","1046558","0.0-3.0-31.1-0.1","59298c0b0b19ce0001202f22","B2","batch2","","409","","","tol_tohand","","","","","","","","","tol_peg_2","409","409","0","[[1,0,0],[2,0],[0]]","2","[[1,2,0],[3,0],[0]]","7","0","","","","","","4","",""
"","","","","","single-stim-button","320","1047179","0.0-3.0-31.1-1.1","59298c0b0b19ce0001202f22","B2","batch2","","620","","","tol_toboard","","","","","","","","","tol_peg_3","620","620","0","[[1,0,0],[2,0],[3]]","2","[[1,2,0],[3,0],[0]]","7","0","","","","","","4","",""
"","","","","","single-stim-button","321","1047610","0.0-3.0-31.2-0.2","59298c0b0b19ce0001202f22","B2","batch2","","431","","","tol_tohand","","","","","","","","","tol_peg_2","431","431","0","[[1,0,0],[0,0],[3]]","3","[[1,2,0],[3,0],[0]]","7","0","","","","","","4","",""
"","","","","","single-stim-button","322","1048176","0.0-3.0-31.2-1.2","59298c0b0b19ce0001202f22","B2","batch2","","565","","","tol_toboard","","","","","","","","","tol_peg_1","565","565","0","[[1,2,0],[0,0],[3]]","3","[[1,2,0],[3,0],[0]]","7","0","","","","","","4","",""
"","","","","","single-stim-button","323","1048703","0.0-3.0-31.3-0.3","59298c0b0b19ce0001202f22","B2","batch2","","527","","","tol_tohand","","","","","","","","","tol_peg_3","527","527","0","[[1,2,0],[0,0],[0]]","4","[[1,2,0],[3,0],[0]]","7","0","","","","","","4","",""
"","","","","","single-stim-button","324","1049224","0.0-3.0-31.3-1.3","59298c0b0b19ce0001202f22","B2","batch2","","520","","","tol_toboard","","","","","","","","","tol_peg_2","520","520","0","[[1,2,0],[3,0],[0]]","4","[[1,2,0],[3,0],[0]]","7","0","","","","","","4","",""
"","","","","","poldrack-single-stim","325","1050226","0.0-3.0-32.0","59298c0b0b19ce0001202f22","B2","batch2","","-1","","","tol_feedback","true","","","","","","","","","1000","1000","500","","","","","","-1","none","true","4624","5991","","",""
"","","","","","html-button-response","326","1051074","0.0-3.0-33.0","59298c0b0b19ce0001202f22","B2","batch2","","847.0999999940395","<div class = centerbox><p class = center-block-text>problem <strong>9</strong> out of 25 problems</p></div>","0","tol_trial_num","","","","","","","","","","","","","","","","","","","","","","","","",""
"","","","","","single-stim-button","327","1071907","0.0-3.0-34.0-0.0","59298c0b0b19ce0001202f22","B2","batch2","","20832","","","tol_tohand","","","","","","","","","tol_peg_1","20832","20832","0","[[3,0,0],[0,0],[1]]","1","[[2,1,0],[3,0],[0]]","8","0","","","","","","6","",""
"","","","","","single-stim-button","328","1076760","0.0-3.0-34.0-1.0","59298c0b0b19ce0001202f22","B2","batch2","","4852","","","tol_toboard","","","","","","","","","tol_peg_1","4852","4852","0","[[3,2,0],[0,0],[1]]","1","[[2,1,0],[3,0],[0]]","8","0","","","","","","6","",""
"","","","","","single-stim-button","329","1082407","0.0-3.0-34.1-0.1","59298c0b0b19ce0001202f22","B2","batch2","","5647","","","tol_tohand","","","","","","","","","tol_peg_3","5647","5647","0","[[3,2,0],[0,0],[0]]","2","[[2,1,0],[3,0],[0]]","8","0","","","","","","6","",""
"","","","","","single-stim-button","330","1083084","0.0-3.0-34.1-1.1","59298c0b0b19ce0001202f22","B2","batch2","","676","","","tol_toboard","","","","","","","","","tol_peg_2","676","676","0","[[3,2,0],[1,0],[0]]","2","[[2,1,0],[3,0],[0]]","8","0","","","","","","6","",""
"","","","","","single-stim-button","331","1083563","0.0-3.0-34.2-0.2","59298c0b0b19ce0001202f22","B2","batch2","","478","","","tol_tohand","","","","","","","","","tol_peg_1","478","478","0","[[3,0,0],[1,0],[0]]","3","[[2,1,0],[3,0],[0]]","8","0","","","","","","6","",""
"","","","","","single-stim-button","332","1084182","0.0-3.0-34.2-1.2","59298c0b0b19ce0001202f22","B2","batch2","","618","","","tol_toboard","","","","","","","","","tol_peg_2","618","618","0","[[3,0,0],[1,2],[0]]","3","[[2,1,0],[3,0],[0]]","8","0","","","","","","6","",""
"","","","","","single-stim-button","333","1084651","0.0-3.0-34.3-0.3","59298c0b0b19ce0001202f22","B2","batch2","","468","","","tol_tohand","","","","","","","","","tol_peg_1","468","468","0","[[0,0,0],[1,2],[0]]","4","[[2,1,0],[3,0],[0]]","8","0","","","","","","6","",""
"","","","","","single-stim-button","334","1085235","0.0-3.0-34.3-1.3","59298c0b0b19ce0001202f22","B2","batch2","","582","","","tol_toboard","","","","","","","","","tol_peg_3","582","582","0","[[0,0,0],[1,2],[3]]","4","[[2,1,0],[3,0],[0]]","8","0","","","","","","6","",""
"","","","","","single-stim-button","335","1085678","0.0-3.0-34.4-0.4","59298c0b0b19ce0001202f22","B2","batch2","","443","","","tol_tohand","","","","","","","","","tol_peg_2","443","443","0","[[0,0,0],[1,0],[3]]","5","[[2,1,0],[3,0],[0]]","8","0","","","","","","6","",""
"","","","","","single-stim-button","336","1086222","0.0-3.0-34.4-1.4","59298c0b0b19ce0001202f22","B2","batch2","","543","","","tol_toboard","","","","","","","","","tol_peg_1","543","543","0","[[2,0,0],[1,0],[3]]","5","[[2,1,0],[3,0],[0]]","8","0","","","","","","6","",""
"","","","","","single-stim-button","337","1087135","0.0-3.0-34.5-0.5","59298c0b0b19ce0001202f22","B2","batch2","","912","","","tol_tohand","","","","","","","","","tol_peg_2","912","912","0","[[2,0,0],[0,0],[3]]","6","[[2,1,0],[3,0],[0]]","8","0","","","","","","6","",""
"","","","","","single-stim-button","338","1087561","0.0-3.0-34.5-1.5","59298c0b0b19ce0001202f22","B2","batch2","","425","","","tol_toboard","","","","","","","","","tol_peg_1","425","425","0","[[2,1,0],[0,0],[3]]","6","[[2,1,0],[3,0],[0]]","8","0","","","","","","6","",""
"","","","","","single-stim-button","339","1088157","0.0-3.0-34.6-0.6","59298c0b0b19ce0001202f22","B2","batch2","","595","","","tol_tohand","","","","","","","","","tol_peg_3","595","595","0","[[2,1,0],[0,0],[0]]","7","[[2,1,0],[3,0],[0]]","8","0","","","","","","6","",""
"","","","","","single-stim-button","340","1088720","0.0-3.0-34.6-1.6","59298c0b0b19ce0001202f22","B2","batch2","","563","","","tol_toboard","","","","","","","","","tol_peg_2","563","563","0","[[2,1,0],[3,0],[0]]","7","[[2,1,0],[3,0],[0]]","8","0","","","","","","6","",""
"","","","","","poldrack-single-stim","341","1089727","0.0-3.0-35.0","59298c0b0b19ce0001202f22","B2","batch2","","-1","","","tol_feedback","true","","","","","","","","","1000","1000","500","","","","","","-1","none","true","20832","29375","","",""
"","","","","","html-button-response","342","1090441","0.0-3.0-36.0","59298c0b0b19ce0001202f22","B2","batch2","","712.7000000029802","<div class = centerbox><p class = center-block-text>problem <strong>10</strong> out of 25 problems</p></div>","0","tol_trial_num","","","","","","","","","","","","","","","","","","","","","","","","",""
"","","","","","single-stim-button","343","1093560","0.0-3.0-37.0-0.0","59298c0b0b19ce0001202f22","B2","batch2","","3118","","","tol_tohand","","","","","","","","","tol_peg_3","3118","3118","0","[[3,0,0],[1,0],[0]]","1","[[3,0,0],[2,1],[0]]","9","0","","","","","","3","",""
"","","","","","single-stim-button","344","1094108","0.0-3.0-37.0-1.0","59298c0b0b19ce0001202f22","B2","batch2","","547","","","tol_toboard","","","","","","","","","tol_peg_2","547","547","0","[[3,0,0],[1,2],[0]]","1","[[3,0,0],[2,1],[0]]","9","0","","","","","","3","",""
"","","","","","single-stim-button","345","1096114","0.0-3.0-37.1-0.1","59298c0b0b19ce0001202f22","B2","batch2","","2005","","","tol_tohand","","","","","","","","","tol_peg_2","2005","2005","0","[[3,0,0],[1,0],[0]]","2","[[3,0,0],[2,1],[0]]","9","0","","","","","","3","",""
"","","","","","single-stim-button","346","1098760","0.0-3.0-37.1-1.1","59298c0b0b19ce0001202f22","B2","batch2","","2645","","","tol_toboard","","","","","","","","","tol_peg_1","2645","2645","0","[[3,2,0],[1,0],[0]]","2","[[3,0,0],[2,1],[0]]","9","0","","","","","","3","",""
"","","","","","single-stim-button","347","1099223","0.0-3.0-37.2-0.2","59298c0b0b19ce0001202f22","B2","batch2","","463","","","tol_tohand","","","","","","","","","tol_peg_2","463","463","0","[[3,2,0],[0,0],[0]]","3","[[3,0,0],[2,1],[0]]","9","0","","","","","","3","",""
