"success","timeout","failed_images","failed_audio","failed_video","trial_type","trial_index","time_elapsed","internal_node_id","subject_id","study_id","session_id","view_history","rt","stimulus","response","task","correct","answer","item","fiar_detect_rt","fiar_detect_correct","total_correct_fiar_detect","post_trial_gap","choices","mouse_click","stim_duration","block_duration","timing_post_trial","current_position","tol_num_moves_made","tol_target","tol_problem_id","tol_rt","key_press","possible_responses","tol_correct","preplanning","tol_rt_per_trial","tol_min_moves","spm_correct","spm_rt"
"true","false","[]","[]","[]","preload","0","10220","0.0-0.0","596c36966956b40001c59d4e","A3","batch1","","","","","","","","","","","","","","","","","","","","","","","","","","","","","",""
"true","","","","","fullscreen","1","52398","0.0-1.0-0.0","596c36966956b40001c59d4e","A3","batch1","","","","","","","","","","","","","","","","","","","","","","","","","","","","","",""
"true","","","","","fullscreen","2","56420","0.0-2.0-0.0","596c36966956b40001c59d4e","A3","batch1","","","","","","","","","","","","","","","","","","","","","","","","","","","","","",""
"","","","","","instructions","3","78608","0.0-2.0-1.0-0.0","596c36966956b40001c59d4e","A3","batch1","[{""page_index"":0,""viewing_time"":14638.199999928474},{""page_index"":1,""viewing_time"":7545.800000071526}]","22184.399999976158","","","","","","","","","","","","","","","","","","","","","","","","","","","",""
"","","","","","html-button-response","4","79736","0.0-2.0-1.0-1.0-0.0","596c36966956b40001c59d4e","A3","batch1","","1125.6000000238419","<p class=block-text> Let's answer a few questions <br>","0","pattern_enter_quiz","","","","","","","","","","","","","","","","","","","","","","","","",""
"","","","","","html-button-response","5","81569","0.0-2.0-1.0-1.0-1.0","596c36966956b40001c59d4e","A3","batch1","","1831.8999999761581","<p class = block-text>True or False: You will have as much time as you want to make each choice. <br></p>","1","pattern_quiz","true","","","","","","","","","","","","","","","","","","","","","","","",""
"","","","","","html-button-response","6","82996","0.0-2.0-1.0-1.0-2.0","596c36966956b40001c59d4e","A3","batch1","","1423.2999999523163","<p class = block-text>Correct! You should make your choice <strong> as fast as you can</strong>.</p>","0","pattern_quiz_feedback","","","","","","","","","","","","","","","","","","","","","","","","",""
"","","","","","html-button-response","7","85238","0.0-2.0-1.0-1.0-3.0","596c36966956b40001c59d4e","A3","batch1","","2240.600000023842","<p class = block-text>True or False: You will look for 4 pieces in black or white color connected in a row either horizontally, vertically or diagonally. <br></p>","0","pattern_quiz","true","","","","","","","","","","","","","","","","","","","","","","","",""
"","","","","","html-button-response","8","86071","0.0-2.0-1.0-1.0-4.0","596c36966956b40001c59d4e","A3","batch1","","832","<p class = block-text>Correct! </p>","0","pattern_quiz_feedback","","","","","","","","","","","","","","","","","","","","","","","","",""
"","","","","","html-button-response","9","87645","0.0-2.0-2.0","596c36966956b40001c59d4e","A3","batch1","","1571.2999999523163","<p class=block-text> Now that you've understood the game, let's do a few practice trials before we start!<br> <br>","0","pattern_enter_practice","","","","","","","","","","","","","","","","","","","","","","","","",""
"","","","","","image-keyboard-response","10","88820","0.0-2.0-3.0-0.0","596c36966956b40001c59d4e","A3","batch1","","1141.2999999523163","stim/prac_yes_18_hor_w1.png","j","pattern_practice","false","f","","","","","","","","","","","","","","","","","","","","","","",""
"","","","","","html-keyboard-response","11","89840","0.0-2.0-3.0-1.0","596c36966956b40001c59d4e","A3","batch1","","null","<p style=""font-size:30px;color:red;"">Wrong.</p>","null","pattern_feedback","","","","","","","","","","","","","","","","","","","","","","","","",""
"","","","","","image-keyboard-response","12","92120","0.0-2.0-3.0-0.1","596c36966956b40001c59d4e","A3","batch1","","2277.6999999284744","stim/prac_yes_20_dia_b1.png","j","pattern_practice","false","f","","","","","","","","","","","","","","","","","","","","","","",""
"","","","","","html-keyboard-response","13","93136","0.0-2.0-3.0-1.1","596c36966956b40001c59d4e","A3","batch1","","null","<p style=""font-size:30px;color:red;"">Wrong.</p>","null","pattern_feedback","","","","","","","","","","","","","","","","","","","","","","","","",""
"","","","","","image-keyboard-response","14","96535","0.0-2.0-3.0-0.2","596c36966956b40001c59d4e","A3","batch1","","3396.899999976158","stim/prac_no_18_1.png","j","pattern_practice","true","j","","","","","","","","","","","","","","","","","","","","","","",""
"","","","","","html-keyboard-response","15","97543","0.0-2.0-3.0-1.2","596c36966956b40001c59d4e","A3","batch1","","null","<p style=""font-size:30px;color:green;"">Correct!</p>","null","pattern_feedback","","","","","","","","","","","","","","","","","","","","","","","","",""
"","","","","","image-keyboard-response","16","101003","0.0-2.0-3.0-0.3","596c36966956b40001c59d4e","A3","batch1","","3458.8000000715256","stim/prac_no_16_1.png","j","pattern_practice","true","j","","","","","","","","","","","","","","","","","","","","","","",""
"","","","","","html-keyboard-response","17","102024","0.0-2.0-3.0-1.3","596c36966956b40001c59d4e","A3","batch1","","null","<p style=""font-size:30px;color:green;"">Correct!</p>","null","pattern_feedback","","","","","","","","","","","","","","","","","","","","","","","","",""
"","","","","","image-keyboard-response","18","102758","0.0-2.0-3.0-0.4","596c36966956b40001c59d4e","A3","batch1","","732.1999999284744","stim/prac_yes_16_ver_w1.png","f","pattern_practice","true","f","","","","","","","","","","","","","","","","","","","","","","",""
"","","","","","html-keyboard-response","19","103766","0.0-2.0-3.0-1.4","596c36966956b40001c59d4e","A3","batch1","","null","<p style=""font-size:30px;color:green;"">Correct!</p>","null","pattern_feedback","","","","","","","","","","","","","","","","","","","","","","","","",""
"","","","","","html-button-response","20","107651","0.0-2.0-4.0","596c36966956b40001c59d4e","A3","batch1","","3884.5","<p class=block-text> Good job! You are done with practice trials!<br>
        You responded correctly on 60% of the trials.<br>
        Press the button below to start official trials. Now you won't see any feedback about your response</p>","0","pattern_enter_official_trials","","","","","","","","","","","","","","","","","","","","","","","","",""
"","","","","","html-keyboard-response","21","108456","0.0-2.0-5.0-0.0","596c36966956b40001c59d4e","A3","batch1","","null","<p class=block-text>Trial 1 out of 78</p>","null","pattern_show_trial_num","","","","","","","","","","","","","","","","","","","","","","","","",""
"","","","","","image-keyboard-response","22","110192","0.0-2.0-5.0-1.0","596c36966956b40001c59d4e","A3","batch1","","1733.8999999761581","stim/yes_53_ver_b1_b.png","f","pattern_response","true","f","pattern_74","1733.8999999761581","true","1","","","","","","","","","","","","","","","","","","",""
"","","","","","html-keyboard-response","23","111504","0.0-2.0-5.0-0.1","596c36966956b40001c59d4e","A3","batch1","","null","<p class=block-text>Trial 2 out of 78</p>","null","pattern_show_trial_num","","","","","","","","","","","","","","","","","","","","","","","","",""
"","","","","","image-keyboard-response","24","112713","0.0-2.0-5.0-1.1","596c36966956b40001c59d4e","A3","batch1","","1207.3999999761581","stim/no_15_1_w.png","j","pattern_response","true","j","pattern_03","1207.3999999761581","true","2","","","","","","","","","","","","","","","","","","",""
"","","","","","html-keyboard-response","25","114024","0.0-2.0-5.0-0.2","596c36966956b40001c59d4e","A3","batch1","","null","<p class=block-text>Trial 3 out of 78</p>","null","pattern_show_trial_num","","","","","","","","","","","","","","","","","","","","","","","","",""
"","","","","","image-keyboard-response","26","114814","0.0-2.0-5.0-1.2","596c36966956b40001c59d4e","A3","batch1","","786.7000000476837","stim/yes_39_hor_w1_w.png","f","pattern_response","true","f","pattern_62","786.7000000476837","true","3","","","","","","","","","","","","","","","","","","",""
"","","","","","html-keyboard-response","27","116126","0.0-2.0-5.0-0.3","596c36966956b40001c59d4e","A3","batch1","","null","<p class=block-text>Trial 4 out of 78</p>","null","pattern_show_trial_num","","","","","","","","","","","","","","","","","","","","","","","","",""
"","","","","","image-keyboard-response","28","118479","0.0-2.0-5.0-1.3","596c36966956b40001c59d4e","A3","batch1","","2351.600000023842","stim/no_25_1_b.png","j","pattern_response","true","j","pattern_09","2351.600000023842","true","4","","","","","","","","","","","","","","","","","","",""
"","","","","","html-keyboard-response","29","119795","0.0-2.0-5.0-0.4","596c36966956b40001c59d4e","A3","batch1","","null","<p class=block-text>Trial 5 out of 78</p>","null","pattern_show_trial_num","","","","","","","","","","","","","","","","","","","","","","","","",""
"","","","","","image-keyboard-response","30","122820","0.0-2.0-5.0-1.4","596c36966956b40001c59d4e","A3","batch1","","3024.100000023842","stim/no_37_2_w.png","j","pattern_response","true","j","pattern_19","3024.100000023842","true","5","","","","","","","","","","","","","","","","","","",""
"","","","","","html-keyboard-response","31","124137","0.0-2.0-5.0-0.5","596c36966956b40001c59d4e","A3","batch1","","null","<p class=block-text>Trial 6 out of 78</p>","null","pattern_show_trial_num","","","","","","","","","","","","","","","","","","","","","","","","",""
"","","","","","image-keyboard-response","32","125743","0.0-2.0-5.0-1.5","596c36966956b40001c59d4e","A3","batch1","","1604.2999999523163","stim/yes_70_ver_b1.png","f","pattern_response","true","f","pattern_80","1604.2999999523163","true","6","","","","","","","","","","","","","","","","","","",""
"","","","","","html-keyboard-response","33","127057","0.0-2.0-5.0-0.6","596c36966956b40001c59d4e","A3","batch1","","null","<p class=block-text>Trial 7 out of 78</p>","null","pattern_show_trial_num","","","","","","","","","","","","","","","","","","","","","","","","",""
"","","","","","image-keyboard-response","34","128490","0.0-2.0-5.0-1.6","596c36966956b40001c59d4e","A3","batch1","","1431","stim/yes_44_ver_w1_w.png","f","pattern_response","true","f","pattern_66","1431","true","7","","","","","","","","","","","","","","","","","","",""
"","","","","","html-keyboard-response","35","129802","0.0-2.0-5.0-0.7","596c36966956b40001c59d4e","A3","batch1","","null","<p class=block-text>Trial 8 out of 78</p>","null","pattern_show_trial_num","","","","","","","","","","","","","","","","","","","","","","","","",""
"","","","","","image-keyboard-response","36","134930","0.0-2.0-5.0-1.7","596c36966956b40001c59d4e","A3","batch1","","5126.199999928474","stim/no_53_1_b.png","j","pattern_response","true","j","pattern_33","5126.199999928474","true","8","","","","","","","","","","","","","","","","","","",""
"","","","","","html-keyboard-response","37","136241","0.0-2.0-5.0-0.8","596c36966956b40001c59d4e","A3","batch1","","null","<p class=block-text>Trial 9 out of 78</p>","null","pattern_show_trial_num","","","","","","","","","","","","","","","","","","","","","","","","",""
"","","","","","image-keyboard-response","38","138323","0.0-2.0-5.0-1.8","596c36966956b40001c59d4e","A3","batch1","","2080.5999999046326","stim/yes_51_dia_b1.png","f","pattern_response","true","f","pattern_72","2080.5999999046326","true","9","","","","","","","","","","","","","","","","","","",""
"","","","","","html-keyboard-response","39","139642","0.0-2.0-5.0-0.9","596c36966956b40001c59d4e","A3","batch1","","null","<p class=block-text>Trial 10 out of 78</p>","null","pattern_show_trial_num","","","","","","","","","","","","","","","","","","","","","","","","",""
"","","","","","image-keyboard-response","40","140385","0.0-2.0-5.0-1.9","596c36966956b40001c59d4e","A3","batch1","","741.9000000953674","stim/yes_36_ver_w1_w.png","f","pattern_response","true","f","pattern_58","741.9000000953674","true","10","","","","","","","","","","","","","","","","","","",""
"","","","","","html-keyboard-response","41","141697","0.0-2.0-5.0-0.10","596c36966956b40001c59d4e","A3","batch1","","null","<p class=block-text>Trial 11 out of 78</p>","null","pattern_show_trial_num","","","","","","","","","","","","","","","","","","","","","","","","",""
"","","","","","image-keyboard-response","42","142437","0.0-2.0-5.0-1.10","596c36966956b40001c59d4e","A3","batch1","","738.4000000953674","stim/yes_30_ver_b1_b.png","f","pattern_response","true","f","pattern_54","738.4000000953674","true","11","","","","","","","","","","","","","","","","","","",""
"","","","","","html-keyboard-response","43","143752","0.0-2.0-5.0-0.11","596c36966956b40001c59d4e","A3","batch1","","null","<p class=block-text>Trial 12 out of 78</p>","null","pattern_show_trial_num","","","","","","","","","","","","","","","","","","","","","","","","",""
"","","","","","image-keyboard-response","44","144616","0.0-2.0-5.0-1.11","596c36966956b40001c59d4e","A3","batch1","","862.3000000715256","stim/yes_63_dia_b1.png","f","pattern_response","true","f","pattern_78","862.3000000715256","true","12","","","","","","","","","","","","","","","","","","",""
"","","","","","html-keyboard-response","45","145929","0.0-2.0-5.0-0.12","596c36966956b40001c59d4e","A3","batch1","","null","<p class=block-text>Trial 13 out of 78</p>","null","pattern_show_trial_num","","","","","","","","","","","","","","","","","","","","","","","","",""
"","","","","","image-keyboard-response","46","150836","0.0-2.0-5.0-1.12","596c36966956b40001c59d4e","A3","batch1","","4905.200000047684","stim/no_43_2_b.png","j","pattern_response","true","j","pattern_23","4905.200000047684","true","13","","","","","","","","","","","","","","","","","","",""
"","","","","","html-keyboard-response","47","152152","0.0-2.0-5.0-0.13","596c36966956b40001c59d4e","A3","batch1","","null","<p class=block-text>Trial 14 out of 78</p>","null","pattern_show_trial_num","","","","","","","","","","","","","","","","","","","","","","","","",""
"","","","","","image-keyboard-response","48","152928","0.0-2.0-5.0-1.13","596c36966956b40001c59d4e","A3","batch1","","773.2999999523163","stim/yes_15_dia_b1u_b.png","f","pattern_response","true","f","pattern_44","773.2999999523163","true","14","","","","","","","","","","","","","","","","","","",""
"","","","","","html-keyboard-response","49","154242","0.0-2.0-5.0-0.14","596c36966956b40001c59d4e","A3","batch1","","null","<p class=block-text>Trial 15 out of 78</p>","null","pattern_show_trial_num","","","","","","","","","","","","","","","","","","","","","","","","",""
"","","","","","image-keyboard-response","50","155428","0.0-2.0-5.0-1.14","596c36966956b40001c59d4e","A3","batch1","","1183.7000000476837","stim/yes_37_hor_w1_w.png","f","pattern_response","true","f","pattern_60","1183.7000000476837","true","15","","","","","","","","","","","","","","","","","","",""
"","","","","","html-keyboard-response","51","156744","0.0-2.0-5.0-0.15","596c36966956b40001c59d4e","A3","batch1","","null","<p class=block-text>Trial 16 out of 78</p>","null","pattern_show_trial_num","","","","","","","","","","","","","","","","","","","","","","","","",""
"","","","","","image-keyboard-response","52","157812","0.0-2.0-5.0-1.15","596c36966956b40001c59d4e","A3","batch1","","1065.7000000476837","stim/yes_46_ver_b1_b.png","f","pattern_response","true","f","pattern_68","1065.7000000476837","true","16","","","","","","","","","","","","","","","","","","",""
"","","","","","html-keyboard-response","53","159130","0.0-2.0-5.0-0.16","596c36966956b40001c59d4e","A3","batch1","","null","<p class=block-text>Trial 17 out of 78</p>","null","pattern_show_trial_num","","","","","","","","","","","","","","","","","","","","","","","","",""
"","","","","","image-keyboard-response","54","162827","0.0-2.0-5.0-1.16","596c36966956b40001c59d4e","A3","batch1","","3695.5","stim/no_28_2.png","j","pattern_response","true","j","pattern_11","3695.5","true","17","","","","","","","","","","","","","","","","","","",""
"","","","","","html-keyboard-response","55","164146","0.0-2.0-5.0-0.17","596c36966956b40001c59d4e","A3","batch1","","null","<p class=block-text>Trial 18 out of 78</p>","null","pattern_show_trial_num","","","","","","","","","","","","","","","","","","","","","","","","",""
"","","","","","image-keyboard-response","56","164786","0.0-2.0-5.0-1.17","596c36966956b40001c59d4e","A3","batch1","","638.1000000238419","stim/yes_12_hor_w1_w.png","f","pattern_response","true","f","pattern_42","638.1000000238419","true","18","","","","","","","","","","","","","","","","","","",""
"","","","","","html-keyboard-response","57","166097","0.0-2.0-5.0-0.18","596c36966956b40001c59d4e","A3","batch1","","null","<p class=block-text>Trial 19 out of 78</p>","null","pattern_show_trial_num","","","","","","","","","","","","","","","","","","","","","","","","",""
"","","","","","image-keyboard-response","58","170859","0.0-2.0-5.0-1.18","596c36966956b40001c59d4e","A3","batch1","","4760.799999952316","stim/no_51_1.png","j","pattern_response","true","j","pattern_31","4760.799999952316","true","19","","","","","","","","","","","","","","","","","","",""
"","","","","","html-keyboard-response","59","172171","0.0-2.0-5.0-0.19","596c36966956b40001c59d4e","A3","batch1","","null","<p class=block-text>Trial 20 out of 78</p>","null","pattern_show_trial_num","","","","","","","","","","","","","","","","","","","","","","","","",""
"","","","","","image-keyboard-response","60","175782","0.0-2.0-5.0-1.19","596c36966956b40001c59d4e","A3","batch1","","3608.899999976158","stim/no_33_1_b.png","j","pattern_response","true","j","pattern_15","3608.899999976158","true","20","","","","","","","","","","","","","","","","","","",""
"","","","","","html-keyboard-response","61","177097","0.0-2.0-5.0-0.20","596c36966956b40001c59d4e","A3","batch1","","null","<p class=block-text>Trial 21 out of 78</p>","null","pattern_show_trial_num","","","","","","","","","","","","","","","","","","","","","","","","",""
"","","","","","image-keyboard-response","62","179971","0.0-2.0-5.0-1.20","596c36966956b40001c59d4e","A3","batch1","","2872.4000000953674","stim/no_58_1_w.png","j","pattern_response","true","j","pattern_35","2872.4000000953674","true","21","","","","","","","","","","","","","","","","","","",""
"","","","","","html-keyboard-response","63","181289","0.0-2.0-5.0-0.21","596c36966956b40001c59d4e","A3","batch1","","null","<p class=block-text>Trial 22 out of 78</p>","null","pattern_show_trial_num","","","","","","","","","","","","","","","","","","","","","","","","",""
"","","","","","image-keyboard-response","64","184296","0.0-2.0-5.0-1.21","596c36966956b40001c59d4e","A3","batch1","","3005.2000000476837","stim/no_49_2_b.png","j","pattern_response","true","j","pattern_29","3005.2000000476837","true","22","","","","","","","","","","","","","","","","","","",""
"","","","","","html-keyboard-response","65","185608","0.0-2.0-5.0-0.22","596c36966956b40001c59d4e","A3","batch1","","null","<p class=block-text>Trial 23 out of 78</p>","null","pattern_show_trial_num","","","","","","","","","","","","","","","","","","","","","","","","",""
"","","","","","image-keyboard-response","66","186462","0.0-2.0-5.0-1.22","596c36966956b40001c59d4e","A3","batch1","","852.2000000476837","stim/yes_26_dia_w2_w.png","f","pattern_response","true","f","pattern_50","852.2000000476837","true","23","","","","","","","","","","","","","","","","","","",""
"","","","","","html-keyboard-response","67","187779","0.0-2.0-5.0-0.23","596c36966956b40001c59d4e","A3","batch1","","null","<p class=block-text>Trial 24 out of 78</p>","null","pattern_show_trial_num","","","","","","","","","","","","","","","","","","","","","","","","",""
"","","","","","image-keyboard-response","68","195030","0.0-2.0-5.0-1.23","596c36966956b40001c59d4e","A3","batch1","","7240","stim/no_67_1.png","j","pattern_response","true","j","pattern_39","7240","true","24","","","","","","","","","","","","","","","","","","",""
"","","","","","html-keyboard-response","69","196350","0.0-2.0-5.0-0.24","596c36966956b40001c59d4e","A3","batch1","","null","<p class=block-text>Trial 25 out of 78</p>","null","pattern_show_trial_num","","","","","","","","","","","","","","","","","","","","","","","","",""
"","","","","","image-keyboard-response","70","197747","0.0-2.0-5.0-1.24","596c36966956b40001c59d4e","A3","batch1","","1392.6000000238419","stim/no_12_1.png","j","pattern_response","true","j","pattern_01","1392.6000000238419","true","25","","","","","","","","","","","","","","","","","","",""
"","","","","","html-keyboard-response","71","199066","0.0-2.0-5.0-0.25","596c36966956b40001c59d4e","A3","batch1","","null","<p class=block-text>Trial 26 out of 78</p>","null","pattern_show_trial_num","","","","","","","","","","","","","","","","","","","","","","","","",""
"","","","","","image-keyboard-response","72","204394","0.0-2.0-5.0-1.25","596c36966956b40001c59d4e","A3","batch1","","5322.100000023842","stim/yes_42_dia_w1_w.png","j","pattern_response","false","f","pattern_64","5322.100000023842","false","25","","","","","","","","","","","","","","","","","","",""
"","","","","","html-keyboard-response","73","205710","0.0-2.0-5.0-0.26","596c36966956b40001c59d4e","A3","batch1","","null","<p class=block-text>Trial 27 out of 78</p>","null","pattern_show_trial_num","","","","","","","","","","","","","","","","","","","","","","","","",""
"","","","","","image-keyboard-response","74","208279","0.0-2.0-5.0-1.26","596c36966956b40001c59d4e","A3","batch1","","2565.2000000476837","stim/no_22_1_b.png","j","pattern_response","true","j","pattern_07","2565.2000000476837","true","26","","","","","","","","","","","","","","","","","","",""
"","","","","","html-keyboard-response","75","209592","0.0-2.0-5.0-0.27","596c36966956b40001c59d4e","A3","batch1","","null","<p class=block-text>Trial 28 out of 78</p>","null","pattern_show_trial_num","","","","","","","","","","","","","","","","","","","","","","","","",""
"","","","","","image-keyboard-response","76","214717","0.0-2.0-5.0-1.27","596c36966956b40001c59d4e","A3","batch1","","5120.399999976158","stim/no_30_1_b.png","j","pattern_response","true","j","pattern_13","5120.399999976158","true","27","","","","","","","","","","","","","","","","","","",""
"","","","","","html-keyboard-response","77","216033","0.0-2.0-5.0-0.28","596c36966956b40001c59d4e","A3","batch1","","null","<p class=block-text>Trial 29 out of 78</p>","null","pattern_show_trial_num","","","","","","","","","","","","","","","","","","","","","","","","",""
"","","","","","image-keyboard-response","78","221046","0.0-2.0-5.0-1.28","596c36966956b40001c59d4e","A3","batch1","","5009.299999952316","stim/no_47_1_b.png","j","pattern_response","true","j","pattern_27","5009.299999952316","true","28","","","","","","","","","","","","","","","","","","",""
"","","","","","html-keyboard-response","79","222362","0.0-2.0-5.0-0.29","596c36966956b40001c59d4e","A3","batch1","","null","<p class=block-text>Trial 30 out of 78</p>","null","pattern_show_trial_num","","","","","","","","","","","","","","","","","","","","","","","","",""
"","","","","","image-keyboard-response","80","223841","0.0-2.0-5.0-1.29","596c36966956b40001c59d4e","A3","batch1","","1474.8999999761581","stim/yes_33_dia_w1_w.png","f","pattern_response","true","f","pattern_56","1474.8999999761581","true","29","","","","","","","","","","","","","","","","","","",""
"","","","","","html-keyboard-response","81","225155","0.0-2.0-5.0-0.30","596c36966956b40001c59d4e","A3","batch1","","null","<p class=block-text>Trial 31 out of 78</p>","null","pattern_show_trial_num","","","","","","","","","","","","","","","","","","","","","","","","",""
"","","","","","image-keyboard-response","82","226037","0.0-2.0-5.0-1.30","596c36966956b40001c59d4e","A3","batch1","","879.8999999761581","stim/yes_23_ver_b1.png","f","pattern_response","true","f","pattern_48","879.8999999761581","true","30","","","","","","","","","","","","","","","","","","",""
"","","","","","html-keyboard-response","83","227350","0.0-2.0-5.0-0.31","596c36966956b40001c59d4e","A3","batch1","","null","<p class=block-text>Trial 32 out of 78</p>","null","pattern_show_trial_num","","","","","","","","","","","","","","","","","","","","","","","","",""
"","","","","","image-keyboard-response","84","233312","0.0-2.0-5.0-1.31","596c36966956b40001c59d4e","A3","batch1","","5959.100000023842","stim/no_45_1_w.png","j","pattern_response","true","j","pattern_25","5959.100000023842","true","31","","","","","","","","","","","","","","","","","","",""
"","","","","","html-keyboard-response","85","234625","0.0-2.0-5.0-0.32","596c36966956b40001c59d4e","A3","batch1","","null","<p class=block-text>Trial 33 out of 78</p>","null","pattern_show_trial_num","","","","","","","","","","","","","","","","","","","","","","","","",""
"","","","","","image-keyboard-response","86","236172","0.0-2.0-5.0-1.32","596c36966956b40001c59d4e","A3","batch1","","1525.5","stim/yes_29_hor_b1_b.png","f","pattern_response","true","f","pattern_52","1525.5","true","32","","","","","","","","","","","","","","","","","","",""
"","","","","","html-keyboard-response","87","237487","0.0-2.0-5.0-0.33","596c36966956b40001c59d4e","A3","batch1","","null","<p class=block-text>Trial 34 out of 78</p>","null","pattern_show_trial_num","","","","","","","","","","","","","","","","","","","","","","","","",""
"","","","","","image-keyboard-response","88","238515","0.0-2.0-5.0-1.33","596c36966956b40001c59d4e","A3","batch1","","1026.1000000238419","stim/yes_49_hor_w1_b.png","f","pattern_response","true","f","pattern_70","1026.1000000238419","true","33","","","","","","","","","","","","","","","","","","",""
"","","","","","html-keyboard-response","89","239832","0.0-2.0-5.0-0.34","596c36966956b40001c59d4e","A3","batch1","","null","<p class=block-text>Trial 35 out of 78</p>","null","pattern_show_trial_num","","","","","","","","","","","","","","","","","","","","","","","","",""
"","","","","","image-keyboard-response","90","241531","0.0-2.0-5.0-1.34","596c36966956b40001c59d4e","A3","batch1","","1697.3999999761581","stim/no_18_1_b.png","j","pattern_response","true","j","pattern_05","1697.3999999761581","true","34","","","","","","","","","","","","","","","","","","",""
"","","","","","html-keyboard-response","91","242845","0.0-2.0-5.0-0.35","596c36966956b40001c59d4e","A3","batch1","","null","<p class=block-text>Trial 36 out of 78</p>","null","pattern_show_trial_num","","","","","","","","","","","","","","","","","","","","","","","","",""
"","","","","","image-keyboard-response","92","248127","0.0-2.0-5.0-1.35","596c36966956b40001c59d4e","A3","batch1","","5279.300000071526","stim/no_39_1_w.png","j","pattern_response","true","j","pattern_21","5279.300000071526","true","35","","","","","","","","","","","","","","","","","","",""
"","","","","","html-keyboard-response","93","249440","0.0-2.0-5.0-0.36","596c36966956b40001c59d4e","A3","batch1","","null","<p class=block-text>Trial 37 out of 78</p>","null","pattern_show_trial_num","","","","","","","","","","","","","","","","","","","","","","","","",""
"","","","","","image-keyboard-response","94","255516","0.0-2.0-5.0-1.36","596c36966956b40001c59d4e","A3","batch1","","6073.800000071526","stim/yes_58_dia_w1_w.png","j","pattern_response","false","f","pattern_76","6073.800000071526","false","35","","","","","","","","","","","","","","","","","","",""
"","","","","","html-keyboard-response","95","256831","0.0-2.0-5.0-0.37","596c36966956b40001c59d4e","A3","batch1","","null","<p class=block-text>Trial 38 out of 78</p>","null","pattern_show_trial_num","","","","","","","","","","","","","","","","","","","","","","","","",""
"","","","","","image-keyboard-response","96","257560","0.0-2.0-5.0-1.37","596c36966956b40001c59d4e","A3","batch1","","727.7999999523163","stim/yes_17_ver_b1_b.png","f","pattern_response","true","f","pattern_46","727.7999999523163","true","36","","","","","","","","","","","","","","","","","","",""
"","","","","","html-keyboard-response","97","258874","0.0-2.0-5.0-0.38","596c36966956b40001c59d4e","A3","batch1","","null","<p class=block-text>Trial 39 out of 78</p>","null","pattern_show_trial_num","","","","","","","","","","","","","","","","","","","","","","","","",""
"","","","","","image-keyboard-response","98","262677","0.0-2.0-5.0-1.38","596c36966956b40001c59d4e","A3","batch1","","3802.2000000476837","stim/no_36_1_b.png","j","pattern_response","true","j","pattern_17","3802.2000000476837","true","37","","","","","","","","","","","","","","","","","","",""
"","","","","","image-keyboard-response","99","264877","0.0-2.0-6.0","596c36966956b40001c59d4e","A3","batch1","","1689.2999999523163","stim/empty_board.png","j","attention_check","true","j","","","","","500","[""f"",""j""]","","","","","","","","","","","","","","","","",""
"","","","","","html-keyboard-response","100","265683","0.0-2.0-7.0-0.0","596c36966956b40001c59d4e","A3","batch1","","null","<p class=block-text>Trial 40 out of 78</p>","null","pattern_show_trial_num","","","","","","","","","","","","","","","","","","","","","","","","",""
"","","","","","image-keyboard-response","101","269194","0.0-2.0-7.0-1.0","596c36966956b40001c59d4e","A3","batch1","","3508","stim/no_48_1_w.png","j","pattern_response","true","j","pattern_28","3508","true","38","","","","","","","","","","","","","","","","","","",""
"","","","","","html-keyboard-response","102","270508","0.0-2.0-7.0-0.1","596c36966956b40001c59d4e","A3","batch1","","null","<p class=block-text>Trial 41 out of 78</p>","null","pattern_show_trial_num","","","","","","","","","","","","","","","","","","","","","","","","",""
"","","","","","image-keyboard-response","103","274678","0.0-2.0-7.0-1.1","596c36966956b40001c59d4e","A3","batch1","","4167.899999976158","stim/no_13_2_b.png","j","pattern_response","true","j","pattern_02","4167.899999976158","true","39","","","","","","","","","","","","","","","","","","",""
"","","","","","html-keyboard-response","104","275994","0.0-2.0-7.0-0.2","596c36966956b40001c59d4e","A3","batch1","","null","<p class=block-text>Trial 42 out of 78</p>","null","pattern_show_trial_num","","","","","","","","","","","","","","","","","","","","","","","","",""
"","","","","","image-keyboard-response","105","284408","0.0-2.0-7.0-1.2","596c36966956b40001c59d4e","A3","batch1","","8412.700000047684","stim/no_65_1_b.png","j","pattern_response","true","j","pattern_38","8412.700000047684","true","40","","","","","","","","","","","","","","","","","","",""
"","","","","","html-keyboard-response","106","285723","0.0-2.0-7.0-0.3","596c36966956b40001c59d4e","A3","batch1","","null","<p class=block-text>Trial 43 out of 78</p>","null","pattern_show_trial_num","","","","","","","","","","","","","","","","","","","","","","","","",""
"","","","","","image-keyboard-response","107","288937","0.0-2.0-7.0-1.3","596c36966956b40001c59d4e","A3","batch1","","3211.2999999523163","stim/no_23_1.png","j","pattern_response","true","j","pattern_08","3211.2999999523163","true","41","","","","","","","","","","","","","","","","","","",""
"","","","","","html-keyboard-response","108","290251","0.0-2.0-7.0-0.4","596c36966956b40001c59d4e","A3","batch1","","null","<p class=block-text>Trial 44 out of 78</p>","null","pattern_show_trial_num","","","","","","","","","","","","","","","","","","","","","","","","",""
"","","","","","image-keyboard-response","109","291136","0.0-2.0-7.0-1.4","596c36966956b40001c59d4e","A3","batch1","","883.5","stim/yes_55_hor_w1_w.png","f","pattern_response","true","f","pattern_75","883.5","true","42","","","","","","","","","","","","","","","","","","",""
"","","","","","html-keyboard-response","110","292451","0.0-2.0-7.0-0.5","596c36966956b40001c59d4e","A3","batch1","","null","<p class=block-text>Trial 45 out of 78</p>","null","pattern_show_trial_num","","","","","","","","","","","","","","","","","","","","","","","","",""
"","","","","","image-keyboard-response","111","293503","0.0-2.0-7.0-1.5","596c36966956b40001c59d4e","A3","batch1","","1050.8000000715256","stim/yes_29_ver_w1.png","f","pattern_response","true","f","pattern_53","1050.8000000715256","true","43","","","","","","","","","","","","","","","","","","",""
"","","","","","html-keyboard-response","112","294820","0.0-2.0-7.0-0.6","596c36966956b40001c59d4e","A3","batch1","","null","<p class=block-text>Trial 46 out of 78</p>","null","pattern_show_trial_num","","","","","","","","","","","","","","","","","","","","","","","","",""
"","","","","","image-keyboard-response","113","295706","0.0-2.0-7.0-1.6","596c36966956b40001c59d4e","A3","batch1","","884.7000000476837","stim/yes_17_dia_w1.png","f","pattern_response","true","f","pattern_45","884.7000000476837","true","44","","","","","","","","","","","","","","","","","","",""
"","","","","","html-keyboard-response","114","297020","0.0-2.0-7.0-0.7","596c36966956b40001c59d4e","A3","batch1","","null","<p class=block-text>Trial 47 out of 78</p>","null","pattern_show_trial_num","","","","","","","","","","","","","","","","","","","","","","","","",""
"","","","","","image-keyboard-response","115","303431","0.0-2.0-7.0-1.7","596c36966956b40001c59d4e","A3","batch1","","6409.5","stim/no_52_1.png","j","pattern_response","true","j","pattern_32","6409.5","true","45","","","","","","","","","","","","","","","","","","",""
"","","","","","html-keyboard-response","116","304746","0.0-2.0-7.0-0.8","596c36966956b40001c59d4e","A3","batch1","","null","<p class=block-text>Trial 48 out of 78</p>","null","pattern_show_trial_num","","","","","","","","","","","","","","","","","","","","","","","","",""
"","","","","","image-keyboard-response","117","305509","0.0-2.0-7.0-1.8","596c36966956b40001c59d4e","A3","batch1","","760.8999999761581","stim/yes_28_ver_b1.png","f","pattern_response","true","f","pattern_51","760.8999999761581","true","46","","","","","","","","","","","","","","","","","","",""
"","","","","","html-keyboard-response","118","306825","0.0-2.0-7.0-0.9","596c36966956b40001c59d4e","A3","batch1","","null","<p class=block-text>Trial 49 out of 78</p>","null","pattern_show_trial_num","","","","","","","","","","","","","","","","","","","","","","","","",""
"","","","","","image-keyboard-response","119","308266","0.0-2.0-7.0-1.9","596c36966956b40001c59d4e","A3","batch1","","1439.8999999761581","stim/yes_31_hor_b1.png","f","pattern_response","true","f","pattern_55","1439.8999999761581","true","47","","","","","","","","","","","","","","","","","","",""
"","","","","","html-keyboard-response","120","309576","0.0-2.0-7.0-0.10","596c36966956b40001c59d4e","A3","batch1","","null","<p class=block-text>Trial 50 out of 78</p>","null","pattern_show_trial_num","","","","","","","","","","","","","","","","","","","","","","","","",""
"","","","","","image-keyboard-response","121","312853","0.0-2.0-7.0-1.10","596c36966956b40001c59d4e","A3","batch1","","3274.600000023842","stim/yes_37_dia_w1.png","j","pattern_response","false","f","pattern_59","3274.600000023842","false","47","","","","","","","","","","","","","","","","","","",""
"","","","","","html-keyboard-response","122","314168","0.0-2.0-7.0-0.11","596c36966956b40001c59d4e","A3","batch1","","null","<p class=block-text>Trial 51 out of 78</p>","null","pattern_show_trial_num","","","","","","","","","","","","","","","","","","","","","","","","",""
"","","","","","image-keyboard-response","123","316381","0.0-2.0-7.0-1.11","596c36966956b40001c59d4e","A3","batch1","","2210.600000023842","stim/no_32_1_w.png","j","pattern_response","true","j","pattern_14","2210.600000023842","true","48","","","","","","","","","","","","","","","","","","",""
"","","","","","html-keyboard-response","124","317698","0.0-2.0-7.0-0.12","596c36966956b40001c59d4e","A3","batch1","","null","<p class=block-text>Trial 52 out of 78</p>","null","pattern_show_trial_num","","","","","","","","","","","","","","","","","","","","","","","","",""
"","","","","","image-keyboard-response","125","319502","0.0-2.0-7.0-1.12","596c36966956b40001c59d4e","A3","batch1","","1801.9000000953674","stim/no_26_1_w.png","j","pattern_response","true","j","pattern_10","1801.9000000953674","true","49","","","","","","","","","","","","","","","","","","",""
"","","","","","html-keyboard-response","126","320821","0.0-2.0-7.0-0.13","596c36966956b40001c59d4e","A3","batch1","","null","<p class=block-text>Trial 53 out of 78</p>","null","pattern_show_trial_num","","","","","","","","","","","","","","","","","","","","","","","","",""
"","","","","","image-keyboard-response","127","322015","0.0-2.0-7.0-1.13","596c36966956b40001c59d4e","A3","batch1","","1192.3999999761581","stim/yes_43_ver_w1_w.png","f","pattern_response","true","f","pattern_65","1192.3999999761581","true","50","","","","","","","","","","","","","","","","","","",""
"","","","","","html-keyboard-response","128","323329","0.0-2.0-7.0-0.14","596c36966956b40001c59d4e","A3","batch1","","null","<p class=block-text>Trial 54 out of 78</p>","null","pattern_show_trial_num","","","","","","","","","","","","","","","","","","","","","","","","",""
"","","","","","image-keyboard-response","129","326979","0.0-2.0-7.0-1.14","596c36966956b40001c59d4e","A3","batch1","","3648.7000000476837","stim/no_29_1_b.png","j","pattern_response","true","j","pattern_12","3648.7000000476837","true","51","","","","","","","","","","","","","","","","","","",""
"","","","","","html-keyboard-response","130","328292","0.0-2.0-7.0-0.15","596c36966956b40001c59d4e","A3","batch1","","null","<p class=block-text>Trial 55 out of 78</p>","null","pattern_show_trial_num","","","","","","","","","","","","","","","","","","","","","","","","",""
"","","","","","image-keyboard-response","131","330061","0.0-2.0-7.0-1.15","596c36966956b40001c59d4e","A3","batch1","","1767.3999999761581","stim/no_20_1_w.png","j","pattern_response","true","j","pattern_06","1767.3999999761581","true","52","","","","","","","","","","","","","","","","","","",""
"","","","","","html-keyboard-response","132","331381","0.0-2.0-7.0-0.16","596c36966956b40001c59d4e","A3","batch1","","null","<p class=block-text>Trial 56 out of 78</p>","null","pattern_show_trial_num","","","","","","","","","","","","","","","","","","","","","","","","",""
"","","","","","image-keyboard-response","133","332481","0.0-2.0-7.0-1.16","596c36966956b40001c59d4e","A3","batch1","","1079.1000000238419","stim/yes_48_dia_w1_w.png","f","pattern_response","true","f","pattern_69","1079.1000000238419","true","53","","","","","","","","","","","","","","","","","","",""
"","","","","","html-keyboard-response","134","333796","0.0-2.0-7.0-0.17","596c36966956b40001c59d4e","A3","batch1","","null","<p class=block-text>Trial 57 out of 78</p>","null","pattern_show_trial_num","","","","","","","","","","","","","","","","","","","","","","","","",""
"","","","","","image-keyboard-response","135","339762","0.0-2.0-7.0-1.17","596c36966956b40001c59d4e","A3","batch1","","5965","stim/no_36_2_w.png","j","pattern_response","true","j","pattern_18","5965","true","54","","","","","","","","","","","","","","","","","","",""
"","","","","","html-keyboard-response","136","341075","0.0-2.0-7.0-0.18","596c36966956b40001c59d4e","A3","batch1","","null","<p class=block-text>Trial 58 out of 78</p>","null","pattern_show_trial_num","","","","","","","","","","","","","","","","","","","","","","","","",""
"","","","","","image-keyboard-response","137","346654","0.0-2.0-7.0-1.18","596c36966956b40001c59d4e","A3","batch1","","5577.5","stim/yes_50_dia_w1.png","f","pattern_response","true","f","pattern_71","5577.5","true","55","","","","","","","","","","","","","","","","","","",""
"","","","","","html-keyboard-response","138","347972","0.0-2.0-7.0-0.19","596c36966956b40001c59d4e","A3","batch1","","null","<p class=block-text>Trial 59 out of 78</p>","null","pattern_show_trial_num","","","","","","","","","","","","","","","","","","","","","","","","",""
"","","","","","image-keyboard-response","139","348960","0.0-2.0-7.0-1.19","596c36966956b40001c59d4e","A3","batch1","","985.5","stim/yes_22_ver_w1.png","f","pattern_response","true","f","pattern_47","985.5","true","56","","","","","","","","","","","","","","","","","","",""
"","","","","","html-keyboard-response","140","350294","0.0-2.0-7.0-0.20","596c36966956b40001c59d4e","A3","batch1","","null","<p class=block-text>Trial 60 out of 78</p>","null","pattern_show_trial_num","","","","","","","","","","","","","","","","","","","","","","","","",""
"","","","","","image-keyboard-response","141","350953","0.0-2.0-7.0-1.20","596c36966956b40001c59d4e","A3","batch1","","658.1000000238419","stim/yes_14_hor_b1_w.png","f","pattern_response","true","f","pattern_43","658.1000000238419","true","57","","","","","","","","","","","","","","","","","","",""
"","","","","","html-keyboard-response","142","352268","0.0-2.0-7.0-0.21","596c36966956b40001c59d4e","A3","batch1","","null","<p class=block-text>Trial 61 out of 78</p>","null","pattern_show_trial_num","","","","","","","","","","","","","","","","","","","","","","","","",""
"","","","","","image-keyboard-response","143","355883","0.0-2.0-7.0-1.21","596c36966956b40001c59d4e","A3","batch1","","3613.600000023842","stim/no_42_1_w.png","j","pattern_response","true","j","pattern_22","3613.600000023842","true","58","","","","","","","","","","","","","","","","","","",""
"","","","","","html-keyboard-response","144","357196","0.0-2.0-7.0-0.22","596c36966956b40001c59d4e","A3","batch1","","null","<p class=block-text>Trial 62 out of 78</p>","null","pattern_show_trial_num","","","","","","","","","","","","","","","","","","","","","","","","",""
"","","","","","image-keyboard-response","145","358551","0.0-2.0-7.0-1.22","596c36966956b40001c59d4e","A3","batch1","","1353","stim/yes_52_ver_w1.png","f","pattern_response","true","f","pattern_73","1353","true","59","","","","","","","","","","","","","","","","","","",""
"","","","","","html-keyboard-response","146","359867","0.0-2.0-7.0-0.23","596c36966956b40001c59d4e","A3","batch1","","null","<p class=block-text>Trial 63 out of 78</p>","null","pattern_show_trial_num","","","","","","","","","","","","","","","","","","","","","","","","",""
"","","","","","image-keyboard-response","147","367483","0.0-2.0-7.0-1.23","596c36966956b40001c59d4e","A3","batch1","","7613.800000071526","stim/no_46_1_b.png","j","pattern_response","true","j","pattern_26","7613.800000071526","true","60","","","","","","","","","","","","","","","","","","",""
"","","","","","html-keyboard-response","148","368794","0.0-2.0-7.0-0.24","596c36966956b40001c59d4e","A3","batch1","","null","<p class=block-text>Trial 64 out of 78</p>","null","pattern_show_trial_num","","","","","","","","","","","","","","","","","","","","","","","","",""
"","","","","","image-keyboard-response","149","373257","0.0-2.0-7.0-1.24","596c36966956b40001c59d4e","A3","batch1","","4460.299999952316","stim/no_62_1_w.png","j","pattern_response","true","j","pattern_36","4460.299999952316","true","61","","","","","","","","","","","","","","","","","","",""
"","","","","","html-keyboard-response","150","374571","0.0-2.0-7.0-0.25","596c36966956b40001c59d4e","A3","batch1","","null","<p class=block-text>Trial 65 out of 78</p>","null","pattern_show_trial_num","","","","","","","","","","","","","","","","","","","","","","","","",""
"","","","","","image-keyboard-response","151","377637","0.0-2.0-7.0-1.25","596c36966956b40001c59d4e","A3","batch1","","3064","stim/no_38_1_b.png","j","pattern_response","true","j","pattern_20","3064","true","62","","","","","","","","","","","","","","","","","","",""
"","","","","","html-keyboard-response","152","378948","0.0-2.0-7.0-0.26","596c36966956b40001c59d4e","A3","batch1","","null","<p class=block-text>Trial 66 out of 78</p>","null","pattern_show_trial_num","","","","","","","","","","","","","","","","","","","","","","","","",""
"","","","","","image-keyboard-response","153","379858","0.0-2.0-7.0-1.26","596c36966956b40001c59d4e","A3","batch1","","907.7000000476837","stim/yes_25_hor_b1_b.png","f","pattern_response","true","f","pattern_49","907.7000000476837","true","63","","","","","","","","","","","","","","","","","","",""
"","","","","","html-keyboard-response","154","381172","0.0-2.0-7.0-0.27","596c36966956b40001c59d4e","A3","batch1","","null","<p class=block-text>Trial 67 out of 78</p>","null","pattern_show_trial_num","","","","","","","","","","","","","","","","","","","","","","","","",""
"","","","","","image-keyboard-response","155","385501","0.0-2.0-7.0-1.27","596c36966956b40001c59d4e","A3","batch1","","4327.400000095367","stim/no_34_1_b.png","j","pattern_response","true","j","pattern_16","4327.400000095367","true","64","","","","","","","","","","","","","","","","","","",""
"","","","","","html-keyboard-response","156","386814","0.0-2.0-7.0-0.28","596c36966956b40001c59d4e","A3","batch1","","null","<p class=block-text>Trial 68 out of 78</p>","null","pattern_show_trial_num","","","","","","","","","","","","","","","","","","","","","","","","",""
"","","","","","image-keyboard-response","157","392286","0.0-2.0-7.0-1.28","596c36966956b40001c59d4e","A3","batch1","","5469.299999952316","stim/no_50_1.png","j","pattern_response","true","j","pattern_30","5469.299999952316","true","65","","","","","","","","","","","","","","","","","","",""
"","","","","","html-keyboard-response","158","393595","0.0-2.0-7.0-0.29","596c36966956b40001c59d4e","A3","batch1","","null","<p class=block-text>Trial 69 out of 78</p>","null","pattern_show_trial_num","","","","","","","","","","","","","","","","","","","","","","","","",""
"","","","","","image-keyboard-response","159","403501","0.0-2.0-7.0-1.29","596c36966956b40001c59d4e","A3","batch1","","9904.399999976158","stim/no_70_2.png","j","pattern_response","true","j","pattern_40","9904.399999976158","true","66","","","","","","","","","","","","","","","","","","",""
"","","","","","html-keyboard-response","160","404812","0.0-2.0-7.0-0.30","596c36966956b40001c59d4e","A3","batch1","","null","<p class=block-text>Trial 70 out of 78</p>","null","pattern_show_trial_num","","","","","","","","","","","","","","","","","","","","","","","","",""
"","","","","","image-keyboard-response","161","406468","0.0-2.0-7.0-1.30","596c36966956b40001c59d4e","A3","batch1","","1653.7000000476837","stim/yes_38_hor_b1_b.png","f","pattern_response","true","f","pattern_61","1653.7000000476837","true","67","","","","","","","","","","","","","","","","","","",""
"","","","","","html-keyboard-response","162","407782","0.0-2.0-7.0-0.31","596c36966956b40001c59d4e","A3","batch1","","null","<p class=block-text>Trial 71 out of 78</p>","null","pattern_show_trial_num","","","","","","","","","","","","","","","","","","","","","","","","",""
"","","","","","image-keyboard-response","163","414202","0.0-2.0-7.0-1.31","596c36966956b40001c59d4e","A3","batch1","","6419","stim/yes_60_ver_b1_b.png","j","pattern_response","false","f","pattern_77","6419","false","67","","","","","","","","","","","","","","","","","","",""
"","","","","","html-keyboard-response","164","415517","0.0-2.0-7.0-0.32","596c36966956b40001c59d4e","A3","batch1","","null","<p class=block-text>Trial 72 out of 78</p>","null","pattern_show_trial_num","","","","","","","","","","","","","","","","","","","","","","","","",""
"","","","","","image-keyboard-response","165","419274","0.0-2.0-7.0-1.32","596c36966956b40001c59d4e","A3","batch1","","3754.5","stim/no_44_1.png","j","pattern_response","true","j","pattern_24","3754.5","true","68","","","","","","","","","","","","","","","","","","",""
"","","","","","html-keyboard-response","166","420589","0.0-2.0-7.0-0.33","596c36966956b40001c59d4e","A3","batch1","","null","<p class=block-text>Trial 73 out of 78</p>","null","pattern_show_trial_num","","","","","","","","","","","","","","","","","","","","","","","","",""
"","","","","","image-keyboard-response","167","421728","0.0-2.0-7.0-1.33","596c36966956b40001c59d4e","A3","batch1","","1137.1999999284744","stim/yes_35_dia_b1.png","f","pattern_response","true","f","pattern_57","1137.1999999284744","true","69","","","","","","","","","","","","","","","","","","",""
"","","","","","html-keyboard-response","168","423044","0.0-2.0-7.0-0.34","596c36966956b40001c59d4e","A3","batch1","","null","<p class=block-text>Trial 74 out of 78</p>","null","pattern_show_trial_num","","","","","","","","","","","","","","","","","","","","","","","","",""
"","","","","","image-keyboard-response","169","423853","0.0-2.0-7.0-1.34","596c36966956b40001c59d4e","A3","batch1","","807.5","stim/yes_67_hor_b1.png","f","pattern_response","true","f","pattern_79","807.5","true","70","","","","","","","","","","","","","","","","","","",""
"","","","","","html-keyboard-response","170","425165","0.0-2.0-7.0-0.35","596c36966956b40001c59d4e","A3","batch1","","null","<p class=block-text>Trial 75 out of 78</p>","null","pattern_show_trial_num","","","","","","","","","","","","","","","","","","","","","","","","",""
"","","","","","image-keyboard-response","171","426090","0.0-2.0-7.0-1.35","596c36966956b40001c59d4e","A3","batch1","","922.8000000715256","stim/yes_45_hor_b2_b.png","f","pattern_response","true","f","pattern_67","922.8000000715256","true","71","","","","","","","","","","","","","","","","","","",""
"","","","","","html-keyboard-response","172","427404","0.0-2.0-7.0-0.36","596c36966956b40001c59d4e","A3","batch1","","null","<p class=block-text>Trial 76 out of 78</p>","null","pattern_show_trial_num","","","","","","","","","","","","","","","","","","","","","","","","",""
"","","","","","image-keyboard-response","173","430157","0.0-2.0-7.0-1.36","596c36966956b40001c59d4e","A3","batch1","","2751.399999976158","stim/yes_40_dia_b1_b.png","j","pattern_response","false","f","pattern_63","2751.399999976158","false","71","","","","","","","","","","","","","","","","","","",""
"","","","","","html-keyboard-response","174","431468","0.0-2.0-7.0-0.37","596c36966956b40001c59d4e","A3","batch1","","null","<p class=block-text>Trial 77 out of 78</p>","null","pattern_show_trial_num","","","","","","","","","","","","","","","","","","","","","","","","",""
"","","","","","image-keyboard-response","175","435601","0.0-2.0-7.0-1.37","596c36966956b40001c59d4e","A3","batch1","","4131.599999904633","stim/no_55_1_w.png","j","pattern_response","true","j","pattern_34","4131.599999904633","true","72","","","","","","","","","","","","","","","","","","",""
"","","","","","html-keyboard-response","176","436919","0.0-2.0-7.0-0.38","596c36966956b40001c59d4e","A3","batch1","","null","<p class=block-text>Trial 78 out of 78</p>","null","pattern_show_trial_num","","","","","","","","","","","","","","","","","","","","","","","","",""
"","","","","","image-keyboard-response","177","438267","0.0-2.0-7.0-1.38","596c36966956b40001c59d4e","A3","batch1","","1346.7000000476837","stim/no_17_1_w.png","j","pattern_response","true","j","pattern_04","1346.7000000476837","true","73","","","","","","","","","","","","","","","","","","",""
"","","","","","html-button-response","178","448949","0.0-2.0-8.0","596c36966956b40001c59d4e","A3","batch1","","10171.699999928474","<p class = block-text>This concludes the 4-in-a-row detection game.Thank you for your responses!<br>
            You responded correctly on 94% of the trials.<br>
            When you are ready, press ""Continue"" button to continue </p>","0","","","","","","","","","","","","","","","","","","","","","","","","","",""
"true","","","","","fullscreen","179","452825","0.0-3.0-0.0","596c36966956b40001c59d4e","A3","batch1","","","","","","","","","","","","","","","","","","","","","","","","","","","","","",""
"","","","","","instructions","180","511818","0.0-3.0-1.0-0.0-0.0","596c36966956b40001c59d4e","A3","batch1","[{""page_index"":0,""viewing_time"":26604.899999976158},{""page_index"":1,""viewing_time"":4685.399999976158},{""page_index"":2,""viewing_time"":4108.600000023842},{""page_index"":3,""viewing_time"":8774.600000023842},{""page_index"":4,""viewing_time"":4129.199999928474},{""page_index"":5,""viewing_time"":8542.200000047684},{""page_index"":6,""viewing_time"":2146.100000023842}]","58991.299999952316","","","tol-instructions","","","","","","","","","","","","","","","","","","","","","","","","",""
"","","","","","html-button-response","181","512779","0.0-3.0-1.0-1.0-0.0","596c36966956b40001c59d4e","A3","batch1","","959.6999999284744","<p class=block-text> Let's answer a few questions <br>","0","tol_enter_quiz","","","","","","","","","","","","","","","","","","","","","","","","",""
"","","","","","html-button-response","182","518639","0.0-3.0-1.0-1.0-1.0","596c36966956b40001c59d4e","A3","batch1","","5857.100000023842","<p class = block-text>True or False: You can only move the ball on top of a peg. <br></p>","1","tol_quiz","false","","","","","","","","","","","","","","","","","","","","","","","",""
"","","","","","html-button-response","183","520641","0.0-3.0-1.0-1.0-2.0","596c36966956b40001c59d4e","A3","batch1","","2000.5","<p class = block-text>Incorrect. Remember, you can only move the ball on top of a peg.</p>","0","tol_quiz_feedback","","","","","","","","","","","","","","","","","","","","","","","","",""
"","","","","","html-button-response","184","523671","0.0-3.0-1.0-1.0-3.0","596c36966956b40001c59d4e","A3","batch1","","3029.1999999284744","<p class = block-text>True or False: You should try to match your board with the target board with fewest moves possible. <br></p>","0","tol_quiz","true","","","","","","","","","","","","","","","","","","","","","","","",""
"","","","","","html-button-response","185","524431","0.0-3.0-1.0-1.0-4.0","596c36966956b40001c59d4e","A3","batch1","","758.6000000238419","<p class = block-text>Correct! </p>","0","tol_quiz_feedback","","","","","","","","","","","","","","","","","","","","","","","","",""
"","","","","","html-button-response","186","526256","0.0-3.0-1.0-2.0-0.0","596c36966956b40001c59d4e","A3","batch1","","1823.7999999523163","<p class = block-text>You made too many incorrect choices.</p><p class = block-text>You will now repeat the instructions and quiz</p>","0","","","","","","","","","","","","","","","","","","","","","","","","","",""
"","","","","","instructions","187","538244","0.0-3.0-1.1-0.1-0.1","596c36966956b40001c59d4e","A3","batch1","[{""page_index"":0,""viewing_time"":1954.5},{""page_index"":1,""viewing_time"":1892.1000000238419},{""page_index"":2,""viewing_time"":1232.2999999523163},{""page_index"":3,""viewing_time"":2967.600000023842},{""page_index"":4,""viewing_time"":991.3999999761581},{""page_index"":5,""viewing_time"":1356},{""page_index"":6,""viewing_time"":1592.5}]","11986.600000023842","","","tol-instructions","","","","","","","","","","","","","","","","","","","","","","","","",""
"","","","","","html-button-response","188","539045","0.0-3.0-1.1-1.1-0.1","596c36966956b40001c59d4e","A3","batch1","","799.5","<p class=block-text> Let's answer a few questions <br>","0","tol_enter_quiz","","","","","","","","","","","","","","","","","","","","","","","","",""
"","","","","","html-button-response","189","540826","0.0-3.0-1.1-1.1-1.1","596c36966956b40001c59d4e","A3","batch1","","1779.7999999523163","<p class = block-text>True or False: You can only move the ball on top of a peg. <br></p>","0","tol_quiz","true","","","","","","","","","","","","","","","","","","","","","","","",""
"","","","","","html-button-response","190","541611","0.0-3.0-1.1-1.1-2.1","596c36966956b40001c59d4e","A3","batch1","","783.7000000476837","<p class = block-text>Correct! You can only move the ball on top of a peg.</p>","0","tol_quiz_feedback","","","","","","","","","","","","","","","","","","","","","","","","",""
"","","","","","html-button-response","191","542787","0.0-3.0-1.1-1.1-3.1","596c36966956b40001c59d4e","A3","batch1","","1175.1000000238419","<p class = block-text>True or False: You should try to match your board with the target board with fewest moves possible. <br></p>","0","tol_quiz","true","","","","","","","","","","","","","","","","","","","","","","","",""
"","","","","","html-button-response","192","543411","0.0-3.0-1.1-1.1-4.1","596c36966956b40001c59d4e","A3","batch1","","623","<p class = block-text>Correct! </p>","0","tol_quiz_feedback","","","","","","","","","","","","","","","","","","","","","","","","",""
"","","","","","html-button-response","193","545169","0.0-3.0-2.0","596c36966956b40001c59d4e","A3","batch1","","1756.8999999761581","<p class=block-text> Now that you've understood the game, let's practice a few easier examples before we start!<br> <br>","0","","","","","","","","","","","","","","","","","","","","","","","","","",""
"","","","","","single-stim-button","194","547230","0.0-3.0-3.0-0.0","596c36966956b40001c59d4e","A3","batch1","","2058","","","tol_practice","","","","","","","","","tol_peg_2","2058","2058","0","[[1,2,0],[0,0],[0]]","1","[[1,2,0],[0,0],[3]]","practice","2058","","","","","","","",""
"","","","","","single-stim-button","195","548979","0.0-3.0-3.0-1.0","596c36966956b40001c59d4e","A3","batch1","","1746","","","tol_practice","","","","","","","","","tol_peg_3","1746","1746","0","[[1,2,0],[0,0],[3]]","1","[[1,2,0],[0,0],[3]]","practice","1746","","","","","","","",""
"","","","","","poldrack-single-stim","196","549984","0.0-3.0-4.0","596c36966956b40001c59d4e","A3","batch1","","-1","","","tol_feedback","true","","","","","","","","","1000","1000","500","","","","","","-1","none","true","","0","","",""
"","","","","","single-stim-button","197","552927","0.0-3.0-5.0-0.0","596c36966956b40001c59d4e","A3","batch1","","2942","","","tol_practice","","","","","","","","","tol_peg_1","2942","2942","0","[[1,0,0],[3,0],[0]]","2","[[0,0,0],[3,1],[2]]","practice","2942","","","","","","","",""
"","","","","","single-stim-button","198","553603","0.0-3.0-5.0-1.0","596c36966956b40001c59d4e","A3","batch1","","675","","","tol_practice","","","","","","","","","tol_peg_3","675","675","0","[[1,0,0],[3,0],[2]]","2","[[0,0,0],[3,1],[2]]","practice","675","","","","","","","",""
"","","","","","single-stim-button","199","554163","0.0-3.0-5.1-0.1","596c36966956b40001c59d4e","A3","batch1","","559","","","tol_practice","","","","","","","","","tol_peg_1","559","559","0","[[0,0,0],[3,0],[2]]","3","[[0,0,0],[3,1],[2]]","practice","559","","","","","","","",""
"","","","","","single-stim-button","200","554900","0.0-3.0-5.1-1.1","596c36966956b40001c59d4e","A3","batch1","","736","","","tol_practice","","","","","","","","","tol_peg_2","736","736","0","[[0,0,0],[3,1],[2]]","3","[[0,0,0],[3,1],[2]]","practice","736","","","","","","","",""
"","","","","","poldrack-single-stim","201","555906","0.0-3.0-6.0","596c36966956b40001c59d4e","A3","batch1","","-1","","","tol_feedback","true","","","","","","","","","1000","1000","500","","","","","","-1","none","true","","0","","",""
"","","","","","single-stim-button","202","558752","0.0-3.0-7.0-0.0","596c36966956b40001c59d4e","A3","batch1","","2846","","","tol_practice","","","","","","","","","tol_peg_2","2846","2846","0","[[1,2,0],[0,0],[0]]","4","[[1,0,0],[2,0],[3]]","practice","2846","","","","","","","",""
"","","","","","single-stim-button","203","559459","0.0-3.0-7.0-1.0","596c36966956b40001c59d4e","A3","batch1","","706","","","tol_practice","","","","","","","","","tol_peg_3","706","706","0","[[1,2,0],[0,0],[3]]","4","[[1,0,0],[2,0],[3]]","practice","706","","","","","","","",""
"","","","","","single-stim-button","204","560441","0.0-3.0-7.1-0.1","596c36966956b40001c59d4e","A3","batch1","","982","","","tol_practice","","","","","","","","","tol_peg_1","982","982","0","[[1,0,0],[0,0],[3]]","5","[[1,0,0],[2,0],[3]]","practice","982","","","","","","","",""
"","","","","","single-stim-button","205","561082","0.0-3.0-7.1-1.1","596c36966956b40001c59d4e","A3","batch1","","641","","","tol_practice","","","","","","","","","tol_peg_2","641","641","0","[[1,0,0],[2,0],[3]]","5","[[1,0,0],[2,0],[3]]","practice","641","","","","","","","",""
"","","","","","poldrack-single-stim","206","562084","0.0-3.0-8.0","596c36966956b40001c59d4e","A3","batch1","","-1","","","tol_feedback","true","","","","","","","","","1000","1000","500","","","","","","-1","none","true","","0","","",""
"","","","","","html-button-response","207","564486","0.0-3.0-9.0","596c36966956b40001c59d4e","A3","batch1","","2400.7000000476837","<div class = centerbox><p class = center-block-text>Great job! You are done with practice trials<br>You are about to start official trials.<br> <br> Problem <strong>1</strong> out of 25 problems</p></div>","0","tol_instruction","","","","","","","","","","","","","","","","","","","","","","","","",""
"","","","","","single-stim-button","208","569900","0.0-3.0-10.0-0.0","596c36966956b40001c59d4e","A3","batch1","","4407","","","tol_tohand","","","","","","","","","tol_peg_1","4407","4407","0","[[1,0,0],[3,0],[0]]","1","[[1,3,0],[2,0],[0]]","0","0","","","","","","3","",""
"","","","","","single-stim-button","209","570973","0.0-3.0-10.0-1.0","596c36966956b40001c59d4e","A3","batch1","","1072","","","tol_toboard","","","","","","","","","tol_peg_3","1072","1072","0","[[1,0,0],[3,0],[2]]","1","[[1,3,0],[2,0],[0]]","0","0","","","","","","3","",""
"","","","","","single-stim-button","210","571468","0.0-3.0-10.1-0.1","596c36966956b40001c59d4e","A3","batch1","","495","","","tol_tohand","","","","","","","","","tol_peg_2","495","495","0","[[1,0,0],[0,0],[2]]","2","[[1,3,0],[2,0],[0]]","0","0","","","","","","3","",""
"","","","","","single-stim-button","211","572365","0.0-3.0-10.1-1.1","596c36966956b40001c59d4e","A3","batch1","","896","","","tol_toboard","","","","","","","","","tol_peg_1","896","896","0","[[1,3,0],[0,0],[2]]","2","[[1,3,0],[2,0],[0]]","0","0","","","","","","3","",""
"","","","","","single-stim-button","212","573006","0.0-3.0-10.2-0.2","596c36966956b40001c59d4e","A3","batch1","","639","","","tol_tohand","","","","","","","","","tol_peg_3","639","639","0","[[1,3,0],[0,0],[0]]","3","[[1,3,0],[2,0],[0]]","0","0","","","","","","3","",""
"","","","","","single-stim-button","213","573598","0.0-3.0-10.2-1.2","596c36966956b40001c59d4e","A3","batch1","","592","","","tol_toboard","","","","","","","","","tol_peg_2","592","592","0","[[1,3,0],[2,0],[0]]","3","[[1,3,0],[2,0],[0]]","0","0","","","","","","3","",""
"","","","","","poldrack-single-stim","214","574600","0.0-3.0-11.0","596c36966956b40001c59d4e","A3","batch1","","-1","","","tol_feedback","true","","","","","","","","","1000","1000","500","","","","","","-1","none","true","4407","5541","","",""
"","","","","","html-button-response","215","575675","0.0-3.0-12.0","596c36966956b40001c59d4e","A3","batch1","","1073.3000000715256","<div class = centerbox><p class = center-block-text>problem <strong>2</strong> out of 25 problems</p></div>","0","tol_trial_num","","","","","","","","","","","","","","","","","","","","","","","","",""
"","","","","","single-stim-button","216","582956","0.0-3.0-13.0-0.0","596c36966956b40001c59d4e","A3","batch1","","7279","","","tol_tohand","","","","","","","","","tol_peg_1","7279","7279","0","[[1,0,0],[3,0],[0]]","1","[[2,1,3],[0,0],[0]]","1","0","","","","","","5","",""
"","","","","","single-stim-button","217","583804","0.0-3.0-13.0-1.0","596c36966956b40001c59d4e","A3","batch1","","847","","","tol_toboard","","","","","","","","","tol_peg_3","847","847","0","[[1,0,0],[3,0],[2]]","1","[[2,1,3],[0,0],[0]]","1","0","","","","","","5","",""
"","","","","","single-stim-button","218","584470","0.0-3.0-13.1-0.1","596c36966956b40001c59d4e","A3","batch1","","665","","","tol_tohand","","","","","","","","","tol_peg_1","665","665","0","[[0,0,0],[3,0],[2]]","2","[[2,1,3],[0,0],[0]]","1","0","","","","","","5","",""
"","","","","","single-stim-button","219","585357","0.0-3.0-13.1-1.1","596c36966956b40001c59d4e","A3","batch1","","887","","","tol_toboard","","","","","","","","","tol_peg_2","887","887","0","[[0,0,0],[3,1],[2]]","2","[[2,1,3],[0,0],[0]]","1","0","","","","","","5","",""
"","","","","","single-stim-button","220","585901","0.0-3.0-13.2-0.2","596c36966956b40001c59d4e","A3","batch1","","543","","","tol_tohand","","","","","","","","","tol_peg_3","543","543","0","[[0,0,0],[3,1],[0]]","3","[[2,1,3],[0,0],[0]]","1","0","","","","","","5","",""
"","","","","","single-stim-button","221","586520","0.0-3.0-13.2-1.2","596c36966956b40001c59d4e","A3","batch1","","618","","","tol_toboard","","","","","","","","","tol_peg_1","618","618","0","[[2,0,0],[3,1],[0]]","3","[[2,1,3],[0,0],[0]]","1","0","","","","","","5","",""
"","","","","","single-stim-button","222","587082","0.0-3.0-13.3-0.3","596c36966956b40001c59d4e","A3","batch1","","560","","","tol_tohand","","","","","","","","","tol_peg_2","560","560","0","[[2,0,0],[3,0],[0]]","4","[[2,1,3],[0,0],[0]]","1","0","","","","","","5","",""
"","","","","","single-stim-button","223","587867","0.0-3.0-13.3-1.3","596c36966956b40001c59d4e","A3","batch1","","784","","","tol_toboard","","","","","","","","","tol_peg_1","784","784","0","[[2,1,0],[3,0],[0]]","4","[[2,1,3],[0,0],[0]]","1","0","","","","","","5","",""
"","","","","","single-stim-button","224","588491","0.0-3.0-13.4-0.4","596c36966956b40001c59d4e","A3","batch1","","623","","","tol_tohand","","","","","","","","","tol_peg_2","623","623","0","[[2,1,0],[0,0],[0]]","5","[[2,1,3],[0,0],[0]]","1","0","","","","","","5","",""
"","","","","","single-stim-button","225","589300","0.0-3.0-13.4-1.4","596c36966956b40001c59d4e","A3","batch1","","809","","","tol_toboard","","","","","","","","","tol_peg_1","809","809","0","[[2,1,3],[0,0],[0]]","5","[[2,1,3],[0,0],[0]]","1","0","","","","","","5","",""
"","","","","","poldrack-single-stim","226","590306","0.0-3.0-14.0","596c36966956b40001c59d4e","A3","batch1","","-1","","","tol_feedback","true","","","","","","","","","1000","1000","500","","","","","","-1","none","true","7279","9670","","",""
"","","","","","html-button-response","227","591024","0.0-3.0-15.0","596c36966956b40001c59d4e","A3","batch1","","716.3999999761581","<div class = centerbox><p class = center-block-text>problem <strong>3</strong> out of 25 problems</p></div>","0","tol_trial_num","","","","","","","","","","","","","","","","","","","","","","","","",""
"","","","","","single-stim-button","228","602897","0.0-3.0-16.0-0.0","596c36966956b40001c59d4e","A3","batch1","","11872","","","tol_tohand","","","","","","","","","tol_peg_3","11872","11872","0","[[2,3,0],[0,0],[0]]","1","[[1,2,0],[3,0],[0]]","2","0","","","","","","4","",""
"","","","","","single-stim-button","229","603514","0.0-3.0-16.0-1.0","596c36966956b40001c59d4e","A3","batch1","","616","","","tol_toboard","","","","","","","","","tol_peg_2","616","616","0","[[2,3,0],[1,0],[0]]","1","[[1,2,0],[3,0],[0]]","2","0","","","","","","4","",""
"","","","","","single-stim-button","230","604299","0.0-3.0-16.1-0.1","596c36966956b40001c59d4e","A3","batch1","","784","","","tol_tohand","","","","","","","","","tol_peg_1","784","784","0","[[2,0,0],[1,0],[0]]","2","[[1,2,0],[3,0],[0]]","2","0","","","","","","4","",""
"","","","","","single-stim-button","231","606142","0.0-3.0-16.1-1.1","596c36966956b40001c59d4e","A3","batch1","","1842","","","tol_toboard","","","","","","","","","tol_peg_3","1842","1842","0","[[2,0,0],[1,0],[3]]","2","[[1,2,0],[3,0],[0]]","2","0","","","","","","4","",""
"","","","","","single-stim-button","232","617476","0.0-3.0-16.2-0.2","596c36966956b40001c59d4e","A3","batch1","","11333","","","tol_tohand","","","","","","","","","tol_peg_3","11333","11333","0","[[2,0,0],[1,0],[0]]","3","[[1,2,0],[3,0],[0]]","2","0","","","","","","4","",""
"","","","","","single-stim-button","233","618531","0.0-3.0-16.2-1.2","596c36966956b40001c59d4e","A3","batch1","","1054","","","tol_toboard","","","","","","","","","tol_peg_1","1054","1054","0","[[2,3,0],[1,0],[0]]","3","[[1,2,0],[3,0],[0]]","2","0","","","","","","4","",""
"","","","","","single-stim-button","234","618997","0.0-3.0-16.3-0.3","596c36966956b40001c59d4e","A3","batch1","","466","","","tol_tohand","","","","","","","","","tol_peg_2","466","466","0","[[2,3,0],[0,0],[0]]","4","[[1,2,0],[3,0],[0]]","2","0","","","","","","4","",""
"","","","","","single-stim-button","235","619453","0.0-3.0-16.3-1.3","596c36966956b40001c59d4e","A3","batch1","","455","","","tol_toboard","","","","","","","","","tol_peg_3","455","455","0","[[2,3,0],[0,0],[1]]","4","[[1,2,0],[3,0],[0]]","2","0","","","","","","4","",""
"","","","","","single-stim-button","236","620070","0.0-3.0-16.4-0.4","596c36966956b40001c59d4e","A3","batch1","","615","","","tol_tohand","","","","","","","","","tol_peg_1","615","615","0","[[2,0,0],[0,0],[1]]","5","[[1,2,0],[3,0],[0]]","2","0","","","","","","4","",""
"","","","","","single-stim-button","237","620542","0.0-3.0-16.4-1.4","596c36966956b40001c59d4e","A3","batch1","","472","","","tol_toboard","","","","","","","","","tol_peg_2","472","472","0","[[2,0,0],[3,0],[1]]","5","[[1,2,0],[3,0],[0]]","2","0","","","","","","4","",""
"","","","","","single-stim-button","238","621200","0.0-3.0-16.5-0.5","596c36966956b40001c59d4e","A3","batch1","","657","","","tol_tohand","","","","","","","","","tol_peg_1","657","657","0","[[0,0,0],[3,0],[1]]","6","[[1,2,0],[3,0],[0]]","2","0","","","","","","4","",""
"","","","","","single-stim-button","239","621801","0.0-3.0-16.5-1.5","596c36966956b40001c59d4e","A3","batch1","","599","","","tol_toboard","","","","","","","","","tol_peg_2","599","599","0","[[0,0,0],[3,2],[1]]","6","[[1,2,0],[3,0],[0]]","2","0","","","","","","4","",""
"","","","","","single-stim-button","240","622171","0.0-3.0-16.6-0.6","596c36966956b40001c59d4e","A3","batch1","","369","","","tol_tohand","","","","","","","","","tol_peg_3","369","369","0","[[0,0,0],[3,2],[0]]","7","[[1,2,0],[3,0],[0]]","2","0","","","","","","4","",""
"","","","","","single-stim-button","241","623002","0.0-3.0-16.6-1.6","596c36966956b40001c59d4e","A3","batch1","","831","","","tol_toboard","","","","","","","","","tol_peg_1","831","831","0","[[1,0,0],[3,2],[0]]","7","[[1,2,0],[3,0],[0]]","2","0","","","","","","4","",""
"","","","","","single-stim-button","242","623884","0.0-3.0-16.7-0.7","596c36966956b40001c59d4e","A3","batch1","","881","","","tol_tohand","","","","","","","","","tol_peg_2","881","881","0","[[1,0,0],[3,0],[0]]","8","[[1,2,0],[3,0],[0]]","2","0","","","","","","4","",""
"","","","","","single-stim-button","243","624452","0.0-3.0-16.7-1.7","596c36966956b40001c59d4e","A3","batch1","","567","","","tol_toboard","","","","","","","","","tol_peg_1","567","567","0","[[1,2,0],[3,0],[0]]","8","[[1,2,0],[3,0],[0]]","2","0","","","","","","4","",""
"","","","","","poldrack-single-stim","244","625454","0.0-3.0-17.0","596c36966956b40001c59d4e","A3","batch1","","-1","","","tol_feedback","true","","","","","","","","","1000","1000","500","","","","","","-1","none","true","11872","26977","","",""
"","","","","","html-button-response","245","626273","0.0-3.0-18.0","596c36966956b40001c59d4e","A3","batch1","","817.6000000238419","<div class = centerbox><p class = center-block-text>problem <strong>4</strong> out of 25 problems</p></div>","0","tol_trial_num","","","","","","","","","","","","","","","","","","","","","","","","",""
"","","","","","single-stim-button","246","631103","0.0-3.0-19.0-0.0","596c36966956b40001c59d4e","A3","batch1","","4830","","","tol_tohand","","","","","","","","","tol_peg_2","4830","4830","0","[[3,0,0],[2,0],[0]]","1","[[3,0,0],[1,0],[2]]","3","0","","","","","","3","",""
"","","","","","single-stim-button","247","631571","0.0-3.0-19.0-1.0","596c36966956b40001c59d4e","A3","batch1","","466","","","tol_toboard","","","","","","","","","tol_peg_1","466","466","0","[[3,1,0],[2,0],[0]]","1","[[3,0,0],[1,0],[2]]","3","0","","","","","","3","",""
"","","","","","single-stim-button","248","631952","0.0-3.0-19.1-0.1","596c36966956b40001c59d4e","A3","batch1","","381","","","tol_tohand","","","","","","","","","tol_peg_2","381","381","0","[[3,1,0],[0,0],[0]]","2","[[3,0,0],[1,0],[2]]","3","0","","","","","","3","",""
"","","","","","single-stim-button","249","632480","0.0-3.0-19.1-1.1","596c36966956b40001c59d4e","A3","batch1","","527","","","tol_toboard","","","","","","","","","tol_peg_3","527","527","0","[[3,1,0],[0,0],[2]]","2","[[3,0,0],[1,0],[2]]","3","0","","","","","","3","",""
"","","","","","single-stim-button","250","633060","0.0-3.0-19.2-0.2","596c36966956b40001c59d4e","A3","batch1","","578","","","tol_tohand","","","","","","","","","tol_peg_1","578","578","0","[[3,0,0],[0,0],[2]]","3","[[3,0,0],[1,0],[2]]","3","0","","","","","","3","",""
"","","","","","single-stim-button","251","633849","0.0-3.0-19.2-1.2","596c36966956b40001c59d4e","A3","batch1","","789","","","tol_toboard","","","","","","","","","tol_peg_2","789","789","0","[[3,0,0],[1,0],[2]]","3","[[3,0,0],[1,0],[2]]","3","0","","","","","","3","",""
"","","","","","poldrack-single-stim","252","634854","0.0-3.0-20.0","596c36966956b40001c59d4e","A3","batch1","","-1","","","tol_feedback","true","","","","","","","","","1000","1000","500","","","","","","-1","none","true","4830","5789","","",""
"","","","","","html-button-response","253","635622","0.0-3.0-21.0","596c36966956b40001c59d4e","A3","batch1","","766.5999999046326","<div class = centerbox><p class = center-block-text>problem <strong>5</strong> out of 25 problems</p></div>","0","tol_trial_num","","","","","","","","","","","","","","","","","","","","","","","","",""
"","","","","","single-stim-button","254","642367","0.0-3.0-22.0-0.0","596c36966956b40001c59d4e","A3","batch1","","6744","","","tol_tohand","","","","","","","","","tol_peg_3","6744","6744","0","[[1,0,0],[2,0],[0]]","1","[[0,0,0],[1,2],[3]]","4","0","","","","","","7","",""
"","","","","","single-stim-button","255","661712","0.0-3.0-22.0-1.0","596c36966956b40001c59d4e","A3","batch1","","19344","","","tol_toboard","","","","","","","","","tol_peg_2","19344","19344","0","[[1,0,0],[2,3],[0]]","1","[[0,0,0],[1,2],[3]]","4","0","","","","","","7","",""
"","","","","","single-stim-button","256","662163","0.0-3.0-22.1-0.1","596c36966956b40001c59d4e","A3","batch1","","449","","","tol_tohand","","","","","","","","","tol_peg_1","449","449","0","[[0,0,0],[2,3],[0]]","2","[[0,0,0],[1,2],[3]]","4","0","","","","","","7","",""
"","","","","","single-stim-button","257","663015","0.0-3.0-22.1-1.1","596c36966956b40001c59d4e","A3","batch1","","852","","","tol_toboard","","","","","","","","","tol_peg_3","852","852","0","[[0,0,0],[2,3],[1]]","2","[[0,0,0],[1,2],[3]]","4","0","","","","","","7","",""
"","","","","","single-stim-button","258","663585","0.0-3.0-22.2-0.2","596c36966956b40001c59d4e","A3","batch1","","569","","","tol_tohand","","","","","","","","","tol_peg_2","569","569","0","[[0,0,0],[2,0],[1]]","3","[[0,0,0],[1,2],[3]]","4","0","","","","","","7","",""
"","","","","","single-stim-button","259","665491","0.0-3.0-22.2-1.2","596c36966956b40001c59d4e","A3","batch1","","1906","","","tol_toboard","","","","","","","","","tol_peg_1","1906","1906","0","[[3,0,0],[2,0],[1]]","3","[[0,0,0],[1,2],[3]]","4","0","","","","","","7","",""
"","","","","","single-stim-button","260","665924","0.0-3.0-22.3-0.3","596c36966956b40001c59d4e","A3","batch1","","431","","","tol_tohand","","","","","","","","","tol_peg_2","431","431","0","[[3,0,0],[0,0],[1]]","4","[[0,0,0],[1,2],[3]]","4","0","","","","","","7","",""
"","","","","","single-stim-button","261","666492","0.0-3.0-22.3-1.3","596c36966956b40001c59d4e","A3","batch1","","568","","","tol_toboard","","","","","","","","","tol_peg_1","568","568","0","[[3,2,0],[0,0],[1]]","4","[[0,0,0],[1,2],[3]]","4","0","","","","","","7","",""
"","","","","","single-stim-button","262","667004","0.0-3.0-22.4-0.4","596c36966956b40001c59d4e","A3","batch1","","511","","","tol_tohand","","","","","","","","","tol_peg_3","511","511","0","[[3,2,0],[0,0],[0]]","5","[[0,0,0],[1,2],[3]]","4","0","","","","","","7","",""
"","","","","","single-stim-button","263","667364","0.0-3.0-22.4-1.4","596c36966956b40001c59d4e","A3","batch1","","358","","","tol_toboard","","","","","","","","","tol_peg_2","358","358","0","[[3,2,0],[1,0],[0]]","5","[[0,0,0],[1,2],[3]]","4","0","","","","","","7","",""
"","","","","","single-stim-button","264","667748","0.0-3.0-22.5-0.5","596c36966956b40001c59d4e","A3","batch1","","384","","","tol_tohand","","","","","","","","","tol_peg_1","384","384","0","[[3,0,0],[1,0],[0]]","6","[[0,0,0],[1,2],[3]]","4","0","","","","","","7","",""
"","","","","","single-stim-button","265","668347","0.0-3.0-22.5-1.5","596c36966956b40001c59d4e","A3","batch1","","598","","","tol_toboard","","","","","","","","","tol_peg_2","598","598","0","[[3,0,0],[1,2],[0]]","6","[[0,0,0],[1,2],[3]]","4","0","","","","","","7","",""
"","","","","","single-stim-button","266","668767","0.0-3.0-22.6-0.6","596c36966956b40001c59d4e","A3","batch1","","420","","","tol_tohand","","","","","","","","","tol_peg_1","420","420","0","[[0,0,0],[1,2],[0]]","7","[[0,0,0],[1,2],[3]]","4","0","","","","","","7","",""
"","","","","","single-stim-button","267","669511","0.0-3.0-22.6-1.6","596c36966956b40001c59d4e","A3","batch1","","743","","","tol_toboard","","","","","","","","","tol_peg_3","743","743","0","[[0,0,0],[1,2],[3]]","7","[[0,0,0],[1,2],[3]]","4","0","","","","","","7","",""
"","","","","","poldrack-single-stim","268","670519","0.0-3.0-23.0","596c36966956b40001c59d4e","A3","batch1","","-1","","","tol_feedback","true","","","","","","","","","1000","1000","500","","","","","","-1","none","true","6744","9508","","",""
"","","","","","html-button-response","269","671518","0.0-3.0-24.0","596c36966956b40001c59d4e","A3","batch1","","998","<div class = centerbox><p class = center-block-text>problem <strong>6</strong> out of 25 problems</p></div>","0","tol_trial_num","","","","","","","","","","","","","","","","","","","","","","","","",""
"","","","","","single-stim-button","270","697272","0.0-3.0-25.0-0.0","596c36966956b40001c59d4e","A3","batch1","","25752","","","tol_tohand","","","","","","","","","tol_peg_3","25752","25752","0","[[0,0,0],[1,2],[0]]","1","[[1,0,0],[2,3],[0]]","5","0","","","","","","6","",""
"","","","","","single-stim-button","271","697810","0.0-3.0-25.0-1.0","596c36966956b40001c59d4e","A3","batch1","","536","","","tol_toboard","","","","","","","","","tol_peg_1","536","536","0","[[3,0,0],[1,2],[0]]","1","[[1,0,0],[2,3],[0]]","5","0","","","","","","6","",""
"","","","","","single-stim-button","272","698297","0.0-3.0-25.1-0.1","596c36966956b40001c59d4e","A3","batch1","","486","","","tol_tohand","","","","","","","","","tol_peg_2","486","486","0","[[3,0,0],[1,0],[0]]","2","[[1,0,0],[2,3],[0]]","5","0","","","","","","6","",""
"","","","","","single-stim-button","273","698818","0.0-3.0-25.1-1.1","596c36966956b40001c59d4e","A3","batch1","","520","","","tol_toboard","","","","","","","","","tol_peg_1","520","520","0","[[3,2,0],[1,0],[0]]","2","[[1,0,0],[2,3],[0]]","5","0","","","","","","6","",""
"","","","","","single-stim-button","274","699305","0.0-3.0-25.2-0.2","596c36966956b40001c59d4e","A3","batch1","","486","","","tol_tohand","","","","","","","","","tol_peg_2","486","486","0","[[3,2,0],[0,0],[0]]","3","[[1,0,0],[2,3],[0]]","5","0","","","","","","6","",""
"","","","","","single-stim-button","275","700358","0.0-3.0-25.2-1.2","596c36966956b40001c59d4e","A3","batch1","","1051","","","tol_toboard","","","","","","","","","tol_peg_3","1051","1051","0","[[3,2,0],[0,0],[1]]","3","[[1,0,0],[2,3],[0]]","5","0","","","","","","6","",""
"","","","","","single-stim-button","276","700898","0.0-3.0-25.3-0.3","596c36966956b40001c59d4e","A3","batch1","","540","","","tol_tohand","","","","","","","","","tol_peg_1","540","540","0","[[3,0,0],[0,0],[1]]","4","[[1,0,0],[2,3],[0]]","5","0","","","","","","6","",""
"","","","","","single-stim-button","277","701595","0.0-3.0-25.3-1.3","596c36966956b40001c59d4e","A3","batch1","","695","","","tol_toboard","","","","","","","","","tol_peg_2","695","695","0","[[3,0,0],[2,0],[1]]","4","[[1,0,0],[2,3],[0]]","5","0","","","","","","6","",""
"","","","","","single-stim-button","278","702026","0.0-3.0-25.4-0.4","596c36966956b40001c59d4e","A3","batch1","","431","","","tol_tohand","","","","","","","","","tol_peg_1","431","431","0","[[0,0,0],[2,0],[1]]","5","[[1,0,0],[2,3],[0]]","5","0","","","","","","6","",""
"","","","","","single-stim-button","279","702475","0.0-3.0-25.4-1.4","596c36966956b40001c59d4e","A3","batch1","","447","","","tol_toboard","","","","","","","","","tol_peg_2","447","447","0","[[0,0,0],[2,3],[1]]","5","[[1,0,0],[2,3],[0]]","5","0","","","","","","6","",""
"","","","","","single-stim-button","280","702901","0.0-3.0-25.5-0.5","596c36966956b40001c59d4e","A3","batch1","","425","","","tol_tohand","","","","","","","","","tol_peg_3","425","425","0","[[0,0,0],[2,3],[0]]","6","[[1,0,0],[2,3],[0]]","5","0","","","","","","6","",""
"","","","","","single-stim-button","281","703485","0.0-3.0-25.5-1.5","596c36966956b40001c59d4e","A3","batch1","","584","","","tol_toboard","","","","","","","","","tol_peg_1","584","584","0","[[1,0,0],[2,3],[0]]","6","[[1,0,0],[2,3],[0]]","5","0","","","","","","6","",""
"","","","","","poldrack-single-stim","282","704496","0.0-3.0-26.0","596c36966956b40001c59d4e","A3","batch1","","-1","","","tol_feedback","true","","","","","","","","","1000","1000","500","","","","","","-1","none","true","25752","28120","","",""
"","","","","","html-button-response","283","705421","0.0-3.0-27.0","596c36966956b40001c59d4e","A3","batch1","","923.2000000476837","<div class = centerbox><p class = center-block-text>problem <strong>7</strong> out of 25 problems</p></div>","0","tol_trial_num","","","","","","","","","","","","","","","","","","","","","","","","",""
"","","","","","single-stim-button","284","712831","0.0-3.0-28.0-0.0","596c36966956b40001c59d4e","A3","batch1","","7409","","","tol_tohand","","","","","","","","","tol_peg_3","7409","7409","0","[[2,1,0],[0,0],[0]]","1","[[1,2,0],[3,0],[0]]","6","0","","","","","","5","",""
"","","","","","single-stim-button","285","713385","0.0-3.0-28.0-1.0","596c36966956b40001c59d4e","A3","batch1","","554","","","tol_toboard","","","","","","","","","tol_peg_2","554","554","0","[[2,1,0],[3,0],[0]]","1","[[1,2,0],[3,0],[0]]","6","0","","","","","","5","",""
"","","","","","single-stim-button","286","714825","0.0-3.0-28.1-0.1","596c36966956b40001c59d4e","A3","batch1","","1438","","","tol_tohand","","","","","","","","","tol_peg_1","1438","1438","0","[[2,0,0],[3,0],[0]]","2","[[1,2,0],[3,0],[0]]","6","0","","","","","","5","",""
"","","","","","single-stim-button","287","715455","0.0-3.0-28.1-1.1","596c36966956b40001c59d4e","A3","batch1","","630","","","tol_toboard","","","","","","","","","tol_peg_2","630","630","0","[[2,0,0],[3,1],[0]]","2","[[1,2,0],[3,0],[0]]","6","0","","","","","","5","",""
"","","","","","single-stim-button","288","716106","0.0-3.0-28.2-0.2","596c36966956b40001c59d4e","A3","batch1","","649","","","tol_tohand","","","","","","","","","tol_peg_1","649","649","0","[[0,0,0],[3,1],[0]]","3","[[1,2,0],[3,0],[0]]","6","0","","","","","","5","",""
"","","","","","single-stim-button","289","716649","0.0-3.0-28.2-1.2","596c36966956b40001c59d4e","A3","batch1","","543","","","tol_toboard","","","","","","","","","tol_peg_3","543","543","0","[[0,0,0],[3,1],[2]]","3","[[1,2,0],[3,0],[0]]","6","0","","","","","","5","",""
"","","","","","single-stim-button","290","717090","0.0-3.0-28.3-0.3","596c36966956b40001c59d4e","A3","batch1","","439","","","tol_tohand","","","","","","","","","tol_peg_2","439","439","0","[[0,0,0],[3,0],[2]]","4","[[1,2,0],[3,0],[0]]","6","0","","","","","","5","",""
"","","","","","single-stim-button","291","717642","0.0-3.0-28.3-1.3","596c36966956b40001c59d4e","A3","batch1","","551","","","tol_toboard","","","","","","","","","tol_peg_1","551","551","0","[[1,0,0],[3,0],[2]]","4","[[1,2,0],[3,0],[0]]","6","0","","","","","","5","",""
"","","","","","single-stim-button","292","718192","0.0-3.0-28.4-0.4","596c36966956b40001c59d4e","A3","batch1","","550","","","tol_tohand","","","","","","","","","tol_peg_3","550","550","0","[[1,0,0],[3,0],[0]]","5","[[1,2,0],[3,0],[0]]","6","0","","","","","","5","",""
"","","","","","single-stim-button","293","718898","0.0-3.0-28.4-1.4","596c36966956b40001c59d4e","A3","batch1","","704","","","tol_toboard","","","","","","","","","tol_peg_1","704","704","0","[[1,2,0],[3,0],[0]]","5","[[1,2,0],[3,0],[0]]","6","0","","","","","","5","",""
"","","","","","poldrack-single-stim","294","719903","0.0-3.0-29.0","596c36966956b40001c59d4e","A3","batch1","","-1","","","tol_feedback","true","","","","","","","","","1000","1000","500","","","","","","-1","none","true","7409","10485","","",""
"","","","","","html-button-response","295","720635","0.0-3.0-30.0","596c36966956b40001c59d4e","A3","batch1","","730.2000000476837","<div class = centerbox><p class = center-block-text>problem <strong>8</strong> out of 25 problems</p></div>","0","tol_trial_num","","","","","","","","","","","","","","","","","","","","","","","","",""
"","","","","","single-stim-button","296","724464","0.0-3.0-31.0-0.0","596c36966956b40001c59d4e","A3","batch1","","3828","","","tol_tohand","","","","","","","","","tol_peg_3","3828","3828","0","[[0,0,0],[2,3],[0]]","1","[[1,2,0],[3,0],[0]]","7","0","","","","","","4","",""
"","","","","","single-stim-button","297","725002","0.0-3.0-31.0-1.0","596c36966956b40001c59d4e","A3","batch1","","537","","","tol_toboard","","","","","","","","","tol_peg_1","537","537","0","[[1,0,0],[2,3],[0]]","1","[[1,2,0],[3,0],[0]]","7","0","","","","","","4","",""
"","","","","","single-stim-button","298","725530","0.0-3.0-31.1-0.1","596c36966956b40001c59d4e","A3","batch1","","527","","","tol_tohand","","","","","","","","","tol_peg_2","527","527","0","[[1,0,0],[2,0],[0]]","2","[[1,2,0],[3,0],[0]]","7","0","","","","","","4","",""
"","","","","","single-stim-button","299","726216","0.0-3.0-31.1-1.1","596c36966956b40001c59d4e","A3","batch1","","685","","","tol_toboard","","","","","","","","","tol_peg_3","685","685","0","[[1,0,0],[2,0],[3]]","2","[[1,2,0],[3,0],[0]]","7","0","","","","","","4","",""
"","","","","","single-stim-button","300","726666","0.0-3.0-31.2-0.2","596c36966956b40001c59d4e","A3","batch1","","449","","","tol_tohand","","","","","","","","","tol_peg_2","449","449","0","[[1,0,0],[0,0],[3]]","3","[[1,2,0],[3,0],[0]]","7","0","","","","","","4","",""
"","","","","","single-stim-button","301","727610","0.0-3.0-31.2-1.2","596c36966956b40001c59d4e","A3","batch1","","943","","","tol_toboard","","","","","","","","","tol_peg_1","943","943","0","[[1,2,0],[0,0],[3]]","3","[[1,2,0],[3,0],[0]]","7","0","","","","","","4","",""
"","","","","","single-stim-button","302","728217","0.0-3.0-31.3-0.3","596c36966956b40001c59d4e","A3","batch1","","606","","","tol_tohand","","","","","","","","","tol_peg_3","606","606","0","[[1,2,0],[0,0],[0]]","4","[[1,2,0],[3,0],[0]]","7","0","","","","","","4","",""
"","","","","","single-stim-button","303","728658","0.0-3.0-31.3-1.3","596c36966956b40001c59d4e","A3","batch1","","441","","","tol_toboard","","","","","","","","","tol_peg_2","441","441","0","[[1,2,0],[3,0],[0]]","4","[[1,2,0],[3,0],[0]]","7","0","","","","","","4","",""
"","","","","","poldrack-single-stim","304","729665","0.0-3.0-32.0","596c36966956b40001c59d4e","A3","batch1","","-1","","","tol_feedback","true","","","","","","","","","1000","1000","500","","","","","","-1","none","true","3828","5410","","",""
"","","","","","html-button-response","305","730340","0.0-3.0-33.0","596c36966956b40001c59d4e","A3","batch1","","672.6000000238419","<div class = centerbox><p class = center-block-text>problem <strong>9</strong> out of 25 problems</p></div>","0","tol_trial_num","","","","","","","","","","","","","","","","","","","","","","","","",""
"","","","","","single-stim-button","306","760084","0.0-3.0-34.0-0.0","596c36966956b40001c59d4e","A3","batch1","","29744","","","tol_tohand","","","","","","","","","tol_peg_3","29744","29744","0","[[3,2,0],[0,0],[0]]","1","[[2,1,0],[3,0],[0]]","8","0","","","","","","6","",""
"","","","","","single-stim-button","307","760542","0.0-3.0-34.0-1.0","596c36966956b40001c59d4e","A3","batch1","","458","","","tol_toboard","","","","","","","","","tol_peg_2","458","458","0","[[3,2,0],[1,0],[0]]","1","[[2,1,0],[3,0],[0]]","8","0","","","","","","6","",""
"","","","","","single-stim-button","308","761030","0.0-3.0-34.1-0.1","596c36966956b40001c59d4e","A3","batch1","","488","","","tol_tohand","","","","","","","","","tol_peg_1","488","488","0","[[3,0,0],[1,0],[0]]","2","[[2,1,0],[3,0],[0]]","8","0","","","","","","6","",""
"","","","","","single-stim-button","309","761647","0.0-3.0-34.1-1.1","596c36966956b40001c59d4e","A3","batch1","","617","","","tol_toboard","","","","","","","","","tol_peg_3","617","617","0","[[3,0,0],[1,0],[2]]","2","[[2,1,0],[3,0],[0]]","8","0","","","","","","6","",""
"","","","","","single-stim-button","310","762503","0.0-3.0-34.2-0.2","596c36966956b40001c59d4e","A3","batch1","","855","","","tol_tohand","","","","","","","","","tol_peg_1","855","855","0","[[0,0,0],[1,0],[2]]","3","[[2,1,0],[3,0],[0]]","8","0","","","","","","6","",""
"","","","","","single-stim-button","311","763150","0.0-3.0-34.2-1.2","596c36966956b40001c59d4e","A3","batch1","","646","","","tol_toboard","","","","","","","","","tol_peg_2","646","646","0","[[0,0,0],[1,3],[2]]","3","[[2,1,0],[3,0],[0]]","8","0","","","","","","6","",""
"","","","","","single-stim-button","312","763695","0.0-3.0-34.3-0.3","596c36966956b40001c59d4e","A3","batch1","","545","","","tol_tohand","","","","","","","","","tol_peg_3","545","545","0","[[0,0,0],[1,3],[0]]","4","[[2,1,0],[3,0],[0]]","8","0","","","","","","6","",""
"","","","","","single-stim-button","313","764464","0.0-3.0-34.3-1.3","596c36966956b40001c59d4e","A3","batch1","","768","","","tol_toboard","","","","","","","","","tol_peg_1","768","768","0","[[2,0,0],[1,3],[0]]","4","[[2,1,0],[3,0],[0]]","8","0","","","","","","6","",""
"","","","","","single-stim-button","314","765400","0.0-3.0-34.4-0.4","596c36966956b40001c59d4e","A3","batch1","","935","","","tol_tohand","","","","","","","","","tol_peg_2","935","935","0","[[2,0,0],[1,0],[0]]","5","[[2,1,0],[3,0],[0]]","8","0","","","","","","6","",""
"","","","","","single-stim-button","315","766239","0.0-3.0-34.4-1.4","596c36966956b40001c59d4e","A3","batch1","","838","","","tol_toboard","","","","","","","","","tol_peg_3","838","838","0","[[2,0,0],[1,0],[3]]","5","[[2,1,0],[3,0],[0]]","8","0","","","","","","6","",""
"","","","","","single-stim-button","316","766713","0.0-3.0-34.5-0.5","596c36966956b40001c59d4e","A3","batch1","","472","","","tol_tohand","","","","","","","","","tol_peg_2","472","472","0","[[2,0,0],[0,0],[3]]","6","[[2,1,0],[3,0],[0]]","8","0","","","","","","6","",""
"","","","","","single-stim-button","317","767440","0.0-3.0-34.5-1.5","596c36966956b40001c59d4e","A3","batch1","","727","","","tol_toboard","","","","","","","","","tol_peg_1","727","727","0","[[2,1,0],[0,0],[3]]","6","[[2,1,0],[3,0],[0]]","8","0","","","","","","6","",""
"","","","","","single-stim-button","318","767967","0.0-3.0-34.6-0.6","596c36966956b40001c59d4e","A3","batch1","","527","","","tol_tohand","","","","","","","","","tol_peg_3","527","527","0","[[2,1,0],[0,0],[0]]","7","[[2,1,0],[3,0],[0]]","8","0","","","","","","6","",""
"","","","","","single-stim-button","319","768504","0.0-3.0-34.6-1.6","596c36966956b40001c59d4e","A3","batch1","","537","","","tol_toboard","","","","","","","","","tol_peg_2","537","537","0","[[2,1,0],[3,0],[0]]","7","[[2,1,0],[3,0],[0]]","8","0","","","","","","6","",""
"","","","","","poldrack-single-stim","320","769508","0.0-3.0-35.0","596c36966956b40001c59d4e","A3","batch1","","-1","","","tol_feedback","true","","","","","","","","","1000","1000","500","","","","","","-1","none","true","29744","33566","","",""
"","","","","","html-button-response","321","769978","0.0-3.0-36.0","596c36966956b40001c59d4e","A3","batch1","","468.89999997615814","<div class = centerbox><p class = center-block-text>problem <strong>10</strong> out of 25 problems</p></div>","0","tol_trial_num","","","","","","","","","","","","","","","","","","","","","","","","",""
"","","","","","single-stim-button","322","773511","0.0-3.0-37.0-0.0","596c36966956b40001c59d4e","A3","batch1","","3533","","","tol_tohand","","","","","","","","","tol_peg_2","3533","3533","0","[[3,0,0],[0,0],[2]]","1","[[3,0,0],[2,1],[0]]","9","0","","","","","","3","",""
"","","","","","single-stim-button","323","774017","0.0-3.0-37.0-1.0","596c36966956b40001c59d4e","A3","batch1","","505","","","tol_toboard","","","","","","","","","tol_peg_1","505","505","0","[[3,1,0],[0,0],[2]]","1","[[3,0,0],[2,1],[0]]","9","0","","","","","","3","",""
"","","","","","single-stim-button","324","774729","0.0-3.0-37.1-0.1","596c36966956b40001c59d4e","A3","batch1","","711","","","tol_tohand","","","","","","","","","tol_peg_3","711","711","0","[[3,1,0],[0,0],[0]]","2","[[3,0,0],[2,1],[0]]","9","0","","","","","","3","",""
"","","","","","single-stim-button","325","775129","0.0-3.0-37.1-1.1","596c36966956b40001c59d4e","A3","batch1","","399","","","tol_toboard","","","","","","","","","tol_peg_2","399","399","0","[[3,1,0],[2,0],[0]]","2","[[3,0,0],[2,1],[0]]","9","0","","","","","","3","",""
"","","","","","single-stim-button","326","775625","0.0-3.0-37.2-0.2","596c36966956b40001c59d4e","A3","batch1","","495","","","tol_tohand","","","","","","","","","tol_peg_1","495","495","0","[[3,0,0],[2,0],[0]]","3","[[3,0,0],[2,1],[0]]","9","0","","","","","","3","",""
"","","","","","single-stim-button","327","776049","0.0-3.0-37.2-1.2","596c36966956b40001c59d4e","A3","batch1","","423","","","tol_toboard","","","","","","","","","tol_peg_2","423","423","0","[[3,0,0],[2,1],[0]]","3","[[3,0,0],[2,1],[0]]","9","0","","","","","","3","",""
"","","","","","poldrack-single-stim","328","777058","0.0-3.0-38.0","596c36966956b40001c59d4e","A3","batch1","","-1","","","tol_feedback","true","","","","","","","","","1000","1000","500","","","","","","-1","none","true","3533","4739","","",""
"","","","","","html-button-response","329","777771","0.0-3.0-39.0","596c36966956b40001c59d4e","A3","batch1","","712.5","<div class = centerbox><p class = center-block-text>problem <strong>11</strong> out of 25 problems</p></div>","0","tol_trial_num","","","","","","","","","","","","","","","","","","","","","","","","",""
"","","","","","single-stim-button","330","787648","0.0-3.0-40.0-0.0","596c36966956b40001c59d4e","A3","batch1","","9876","","","tol_tohand","","","","","","","","","tol_peg_2","9876","9876","0","[[1,2,0],[0,0],[0]]","1","[[2,0,0],[1,3],[0]]","10","0","","","","","","6","",""
"","","","","","single-stim-button","331","790805","0.0-3.0-40.0-1.0","596c36966956b40001c59d4e","A3","batch1","","3156","","","tol_toboard","","","","","","","","","tol_peg_3","3156","3156","0","[[1,2,0],[0,0],[3]]","1","[[2,0,0],[1,3],[0]]","10","0","","","","","","6","",""
"","","","","","single-stim-button","332","792102","0.0-3.0-40.1-0.1","596c36966956b40001c59d4e","A3","batch1","","1297","","","tol_tohand","","","","","","","","","tol_peg_1","1297","1297","0","[[1,0,0],[0,0],[3]]","2","[[2,0,0],[1,3],[0]]","10","0","","","","","","6","",""
"","","","","","single-stim-button","333","793420","0.0-3.0-40.1-1.1","596c36966956b40001c59d4e","A3","batch1","","1317","","","tol_toboard","","","","","","","","","tol_peg_2","1317","1317","0","[[1,0,0],[2,0],[3]]","2","[[2,0,0],[1,3],[0]]","10","0","","","","","","6","",""
"","","","","","single-stim-button","334","796098","0.0-3.0-40.2-0.2","596c36966956b40001c59d4e","A3","batch1","","2677","","","tol_tohand","","","","","","","","","tol_peg_2","2677","2677","0","[[1,0,0],[0,0],[3]]","3","[[2,0,0],[1,3],[0]]","10","0","","","","","","6","",""
"","","","","","single-stim-button","335","796525","0.0-3.0-40.2-1.2","596c36966956b40001c59d4e","A3","batch1","","426","","","tol_toboard","","","","","","","","","tol_peg_1","426","426","0","[[1,2,0],[0,0],[3]]","3","[[2,0,0],[1,3],[0]]","10","0","","","","","","6","",""
"","","","","","single-stim-button","336","796959","0.0-3.0-40.3-0.3","596c36966956b40001c59d4e","A3","batch1","","432","","","tol_tohand","","","","","","","","","tol_peg_3","432","432","0","[[1,2,0],[0,0],[0]]","4","[[2,0,0],[1,3],[0]]","10","0","","","","","","6","",""
"","","","","","single-stim-button","337","797317","0.0-3.0-40.3-1.3","596c36966956b40001c59d4e","A3","batch1","","357","","","tol_toboard","","","","","","","","","tol_peg_2","357","357","0","[[1,2,0],[3,0],[0]]","4","[[2,0,0],[1,3],[0]]","10","0","","","","","","6","",""
"","","","","","single-stim-button","338","797821","0.0-3.0-40.4-0.4","596c36966956b40001c59d4e","A3","batch1","","504","","","tol_tohand","","","","","","","","","tol_peg_1","504","504","0","[[1,0,0],[3,0],[0]]","5","[[2,0,0],[1,3],[0]]","10","0","","","","","","6","",""
"","","","","","single-stim-button","339","798793","0.0-3.0-40.4-1.4","596c36966956b40001c59d4e","A3","batch1","","970","","","tol_toboard","","","","","","","","","tol_peg_3","970","970","0","[[1,0,0],[3,0],[2]]","5","[[2,0,0],[1,3],[0]]","10","0","","","","","","6","",""
"","","","","","single-stim-button","340","799313","0.0-3.0-40.5-0.5","596c36966956b40001c59d4e","A3","batch1","","520","","","tol_tohand","","","","","","","","","tol_peg_1","520","520","0","[[0,0,0],[3,0],[2]]","6","[[2,0,0],[1,3],[0]]","10","0","","","","","","6","",""
"","","","","","single-stim-button","341","799698","0.0-3.0-40.5-1.5","596c36966956b40001c59d4e","A3","batch1","","384","","","tol_toboard","","","","","","","","","tol_peg_2","384","384","0","[[0,0,0],[3,1],[2]]","6","[[2,0,0],[1,3],[0]]","10","0","","","","","","6","",""
"","","","","","single-stim-button","342","800329","0.0-3.0-40.6-0.6","596c36966956b40001c59d4e","A3","batch1","","631","","","tol_tohand","","","","","","","","","tol_peg_3","631","631","0","[[0,0,0],[3,1],[0]]","7","[[2,0,0],[1,3],[0]]","10","0","","","","","","6","",""
"","","","","","single-stim-button","343","800906","0.0-3.0-40.6-1.6","596c36966956b40001c59d4e","A3","batch1","","575","","","tol_toboard","","","","","","","","","tol_peg_1","575","575","0","[[2,0,0],[3,1],[0]]","7","[[2,0,0],[1,3],[0]]","10","0","","","","","","6","",""
"","","","","","single-stim-button","344","801490","0.0-3.0-40.7-0.7","596c36966956b40001c59d4e","A3","batch1","","584","","","tol_tohand","","","","","","","","","tol_peg_2","584","584","0","[[2,0,0],[3,0],[0]]","8","[[2,0,0],[1,3],[0]]","10","0","","","","","","6","",""
"","","","","","single-stim-button","345","801922","0.0-3.0-40.7-1.7","596c36966956b40001c59d4e","A3","batch1","","430","","","tol_toboard","","","","","","","","","tol_peg_3","430","430","0","[[2,0,0],[3,0],[1]]","8","[[2,0,0],[1,3],[0]]","10","0","","","","","","6","",""
"","","","","","single-stim-button","346","803320","0.0-3.0-40.8-0.8","596c36966956b40001c59d4e","A3","batch1","","1397","","","tol_tohand","","","","","","","","","tol_peg_2","1397","1397","0","[[2,0,0],[0,0],[1]]","9","[[2,0,0],[1,3],[0]]","10","0","","","","","","6","",""
