"success","timeout","failed_images","failed_audio","failed_video","trial_type","trial_index","time_elapsed","internal_node_id","subject_id","study_id","session_id","view_history","rt","stimulus","response","task","correct","answer","item","fiar_detect_rt","fiar_detect_correct","total_correct_fiar_detect","post_trial_gap","choices","mouse_click","stim_duration","block_duration","timing_post_trial","current_position","tol_num_moves_made","tol_target","tol_problem_id","tol_rt","key_press","possible_responses","tol_correct","preplanning","tol_rt_per_trial","tol_min_moves","spm_correct","spm_rt"
"true","false","[]","[]","[]","preload","0","1584","0.0-0.0","599323cdf9db7d00018955da","A3","batch1","","","","","","","","","","","","","","","","","","","","","","","","","","","","","",""
"true","","","","","fullscreen","1","21670","0.0-1.0-0.0","599323cdf9db7d00018955da","A3","batch1","","","","","","","","","","","","","","","","","","","","","","","","","","","","","",""
"true","","","","","fullscreen","2","26621","0.0-2.0-0.0","599323cdf9db7d00018955da","A3","batch1","","","","","","","","","","","","","","","","","","","","","","","","","","","","","",""
"","","","","","instructions","3","59298","0.0-2.0-1.0-0.0","599323cdf9db7d00018955da","A3","batch1","[{""page_index"":0,""viewing_time"":24364.70000000298},{""page_index"":1,""viewing_time"":8310}]","32675.10000000149","","","","","","","","","","","","","","","","","","","","","","","","","","","",""
"","","","","","html-button-response","4","61060","0.0-2.0-1.0-1.0-0.0","599323cdf9db7d00018955da","A3","batch1","","1760.7999999970198","<p class=block-text> Let's answer a few questions <br>","0","pattern_enter_quiz","","","","","","","","","","","","","","","","","","","","","","","","",""
"","","","","","html-button-response","5","69666","0.0-2.0-1.0-1.0-1.0","599323cdf9db7d00018955da","A3","batch1","","8604.20000000298","<p class = block-text>True or False: You will have as much time as you want to make each choice. <br></p>","1","pattern_quiz","true","","","","","","","","","","","","","","","","","","","","","","","",""
"","","","","","html-button-response","6","71724","0.0-2.0-1.0-1.0-2.0","599323cdf9db7d00018955da","A3","batch1","","2055.8000000044703","<p class = block-text>Correct! You should make your choice <strong> as fast as you can</strong>.</p>","0","pattern_quiz_feedback","","","","","","","","","","","","","","","","","","","","","","","","",""
"","","","","","html-button-response","7","77340","0.0-2.0-1.0-1.0-3.0","599323cdf9db7d00018955da","A3","batch1","","5614.39999999851","<p class = block-text>True or False: You will look for 4 pieces in black or white color connected in a row either horizontally, vertically or diagonally. <br></p>","0","pattern_quiz","true","","","","","","","","","","","","","","","","","","","","","","","",""
"","","","","","html-button-response","8","78420","0.0-2.0-1.0-1.0-4.0","599323cdf9db7d00018955da","A3","batch1","","1078.3000000044703","<p class = block-text>Correct! </p>","0","pattern_quiz_feedback","","","","","","","","","","","","","","","","","","","","","","","","",""
"","","","","","html-button-response","9","80764","0.0-2.0-2.0","599323cdf9db7d00018955da","A3","batch1","","2341.6999999955297","<p class=block-text> Now that you've understood the game, let's do a few practice trials before we start!<br> <br>","0","pattern_enter_practice","","","","","","","","","","","","","","","","","","","","","","","","",""
"","","","","","image-keyboard-response","10","88221","0.0-2.0-3.0-0.0","599323cdf9db7d00018955da","A3","batch1","","7454.5999999940395","stim/prac_yes_20_dia_b1.png","f","pattern_practice","true","f","","","","","","","","","","","","","","","","","","","","","","",""
"","","","","","html-keyboard-response","11","89231","0.0-2.0-3.0-1.0","599323cdf9db7d00018955da","A3","batch1","","null","<p style=""font-size:30px;color:green;"">Correct!</p>","null","pattern_feedback","","","","","","","","","","","","","","","","","","","","","","","","",""
"","","","","","image-keyboard-response","12","91386","0.0-2.0-3.0-0.1","599323cdf9db7d00018955da","A3","batch1","","2153.10000000149","stim/prac_yes_18_hor_w1.png","f","pattern_practice","true","f","","","","","","","","","","","","","","","","","","","","","","",""
"","","","","","html-keyboard-response","13","92390","0.0-2.0-3.0-1.1","599323cdf9db7d00018955da","A3","batch1","","null","<p style=""font-size:30px;color:green;"">Correct!</p>","null","pattern_feedback","","","","","","","","","","","","","","","","","","","","","","","","",""
"","","","","","image-keyboard-response","14","94170","0.0-2.0-3.0-0.2","599323cdf9db7d00018955da","A3","batch1","","1777.3999999985099","stim/prac_no_18_1.png","j","pattern_practice","true","j","","","","","","","","","","","","","","","","","","","","","","",""
"","","","","","html-keyboard-response","15","95191","0.0-2.0-3.0-1.2","599323cdf9db7d00018955da","A3","batch1","","null","<p style=""font-size:30px;color:green;"">Correct!</p>","null","pattern_feedback","","","","","","","","","","","","","","","","","","","","","","","","",""
"","","","","","image-keyboard-response","16","98595","0.0-2.0-3.0-0.3","599323cdf9db7d00018955da","A3","batch1","","3402.60000000149","stim/prac_no_16_1.png","j","pattern_practice","true","j","","","","","","","","","","","","","","","","","","","","","","",""
"","","","","","html-keyboard-response","17","99612","0.0-2.0-3.0-1.3","599323cdf9db7d00018955da","A3","batch1","","null","<p style=""font-size:30px;color:green;"">Correct!</p>","null","pattern_feedback","","","","","","","","","","","","","","","","","","","","","","","","",""
"","","","","","image-keyboard-response","18","100642","0.0-2.0-3.0-0.4","599323cdf9db7d00018955da","A3","batch1","","1027.8000000044703","stim/prac_yes_16_ver_w1.png","f","pattern_practice","true","f","","","","","","","","","","","","","","","","","","","","","","",""
"","","","","","html-keyboard-response","19","101660","0.0-2.0-3.0-1.4","599323cdf9db7d00018955da","A3","batch1","","null","<p style=""font-size:30px;color:green;"">Correct!</p>","null","pattern_feedback","","","","","","","","","","","","","","","","","","","","","","","","",""
"","","","","","html-button-response","20","122136","0.0-2.0-4.0","599323cdf9db7d00018955da","A3","batch1","","20474.29999999702","<p class=block-text> Good job! You are done with practice trials!<br>
        You responded correctly on 100% of the trials.<br>
        Press the button below to start official trials. Now you won't see any feedback about your response</p>","0","pattern_enter_official_trials","","","","","","","","","","","","","","","","","","","","","","","","",""
"","","","","","html-keyboard-response","21","122945","0.0-2.0-5.0-0.0","599323cdf9db7d00018955da","A3","batch1","","null","<p class=block-text>Trial 1 out of 78</p>","null","pattern_show_trial_num","","","","","","","","","","","","","","","","","","","","","","","","",""
"","","","","","image-keyboard-response","22","125018","0.0-2.0-5.0-1.0","599323cdf9db7d00018955da","A3","batch1","","2070.39999999851","stim/yes_63_dia_b1.png","f","pattern_response","true","f","pattern_78","2070.39999999851","true","1","","","","","","","","","","","","","","","","","","",""
"","","","","","html-keyboard-response","23","126328","0.0-2.0-5.0-0.1","599323cdf9db7d00018955da","A3","batch1","","null","<p class=block-text>Trial 2 out of 78</p>","null","pattern_show_trial_num","","","","","","","","","","","","","","","","","","","","","","","","",""
"","","","","","image-keyboard-response","24","128746","0.0-2.0-5.0-1.1","599323cdf9db7d00018955da","A3","batch1","","2416.7000000029802","stim/no_33_1_b.png","j","pattern_response","true","j","pattern_15","2416.7000000029802","true","2","","","","","","","","","","","","","","","","","","",""
"","","","","","html-keyboard-response","25","130068","0.0-2.0-5.0-0.2","599323cdf9db7d00018955da","A3","batch1","","null","<p class=block-text>Trial 3 out of 78</p>","null","pattern_show_trial_num","","","","","","","","","","","","","","","","","","","","","","","","",""
"","","","","","image-keyboard-response","26","133427","0.0-2.0-5.0-1.2","599323cdf9db7d00018955da","A3","batch1","","3357","stim/no_43_2_b.png","j","pattern_response","true","j","pattern_23","3357","true","3","","","","","","","","","","","","","","","","","","",""
"","","","","","html-keyboard-response","27","134740","0.0-2.0-5.0-0.3","599323cdf9db7d00018955da","A3","batch1","","null","<p class=block-text>Trial 4 out of 78</p>","null","pattern_show_trial_num","","","","","","","","","","","","","","","","","","","","","","","","",""
"","","","","","image-keyboard-response","28","138634","0.0-2.0-5.0-1.3","599323cdf9db7d00018955da","A3","batch1","","3891.7000000029802","stim/no_53_1_b.png","j","pattern_response","true","j","pattern_33","3891.7000000029802","true","4","","","","","","","","","","","","","","","","","","",""
"","","","","","html-keyboard-response","29","139963","0.0-2.0-5.0-0.4","599323cdf9db7d00018955da","A3","batch1","","null","<p class=block-text>Trial 5 out of 78</p>","null","pattern_show_trial_num","","","","","","","","","","","","","","","","","","","","","","","","",""
"","","","","","image-keyboard-response","30","144403","0.0-2.0-5.0-1.4","599323cdf9db7d00018955da","A3","batch1","","4437","stim/no_45_1_w.png","j","pattern_response","true","j","pattern_25","4437","true","5","","","","","","","","","","","","","","","","","","",""
"","","","","","html-keyboard-response","31","145734","0.0-2.0-5.0-0.5","599323cdf9db7d00018955da","A3","batch1","","null","<p class=block-text>Trial 6 out of 78</p>","null","pattern_show_trial_num","","","","","","","","","","","","","","","","","","","","","","","","",""
"","","","","","image-keyboard-response","32","149274","0.0-2.0-5.0-1.5","599323cdf9db7d00018955da","A3","batch1","","3536.60000000149","stim/yes_49_hor_w1_b.png","j","pattern_response","false","f","pattern_70","3536.60000000149","false","5","","","","","","","","","","","","","","","","","","",""
"","","","","","html-keyboard-response","33","150594","0.0-2.0-5.0-0.6","599323cdf9db7d00018955da","A3","batch1","","null","<p class=block-text>Trial 7 out of 78</p>","null","pattern_show_trial_num","","","","","","","","","","","","","","","","","","","","","","","","",""
"","","","","","image-keyboard-response","34","154651","0.0-2.0-5.0-1.6","599323cdf9db7d00018955da","A3","batch1","","4054.10000000149","stim/no_37_2_w.png","j","pattern_response","true","j","pattern_19","4054.10000000149","true","6","","","","","","","","","","","","","","","","","","",""
"","","","","","html-keyboard-response","35","155953","0.0-2.0-5.0-0.7","599323cdf9db7d00018955da","A3","batch1","","null","<p class=block-text>Trial 8 out of 78</p>","null","pattern_show_trial_num","","","","","","","","","","","","","","","","","","","","","","","","",""
"","","","","","image-keyboard-response","36","160378","0.0-2.0-5.0-1.7","599323cdf9db7d00018955da","A3","batch1","","4422.10000000149","stim/yes_51_dia_b1.png","j","pattern_response","false","f","pattern_72","4422.10000000149","false","6","","","","","","","","","","","","","","","","","","",""
"","","","","","html-keyboard-response","37","161702","0.0-2.0-5.0-0.8","599323cdf9db7d00018955da","A3","batch1","","null","<p class=block-text>Trial 9 out of 78</p>","null","pattern_show_trial_num","","","","","","","","","","","","","","","","","","","","","","","","",""
"","","","","","image-keyboard-response","38","165595","0.0-2.0-5.0-1.8","599323cdf9db7d00018955da","A3","batch1","","3890","stim/no_39_1_w.png","j","pattern_response","true","j","pattern_21","3890","true","7","","","","","","","","","","","","","","","","","","",""
"","","","","","html-keyboard-response","39","166910","0.0-2.0-5.0-0.9","599323cdf9db7d00018955da","A3","batch1","","null","<p class=block-text>Trial 10 out of 78</p>","null","pattern_show_trial_num","","","","","","","","","","","","","","","","","","","","","","","","",""
"","","","","","image-keyboard-response","40","168298","0.0-2.0-5.0-1.9","599323cdf9db7d00018955da","A3","batch1","","1385.1000000014901","stim/yes_39_hor_w1_w.png","f","pattern_response","true","f","pattern_62","1385.1000000014901","true","8","","","","","","","","","","","","","","","","","","",""
"","","","","","html-keyboard-response","41","169628","0.0-2.0-5.0-0.10","599323cdf9db7d00018955da","A3","batch1","","null","<p class=block-text>Trial 11 out of 78</p>","null","pattern_show_trial_num","","","","","","","","","","","","","","","","","","","","","","","","",""
"","","","","","image-keyboard-response","42","171074","0.0-2.0-5.0-1.10","599323cdf9db7d00018955da","A3","batch1","","1444.3999999985099","stim/yes_23_ver_b1.png","f","pattern_response","true","f","pattern_48","1444.3999999985099","true","9","","","","","","","","","","","","","","","","","","",""
"","","","","","html-keyboard-response","43","172392","0.0-2.0-5.0-0.11","599323cdf9db7d00018955da","A3","batch1","","null","<p class=block-text>Trial 12 out of 78</p>","null","pattern_show_trial_num","","","","","","","","","","","","","","","","","","","","","","","","",""
"","","","","","image-keyboard-response","44","174298","0.0-2.0-5.0-1.11","599323cdf9db7d00018955da","A3","batch1","","1903.7999999970198","stim/yes_70_ver_b1.png","f","pattern_response","true","f","pattern_80","1903.7999999970198","true","10","","","","","","","","","","","","","","","","","","",""
"","","","","","html-keyboard-response","45","175623","0.0-2.0-5.0-0.12","599323cdf9db7d00018955da","A3","batch1","","null","<p class=block-text>Trial 13 out of 78</p>","null","pattern_show_trial_num","","","","","","","","","","","","","","","","","","","","","","","","",""
"","","","","","image-keyboard-response","46","177627","0.0-2.0-5.0-1.12","599323cdf9db7d00018955da","A3","batch1","","2001.8000000044703","stim/yes_26_dia_w2_w.png","j","pattern_response","false","f","pattern_50","2001.8000000044703","false","10","","","","","","","","","","","","","","","","","","",""
"","","","","","html-keyboard-response","47","178948","0.0-2.0-5.0-0.13","599323cdf9db7d00018955da","A3","batch1","","null","<p class=block-text>Trial 14 out of 78</p>","null","pattern_show_trial_num","","","","","","","","","","","","","","","","","","","","","","","","",""
"","","","","","image-keyboard-response","48","181994","0.0-2.0-5.0-1.13","599323cdf9db7d00018955da","A3","batch1","","3043.3000000044703","stim/no_25_1_b.png","j","pattern_response","true","j","pattern_09","3043.3000000044703","true","11","","","","","","","","","","","","","","","","","","",""
"","","","","","html-keyboard-response","49","183310","0.0-2.0-5.0-0.14","599323cdf9db7d00018955da","A3","batch1","","null","<p class=block-text>Trial 15 out of 78</p>","null","pattern_show_trial_num","","","","","","","","","","","","","","","","","","","","","","","","",""
"","","","","","image-keyboard-response","50","184218","0.0-2.0-5.0-1.14","599323cdf9db7d00018955da","A3","batch1","","904.7000000029802","stim/yes_29_hor_b1_b.png","f","pattern_response","true","f","pattern_52","904.7000000029802","true","12","","","","","","","","","","","","","","","","","","",""
"","","","","","html-keyboard-response","51","185549","0.0-2.0-5.0-0.15","599323cdf9db7d00018955da","A3","batch1","","null","<p class=block-text>Trial 16 out of 78</p>","null","pattern_show_trial_num","","","","","","","","","","","","","","","","","","","","","","","","",""
"","","","","","image-keyboard-response","52","187162","0.0-2.0-5.0-1.15","599323cdf9db7d00018955da","A3","batch1","","1611.2000000029802","stim/no_12_1.png","j","pattern_response","true","j","pattern_01","1611.2000000029802","true","13","","","","","","","","","","","","","","","","","","",""
"","","","","","html-keyboard-response","53","188478","0.0-2.0-5.0-0.16","599323cdf9db7d00018955da","A3","batch1","","null","<p class=block-text>Trial 17 out of 78</p>","null","pattern_show_trial_num","","","","","","","","","","","","","","","","","","","","","","","","",""
"","","","","","image-keyboard-response","54","189427","0.0-2.0-5.0-1.16","599323cdf9db7d00018955da","A3","batch1","","947.7000000029802","stim/yes_12_hor_w1_w.png","f","pattern_response","true","f","pattern_42","947.7000000029802","true","14","","","","","","","","","","","","","","","","","","",""
"","","","","","html-keyboard-response","55","190745","0.0-2.0-5.0-0.17","599323cdf9db7d00018955da","A3","batch1","","null","<p class=block-text>Trial 18 out of 78</p>","null","pattern_show_trial_num","","","","","","","","","","","","","","","","","","","","","","","","",""
"","","","","","image-keyboard-response","56","191970","0.0-2.0-5.0-1.17","599323cdf9db7d00018955da","A3","batch1","","1222.2999999970198","stim/yes_36_ver_w1_w.png","f","pattern_response","true","f","pattern_58","1222.2999999970198","true","15","","","","","","","","","","","","","","","","","","",""
"","","","","","html-keyboard-response","57","193287","0.0-2.0-5.0-0.18","599323cdf9db7d00018955da","A3","batch1","","null","<p class=block-text>Trial 19 out of 78</p>","null","pattern_show_trial_num","","","","","","","","","","","","","","","","","","","","","","","","",""
"","","","","","image-keyboard-response","58","195378","0.0-2.0-5.0-1.18","599323cdf9db7d00018955da","A3","batch1","","2089.60000000149","stim/no_18_1_b.png","j","pattern_response","true","j","pattern_05","2089.60000000149","true","16","","","","","","","","","","","","","","","","","","",""
"","","","","","html-keyboard-response","59","196694","0.0-2.0-5.0-0.19","599323cdf9db7d00018955da","A3","batch1","","null","<p class=block-text>Trial 20 out of 78</p>","null","pattern_show_trial_num","","","","","","","","","","","","","","","","","","","","","","","","",""
"","","","","","image-keyboard-response","60","199418","0.0-2.0-5.0-1.19","599323cdf9db7d00018955da","A3","batch1","","2721.5","stim/no_36_1_b.png","j","pattern_response","true","j","pattern_17","2721.5","true","17","","","","","","","","","","","","","","","","","","",""
"","","","","","html-keyboard-response","61","200746","0.0-2.0-5.0-0.20","599323cdf9db7d00018955da","A3","batch1","","null","<p class=block-text>Trial 21 out of 78</p>","null","pattern_show_trial_num","","","","","","","","","","","","","","","","","","","","","","","","",""
"","","","","","image-keyboard-response","62","204651","0.0-2.0-5.0-1.20","599323cdf9db7d00018955da","A3","batch1","","3902","stim/yes_42_dia_w1_w.png","j","pattern_response","false","f","pattern_64","3902","false","17","","","","","","","","","","","","","","","","","","",""
"","","","","","html-keyboard-response","63","205971","0.0-2.0-5.0-0.21","599323cdf9db7d00018955da","A3","batch1","","null","<p class=block-text>Trial 22 out of 78</p>","null","pattern_show_trial_num","","","","","","","","","","","","","","","","","","","","","","","","",""
"","","","","","image-keyboard-response","64","207986","0.0-2.0-5.0-1.21","599323cdf9db7d00018955da","A3","batch1","","2013.1000000014901","stim/no_15_1_w.png","j","pattern_response","true","j","pattern_03","2013.1000000014901","true","18","","","","","","","","","","","","","","","","","","",""
"","","","","","html-keyboard-response","65","209310","0.0-2.0-5.0-0.22","599323cdf9db7d00018955da","A3","batch1","","null","<p class=block-text>Trial 23 out of 78</p>","null","pattern_show_trial_num","","","","","","","","","","","","","","","","","","","","","","","","",""
"","","","","","image-keyboard-response","66","215211","0.0-2.0-5.0-1.22","599323cdf9db7d00018955da","A3","batch1","","5898.5","stim/yes_53_ver_b1_b.png","j","pattern_response","false","f","pattern_74","5898.5","false","18","","","","","","","","","","","","","","","","","","",""
"","","","","","html-keyboard-response","67","216532","0.0-2.0-5.0-0.23","599323cdf9db7d00018955da","A3","batch1","","null","<p class=block-text>Trial 24 out of 78</p>","null","pattern_show_trial_num","","","","","","","","","","","","","","","","","","","","","","","","",""
"","","","","","image-keyboard-response","68","220378","0.0-2.0-5.0-1.23","599323cdf9db7d00018955da","A3","batch1","","3843.9000000059605","stim/no_51_1.png","j","pattern_response","true","j","pattern_31","3843.9000000059605","true","19","","","","","","","","","","","","","","","","","","",""
"","","","","","html-keyboard-response","69","221698","0.0-2.0-5.0-0.24","599323cdf9db7d00018955da","A3","batch1","","null","<p class=block-text>Trial 25 out of 78</p>","null","pattern_show_trial_num","","","","","","","","","","","","","","","","","","","","","","","","",""
"","","","","","image-keyboard-response","70","222914","0.0-2.0-5.0-1.24","599323cdf9db7d00018955da","A3","batch1","","1213.6000000014901","stim/yes_30_ver_b1_b.png","f","pattern_response","true","f","pattern_54","1213.6000000014901","true","20","","","","","","","","","","","","","","","","","","",""
"","","","","","html-keyboard-response","71","224238","0.0-2.0-5.0-0.25","599323cdf9db7d00018955da","A3","batch1","","null","<p class=block-text>Trial 26 out of 78</p>","null","pattern_show_trial_num","","","","","","","","","","","","","","","","","","","","","","","","",""
"","","","","","image-keyboard-response","72","225299","0.0-2.0-5.0-1.25","599323cdf9db7d00018955da","A3","batch1","","1058.8999999985099","stim/yes_46_ver_b1_b.png","f","pattern_response","true","f","pattern_68","1058.8999999985099","true","21","","","","","","","","","","","","","","","","","","",""
"","","","","","html-keyboard-response","73","226622","0.0-2.0-5.0-0.26","599323cdf9db7d00018955da","A3","batch1","","null","<p class=block-text>Trial 27 out of 78</p>","null","pattern_show_trial_num","","","","","","","","","","","","","","","","","","","","","","","","",""
"","","","","","image-keyboard-response","74","228266","0.0-2.0-5.0-1.26","599323cdf9db7d00018955da","A3","batch1","","1642.2000000029802","stim/yes_44_ver_w1_w.png","f","pattern_response","true","f","pattern_66","1642.2000000029802","true","22","","","","","","","","","","","","","","","","","","",""
"","","","","","html-keyboard-response","75","229579","0.0-2.0-5.0-0.27","599323cdf9db7d00018955da","A3","batch1","","null","<p class=block-text>Trial 28 out of 78</p>","null","pattern_show_trial_num","","","","","","","","","","","","","","","","","","","","","","","","",""
"","","","","","image-keyboard-response","76","233394","0.0-2.0-5.0-1.27","599323cdf9db7d00018955da","A3","batch1","","3812.3000000044703","stim/yes_58_dia_w1_w.png","j","pattern_response","false","f","pattern_76","3812.3000000044703","false","22","","","","","","","","","","","","","","","","","","",""
"","","","","","html-keyboard-response","77","234697","0.0-2.0-5.0-0.28","599323cdf9db7d00018955da","A3","batch1","","null","<p class=block-text>Trial 29 out of 78</p>","null","pattern_show_trial_num","","","","","","","","","","","","","","","","","","","","","","","","",""
"","","","","","image-keyboard-response","78","237379","0.0-2.0-5.0-1.28","599323cdf9db7d00018955da","A3","batch1","","2679.7999999970198","stim/no_47_1_b.png","j","pattern_response","true","j","pattern_27","2679.7999999970198","true","23","","","","","","","","","","","","","","","","","","",""
"","","","","","html-keyboard-response","79","238691","0.0-2.0-5.0-0.29","599323cdf9db7d00018955da","A3","batch1","","null","<p class=block-text>Trial 30 out of 78</p>","null","pattern_show_trial_num","","","","","","","","","","","","","","","","","","","","","","","","",""
"","","","","","image-keyboard-response","80","241506","0.0-2.0-5.0-1.29","599323cdf9db7d00018955da","A3","batch1","","2812.8000000044703","stim/no_28_2.png","j","pattern_response","true","j","pattern_11","2812.8000000044703","true","24","","","","","","","","","","","","","","","","","","",""
"","","","","","html-keyboard-response","81","242831","0.0-2.0-5.0-0.30","599323cdf9db7d00018955da","A3","batch1","","null","<p class=block-text>Trial 31 out of 78</p>","null","pattern_show_trial_num","","","","","","","","","","","","","","","","","","","","","","","","",""
"","","","","","image-keyboard-response","82","244186","0.0-2.0-5.0-1.30","599323cdf9db7d00018955da","A3","batch1","","1352.7999999970198","stim/yes_17_ver_b1_b.png","f","pattern_response","true","f","pattern_46","1352.7999999970198","true","25","","","","","","","","","","","","","","","","","","",""
"","","","","","html-keyboard-response","83","245515","0.0-2.0-5.0-0.31","599323cdf9db7d00018955da","A3","batch1","","null","<p class=block-text>Trial 32 out of 78</p>","null","pattern_show_trial_num","","","","","","","","","","","","","","","","","","","","","","","","",""
"","","","","","image-keyboard-response","84","249147","0.0-2.0-5.0-1.31","599323cdf9db7d00018955da","A3","batch1","","3630.39999999851","stim/no_49_2_b.png","j","pattern_response","true","j","pattern_29","3630.39999999851","true","26","","","","","","","","","","","","","","","","","","",""
"","","","","","html-keyboard-response","85","250455","0.0-2.0-5.0-0.32","599323cdf9db7d00018955da","A3","batch1","","null","<p class=block-text>Trial 33 out of 78</p>","null","pattern_show_trial_num","","","","","","","","","","","","","","","","","","","","","","","","",""
"","","","","","image-keyboard-response","86","254010","0.0-2.0-5.0-1.32","599323cdf9db7d00018955da","A3","batch1","","3552.60000000149","stim/no_58_1_w.png","j","pattern_response","true","j","pattern_35","3552.60000000149","true","27","","","","","","","","","","","","","","","","","","",""
"","","","","","html-keyboard-response","87","255327","0.0-2.0-5.0-0.33","599323cdf9db7d00018955da","A3","batch1","","null","<p class=block-text>Trial 34 out of 78</p>","null","pattern_show_trial_num","","","","","","","","","","","","","","","","","","","","","","","","",""
"","","","","","image-keyboard-response","88","259082","0.0-2.0-5.0-1.33","599323cdf9db7d00018955da","A3","batch1","","3752.60000000149","stim/no_67_1.png","j","pattern_response","true","j","pattern_39","3752.60000000149","true","28","","","","","","","","","","","","","","","","","","",""
"","","","","","html-keyboard-response","89","260397","0.0-2.0-5.0-0.34","599323cdf9db7d00018955da","A3","batch1","","null","<p class=block-text>Trial 35 out of 78</p>","null","pattern_show_trial_num","","","","","","","","","","","","","","","","","","","","","","","","",""
"","","","","","image-keyboard-response","90","263739","0.0-2.0-5.0-1.34","599323cdf9db7d00018955da","A3","batch1","","3339.2000000029802","stim/no_30_1_b.png","j","pattern_response","true","j","pattern_13","3339.2000000029802","true","29","","","","","","","","","","","","","","","","","","",""
"","","","","","html-keyboard-response","91","265061","0.0-2.0-5.0-0.35","599323cdf9db7d00018955da","A3","batch1","","null","<p class=block-text>Trial 36 out of 78</p>","null","pattern_show_trial_num","","","","","","","","","","","","","","","","","","","","","","","","",""
"","","","","","image-keyboard-response","92","266586","0.0-2.0-5.0-1.35","599323cdf9db7d00018955da","A3","batch1","","1522.8000000044703","stim/yes_37_hor_w1_w.png","f","pattern_response","true","f","pattern_60","1522.8000000044703","true","30","","","","","","","","","","","","","","","","","","",""
"","","","","","html-keyboard-response","93","267894","0.0-2.0-5.0-0.36","599323cdf9db7d00018955da","A3","batch1","","null","<p class=block-text>Trial 37 out of 78</p>","null","pattern_show_trial_num","","","","","","","","","","","","","","","","","","","","","","","","",""
"","","","","","image-keyboard-response","94","269066","0.0-2.0-5.0-1.36","599323cdf9db7d00018955da","A3","batch1","","1170.5","stim/yes_33_dia_w1_w.png","f","pattern_response","true","f","pattern_56","1170.5","true","31","","","","","","","","","","","","","","","","","","",""
"","","","","","html-keyboard-response","95","270384","0.0-2.0-5.0-0.37","599323cdf9db7d00018955da","A3","batch1","","null","<p class=block-text>Trial 38 out of 78</p>","null","pattern_show_trial_num","","","","","","","","","","","","","","","","","","","","","","","","",""
"","","","","","image-keyboard-response","96","273811","0.0-2.0-5.0-1.37","599323cdf9db7d00018955da","A3","batch1","","3425.7999999970198","stim/no_22_1_b.png","j","pattern_response","true","j","pattern_07","3425.7999999970198","true","32","","","","","","","","","","","","","","","","","","",""
"","","","","","html-keyboard-response","97","275132","0.0-2.0-5.0-0.38","599323cdf9db7d00018955da","A3","batch1","","null","<p class=block-text>Trial 39 out of 78</p>","null","pattern_show_trial_num","","","","","","","","","","","","","","","","","","","","","","","","",""
"","","","","","image-keyboard-response","98","276194","0.0-2.0-5.0-1.38","599323cdf9db7d00018955da","A3","batch1","","1059.7000000029802","stim/yes_15_dia_b1u_b.png","f","pattern_response","true","f","pattern_44","1059.7000000029802","true","33","","","","","","","","","","","","","","","","","","",""
"","","","","","image-keyboard-response","99","279810","0.0-2.0-6.0","599323cdf9db7d00018955da","A3","batch1","","3109.4000000059605","stim/empty_board.png","j","attention_check","true","j","","","","","500","[""f"",""j""]","","","","","","","","","","","","","","","","",""
"","","","","","html-keyboard-response","100","280617","0.0-2.0-7.0-0.0","599323cdf9db7d00018955da","A3","batch1","","null","<p class=block-text>Trial 40 out of 78</p>","null","pattern_show_trial_num","","","","","","","","","","","","","","","","","","","","","","","","",""
"","","","","","image-keyboard-response","101","286219","0.0-2.0-7.0-1.0","599323cdf9db7d00018955da","A3","batch1","","5599.69999999553","stim/no_32_1_w.png","j","pattern_response","true","j","pattern_14","5599.69999999553","true","34","","","","","","","","","","","","","","","","","","",""
"","","","","","html-keyboard-response","102","287539","0.0-2.0-7.0-0.1","599323cdf9db7d00018955da","A3","batch1","","null","<p class=block-text>Trial 41 out of 78</p>","null","pattern_show_trial_num","","","","","","","","","","","","","","","","","","","","","","","","",""
"","","","","","image-keyboard-response","103","289786","0.0-2.0-7.0-1.1","599323cdf9db7d00018955da","A3","batch1","","2245.10000000149","stim/yes_52_ver_w1.png","f","pattern_response","true","f","pattern_73","2245.10000000149","true","35","","","","","","","","","","","","","","","","","","",""
"","","","","","html-keyboard-response","104","291105","0.0-2.0-7.0-0.2","599323cdf9db7d00018955da","A3","batch1","","null","<p class=block-text>Trial 42 out of 78</p>","null","pattern_show_trial_num","","","","","","","","","","","","","","","","","","","","","","","","",""
"","","","","","image-keyboard-response","105","293962","0.0-2.0-7.0-1.2","599323cdf9db7d00018955da","A3","batch1","","2854.10000000149","stim/yes_67_hor_b1.png","f","pattern_response","true","f","pattern_79","2854.10000000149","true","36","","","","","","","","","","","","","","","","","","",""
"","","","","","html-keyboard-response","106","295293","0.0-2.0-7.0-0.3","599323cdf9db7d00018955da","A3","batch1","","null","<p class=block-text>Trial 43 out of 78</p>","null","pattern_show_trial_num","","","","","","","","","","","","","","","","","","","","","","","","",""
"","","","","","image-keyboard-response","107","296571","0.0-2.0-7.0-1.3","599323cdf9db7d00018955da","A3","batch1","","1275.1999999955297","stim/yes_22_ver_w1.png","f","pattern_response","true","f","pattern_47","1275.1999999955297","true","37","","","","","","","","","","","","","","","","","","",""
"","","","","","html-keyboard-response","108","297899","0.0-2.0-7.0-0.4","599323cdf9db7d00018955da","A3","batch1","","null","<p class=block-text>Trial 44 out of 78</p>","null","pattern_show_trial_num","","","","","","","","","","","","","","","","","","","","","","","","",""
"","","","","","image-keyboard-response","109","299314","0.0-2.0-7.0-1.4","599323cdf9db7d00018955da","A3","batch1","","1413.8000000044703","stim/yes_45_hor_b2_b.png","f","pattern_response","true","f","pattern_67","1413.8000000044703","true","38","","","","","","","","","","","","","","","","","","",""
"","","","","","html-keyboard-response","110","300634","0.0-2.0-7.0-0.5","599323cdf9db7d00018955da","A3","batch1","","null","<p class=block-text>Trial 45 out of 78</p>","null","pattern_show_trial_num","","","","","","","","","","","","","","","","","","","","","","","","",""
"","","","","","image-keyboard-response","111","303922","0.0-2.0-7.0-1.5","599323cdf9db7d00018955da","A3","batch1","","3286.39999999851","stim/no_46_1_b.png","j","pattern_response","true","j","pattern_26","3286.39999999851","true","39","","","","","","","","","","","","","","","","","","",""
"","","","","","html-keyboard-response","112","305252","0.0-2.0-7.0-0.6","599323cdf9db7d00018955da","A3","batch1","","null","<p class=block-text>Trial 46 out of 78</p>","null","pattern_show_trial_num","","","","","","","","","","","","","","","","","","","","","","","","",""
"","","","","","image-keyboard-response","113","306731","0.0-2.0-7.0-1.6","599323cdf9db7d00018955da","A3","batch1","","1475.7999999970198","stim/no_17_1_w.png","j","pattern_response","true","j","pattern_04","1475.7999999970198","true","40","","","","","","","","","","","","","","","","","","",""
"","","","","","html-keyboard-response","114","308051","0.0-2.0-7.0-0.7","599323cdf9db7d00018955da","A3","batch1","","null","<p class=block-text>Trial 47 out of 78</p>","null","pattern_show_trial_num","","","","","","","","","","","","","","","","","","","","","","","","",""
"","","","","","image-keyboard-response","115","310434","0.0-2.0-7.0-1.7","599323cdf9db7d00018955da","A3","batch1","","2381.39999999851","stim/yes_35_dia_b1.png","f","pattern_response","true","f","pattern_57","2381.39999999851","true","41","","","","","","","","","","","","","","","","","","",""
"","","","","","html-keyboard-response","116","311759","0.0-2.0-7.0-0.8","599323cdf9db7d00018955da","A3","batch1","","null","<p class=block-text>Trial 48 out of 78</p>","null","pattern_show_trial_num","","","","","","","","","","","","","","","","","","","","","","","","",""
"","","","","","image-keyboard-response","117","312650","0.0-2.0-7.0-1.8","599323cdf9db7d00018955da","A3","batch1","","888.4000000059605","stim/yes_25_hor_b1_b.png","f","pattern_response","true","f","pattern_49","888.4000000059605","true","42","","","","","","","","","","","","","","","","","","",""
"","","","","","html-keyboard-response","118","313953","0.0-2.0-7.0-0.9","599323cdf9db7d00018955da","A3","batch1","","null","<p class=block-text>Trial 49 out of 78</p>","null","pattern_show_trial_num","","","","","","","","","","","","","","","","","","","","","","","","",""
"","","","","","image-keyboard-response","119","321370","0.0-2.0-7.0-1.9","599323cdf9db7d00018955da","A3","batch1","","7415.79999999702","stim/no_36_2_w.png","j","pattern_response","true","j","pattern_18","7415.79999999702","true","43","","","","","","","","","","","","","","","","","","",""
"","","","","","html-keyboard-response","120","322692","0.0-2.0-7.0-0.10","599323cdf9db7d00018955da","A3","batch1","","null","<p class=block-text>Trial 50 out of 78</p>","null","pattern_show_trial_num","","","","","","","","","","","","","","","","","","","","","","","","",""
"","","","","","image-keyboard-response","121","323946","0.0-2.0-7.0-1.10","599323cdf9db7d00018955da","A3","batch1","","1251.8000000044703","stim/yes_28_ver_b1.png","f","pattern_response","true","f","pattern_51","1251.8000000044703","true","44","","","","","","","","","","","","","","","","","","",""
"","","","","","html-keyboard-response","122","325263","0.0-2.0-7.0-0.11","599323cdf9db7d00018955da","A3","batch1","","null","<p class=block-text>Trial 51 out of 78</p>","null","pattern_show_trial_num","","","","","","","","","","","","","","","","","","","","","","","","",""
"","","","","","image-keyboard-response","123","327890","0.0-2.0-7.0-1.11","599323cdf9db7d00018955da","A3","batch1","","2624.89999999851","stim/no_29_1_b.png","j","pattern_response","true","j","pattern_12","2624.89999999851","true","45","","","","","","","","","","","","","","","","","","",""
"","","","","","html-keyboard-response","124","329197","0.0-2.0-7.0-0.12","599323cdf9db7d00018955da","A3","batch1","","null","<p class=block-text>Trial 52 out of 78</p>","null","pattern_show_trial_num","","","","","","","","","","","","","","","","","","","","","","","","",""
"","","","","","image-keyboard-response","125","330818","0.0-2.0-7.0-1.12","599323cdf9db7d00018955da","A3","batch1","","1619.1999999955297","stim/no_23_1.png","j","pattern_response","true","j","pattern_08","1619.1999999955297","true","46","","","","","","","","","","","","","","","","","","",""
"","","","","","html-keyboard-response","126","332137","0.0-2.0-7.0-0.13","599323cdf9db7d00018955da","A3","batch1","","null","<p class=block-text>Trial 53 out of 78</p>","null","pattern_show_trial_num","","","","","","","","","","","","","","","","","","","","","","","","",""
"","","","","","image-keyboard-response","127","335123","0.0-2.0-7.0-1.13","599323cdf9db7d00018955da","A3","batch1","","2983.7000000029802","stim/no_34_1_b.png","j","pattern_response","true","j","pattern_16","2983.7000000029802","true","47","","","","","","","","","","","","","","","","","","",""
"","","","","","html-keyboard-response","128","336453","0.0-2.0-7.0-0.14","599323cdf9db7d00018955da","A3","batch1","","null","<p class=block-text>Trial 54 out of 78</p>","null","pattern_show_trial_num","","","","","","","","","","","","","","","","","","","","","","","","",""
"","","","","","image-keyboard-response","129","337810","0.0-2.0-7.0-1.14","599323cdf9db7d00018955da","A3","batch1","","1354.3999999985099","stim/yes_29_ver_w1.png","f","pattern_response","true","f","pattern_53","1354.3999999985099","true","48","","","","","","","","","","","","","","","","","","",""
"","","","","","html-keyboard-response","130","339124","0.0-2.0-7.0-0.15","599323cdf9db7d00018955da","A3","batch1","","null","<p class=block-text>Trial 55 out of 78</p>","null","pattern_show_trial_num","","","","","","","","","","","","","","","","","","","","","","","","",""
"","","","","","image-keyboard-response","131","341242","0.0-2.0-7.0-1.15","599323cdf9db7d00018955da","A3","batch1","","2117","stim/no_26_1_w.png","j","pattern_response","true","j","pattern_10","2117","true","49","","","","","","","","","","","","","","","","","","",""
"","","","","","html-keyboard-response","132","342545","0.0-2.0-7.0-0.16","599323cdf9db7d00018955da","A3","batch1","","null","<p class=block-text>Trial 56 out of 78</p>","null","pattern_show_trial_num","","","","","","","","","","","","","","","","","","","","","","","","",""
"","","","","","image-keyboard-response","133","345235","0.0-2.0-7.0-1.16","599323cdf9db7d00018955da","A3","batch1","","2687.5","stim/yes_17_dia_w1.png","f","pattern_response","true","f","pattern_45","2687.5","true","50","","","","","","","","","","","","","","","","","","",""
"","","","","","html-keyboard-response","134","346555","0.0-2.0-7.0-0.17","599323cdf9db7d00018955da","A3","batch1","","null","<p class=block-text>Trial 57 out of 78</p>","null","pattern_show_trial_num","","","","","","","","","","","","","","","","","","","","","","","","",""
"","","","","","image-keyboard-response","135","350674","0.0-2.0-7.0-1.17","599323cdf9db7d00018955da","A3","batch1","","4116.30000000447","stim/yes_40_dia_b1_b.png","j","pattern_response","false","f","pattern_63","4116.30000000447","false","50","","","","","","","","","","","","","","","","","","",""
"","","","","","html-keyboard-response","136","351992","0.0-2.0-7.0-0.18","599323cdf9db7d00018955da","A3","batch1","","null","<p class=block-text>Trial 58 out of 78</p>","null","pattern_show_trial_num","","","","","","","","","","","","","","","","","","","","","","","","",""
"","","","","","image-keyboard-response","137","353786","0.0-2.0-7.0-1.18","599323cdf9db7d00018955da","A3","batch1","","1791.2000000029802","stim/no_20_1_w.png","j","pattern_response","true","j","pattern_06","1791.2000000029802","true","51","","","","","","","","","","","","","","","","","","",""
"","","","","","html-keyboard-response","138","355097","0.0-2.0-7.0-0.19","599323cdf9db7d00018955da","A3","batch1","","null","<p class=block-text>Trial 59 out of 78</p>","null","pattern_show_trial_num","","","","","","","","","","","","","","","","","","","","","","","","",""
"","","","","","image-keyboard-response","139","356739","0.0-2.0-7.0-1.19","599323cdf9db7d00018955da","A3","batch1","","1640.3000000044703","stim/yes_31_hor_b1.png","f","pattern_response","true","f","pattern_55","1640.3000000044703","true","52","","","","","","","","","","","","","","","","","","",""
"","","","","","html-keyboard-response","140","358067","0.0-2.0-7.0-0.20","599323cdf9db7d00018955da","A3","batch1","","null","<p class=block-text>Trial 60 out of 78</p>","null","pattern_show_trial_num","","","","","","","","","","","","","","","","","","","","","","","","",""
"","","","","","image-keyboard-response","141","361954","0.0-2.0-7.0-1.20","599323cdf9db7d00018955da","A3","batch1","","3884.3000000044703","stim/no_65_1_b.png","j","pattern_response","true","j","pattern_38","3884.3000000044703","true","53","","","","","","","","","","","","","","","","","","",""
"","","","","","html-keyboard-response","142","363282","0.0-2.0-7.0-0.21","599323cdf9db7d00018955da","A3","batch1","","null","<p class=block-text>Trial 61 out of 78</p>","null","pattern_show_trial_num","","","","","","","","","","","","","","","","","","","","","","","","",""
"","","","","","image-keyboard-response","143","365498","0.0-2.0-7.0-1.21","599323cdf9db7d00018955da","A3","batch1","","2214","stim/no_42_1_w.png","j","pattern_response","true","j","pattern_22","2214","true","54","","","","","","","","","","","","","","","","","","",""
"","","","","","html-keyboard-response","144","366801","0.0-2.0-7.0-0.22","599323cdf9db7d00018955da","A3","batch1","","null","<p class=block-text>Trial 62 out of 78</p>","null","pattern_show_trial_num","","","","","","","","","","","","","","","","","","","","","","","","",""
"","","","","","image-keyboard-response","145","368067","0.0-2.0-7.0-1.22","599323cdf9db7d00018955da","A3","batch1","","1263.5","stim/no_13_2_b.png","j","pattern_response","true","j","pattern_02","1263.5","true","55","","","","","","","","","","","","","","","","","","",""
"","","","","","html-keyboard-response","146","369390","0.0-2.0-7.0-0.23","599323cdf9db7d00018955da","A3","batch1","","null","<p class=block-text>Trial 63 out of 78</p>","null","pattern_show_trial_num","","","","","","","","","","","","","","","","","","","","","","","","",""
"","","","","","image-keyboard-response","147","371010","0.0-2.0-7.0-1.23","599323cdf9db7d00018955da","A3","batch1","","1619","stim/yes_43_ver_w1_w.png","f","pattern_response","true","f","pattern_65","1619","true","56","","","","","","","","","","","","","","","","","","",""
"","","","","","html-keyboard-response","148","372332","0.0-2.0-7.0-0.24","599323cdf9db7d00018955da","A3","batch1","","null","<p class=block-text>Trial 64 out of 78</p>","null","pattern_show_trial_num","","","","","","","","","","","","","","","","","","","","","","","","",""
"","","","","","image-keyboard-response","149","375658","0.0-2.0-7.0-1.24","599323cdf9db7d00018955da","A3","batch1","","3323.7000000029802","stim/no_38_1_b.png","j","pattern_response","true","j","pattern_20","3323.7000000029802","true","57","","","","","","","","","","","","","","","","","","",""
"","","","","","html-keyboard-response","150","376970","0.0-2.0-7.0-0.25","599323cdf9db7d00018955da","A3","batch1","","null","<p class=block-text>Trial 65 out of 78</p>","null","pattern_show_trial_num","","","","","","","","","","","","","","","","","","","","","","","","",""
"","","","","","image-keyboard-response","151","381555","0.0-2.0-7.0-1.25","599323cdf9db7d00018955da","A3","batch1","","4582.29999999702","stim/yes_50_dia_w1.png","f","pattern_response","true","f","pattern_71","4582.29999999702","true","58","","","","","","","","","","","","","","","","","","",""
"","","","","","html-keyboard-response","152","382885","0.0-2.0-7.0-0.26","599323cdf9db7d00018955da","A3","batch1","","null","<p class=block-text>Trial 66 out of 78</p>","null","pattern_show_trial_num","","","","","","","","","","","","","","","","","","","","","","","","",""
"","","","","","image-keyboard-response","153","384386","0.0-2.0-7.0-1.26","599323cdf9db7d00018955da","A3","batch1","","1498.5","stim/yes_55_hor_w1_w.png","f","pattern_response","true","f","pattern_75","1498.5","true","59","","","","","","","","","","","","","","","","","","",""
"","","","","","html-keyboard-response","154","385713","0.0-2.0-7.0-0.27","599323cdf9db7d00018955da","A3","batch1","","null","<p class=block-text>Trial 67 out of 78</p>","null","pattern_show_trial_num","","","","","","","","","","","","","","","","","","","","","","","","",""
"","","","","","image-keyboard-response","155","389298","0.0-2.0-7.0-1.27","599323cdf9db7d00018955da","A3","batch1","","3583.2000000029802","stim/no_48_1_w.png","j","pattern_response","true","j","pattern_28","3583.2000000029802","true","60","","","","","","","","","","","","","","","","","","",""
"","","","","","html-keyboard-response","156","390609","0.0-2.0-7.0-0.28","599323cdf9db7d00018955da","A3","batch1","","null","<p class=block-text>Trial 68 out of 78</p>","null","pattern_show_trial_num","","","","","","","","","","","","","","","","","","","","","","","","",""
"","","","","","image-keyboard-response","157","393947","0.0-2.0-7.0-1.28","599323cdf9db7d00018955da","A3","batch1","","3335.60000000149","stim/yes_48_dia_w1_w.png","f","pattern_response","true","f","pattern_69","3335.60000000149","true","61","","","","","","","","","","","","","","","","","","",""
"","","","","","html-keyboard-response","158","395275","0.0-2.0-7.0-0.29","599323cdf9db7d00018955da","A3","batch1","","null","<p class=block-text>Trial 69 out of 78</p>","null","pattern_show_trial_num","","","","","","","","","","","","","","","","","","","","","","","","",""
"","","","","","image-keyboard-response","159","399186","0.0-2.0-7.0-1.29","599323cdf9db7d00018955da","A3","batch1","","3908.10000000149","stim/no_50_1.png","j","pattern_response","true","j","pattern_30","3908.10000000149","true","62","","","","","","","","","","","","","","","","","","",""
"","","","","","html-keyboard-response","160","400490","0.0-2.0-7.0-0.30","599323cdf9db7d00018955da","A3","batch1","","null","<p class=block-text>Trial 70 out of 78</p>","null","pattern_show_trial_num","","","","","","","","","","","","","","","","","","","","","","","","",""
"","","","","","image-keyboard-response","161","405315","0.0-2.0-7.0-1.30","599323cdf9db7d00018955da","A3","batch1","","4822.39999999851","stim/no_62_1_w.png","j","pattern_response","true","j","pattern_36","4822.39999999851","true","63","","","","","","","","","","","","","","","","","","",""
"","","","","","html-keyboard-response","162","406644","0.0-2.0-7.0-0.31","599323cdf9db7d00018955da","A3","batch1","","null","<p class=block-text>Trial 71 out of 78</p>","null","pattern_show_trial_num","","","","","","","","","","","","","","","","","","","","","","","","",""
"","","","","","image-keyboard-response","163","408258","0.0-2.0-7.0-1.31","599323cdf9db7d00018955da","A3","batch1","","1611.6999999955297","stim/yes_38_hor_b1_b.png","f","pattern_response","true","f","pattern_61","1611.6999999955297","true","64","","","","","","","","","","","","","","","","","","",""
"","","","","","html-keyboard-response","164","409571","0.0-2.0-7.0-0.32","599323cdf9db7d00018955da","A3","batch1","","null","<p class=block-text>Trial 72 out of 78</p>","null","pattern_show_trial_num","","","","","","","","","","","","","","","","","","","","","","","","",""
"","","","","","image-keyboard-response","165","410538","0.0-2.0-7.0-1.32","599323cdf9db7d00018955da","A3","batch1","","966","stim/yes_14_hor_b1_w.png","f","pattern_response","true","f","pattern_43","966","true","65","","","","","","","","","","","","","","","","","","",""
"","","","","","html-keyboard-response","166","411855","0.0-2.0-7.0-0.33","599323cdf9db7d00018955da","A3","batch1","","null","<p class=block-text>Trial 73 out of 78</p>","null","pattern_show_trial_num","","","","","","","","","","","","","","","","","","","","","","","","",""
"","","","","","image-keyboard-response","167","414434","0.0-2.0-7.0-1.33","599323cdf9db7d00018955da","A3","batch1","","2576.7000000029802","stim/no_52_1.png","j","pattern_response","true","j","pattern_32","2576.7000000029802","true","66","","","","","","","","","","","","","","","","","","",""
"","","","","","html-keyboard-response","168","415739","0.0-2.0-7.0-0.34","599323cdf9db7d00018955da","A3","batch1","","null","<p class=block-text>Trial 74 out of 78</p>","null","pattern_show_trial_num","","","","","","","","","","","","","","","","","","","","","","","","",""
"","","","","","image-keyboard-response","169","418579","0.0-2.0-7.0-1.34","599323cdf9db7d00018955da","A3","batch1","","2839","stim/no_55_1_w.png","f","pattern_response","false","j","pattern_34","2839","false","66","","","","","","","","","","","","","","","","","","",""
"","","","","","html-keyboard-response","170","419908","0.0-2.0-7.0-0.35","599323cdf9db7d00018955da","A3","batch1","","null","<p class=block-text>Trial 75 out of 78</p>","null","pattern_show_trial_num","","","","","","","","","","","","","","","","","","","","","","","","",""
"","","","","","image-keyboard-response","171","422186","0.0-2.0-7.0-1.35","599323cdf9db7d00018955da","A3","batch1","","2275.9000000059605","stim/yes_60_ver_b1_b.png","f","pattern_response","true","f","pattern_77","2275.9000000059605","true","67","","","","","","","","","","","","","","","","","","",""
"","","","","","html-keyboard-response","172","423504","0.0-2.0-7.0-0.36","599323cdf9db7d00018955da","A3","batch1","","null","<p class=block-text>Trial 76 out of 78</p>","null","pattern_show_trial_num","","","","","","","","","","","","","","","","","","","","","","","","",""
"","","","","","image-keyboard-response","173","427899","0.0-2.0-7.0-1.36","599323cdf9db7d00018955da","A3","batch1","","4392.39999999851","stim/no_70_2.png","j","pattern_response","true","j","pattern_40","4392.39999999851","true","68","","","","","","","","","","","","","","","","","","",""
"","","","","","html-keyboard-response","174","429216","0.0-2.0-7.0-0.37","599323cdf9db7d00018955da","A3","batch1","","null","<p class=block-text>Trial 77 out of 78</p>","null","pattern_show_trial_num","","","","","","","","","","","","","","","","","","","","","","","","",""
"","","","","","image-keyboard-response","175","432763","0.0-2.0-7.0-1.37","599323cdf9db7d00018955da","A3","batch1","","3545.60000000149","stim/no_44_1.png","j","pattern_response","true","j","pattern_24","3545.60000000149","true","69","","","","","","","","","","","","","","","","","","",""
"","","","","","html-keyboard-response","176","434076","0.0-2.0-7.0-0.38","599323cdf9db7d00018955da","A3","batch1","","null","<p class=block-text>Trial 78 out of 78</p>","null","pattern_show_trial_num","","","","","","","","","","","","","","","","","","","","","","","","",""
"","","","","","image-keyboard-response","177","437339","0.0-2.0-7.0-1.38","599323cdf9db7d00018955da","A3","batch1","","3260.5","stim/yes_37_dia_w1.png","j","pattern_response","false","f","pattern_59","3260.5","false","69","","","","","","","","","","","","","","","","","","",""
"","","","","","html-button-response","178","462780","0.0-2.0-8.0","599323cdf9db7d00018955da","A3","batch1","","24933.79999999702","<p class = block-text>This concludes the 4-in-a-row detection game.Thank you for your responses!<br>
            You responded correctly on 88% of the trials.<br>
            When you are ready, press ""Continue"" button to continue </p>","0","","","","","","","","","","","","","","","","","","","","","","","","","",""
"true","","","","","fullscreen","179","465940","0.0-3.0-0.0","599323cdf9db7d00018955da","A3","batch1","","","","","","","","","","","","","","","","","","","","","","","","","","","","","",""
"","","","","","instructions","180","551322","0.0-3.0-1.0-0.0-0.0","599323cdf9db7d00018955da","A3","batch1","[{""page_index"":0,""viewing_time"":17874.60000000149},{""page_index"":1,""viewing_time"":10775.89999999851},{""page_index"":2,""viewing_time"":12844.20000000298},{""page_index"":3,""viewing_time"":15657.5},{""page_index"":4,""viewing_time"":10184.29999999702},{""page_index"":5,""viewing_time"":13304},{""page_index"":6,""viewing_time"":4740}]","85380.89999999851","","","tol-instructions","","","","","","","","","","","","","","","","","","","","","","","","",""
"","","","","","html-button-response","181","552656","0.0-3.0-1.0-1.0-0.0","599323cdf9db7d00018955da","A3","batch1","","1333","<p class=block-text> Let's answer a few questions <br>","0","tol_enter_quiz","","","","","","","","","","","","","","","","","","","","","","","","",""
"","","","","","html-button-response","182","560292","0.0-3.0-1.0-1.0-1.0","599323cdf9db7d00018955da","A3","batch1","","7634.39999999851","<p class = block-text>True or False: You can only move the ball on top of a peg. <br></p>","0","tol_quiz","true","","","","","","","","","","","","","","","","","","","","","","","",""
"","","","","","html-button-response","183","562162","0.0-3.0-1.0-1.0-2.0","599323cdf9db7d00018955da","A3","batch1","","1868.3999999985099","<p class = block-text>Correct! You can only move the ball on top of a peg.</p>","0","tol_quiz_feedback","","","","","","","","","","","","","","","","","","","","","","","","",""
"","","","","","html-button-response","184","565466","0.0-3.0-1.0-1.0-3.0","599323cdf9db7d00018955da","A3","batch1","","3302.89999999851","<p class = block-text>True or False: You should try to match your board with the target board with fewest moves possible. <br></p>","0","tol_quiz","true","","","","","","","","","","","","","","","","","","","","","","","",""
"","","","","","html-button-response","185","566549","0.0-3.0-1.0-1.0-4.0","599323cdf9db7d00018955da","A3","batch1","","1081","<p class = block-text>Correct! </p>","0","tol_quiz_feedback","","","","","","","","","","","","","","","","","","","","","","","","",""
"","","","","","html-button-response","186","569714","0.0-3.0-2.0","599323cdf9db7d00018955da","A3","batch1","","3162.7999999970198","<p class=block-text> Now that you've understood the game, let's practice a few easier examples before we start!<br> <br>","0","","","","","","","","","","","","","","","","","","","","","","","","","",""
"","","","","","single-stim-button","187","575776","0.0-3.0-3.0-0.0","599323cdf9db7d00018955da","A3","batch1","","6060","","","tol_practice","","","","","","","","","tol_peg_2","6060","6060","0","[[1,2,0],[0,0],[0]]","1","[[1,2,0],[0,0],[3]]","practice","6060","","","","","","","",""
"","","","","","single-stim-button","188","577284","0.0-3.0-3.0-1.0","599323cdf9db7d00018955da","A3","batch1","","1506","","","tol_practice","","","","","","","","","tol_peg_3","1506","1506","0","[[1,2,0],[0,0],[3]]","1","[[1,2,0],[0,0],[3]]","practice","1506","","","","","","","",""
"","","","","","poldrack-single-stim","189","578291","0.0-3.0-4.0","599323cdf9db7d00018955da","A3","batch1","","-1","","","tol_feedback","true","","","","","","","","","1000","1000","500","","","","","","-1","none","true","","0","","",""
"","","","","","single-stim-button","190","581810","0.0-3.0-5.0-0.0","599323cdf9db7d00018955da","A3","batch1","","3517","","","tol_practice","","","","","","","","","tol_peg_1","3517","3517","0","[[1,0,0],[3,0],[0]]","2","[[0,0,0],[3,1],[2]]","practice","3517","","","","","","","",""
"","","","","","single-stim-button","191","584610","0.0-3.0-5.0-1.0","599323cdf9db7d00018955da","A3","batch1","","2799","","","tol_practice","","","","","","","","","tol_peg_3","2799","2799","0","[[1,0,0],[3,0],[2]]","2","[[0,0,0],[3,1],[2]]","practice","2799","","","","","","","",""
"","","","","","single-stim-button","192","585810","0.0-3.0-5.1-0.1","599323cdf9db7d00018955da","A3","batch1","","1199","","","tol_practice","","","","","","","","","tol_peg_1","1199","1199","0","[[0,0,0],[3,0],[2]]","3","[[0,0,0],[3,1],[2]]","practice","1199","","","","","","","",""
"","","","","","single-stim-button","193","590574","0.0-3.0-5.1-1.1","599323cdf9db7d00018955da","A3","batch1","","4763","","","tol_practice","","","","","","","","","tol_peg_2","4763","4763","0","[[0,0,0],[3,1],[2]]","3","[[0,0,0],[3,1],[2]]","practice","4763","","","","","","","",""
"","","","","","poldrack-single-stim","194","591575","0.0-3.0-6.0","599323cdf9db7d00018955da","A3","batch1","","-1","","","tol_feedback","true","","","","","","","","","1000","1000","500","","","","","","-1","none","true","","0","","",""
"","","","","","single-stim-button","195","595974","0.0-3.0-7.0-0.0","599323cdf9db7d00018955da","A3","batch1","","4397","","","tol_practice","","","","","","","","","tol_peg_2","4397","4397","0","[[1,2,0],[0,0],[0]]","4","[[1,0,0],[2,0],[3]]","practice","4397","","","","","","","",""
"","","","","","single-stim-button","196","596950","0.0-3.0-7.0-1.0","599323cdf9db7d00018955da","A3","batch1","","974","","","tol_practice","","","","","","","","","tol_peg_3","974","974","0","[[1,2,0],[0,0],[3]]","4","[[1,0,0],[2,0],[3]]","practice","974","","","","","","","",""
"","","","","","single-stim-button","197","597880","0.0-3.0-7.1-0.1","599323cdf9db7d00018955da","A3","batch1","","928","","","tol_practice","","","","","","","","","tol_peg_1","928","928","0","[[1,0,0],[0,0],[3]]","5","[[1,0,0],[2,0],[3]]","practice","928","","","","","","","",""
"","","","","","single-stim-button","198","598696","0.0-3.0-7.1-1.1","599323cdf9db7d00018955da","A3","batch1","","815","","","tol_practice","","","","","","","","","tol_peg_2","815","815","0","[[1,0,0],[2,0],[3]]","5","[[1,0,0],[2,0],[3]]","practice","815","","","","","","","",""
"","","","","","poldrack-single-stim","199","599698","0.0-3.0-8.0","599323cdf9db7d00018955da","A3","batch1","","-1","","","tol_feedback","true","","","","","","","","","1000","1000","500","","","","","","-1","none","true","","0","","",""
"","","","","","html-button-response","200","604686","0.0-3.0-9.0","599323cdf9db7d00018955da","A3","batch1","","4986.39999999851","<div class = centerbox><p class = center-block-text>Great job! You are done with practice trials<br>You are about to start official trials.<br> <br> Problem <strong>1</strong> out of 25 problems</p></div>","0","tol_instruction","","","","","","","","","","","","","","","","","","","","","","","","",""
"","","","","","single-stim-button","201","610460","0.0-3.0-10.0-0.0","599323cdf9db7d00018955da","A3","batch1","","4767","","","tol_tohand","","","","","","","","","tol_peg_1","4767","4767","0","[[1,0,0],[3,0],[0]]","1","[[1,3,0],[2,0],[0]]","0","0","","","","","","3","",""
"","","","","","single-stim-button","202","614238","0.0-3.0-10.0-1.0","599323cdf9db7d00018955da","A3","batch1","","3776","","","tol_toboard","","","","","","","","","tol_peg_3","3776","3776","0","[[1,0,0],[3,0],[2]]","1","[[1,3,0],[2,0],[0]]","0","0","","","","","","3","",""
"","","","","","single-stim-button","203","615828","0.0-3.0-10.1-0.1","599323cdf9db7d00018955da","A3","batch1","","1589","","","tol_tohand","","","","","","","","","tol_peg_1","1589","1589","0","[[0,0,0],[3,0],[2]]","2","[[1,3,0],[2,0],[0]]","0","0","","","","","","3","",""
"","","","","","single-stim-button","204","624224","0.0-3.0-10.1-1.1","599323cdf9db7d00018955da","A3","batch1","","8395","","","tol_toboard","","","","","","","","","tol_peg_1","8395","8395","0","[[1,0,0],[3,0],[2]]","2","[[1,3,0],[2,0],[0]]","0","0","","","","","","3","",""
"","","","","","single-stim-button","205","627330","0.0-3.0-10.2-0.2","599323cdf9db7d00018955da","A3","batch1","","3105","","","tol_tohand","","","","","","","","","tol_peg_3","3105","3105","0","[[1,0,0],[3,0],[0]]","3","[[1,3,0],[2,0],[0]]","0","0","","","","","","3","",""
"","","","","","single-stim-button","206","628876","0.0-3.0-10.2-1.2","599323cdf9db7d00018955da","A3","batch1","","1545","","","tol_toboard","","","","","","","","","tol_peg_2","1545","1545","0","[[1,0,0],[3,2],[0]]","3","[[1,3,0],[2,0],[0]]","0","0","","","","","","3","",""
"","","","","","single-stim-button","207","629846","0.0-3.0-10.3-0.3","599323cdf9db7d00018955da","A3","batch1","","969","","","tol_tohand","","","","","","","","","tol_peg_1","969","969","0","[[0,0,0],[3,2],[0]]","4","[[1,3,0],[2,0],[0]]","0","0","","","","","","3","",""
"","","","","","single-stim-button","208","631094","0.0-3.0-10.3-1.3","599323cdf9db7d00018955da","A3","batch1","","1247","","","tol_toboard","","","","","","","","","tol_peg_3","1247","1247","0","[[0,0,0],[3,2],[1]]","4","[[1,3,0],[2,0],[0]]","0","0","","","","","","3","",""
"","","","","","single-stim-button","209","632874","0.0-3.0-10.4-0.4","599323cdf9db7d00018955da","A3","batch1","","1779","","","tol_tohand","","","","","","","","","tol_peg_2","1779","1779","0","[[0,0,0],[3,0],[1]]","5","[[1,3,0],[2,0],[0]]","0","0","","","","","","3","",""
"","","","","","single-stim-button","210","643148","0.0-3.0-10.4-1.4","599323cdf9db7d00018955da","A3","batch1","","10273","","","tol_toboard","","","","","","","","","tol_peg_1","10273","10273","0","[[2,0,0],[3,0],[1]]","5","[[1,3,0],[2,0],[0]]","0","0","","","","","","3","",""
"","","","","","single-stim-button","211","646666","0.0-3.0-10.5-0.5","599323cdf9db7d00018955da","A3","batch1","","3517","","","tol_tohand","","","","","","","","","tol_peg_2","3517","3517","0","[[2,0,0],[0,0],[1]]","6","[[1,3,0],[2,0],[0]]","0","0","","","","","","3","",""
"","","","","","single-stim-button","212","649880","0.0-3.0-10.5-1.5","599323cdf9db7d00018955da","A3","batch1","","3213","","","tol_toboard","","","","","","","","","tol_peg_2","3213","3213","0","[[2,0,0],[3,0],[1]]","6","[[1,3,0],[2,0],[0]]","0","0","","","","","","3","",""
"","","","","","single-stim-button","213","651418","0.0-3.0-10.6-0.6","599323cdf9db7d00018955da","A3","batch1","","1537","","","tol_tohand","","","","","","","","","tol_peg_3","1537","1537","0","[[2,0,0],[3,0],[0]]","7","[[1,3,0],[2,0],[0]]","0","0","","","","","","3","",""
"","","","","","single-stim-button","214","654640","0.0-3.0-10.6-1.6","599323cdf9db7d00018955da","A3","batch1","","3221","","","tol_toboard","","","","","","","","","tol_peg_1","3221","3221","0","[[2,1,0],[3,0],[0]]","7","[[1,3,0],[2,0],[0]]","0","0","","","","","","3","",""
"","","","","","single-stim-button","215","659448","0.0-3.0-10.7-0.7","599323cdf9db7d00018955da","A3","batch1","","4807","","","tol_tohand","","","","","","","","","tol_peg_2","4807","4807","0","[[2,1,0],[0,0],[0]]","8","[[1,3,0],[2,0],[0]]","0","0","","","","","","3","",""
"","","","","","single-stim-button","216","660674","0.0-3.0-10.7-1.7","599323cdf9db7d00018955da","A3","batch1","","1225","","","tol_toboard","","","","","","","","","tol_peg_3","1225","1225","0","[[2,1,0],[0,0],[3]]","8","[[1,3,0],[2,0],[0]]","0","0","","","","","","3","",""
"","","","","","single-stim-button","217","669884","0.0-3.0-10.8-0.8","599323cdf9db7d00018955da","A3","batch1","","9209","","","tol_tohand","","","","","","","","","tol_peg_1","9209","9209","0","[[2,0,0],[0,0],[3]]","9","[[1,3,0],[2,0],[0]]","0","0","","","","","","3","",""
"","","","","","single-stim-button","218","671229","0.0-3.0-10.8-1.8","599323cdf9db7d00018955da","A3","batch1","","1345","","","tol_toboard","","","","","","","","","tol_peg_2","1345","1345","0","[[2,0,0],[1,0],[3]]","9","[[1,3,0],[2,0],[0]]","0","0","","","","","","3","",""
"","","","","","single-stim-button","219","672422","0.0-3.0-10.9-0.9","599323cdf9db7d00018955da","A3","batch1","","1191","","","tol_tohand","","","","","","","","","tol_peg_1","1191","1191","0","[[0,0,0],[1,0],[3]]","10","[[1,3,0],[2,0],[0]]","0","0","","","","","","3","",""
"","","","","","single-stim-button","220","679682","0.0-3.0-10.9-1.9","599323cdf9db7d00018955da","A3","batch1","","7259","","","tol_toboard","","","","","","","","","tol_peg_2","7259","7259","0","[[0,0,0],[1,2],[3]]","10","[[1,3,0],[2,0],[0]]","0","0","","","","","","3","",""
"","","","","","single-stim-button","221","684340","0.0-3.0-10.10-0.10","599323cdf9db7d00018955da","A3","batch1","","4658","","","tol_tohand","","","","","","","","","tol_peg_2","4658","4658","0","[[0,0,0],[1,0],[3]]","11","[[1,3,0],[2,0],[0]]","0","0","","","","","","3","",""
"","","","","","single-stim-button","222","686318","0.0-3.0-10.10-1.10","599323cdf9db7d00018955da","A3","batch1","","1977","","","tol_toboard","","","","","","","","","tol_peg_2","1977","1977","0","[[0,0,0],[1,2],[3]]","11","[[1,3,0],[2,0],[0]]","0","0","","","","","","3","",""
"","","","","","single-stim-button","223","691248","0.0-3.0-10.11-0.11","599323cdf9db7d00018955da","A3","batch1","","4930","","","tol_tohand","","","","","","","","","tol_peg_2","4930","4930","0","[[0,0,0],[1,0],[3]]","12","[[1,3,0],[2,0],[0]]","0","0","","","","","","3","",""
"","","","","","single-stim-button","224","694332","0.0-3.0-10.11-1.11","599323cdf9db7d00018955da","A3","batch1","","3083","","","tol_toboard","","","","","","","","","tol_peg_1","3083","3083","0","[[2,0,0],[1,0],[3]]","12","[[1,3,0],[2,0],[0]]","0","0","","","","","","3","",""
"","","","","","single-stim-button","225","695982","0.0-3.0-10.12-0.12","599323cdf9db7d00018955da","A3","batch1","","1649","","","tol_tohand","","","","","","","","","tol_peg_2","1649","1649","0","[[2,0,0],[0,0],[3]]","13","[[1,3,0],[2,0],[0]]","0","0","","","","","","3","",""
"","","","","","single-stim-button","226","700564","0.0-3.0-10.12-1.12","599323cdf9db7d00018955da","A3","batch1","","4581","","","tol_toboard","","","","","","","","","tol_peg_1","4581","4581","0","[[2,1,0],[0,0],[3]]","13","[[1,3,0],[2,0],[0]]","0","0","","","","","","3","",""
"","","","","","single-stim-button","227","701334","0.0-3.0-10.13-0.13","599323cdf9db7d00018955da","A3","batch1","","769","","","tol_tohand","","","","","","","","","tol_peg_3","769","769","0","[[2,1,0],[0,0],[0]]","14","[[1,3,0],[2,0],[0]]","0","0","","","","","","3","",""
"","","","","","single-stim-button","228","704142","0.0-3.0-10.13-1.13","599323cdf9db7d00018955da","A3","batch1","","2808","","","tol_toboard","","","","","","","","","tol_peg_2","2808","2808","0","[[2,1,0],[3,0],[0]]","14","[[1,3,0],[2,0],[0]]","0","0","","","","","","3","",""
"","","","","","single-stim-button","229","708572","0.0-3.0-10.14-0.14","599323cdf9db7d00018955da","A3","batch1","","4429","","","tol_tohand","","","","","","","","","tol_peg_1","4429","4429","0","[[2,0,0],[3,0],[0]]","15","[[1,3,0],[2,0],[0]]","0","0","","","","","","3","",""
"","","","","","single-stim-button","230","711448","0.0-3.0-10.14-1.14","599323cdf9db7d00018955da","A3","batch1","","2876","","","tol_toboard","","","","","","","","","tol_peg_3","2876","2876","0","[[2,0,0],[3,0],[1]]","15","[[1,3,0],[2,0],[0]]","0","0","","","","","","3","",""
"","","","","","single-stim-button","231","712418","0.0-3.0-10.15-0.15","599323cdf9db7d00018955da","A3","batch1","","969","","","tol_tohand","","","","","","","","","tol_peg_1","969","969","0","[[0,0,0],[3,0],[1]]","16","[[1,3,0],[2,0],[0]]","0","0","","","","","","3","",""
"","","","","","single-stim-button","232","714806","0.0-3.0-10.15-1.15","599323cdf9db7d00018955da","A3","batch1","","2387","","","tol_toboard","","","","","","","","","tol_peg_2","2387","2387","0","[[0,0,0],[3,2],[1]]","16","[[1,3,0],[2,0],[0]]","0","0","","","","","","3","",""
"","","","","","single-stim-button","233","716388","0.0-3.0-10.16-0.16","599323cdf9db7d00018955da","A3","batch1","","1582","","","tol_tohand","","","","","","","","","tol_peg_3","1582","1582","0","[[0,0,0],[3,2],[0]]","17","[[1,3,0],[2,0],[0]]","0","0","","","","","","3","",""
"","","","","","single-stim-button","234","717580","0.0-3.0-10.16-1.16","599323cdf9db7d00018955da","A3","batch1","","1192","","","tol_toboard","","","","","","","","","tol_peg_1","1192","1192","0","[[1,0,0],[3,2],[0]]","17","[[1,3,0],[2,0],[0]]","0","0","","","","","","3","",""
"","","","","","single-stim-button","235","719928","0.0-3.0-10.17-0.17","599323cdf9db7d00018955da","A3","batch1","","2347","","","tol_tohand","","","","","","","","","tol_peg_2","2347","2347","0","[[1,0,0],[3,0],[0]]","18","[[1,3,0],[2,0],[0]]","0","0","","","","","","3","",""
"","","","","","single-stim-button","236","721970","0.0-3.0-10.17-1.17","599323cdf9db7d00018955da","A3","batch1","","2042","","","tol_toboard","","","","","","","","","tol_peg_3","2042","2042","0","[[1,0,0],[3,0],[2]]","18","[[1,3,0],[2,0],[0]]","0","0","","","","","","3","",""
"","","","","","single-stim-button","237","722724","0.0-3.0-10.18-0.18","599323cdf9db7d00018955da","A3","batch1","","753","","","tol_tohand","","","","","","","","","tol_peg_2","753","753","0","[[1,0,0],[0,0],[2]]","19","[[1,3,0],[2,0],[0]]","0","0","","","","","","3","",""
"","","","","","single-stim-button","238","723990","0.0-3.0-10.18-1.18","599323cdf9db7d00018955da","A3","batch1","","1266","","","tol_toboard","","","","","","","","","tol_peg_1","1266","1266","0","[[1,3,0],[0,0],[2]]","19","[[1,3,0],[2,0],[0]]","0","0","","","","","","3","",""
"","","","","","single-stim-button","239","724806","0.0-3.0-10.19-0.19","599323cdf9db7d00018955da","A3","batch1","","815","","","tol_tohand","","","","","","","","","tol_peg_3","815","815","0","[[1,3,0],[0,0],[0]]","20","[[1,3,0],[2,0],[0]]","0","0","","","","","","3","",""
"","","","","","single-stim-button","240","725640","0.0-3.0-10.19-1.19","599323cdf9db7d00018955da","A3","batch1","","833","","","tol_toboard","","","","","","","","","tol_peg_2","833","833","0","[[1,3,0],[2,0],[0]]","20","[[1,3,0],[2,0],[0]]","0","0","","","","","","3","",""
"","","","","","poldrack-single-stim","241","726642","0.0-3.0-11.0","599323cdf9db7d00018955da","A3","batch1","","-1","","","tol_feedback","true","","","","","","","","","1000","1000","500","","","","","","-1","none","true","4767","55371","","",""
"","","","","","html-button-response","242","728234","0.0-3.0-12.0","599323cdf9db7d00018955da","A3","batch1","","1590.5","<div class = centerbox><p class = center-block-text>problem <strong>2</strong> out of 25 problems</p></div>","0","tol_trial_num","","","","","","","","","","","","","","","","","","","","","","","","",""
"","","","","","single-stim-button","243","733304","0.0-3.0-13.0-0.0","599323cdf9db7d00018955da","A3","batch1","","5068","","","tol_tohand","","","","","","","","","tol_peg_1","5068","5068","0","[[1,0,0],[3,0],[0]]","1","[[2,1,3],[0,0],[0]]","1","0","","","","","","5","",""
"","","","","","single-stim-button","244","734674","0.0-3.0-13.0-1.0","599323cdf9db7d00018955da","A3","batch1","","1369","","","tol_toboard","","","","","","","","","tol_peg_3","1369","1369","0","[[1,0,0],[3,0],[2]]","1","[[2,1,3],[0,0],[0]]","1","0","","","","","","5","",""
"","","","","","single-stim-button","245","736424","0.0-3.0-13.1-0.1","599323cdf9db7d00018955da","A3","batch1","","1749","","","tol_tohand","","","","","","","","","tol_peg_1","1749","1749","0","[[0,0,0],[3,0],[2]]","2","[[2,1,3],[0,0],[0]]","1","0","","","","","","5","",""
"","","","","","single-stim-button","246","740474","0.0-3.0-13.1-1.1","599323cdf9db7d00018955da","A3","batch1","","4049","","","tol_toboard","","","","","","","","","tol_peg_2","4049","4049","0","[[0,0,0],[3,1],[2]]","2","[[2,1,3],[0,0],[0]]","1","0","","","","","","5","",""
"","","","","","single-stim-button","247","741188","0.0-3.0-13.2-0.2","599323cdf9db7d00018955da","A3","batch1","","713","","","tol_tohand","","","","","","","","","tol_peg_3","713","713","0","[[0,0,0],[3,1],[0]]","3","[[2,1,3],[0,0],[0]]","1","0","","","","","","5","",""
"","","","","","single-stim-button","248","742486","0.0-3.0-13.2-1.2","599323cdf9db7d00018955da","A3","batch1","","1297","","","tol_toboard","","","","","","","","","tol_peg_1","1297","1297","0","[[2,0,0],[3,1],[0]]","3","[[2,1,3],[0,0],[0]]","1","0","","","","","","5","",""
"","","","","","single-stim-button","249","743366","0.0-3.0-13.3-0.3","599323cdf9db7d00018955da","A3","batch1","","879","","","tol_tohand","","","","","","","","","tol_peg_2","879","879","0","[[2,0,0],[3,0],[0]]","4","[[2,1,3],[0,0],[0]]","1","0","","","","","","5","",""
"","","","","","single-stim-button","250","744336","0.0-3.0-13.3-1.3","599323cdf9db7d00018955da","A3","batch1","","969","","","tol_toboard","","","","","","","","","tol_peg_1","969","969","0","[[2,1,0],[3,0],[0]]","4","[[2,1,3],[0,0],[0]]","1","0","","","","","","5","",""
"","","","","","single-stim-button","251","745306","0.0-3.0-13.4-0.4","599323cdf9db7d00018955da","A3","batch1","","969","","","tol_tohand","","","","","","","","","tol_peg_2","969","969","0","[[2,1,0],[0,0],[0]]","5","[[2,1,3],[0,0],[0]]","1","0","","","","","","5","",""
"","","","","","single-stim-button","252","746266","0.0-3.0-13.4-1.4","599323cdf9db7d00018955da","A3","batch1","","959","","","tol_toboard","","","","","","","","","tol_peg_1","959","959","0","[[2,1,3],[0,0],[0]]","5","[[2,1,3],[0,0],[0]]","1","0","","","","","","5","",""
"","","","","","poldrack-single-stim","253","747268","0.0-3.0-14.0","599323cdf9db7d00018955da","A3","batch1","","-1","","","tol_feedback","true","","","","","","","","","1000","1000","500","","","","","","-1","none","true","5068","9378","","",""
"","","","","","html-button-response","254","748586","0.0-3.0-15.0","599323cdf9db7d00018955da","A3","batch1","","1316.1000000014901","<div class = centerbox><p class = center-block-text>problem <strong>3</strong> out of 25 problems</p></div>","0","tol_trial_num","","","","","","","","","","","","","","","","","","","","","","","","",""
"","","","","","single-stim-button","255","756774","0.0-3.0-16.0-0.0","599323cdf9db7d00018955da","A3","batch1","","8187","","","tol_tohand","","","","","","","","","tol_peg_3","8187","8187","0","[[2,3,0],[0,0],[0]]","1","[[1,2,0],[3,0],[0]]","2","0","","","","","","4","",""
"","","","","","single-stim-button","256","757822","0.0-3.0-16.0-1.0","599323cdf9db7d00018955da","A3","batch1","","1047","","","tol_toboard","","","","","","","","","tol_peg_2","1047","1047","0","[[2,3,0],[1,0],[0]]","1","[[1,2,0],[3,0],[0]]","2","0","","","","","","4","",""
"","","","","","single-stim-button","257","760588","0.0-3.0-16.1-0.1","599323cdf9db7d00018955da","A3","batch1","","2765","","","tol_tohand","","","","","","","","","tol_peg_1","2765","2765","0","[[2,0,0],[1,0],[0]]","2","[[1,2,0],[3,0],[0]]","2","0","","","","","","4","",""
"","","","","","single-stim-button","258","761628","0.0-3.0-16.1-1.1","599323cdf9db7d00018955da","A3","batch1","","1039","","","tol_toboard","","","","","","","","","tol_peg_3","1039","1039","0","[[2,0,0],[1,0],[3]]","2","[[1,2,0],[3,0],[0]]","2","0","","","","","","4","",""
"","","","","","single-stim-button","259","763572","0.0-3.0-16.2-0.2","599323cdf9db7d00018955da","A3","batch1","","1943","","","tol_tohand","","","","","","","","","tol_peg_1","1943","1943","0","[[0,0,0],[1,0],[3]]","3","[[1,2,0],[3,0],[0]]","2","0","","","","","","4","",""
"","","","","","single-stim-button","260","770756","0.0-3.0-16.2-1.2","599323cdf9db7d00018955da","A3","batch1","","7183","","","tol_toboard","","","","","","","","","tol_peg_2","7183","7183","0","[[0,0,0],[1,2],[3]]","3","[[1,2,0],[3,0],[0]]","2","0","","","","","","4","",""
"","","","","","single-stim-button","261","777512","0.0-3.0-16.3-0.3","599323cdf9db7d00018955da","A3","batch1","","6755","","","tol_tohand","","","","","","","","","tol_peg_2","6755","6755","0","[[0,0,0],[1,0],[3]]","4","[[1,2,0],[3,0],[0]]","2","0","","","","","","4","",""
"","","","","","single-stim-button","262","778448","0.0-3.0-16.3-1.3","599323cdf9db7d00018955da","A3","batch1","","936","","","tol_toboard","","","","","","","","","tol_peg_1","936","936","0","[[2,0,0],[1,0],[3]]","4","[[1,2,0],[3,0],[0]]","2","0","","","","","","4","",""
"","","","","","single-stim-button","263","779202","0.0-3.0-16.4-0.4","599323cdf9db7d00018955da","A3","batch1","","752","","","tol_tohand","","","","","","","","","tol_peg_2","752","752","0","[[2,0,0],[0,0],[3]]","5","[[1,2,0],[3,0],[0]]","2","0","","","","","","4","",""
"","","","","","single-stim-button","264","780572","0.0-3.0-16.4-1.4","599323cdf9db7d00018955da","A3","batch1","","1369","","","tol_toboard","","","","","","","","","tol_peg_1","1369","1369","0","[[2,1,0],[0,0],[3]]","5","[[1,2,0],[3,0],[0]]","2","0","","","","","","4","",""
"","","","","","single-stim-button","265","781660","0.0-3.0-16.5-0.5","599323cdf9db7d00018955da","A3","batch1","","1087","","","tol_tohand","","","","","","","","","tol_peg_3","1087","1087","0","[[2,1,0],[0,0],[0]]","6","[[1,2,0],[3,0],[0]]","2","0","","","","","","4","",""
"","","","","","single-stim-button","266","782798","0.0-3.0-16.5-1.5","599323cdf9db7d00018955da","A3","batch1","","1137","","","tol_toboard","","","","","","","","","tol_peg_2","1137","1137","0","[[2,1,0],[3,0],[0]]","6","[[1,2,0],[3,0],[0]]","2","0","","","","","","4","",""
"","","","","","single-stim-button","267","784232","0.0-3.0-16.6-0.6","599323cdf9db7d00018955da","A3","batch1","","1433","","","tol_tohand","","","","","","","","","tol_peg_1","1433","1433","0","[[2,0,0],[3,0],[0]]","7","[[1,2,0],[3,0],[0]]","2","0","","","","","","4","",""
"","","","","","single-stim-button","268","786888","0.0-3.0-16.6-1.6","599323cdf9db7d00018955da","A3","batch1","","2655","","","tol_toboard","","","","","","","","","tol_peg_3","2655","2655","0","[[2,0,0],[3,0],[1]]","7","[[1,2,0],[3,0],[0]]","2","0","","","","","","4","",""
"","","","","","single-stim-button","269","788698","0.0-3.0-16.7-0.7","599323cdf9db7d00018955da","A3","batch1","","1809","","","tol_tohand","","","","","","","","","tol_peg_1","1809","1809","0","[[0,0,0],[3,0],[1]]","8","[[1,2,0],[3,0],[0]]","2","0","","","","","","4","",""
"","","","","","single-stim-button","270","789692","0.0-3.0-16.7-1.7","599323cdf9db7d00018955da","A3","batch1","","993","","","tol_toboard","","","","","","","","","tol_peg_2","993","993","0","[[0,0,0],[3,2],[1]]","8","[[1,2,0],[3,0],[0]]","2","0","","","","","","4","",""
"","","","","","single-stim-button","271","790830","0.0-3.0-16.8-0.8","599323cdf9db7d00018955da","A3","batch1","","1137","","","tol_tohand","","","","","","","","","tol_peg_3","1137","1137","0","[[0,0,0],[3,2],[0]]","9","[[1,2,0],[3,0],[0]]","2","0","","","","","","4","",""
"","","","","","single-stim-button","272","792030","0.0-3.0-16.8-1.8","599323cdf9db7d00018955da","A3","batch1","","1199","","","tol_toboard","","","","","","","","","tol_peg_1","1199","1199","0","[[1,0,0],[3,2],[0]]","9","[[1,2,0],[3,0],[0]]","2","0","","","","","","4","",""
"","","","","","single-stim-button","273","792928","0.0-3.0-16.9-0.9","599323cdf9db7d00018955da","A3","batch1","","897","","","tol_tohand","","","","","","","","","tol_peg_2","897","897","0","[[1,0,0],[3,0],[0]]","10","[[1,2,0],[3,0],[0]]","2","0","","","","","","4","",""
"","","","","","single-stim-button","274","794194","0.0-3.0-16.9-1.9","599323cdf9db7d00018955da","A3","batch1","","1265","","","tol_toboard","","","","","","","","","tol_peg_1","1265","1265","0","[[1,2,0],[3,0],[0]]","10","[[1,2,0],[3,0],[0]]","2","0","","","","","","4","",""
"","","","","","poldrack-single-stim","275","795197","0.0-3.0-17.0","599323cdf9db7d00018955da","A3","batch1","","-1","","","tol_feedback","true","","","","","","","","","1000","1000","500","","","","","","-1","none","true","8187","26765","","",""
"","","","","","html-button-response","276","796656","0.0-3.0-18.0","599323cdf9db7d00018955da","A3","batch1","","1457.8999999985099","<div class = centerbox><p class = center-block-text>problem <strong>4</strong> out of 25 problems</p></div>","0","tol_trial_num","","","","","","","","","","","","","","","","","","","","","","","","",""
"","","","","","single-stim-button","277","801510","0.0-3.0-19.0-0.0","599323cdf9db7d00018955da","A3","batch1","","4853","","","tol_tohand","","","","","","","","","tol_peg_2","4853","4853","0","[[3,0,0],[2,0],[0]]","1","[[3,0,0],[1,0],[2]]","3","0","","","","","","3","",""
"","","","","","single-stim-button","278","802510","0.0-3.0-19.0-1.0","599323cdf9db7d00018955da","A3","batch1","","999","","","tol_toboard","","","","","","","","","tol_peg_3","999","999","0","[[3,0,0],[2,0],[1]]","1","[[3,0,0],[1,0],[2]]","3","0","","","","","","3","",""
"","","","","","single-stim-button","279","803672","0.0-3.0-19.1-0.1","599323cdf9db7d00018955da","A3","batch1","","1161","","","tol_tohand","","","","","","","","","tol_peg_2","1161","1161","0","[[3,0,0],[0,0],[1]]","2","[[3,0,0],[1,0],[2]]","3","0","","","","","","3","",""
"","","","","","single-stim-button","280","807210","0.0-3.0-19.1-1.1","599323cdf9db7d00018955da","A3","batch1","","3537","","","tol_toboard","","","","","","","","","tol_peg_1","3537","3537","0","[[3,2,0],[0,0],[1]]","2","[[3,0,0],[1,0],[2]]","3","0","","","","","","3","",""
"","","","","","single-stim-button","281","808174","0.0-3.0-19.2-0.2","599323cdf9db7d00018955da","A3","batch1","","963","","","tol_tohand","","","","","","","","","tol_peg_3","963","963","0","[[3,2,0],[0,0],[0]]","3","[[3,0,0],[1,0],[2]]","3","0","","","","","","3","",""
"","","","","","single-stim-button","282","809312","0.0-3.0-19.2-1.2","599323cdf9db7d00018955da","A3","batch1","","1137","","","tol_toboard","","","","","","","","","tol_peg_2","1137","1137","0","[[3,2,0],[1,0],[0]]","3","[[3,0,0],[1,0],[2]]","3","0","","","","","","3","",""
"","","","","","single-stim-button","283","810080","0.0-3.0-19.3-0.3","599323cdf9db7d00018955da","A3","batch1","","767","","","tol_tohand","","","","","","","","","tol_peg_1","767","767","0","[[3,0,0],[1,0],[0]]","4","[[3,0,0],[1,0],[2]]","3","0","","","","","","3","",""
"","","","","","single-stim-button","284","810782","0.0-3.0-19.3-1.3","599323cdf9db7d00018955da","A3","batch1","","701","","","tol_toboard","","","","","","","","","tol_peg_3","701","701","0","[[3,0,0],[1,0],[2]]","4","[[3,0,0],[1,0],[2]]","3","0","","","","","","3","",""
"","","","","","poldrack-single-stim","285","811783","0.0-3.0-20.0","599323cdf9db7d00018955da","A3","batch1","","-1","","","tol_feedback","true","","","","","","","","","1000","1000","500","","","","","","-1","none","true","4853","7744","","",""
"","","","","","html-button-response","286","813040","0.0-3.0-21.0","599323cdf9db7d00018955da","A3","batch1","","1254.8999999985099","<div class = centerbox><p class = center-block-text>problem <strong>5</strong> out of 25 problems</p></div>","0","tol_trial_num","","","","","","","","","","","","","","","","","","","","","","","","",""
"","","","","","single-stim-button","287","821228","0.0-3.0-22.0-0.0","599323cdf9db7d00018955da","A3","batch1","","8187","","","tol_tohand","","","","","","","","","tol_peg_3","8187","8187","0","[[1,0,0],[2,0],[0]]","1","[[0,0,0],[1,2],[3]]","4","0","","","","","","7","",""
"","","","","","single-stim-button","288","825502","0.0-3.0-22.0-1.0","599323cdf9db7d00018955da","A3","batch1","","4272","","","tol_toboard","","","","","","","","","tol_peg_1","4272","4272","0","[[1,3,0],[2,0],[0]]","1","[[0,0,0],[1,2],[3]]","4","0","","","","","","7","",""
"","","","","","single-stim-button","289","826544","0.0-3.0-22.1-0.1","599323cdf9db7d00018955da","A3","batch1","","1041","","","tol_tohand","","","","","","","","","tol_peg_2","1041","1041","0","[[1,3,0],[0,0],[0]]","2","[[0,0,0],[1,2],[3]]","4","0","","","","","","7","",""
"","","","","","single-stim-button","290","827376","0.0-3.0-22.1-1.1","599323cdf9db7d00018955da","A3","batch1","","831","","","tol_toboard","","","","","","","","","tol_peg_3","831","831","0","[[1,3,0],[0,0],[2]]","2","[[0,0,0],[1,2],[3]]","4","0","","","","","","7","",""
"","","","","","single-stim-button","291","834186","0.0-3.0-22.2-0.2","599323cdf9db7d00018955da","A3","batch1","","6809","","","tol_tohand","","","","","","","","","tol_peg_1","6809","6809","0","[[1,0,0],[0,0],[2]]","3","[[0,0,0],[1,2],[3]]","4","0","","","","","","7","",""
"","","","","","single-stim-button","292","835366","0.0-3.0-22.2-1.2","599323cdf9db7d00018955da","A3","batch1","","1179","","","tol_toboard","","","","","","","","","tol_peg_2","1179","1179","0","[[1,0,0],[3,0],[2]]","3","[[0,0,0],[1,2],[3]]","4","0","","","","","","7","",""
"","","","","","single-stim-button","293","836488","0.0-3.0-22.3-0.3","599323cdf9db7d00018955da","A3","batch1","","1121","","","tol_tohand","","","","","","","","","tol_peg_1","1121","1121","0","[[0,0,0],[3,0],[2]]","4","[[0,0,0],[1,2],[3]]","4","0","","","","","","7","",""
"","","","","","single-stim-button","294","840080","0.0-3.0-22.3-1.3","599323cdf9db7d00018955da","A3","batch1","","3591","","","tol_toboard","","","","","","","","","tol_peg_1","3591","3591","0","[[1,0,0],[3,0],[2]]","4","[[0,0,0],[1,2],[3]]","4","0","","","","","","7","",""
"","","","","","single-stim-button","295","843860","0.0-3.0-22.4-0.4","599323cdf9db7d00018955da","A3","batch1","","3779","","","tol_tohand","","","","","","","","","tol_peg_3","3779","3779","0","[[1,0,0],[3,0],[0]]","5","[[0,0,0],[1,2],[3]]","4","0","","","","","","7","",""
"","","","","","single-stim-button","296","845150","0.0-3.0-22.4-1.4","599323cdf9db7d00018955da","A3","batch1","","1289","","","tol_toboard","","","","","","","","","tol_peg_1","1289","1289","0","[[1,2,0],[3,0],[0]]","5","[[0,0,0],[1,2],[3]]","4","0","","","","","","7","",""
"","","","","","single-stim-button","297","846144","0.0-3.0-22.5-0.5","599323cdf9db7d00018955da","A3","batch1","","993","","","tol_tohand","","","","","","","","","tol_peg_2","993","993","0","[[1,2,0],[0,0],[0]]","6","[[0,0,0],[1,2],[3]]","4","0","","","","","","7","",""
"","","","","","single-stim-button","298","847104","0.0-3.0-22.5-1.5","599323cdf9db7d00018955da","A3","batch1","","959","","","tol_toboard","","","","","","","","","tol_peg_3","959","959","0","[[1,2,0],[0,0],[3]]","6","[[0,0,0],[1,2],[3]]","4","0","","","","","","7","",""
"","","","","","single-stim-button","299","853616","0.0-3.0-22.6-0.6","599323cdf9db7d00018955da","A3","batch1","","6511","","","tol_tohand","","","","","","","","","tol_peg_1","6511","6511","0","[[1,0,0],[0,0],[3]]","7","[[0,0,0],[1,2],[3]]","4","0","","","","","","7","",""
"","","","","","single-stim-button","300","856156","0.0-3.0-22.6-1.6","599323cdf9db7d00018955da","A3","batch1","","2539","","","tol_toboard","","","","","","","","","tol_peg_2","2539","2539","0","[[1,0,0],[2,0],[3]]","7","[[0,0,0],[1,2],[3]]","4","0","","","","","","7","",""
"","","","","","single-stim-button","301","857222","0.0-3.0-22.7-0.7","599323cdf9db7d00018955da","A3","batch1","","1065","","","tol_tohand","","","","","","","","","tol_peg_1","1065","1065","0","[[0,0,0],[2,0],[3]]","8","[[0,0,0],[1,2],[3]]","4","0","","","","","","7","",""
"","","","","","single-stim-button","302","861512","0.0-3.0-22.7-1.7","599323cdf9db7d00018955da","A3","batch1","","4290","","","tol_toboard","","","","","","","","","tol_peg_2","4290","4290","0","[[0,0,0],[2,1],[3]]","8","[[0,0,0],[1,2],[3]]","4","0","","","","","","7","",""
"","","","","","single-stim-button","303","869154","0.0-3.0-22.8-0.8","599323cdf9db7d00018955da","A3","batch1","","7640","","","tol_tohand","","","","","","","","","tol_peg_2","7640","7640","0","[[0,0,0],[2,0],[3]]","9","[[0,0,0],[1,2],[3]]","4","0","","","","","","7","",""
"","","","","","single-stim-button","304","870652","0.0-3.0-22.8-1.8","599323cdf9db7d00018955da","A3","batch1","","1497","","","tol_toboard","","","","","","","","","tol_peg_1","1497","1497","0","[[1,0,0],[2,0],[3]]","9","[[0,0,0],[1,2],[3]]","4","0","","","","","","7","",""
"","","","","","single-stim-button","305","871404","0.0-3.0-22.9-0.9","599323cdf9db7d00018955da","A3","batch1","","751","","","tol_tohand","","","","","","","","","tol_peg_2","751","751","0","[[1,0,0],[0,0],[3]]","10","[[0,0,0],[1,2],[3]]","4","0","","","","","","7","",""
"","","","","","single-stim-button","306","872166","0.0-3.0-22.9-1.9","599323cdf9db7d00018955da","A3","batch1","","762","","","tol_toboard","","","","","","","","","tol_peg_1","762","762","0","[[1,2,0],[0,0],[3]]","10","[[0,0,0],[1,2],[3]]","4","0","","","","","","7","",""
"","","","","","single-stim-button","307","874380","0.0-3.0-22.10-0.10","599323cdf9db7d00018955da","A3","batch1","","2213","","","tol_tohand","","","","","","","","","tol_peg_3","2213","2213","0","[[1,2,0],[0,0],[0]]","11","[[0,0,0],[1,2],[3]]","4","0","","","","","","7","",""
"","","","","","single-stim-button","308","875214","0.0-3.0-22.10-1.10","599323cdf9db7d00018955da","A3","batch1","","833","","","tol_toboard","","","","","","","","","tol_peg_2","833","833","0","[[1,2,0],[3,0],[0]]","11","[[0,0,0],[1,2],[3]]","4","0","","","","","","7","",""
"","","","","","single-stim-button","309","880430","0.0-3.0-22.11-0.11","599323cdf9db7d00018955da","A3","batch1","","5215","","","tol_tohand","","","","","","","","","tol_peg_2","5215","5215","0","[[1,2,0],[0,0],[0]]","12","[[0,0,0],[1,2],[3]]","4","0","","","","","","7","",""
"","","","","","single-stim-button","310","881568","0.0-3.0-22.11-1.11","599323cdf9db7d00018955da","A3","batch1","","1138","","","tol_toboard","","","","","","","","","tol_peg_3","1138","1138","0","[[1,2,0],[0,0],[3]]","12","[[0,0,0],[1,2],[3]]","4","0","","","","","","7","",""
"","","","","","single-stim-button","311","883566","0.0-3.0-22.12-0.12","599323cdf9db7d00018955da","A3","batch1","","1998","","","tol_tohand","","","","","","","","","tol_peg_1","1998","1998","0","[[1,0,0],[0,0],[3]]","13","[[0,0,0],[1,2],[3]]","4","0","","","","","","7","",""
"","","","","","single-stim-button","312","888748","0.0-3.0-22.12-1.12","599323cdf9db7d00018955da","A3","batch1","","5181","","","tol_toboard","","","","","","","","","tol_peg_2","5181","5181","0","[[1,0,0],[2,0],[3]]","13","[[0,0,0],[1,2],[3]]","4","0","","","","","","7","",""
"","","","","","single-stim-button","313","889582","0.0-3.0-22.13-0.13","599323cdf9db7d00018955da","A3","batch1","","833","","","tol_tohand","","","","","","","","","tol_peg_1","833","833","0","[[0,0,0],[2,0],[3]]","14","[[0,0,0],[1,2],[3]]","4","0","","","","","","7","",""
"","","","","","single-stim-button","314","891572","0.0-3.0-22.13-1.13","599323cdf9db7d00018955da","A3","batch1","","1989","","","tol_toboard","","","","","","","","","tol_peg_2","1989","1989","0","[[0,0,0],[2,1],[3]]","14","[[0,0,0],[1,2],[3]]","4","0","","","","","","7","",""
"","","","","","single-stim-button","315","899918","0.0-3.0-22.14-0.14","599323cdf9db7d00018955da","A3","batch1","","8345","","","tol_tohand","","","","","","","","","tol_peg_3","8345","8345","0","[[0,0,0],[2,1],[0]]","15","[[0,0,0],[1,2],[3]]","4","0","","","","","","7","",""
"","","","","","single-stim-button","316","901556","0.0-3.0-22.14-1.14","599323cdf9db7d00018955da","A3","batch1","","1638","","","tol_toboard","","","","","","","","","tol_peg_1","1638","1638","0","[[3,0,0],[2,1],[0]]","15","[[0,0,0],[1,2],[3]]","4","0","","","","","","7","",""
"","","","","","single-stim-button","317","902588","0.0-3.0-22.15-0.15","599323cdf9db7d00018955da","A3","batch1","","1030","","","tol_tohand","","","","","","","","","tol_peg_2","1030","1030","0","[[3,0,0],[2,0],[0]]","16","[[0,0,0],[1,2],[3]]","4","0","","","","","","7","",""
"","","","","","single-stim-button","318","904352","0.0-3.0-22.15-1.15","599323cdf9db7d00018955da","A3","batch1","","1764","","","tol_toboard","","","","","","","","","tol_peg_3","1764","1764","0","[[3,0,0],[2,0],[1]]","16","[[0,0,0],[1,2],[3]]","4","0","","","","","","7","",""
"","","","","","single-stim-button","319","905280","0.0-3.0-22.16-0.16","599323cdf9db7d00018955da","A3","batch1","","927","","","tol_tohand","","","","","","","","","tol_peg_2","927","927","0","[[3,0,0],[0,0],[1]]","17","[[0,0,0],[1,2],[3]]","4","0","","","","","","7","",""
"","","","","","single-stim-button","320","906306","0.0-3.0-22.16-1.16","599323cdf9db7d00018955da","A3","batch1","","1025","","","tol_toboard","","","","","","","","","tol_peg_1","1025","1025","0","[[3,2,0],[0,0],[1]]","17","[[0,0,0],[1,2],[3]]","4","0","","","","","","7","",""
"","","","","","single-stim-button","321","907202","0.0-3.0-22.17-0.17","599323cdf9db7d00018955da","A3","batch1","","895","","","tol_tohand","","","","","","","","","tol_peg_3","895","895","0","[[3,2,0],[0,0],[0]]","18","[[0,0,0],[1,2],[3]]","4","0","","","","","","7","",""
"","","","","","single-stim-button","322","908284","0.0-3.0-22.17-1.17","599323cdf9db7d00018955da","A3","batch1","","1081","","","tol_toboard","","","","","","","","","tol_peg_2","1081","1081","0","[[3,2,0],[1,0],[0]]","18","[[0,0,0],[1,2],[3]]","4","0","","","","","","7","",""
"","","","","","single-stim-button","323","909166","0.0-3.0-22.18-0.18","599323cdf9db7d00018955da","A3","batch1","","882","","","tol_tohand","","","","","","","","","tol_peg_1","882","882","0","[[3,0,0],[1,0],[0]]","19","[[0,0,0],[1,2],[3]]","4","0","","","","","","7","",""
"","","","","","single-stim-button","324","909998","0.0-3.0-22.18-1.18","599323cdf9db7d00018955da","A3","batch1","","832","","","tol_toboard","","","","","","","","","tol_peg_2","832","832","0","[[3,0,0],[1,2],[0]]","19","[[0,0,0],[1,2],[3]]","4","0","","","","","","7","",""
"","","","","","single-stim-button","325","911368","0.0-3.0-22.19-0.19","599323cdf9db7d00018955da","A3","batch1","","1369","","","tol_tohand","","","","","","","","","tol_peg_1","1369","1369","0","[[0,0,0],[1,2],[0]]","20","[[0,0,0],[1,2],[3]]","4","0","","","","","","7","",""
"","","","","","single-stim-button","326","912426","0.0-3.0-22.19-1.19","599323cdf9db7d00018955da","A3","batch1","","1058","","","tol_toboard","","","","","","","","","tol_peg_3","1058","1058","0","[[0,0,0],[1,2],[3]]","20","[[0,0,0],[1,2],[3]]","4","0","","","","","","7","",""
"","","","","","poldrack-single-stim","327","913444","0.0-3.0-23.0","599323cdf9db7d00018955da","A3","batch1","","-1","","","tol_feedback","true","","","","","","","","","1000","1000","500","","","","","","-1","none","true","8187","61604","","",""
"","","","","","html-button-response","328","914826","0.0-3.0-24.0","599323cdf9db7d00018955da","A3","batch1","","1380.9000000059605","<div class = centerbox><p class = center-block-text>problem <strong>6</strong> out of 25 problems</p></div>","0","tol_trial_num","","","","","","","","","","","","","","","","","","","","","","","","",""
"","","","","","single-stim-button","329","921444","0.0-3.0-25.0-0.0","599323cdf9db7d00018955da","A3","batch1","","6616","","","tol_tohand","","","","","","","","","tol_peg_3","6616","6616","0","[[0,0,0],[1,2],[0]]","1","[[1,0,0],[2,3],[0]]","5","0","","","","","","6","",""
"","","","","","single-stim-button","330","922846","0.0-3.0-25.0-1.0","599323cdf9db7d00018955da","A3","batch1","","1401","","","tol_toboard","","","","","","","","","tol_peg_1","1401","1401","0","[[3,0,0],[1,2],[0]]","1","[[1,0,0],[2,3],[0]]","5","0","","","","","","6","",""
"","","","","","single-stim-button","331","923726","0.0-3.0-25.1-0.1","599323cdf9db7d00018955da","A3","batch1","","880","","","tol_tohand","","","","","","","","","tol_peg_2","880","880","0","[[3,0,0],[1,0],[0]]","2","[[1,0,0],[2,3],[0]]","5","0","","","","","","6","",""
"","","","","","single-stim-button","332","924980","0.0-3.0-25.1-1.1","599323cdf9db7d00018955da","A3","batch1","","1253","","","tol_toboard","","","","","","","","","tol_peg_3","1253","1253","0","[[3,0,0],[1,0],[2]]","2","[[1,0,0],[2,3],[0]]","5","0","","","","","","6","",""
"","","","","","single-stim-button","333","937712","0.0-3.0-25.2-0.2","599323cdf9db7d00018955da","A3","batch1","","12731","","","tol_tohand","","","","","","","","","tol_peg_2","12731","12731","0","[[3,0,0],[0,0],[2]]","3","[[1,0,0],[2,3],[0]]","5","0","","","","","","6","",""
"","","","","","single-stim-button","334","939630","0.0-3.0-25.2-1.2","599323cdf9db7d00018955da","A3","batch1","","1917","","","tol_toboard","","","","","","","","","tol_peg_1","1917","1917","0","[[3,1,0],[0,0],[2]]","3","[[1,0,0],[2,3],[0]]","5","0","","","","","","6","",""
"","","","","","single-stim-button","335","940336","0.0-3.0-25.3-0.3","599323cdf9db7d00018955da","A3","batch1","","704","","","tol_tohand","","","","","","","","","tol_peg_3","704","704","0","[[3,1,0],[0,0],[0]]","4","[[1,0,0],[2,3],[0]]","5","0","","","","","","6","",""
"","","","","","single-stim-button","336","941408","0.0-3.0-25.3-1.3","599323cdf9db7d00018955da","A3","batch1","","1072","","","tol_toboard","","","","","","","","","tol_peg_2","1072","1072","0","[[3,1,0],[2,0],[0]]","4","[[1,0,0],[2,3],[0]]","5","0","","","","","","6","",""
"","","","","","single-stim-button","337","942842","0.0-3.0-25.4-0.4","599323cdf9db7d00018955da","A3","batch1","","1433","","","tol_tohand","","","","","","","","","tol_peg_1","1433","1433","0","[[3,0,0],[2,0],[0]]","5","[[1,0,0],[2,3],[0]]","5","0","","","","","","6","",""
"","","","","","single-stim-button","338","944156","0.0-3.0-25.4-1.4","599323cdf9db7d00018955da","A3","batch1","","1314","","","tol_toboard","","","","","","","","","tol_peg_3","1314","1314","0","[[3,0,0],[2,0],[1]]","5","[[1,0,0],[2,3],[0]]","5","0","","","","","","6","",""
"","","","","","single-stim-button","339","945118","0.0-3.0-25.5-0.5","599323cdf9db7d00018955da","A3","batch1","","961","","","tol_tohand","","","","","","","","","tol_peg_1","961","961","0","[[0,0,0],[2,0],[1]]","6","[[1,0,0],[2,3],[0]]","5","0","","","","","","6","",""
"","","","","","single-stim-button","340","946352","0.0-3.0-25.5-1.5","599323cdf9db7d00018955da","A3","batch1","","1233","","","tol_toboard","","","","","","","","","tol_peg_2","1233","1233","0","[[0,0,0],[2,3],[1]]","6","[[1,0,0],[2,3],[0]]","5","0","","","","","","6","",""
"","","","","","single-stim-button","341","947152","0.0-3.0-25.6-0.6","599323cdf9db7d00018955da","A3","batch1","","800","","","tol_tohand","","","","","","","","","tol_peg_3","800","800","0","[[0,0,0],[2,3],[0]]","7","[[1,0,0],[2,3],[0]]","5","0","","","","","","6","",""
"","","","","","single-stim-button","342","948178","0.0-3.0-25.6-1.6","599323cdf9db7d00018955da","A3","batch1","","1026","","","tol_toboard","","","","","","","","","tol_peg_1","1026","1026","0","[[1,0,0],[2,3],[0]]","7","[[1,0,0],[2,3],[0]]","5","0","","","","","","6","",""
"","","","","","poldrack-single-stim","343","949179","0.0-3.0-26.0","599323cdf9db7d00018955da","A3","batch1","","-1","","","tol_feedback","true","","","","","","","","","1000","1000","500","","","","","","-1","none","true","6616","24125","","",""
"","","","","","html-button-response","344","950300","0.0-3.0-27.0","599323cdf9db7d00018955da","A3","batch1","","1119.1000000014901","<div class = centerbox><p class = center-block-text>problem <strong>7</strong> out of 25 problems</p></div>","0","tol_trial_num","","","","","","","","","","","","","","","","","","","","","","","","",""
"","","","","","single-stim-button","345","955634","0.0-3.0-28.0-0.0","599323cdf9db7d00018955da","A3","batch1","","5333","","","tol_tohand","","","","","","","","","tol_peg_3","5333","5333","0","[[2,1,0],[0,0],[0]]","1","[[1,2,0],[3,0],[0]]","6","0","","","","","","5","",""
"","","","","","single-stim-button","346","956756","0.0-3.0-28.0-1.0","599323cdf9db7d00018955da","A3","batch1","","1121","","","tol_toboard","","","","","","","","","tol_peg_2","1121","1121","0","[[2,1,0],[3,0],[0]]","1","[[1,2,0],[3,0],[0]]","6","0","","","","","","5","",""
"","","","","","single-stim-button","347","958518","0.0-3.0-28.1-0.1","599323cdf9db7d00018955da","A3","batch1","","1762","","","tol_tohand","","","","","","","","","tol_peg_1","1762","1762","0","[[2,0,0],[3,0],[0]]","2","[[1,2,0],[3,0],[0]]","6","0","","","","","","5","",""
"","","","","","single-stim-button","348","960416","0.0-3.0-28.1-1.1","599323cdf9db7d00018955da","A3","batch1","","1898","","","tol_toboard","","","","","","","","","tol_peg_3","1898","1898","0","[[2,0,0],[3,0],[1]]","2","[[1,2,0],[3,0],[0]]","6","0","","","","","","5","",""
