"success","timeout","failed_images","failed_audio","failed_video","trial_type","trial_index","time_elapsed","internal_node_id","subject_id","study_id","session_id","view_history","rt","stimulus","response","task","correct","answer","item","fiar_detect_rt","fiar_detect_correct","total_correct_fiar_detect","post_trial_gap","choices","spm_correct","spm_rt","mouse_click","stim_duration","block_duration","timing_post_trial","current_position","tol_num_moves_made","tol_target","tol_problem_id","tol_rt","key_press","possible_responses","tol_correct","preplanning","tol_rt_per_trial","tol_min_moves"
"true","false","[]","[]","[]","preload","0","3044","0.0-0.0","5993020a5f49420001caf86b","B2","batch2","","","","","","","","","","","","","","","","","","","","","","","","","","","","","",""
"true","","","","","fullscreen","1","13347","0.0-1.0-0.0","5993020a5f49420001caf86b","B2","batch2","","","","","","","","","","","","","","","","","","","","","","","","","","","","","",""
"true","","","","","fullscreen","2","16243","0.0-2.0-0.0","5993020a5f49420001caf86b","B2","batch2","","","","","","","","","","","","","","","","","","","","","","","","","","","","","",""
"","","","","","instructions","3","19521","0.0-2.0-1.0-0.0","5993020a5f49420001caf86b","B2","batch2","[{""page_index"":0,""viewing_time"":1843.1000003814697},{""page_index"":1,""viewing_time"":1434}]","3277.3999996185303","","","","","","","","","","","","","","","","","","","","","","","","","","","",""
"","","","","","html-button-response","4","20748","0.0-2.0-1.0-1.0-0.0","5993020a5f49420001caf86b","B2","batch2","","1226.1999998092651","<p class=block-text> Let's answer a few questions <br>","0","pattern_enter_quiz","","","","","","","","","","","","","","","","","","","","","","","","",""
"","","","","","html-button-response","5","26104","0.0-2.0-1.0-1.0-1.0","5993020a5f49420001caf86b","B2","batch2","","5355.199999809265","<p class = block-text>True or False: You will have as much time as you want to make each choice. <br></p>","0","pattern_quiz","false","","","","","","","","","","","","","","","","","","","","","","","",""
"","","","","","html-button-response","6","28656","0.0-2.0-1.0-1.0-2.0","5993020a5f49420001caf86b","B2","batch2","","2550.3999996185303","<p class = block-text>Incorrect. Remember, You should make your choice as fast as you can.</p>","0","pattern_quiz_feedback","","","","","","","","","","","","","","","","","","","","","","","","",""
"","","","","","html-button-response","7","32838","0.0-2.0-1.0-1.0-3.0","5993020a5f49420001caf86b","B2","batch2","","4181.199999809265","<p class = block-text>True or False: You will look for 4 pieces in black or white color connected in a row either horizontally, vertically or diagonally. <br></p>","0","pattern_quiz","true","","","","","","","","","","","","","","","","","","","","","","","",""
"","","","","","html-button-response","8","33787","0.0-2.0-1.0-1.0-4.0","5993020a5f49420001caf86b","B2","batch2","","948.8000001907349","<p class = block-text>Correct! </p>","0","pattern_quiz_feedback","","","","","","","","","","","","","","","","","","","","","","","","",""
"","","","","","html-button-response","9","37771","0.0-2.0-1.0-2.0-0.0","5993020a5f49420001caf86b","B2","batch2","","3983","<p class = block-text>You made too many incorrect choices.</p><p class = block-text>You will now repeat the instruction and quiz</p>","0","","","","","","","","","","","","","","","","","","","","","","","","","",""
"","","","","","instructions","10","43788","0.0-2.0-1.1-0.1","5993020a5f49420001caf86b","B2","batch2","[{""page_index"":0,""viewing_time"":2049.7000007629395},{""page_index"":1,""viewing_time"":3966.699999809265}]","6016.5","","","","","","","","","","","","","","","","","","","","","","","","","","","",""
"","","","","","html-button-response","11","45049","0.0-2.0-1.1-1.1-0.1","5993020a5f49420001caf86b","B2","batch2","","1260","<p class=block-text> Let's answer a few questions <br>","0","pattern_enter_quiz","","","","","","","","","","","","","","","","","","","","","","","","",""
"","","","","","html-button-response","12","47037","0.0-2.0-1.1-1.1-1.1","5993020a5f49420001caf86b","B2","batch2","","1988.2000007629395","<p class = block-text>True or False: You will have as much time as you want to make each choice. <br></p>","1","pattern_quiz","true","","","","","","","","","","","","","","","","","","","","","","","",""
"","","","","","html-button-response","13","48804","0.0-2.0-1.1-1.1-2.1","5993020a5f49420001caf86b","B2","batch2","","1766.2000007629395","<p class = block-text>Correct! You should make your choice <strong> as fast as you can</strong>.</p>","0","pattern_quiz_feedback","","","","","","","","","","","","","","","","","","","","","","","","",""
"","","","","","html-button-response","14","50021","0.0-2.0-1.1-1.1-3.1","5993020a5f49420001caf86b","B2","batch2","","1216.3000001907349","<p class = block-text>True or False: You will look for 4 pieces in black or white color connected in a row either horizontally, vertically or diagonally. <br></p>","0","pattern_quiz","true","","","","","","","","","","","","","","","","","","","","","","","",""
"","","","","","html-button-response","15","50988","0.0-2.0-1.1-1.1-4.1","5993020a5f49420001caf86b","B2","batch2","","965.8000001907349","<p class = block-text>Correct! </p>","0","pattern_quiz_feedback","","","","","","","","","","","","","","","","","","","","","","","","",""
"","","","","","html-button-response","16","53288","0.0-2.0-2.0","5993020a5f49420001caf86b","B2","batch2","","2299.300000190735","<p class=block-text> Now that you've understood the game, let's do a few practice trials before we start!<br> <br>","0","pattern_enter_practice","","","","","","","","","","","","","","","","","","","","","","","","",""
"","","","","","image-keyboard-response","17","64838","0.0-2.0-3.0-0.0","5993020a5f49420001caf86b","B2","batch2","","11547.800000190735","stim/prac_no_18_1.png","j","pattern_practice","true","j","","","","","","","","","","","","","","","","","","","","","","",""
"","","","","","html-keyboard-response","18","65847","0.0-2.0-3.0-1.0","5993020a5f49420001caf86b","B2","batch2","","null","<p style=""font-size:30px;color:green;"">Correct!</p>","null","pattern_feedback","","","","","","","","","","","","","","","","","","","","","","","","",""
"","","","","","image-keyboard-response","19","67789","0.0-2.0-3.0-0.1","5993020a5f49420001caf86b","B2","batch2","","1940.6000003814697","stim/prac_yes_16_ver_w1.png","f","pattern_practice","true","f","","","","","","","","","","","","","","","","","","","","","","",""
"","","","","","html-keyboard-response","20","68802","0.0-2.0-3.0-1.1","5993020a5f49420001caf86b","B2","batch2","","null","<p style=""font-size:30px;color:green;"">Correct!</p>","null","pattern_feedback","","","","","","","","","","","","","","","","","","","","","","","","",""
"","","","","","image-keyboard-response","21","72985","0.0-2.0-3.0-0.2","5993020a5f49420001caf86b","B2","batch2","","4182.39999961853","stim/prac_yes_20_dia_b1.png","f","pattern_practice","true","f","","","","","","","","","","","","","","","","","","","","","","",""
"","","","","","html-keyboard-response","22","73998","0.0-2.0-3.0-1.2","5993020a5f49420001caf86b","B2","batch2","","null","<p style=""font-size:30px;color:green;"">Correct!</p>","null","pattern_feedback","","","","","","","","","","","","","","","","","","","","","","","","",""
"","","","","","image-keyboard-response","23","75423","0.0-2.0-3.0-0.3","5993020a5f49420001caf86b","B2","batch2","","1423.5","stim/prac_yes_18_hor_w1.png","f","pattern_practice","true","f","","","","","","","","","","","","","","","","","","","","","","",""
"","","","","","html-keyboard-response","24","76430","0.0-2.0-3.0-1.3","5993020a5f49420001caf86b","B2","batch2","","null","<p style=""font-size:30px;color:green;"">Correct!</p>","null","pattern_feedback","","","","","","","","","","","","","","","","","","","","","","","","",""
"","","","","","image-keyboard-response","25","77964","0.0-2.0-3.0-0.4","5993020a5f49420001caf86b","B2","batch2","","1533","stim/prac_no_16_1.png","f","pattern_practice","false","j","","","","","","","","","","","","","","","","","","","","","","",""
"","","","","","html-keyboard-response","26","78973","0.0-2.0-3.0-1.4","5993020a5f49420001caf86b","B2","batch2","","null","<p style=""font-size:30px;color:red;"">Wrong.</p>","null","pattern_feedback","","","","","","","","","","","","","","","","","","","","","","","","",""
"","","","","","html-button-response","27","81388","0.0-2.0-4.0","5993020a5f49420001caf86b","B2","batch2","","2413.300000190735","<p class=block-text> Good job! You are done with practice trials!<br>
        You responded correctly on 80% of the trials.<br>
        Press the button below to start official trials. Now you won't see any feedback about your response</p>","0","pattern_enter_official_trials","","","","","","","","","","","","","","","","","","","","","","","","",""
"","","","","","html-keyboard-response","28","82190","0.0-2.0-5.0-0.0","5993020a5f49420001caf86b","B2","batch2","","null","<p class=block-text>Trial 1 out of 78</p>","null","pattern_show_trial_num","","","","","","","","","","","","","","","","","","","","","","","","",""
"","","","","","image-keyboard-response","29","86611","0.0-2.0-5.0-1.0","5993020a5f49420001caf86b","B2","batch2","","4420","stim/yes_36_ver_w1_w.png","f","pattern_response","true","f","pattern_58","4420","true","1","","","","","","","","","","","","","","","","","","",""
"","","","","","html-keyboard-response","30","87926","0.0-2.0-5.0-0.1","5993020a5f49420001caf86b","B2","batch2","","null","<p class=block-text>Trial 2 out of 78</p>","null","pattern_show_trial_num","","","","","","","","","","","","","","","","","","","","","","","","",""
"","","","","","image-keyboard-response","31","89651","0.0-2.0-5.0-1.1","5993020a5f49420001caf86b","B2","batch2","","1723.8000001907349","stim/yes_12_hor_w1_w.png","f","pattern_response","true","f","pattern_42","1723.8000001907349","true","2","","","","","","","","","","","","","","","","","","",""
"","","","","","html-keyboard-response","32","90966","0.0-2.0-5.0-0.2","5993020a5f49420001caf86b","B2","batch2","","null","<p class=block-text>Trial 3 out of 78</p>","null","pattern_show_trial_num","","","","","","","","","","","","","","","","","","","","","","","","",""
"","","","","","image-keyboard-response","33","92431","0.0-2.0-5.0-1.2","5993020a5f49420001caf86b","B2","batch2","","1463","stim/yes_37_hor_w1_w.png","f","pattern_response","true","f","pattern_60","1463","true","3","","","","","","","","","","","","","","","","","","",""
"","","","","","html-keyboard-response","34","93741","0.0-2.0-5.0-0.3","5993020a5f49420001caf86b","B2","batch2","","null","<p class=block-text>Trial 4 out of 78</p>","null","pattern_show_trial_num","","","","","","","","","","","","","","","","","","","","","","","","",""
"","","","","","image-keyboard-response","35","104452","0.0-2.0-5.0-1.3","5993020a5f49420001caf86b","B2","batch2","","10709.699999809265","stim/no_58_1_w.png","j","pattern_response","true","j","pattern_35","10709.699999809265","true","4","","","","","","","","","","","","","","","","","","",""
"","","","","","html-keyboard-response","36","105764","0.0-2.0-5.0-0.4","5993020a5f49420001caf86b","B2","batch2","","null","<p class=block-text>Trial 5 out of 78</p>","null","pattern_show_trial_num","","","","","","","","","","","","","","","","","","","","","","","","",""
"","","","","","image-keyboard-response","37","109454","0.0-2.0-5.0-1.4","5993020a5f49420001caf86b","B2","batch2","","3687.699999809265","stim/no_28_2.png","j","pattern_response","true","j","pattern_11","3687.699999809265","true","5","","","","","","","","","","","","","","","","","","",""
"","","","","","html-keyboard-response","38","110765","0.0-2.0-5.0-0.5","5993020a5f49420001caf86b","B2","batch2","","null","<p class=block-text>Trial 6 out of 78</p>","null","pattern_show_trial_num","","","","","","","","","","","","","","","","","","","","","","","","",""
"","","","","","image-keyboard-response","39","113320","0.0-2.0-5.0-1.5","5993020a5f49420001caf86b","B2","batch2","","2553.7999992370605","stim/yes_63_dia_b1.png","f","pattern_response","true","f","pattern_78","2553.7999992370605","true","6","","","","","","","","","","","","","","","","","","",""
"","","","","","html-keyboard-response","40","114636","0.0-2.0-5.0-0.6","5993020a5f49420001caf86b","B2","batch2","","null","<p class=block-text>Trial 7 out of 78</p>","null","pattern_show_trial_num","","","","","","","","","","","","","","","","","","","","","","","","",""
"","","","","","image-keyboard-response","41","116367","0.0-2.0-5.0-1.6","5993020a5f49420001caf86b","B2","batch2","","1729.6000003814697","stim/yes_23_ver_b1.png","f","pattern_response","true","f","pattern_48","1729.6000003814697","true","7","","","","","","","","","","","","","","","","","","",""
"","","","","","html-keyboard-response","42","117676","0.0-2.0-5.0-0.7","5993020a5f49420001caf86b","B2","batch2","","null","<p class=block-text>Trial 8 out of 78</p>","null","pattern_show_trial_num","","","","","","","","","","","","","","","","","","","","","","","","",""
"","","","","","image-keyboard-response","43","123994","0.0-2.0-5.0-1.7","5993020a5f49420001caf86b","B2","batch2","","6316.099999427795","stim/no_67_1.png","j","pattern_response","true","j","pattern_39","6316.099999427795","true","8","","","","","","","","","","","","","","","","","","",""
"","","","","","html-keyboard-response","44","125308","0.0-2.0-5.0-0.8","5993020a5f49420001caf86b","B2","batch2","","null","<p class=block-text>Trial 9 out of 78</p>","null","pattern_show_trial_num","","","","","","","","","","","","","","","","","","","","","","","","",""
"","","","","","image-keyboard-response","45","127098","0.0-2.0-5.0-1.8","5993020a5f49420001caf86b","B2","batch2","","1788.1999998092651","stim/yes_15_dia_b1u_b.png","f","pattern_response","true","f","pattern_44","1788.1999998092651","true","9","","","","","","","","","","","","","","","","","","",""
"","","","","","html-keyboard-response","46","128412","0.0-2.0-5.0-0.9","5993020a5f49420001caf86b","B2","batch2","","null","<p class=block-text>Trial 10 out of 78</p>","null","pattern_show_trial_num","","","","","","","","","","","","","","","","","","","","","","","","",""
"","","","","","image-keyboard-response","47","131636","0.0-2.0-5.0-1.9","5993020a5f49420001caf86b","B2","batch2","","3223.1000003814697","stim/no_15_1_w.png","j","pattern_response","true","j","pattern_03","3223.1000003814697","true","10","","","","","","","","","","","","","","","","","","",""
"","","","","","html-keyboard-response","48","132948","0.0-2.0-5.0-0.10","5993020a5f49420001caf86b","B2","batch2","","null","<p class=block-text>Trial 11 out of 78</p>","null","pattern_show_trial_num","","","","","","","","","","","","","","","","","","","","","","","","",""
"","","","","","image-keyboard-response","49","134656","0.0-2.0-5.0-1.10","5993020a5f49420001caf86b","B2","batch2","","1705.7000007629395","stim/yes_51_dia_b1.png","f","pattern_response","true","f","pattern_72","1705.7000007629395","true","11","","","","","","","","","","","","","","","","","","",""
"","","","","","html-keyboard-response","50","135972","0.0-2.0-5.0-0.11","5993020a5f49420001caf86b","B2","batch2","","null","<p class=block-text>Trial 12 out of 78</p>","null","pattern_show_trial_num","","","","","","","","","","","","","","","","","","","","","","","","",""
"","","","","","image-keyboard-response","51","138714","0.0-2.0-5.0-1.11","5993020a5f49420001caf86b","B2","batch2","","2740","stim/no_25_1_b.png","j","pattern_response","true","j","pattern_09","2740","true","12","","","","","","","","","","","","","","","","","","",""
"","","","","","html-keyboard-response","52","140028","0.0-2.0-5.0-0.12","5993020a5f49420001caf86b","B2","batch2","","null","<p class=block-text>Trial 13 out of 78</p>","null","pattern_show_trial_num","","","","","","","","","","","","","","","","","","","","","","","","",""
"","","","","","image-keyboard-response","53","145601","0.0-2.0-5.0-1.12","5993020a5f49420001caf86b","B2","batch2","","5571.300000190735","stim/no_45_1_w.png","j","pattern_response","true","j","pattern_25","5571.300000190735","true","13","","","","","","","","","","","","","","","","","","",""
"","","","","","html-keyboard-response","54","146915","0.0-2.0-5.0-0.13","5993020a5f49420001caf86b","B2","batch2","","null","<p class=block-text>Trial 14 out of 78</p>","null","pattern_show_trial_num","","","","","","","","","","","","","","","","","","","","","","","","",""
"","","","","","image-keyboard-response","55","150305","0.0-2.0-5.0-1.13","5993020a5f49420001caf86b","B2","batch2","","3387.800000190735","stim/no_22_1_b.png","j","pattern_response","true","j","pattern_07","3387.800000190735","true","14","","","","","","","","","","","","","","","","","","",""
"","","","","","html-keyboard-response","56","151620","0.0-2.0-5.0-0.14","5993020a5f49420001caf86b","B2","batch2","","null","<p class=block-text>Trial 15 out of 78</p>","null","pattern_show_trial_num","","","","","","","","","","","","","","","","","","","","","","","","",""
"","","","","","image-keyboard-response","57","158742","0.0-2.0-5.0-1.14","5993020a5f49420001caf86b","B2","batch2","","7121.300000190735","stim/yes_53_ver_b1_b.png","j","pattern_response","false","f","pattern_74","7121.300000190735","false","14","","","","","","","","","","","","","","","","","","",""
"","","","","","html-keyboard-response","58","160058","0.0-2.0-5.0-0.15","5993020a5f49420001caf86b","B2","batch2","","null","<p class=block-text>Trial 16 out of 78</p>","null","pattern_show_trial_num","","","","","","","","","","","","","","","","","","","","","","","","",""
"","","","","","image-keyboard-response","59","161098","0.0-2.0-5.0-1.15","5993020a5f49420001caf86b","B2","batch2","","1038.8999996185303","stim/yes_17_ver_b1_b.png","f","pattern_response","true","f","pattern_46","1038.8999996185303","true","15","","","","","","","","","","","","","","","","","","",""
"","","","","","html-keyboard-response","60","162411","0.0-2.0-5.0-0.16","5993020a5f49420001caf86b","B2","batch2","","null","<p class=block-text>Trial 17 out of 78</p>","null","pattern_show_trial_num","","","","","","","","","","","","","","","","","","","","","","","","",""
"","","","","","image-keyboard-response","61","167794","0.0-2.0-5.0-1.16","5993020a5f49420001caf86b","B2","batch2","","5380.699999809265","stim/no_47_1_b.png","j","pattern_response","true","j","pattern_27","5380.699999809265","true","16","","","","","","","","","","","","","","","","","","",""
"","","","","","html-keyboard-response","62","169106","0.0-2.0-5.0-0.17","5993020a5f49420001caf86b","B2","batch2","","null","<p class=block-text>Trial 18 out of 78</p>","null","pattern_show_trial_num","","","","","","","","","","","","","","","","","","","","","","","","",""
"","","","","","image-keyboard-response","63","172007","0.0-2.0-5.0-1.17","5993020a5f49420001caf86b","B2","batch2","","2898.5","stim/no_18_1_b.png","j","pattern_response","true","j","pattern_05","2898.5","true","17","","","","","","","","","","","","","","","","","","",""
"","","","","","html-keyboard-response","64","173324","0.0-2.0-5.0-0.18","5993020a5f49420001caf86b","B2","batch2","","null","<p class=block-text>Trial 19 out of 78</p>","null","pattern_show_trial_num","","","","","","","","","","","","","","","","","","","","","","","","",""
"","","","","","image-keyboard-response","65","178812","0.0-2.0-5.0-1.18","5993020a5f49420001caf86b","B2","batch2","","5486","stim/no_51_1.png","j","pattern_response","true","j","pattern_31","5486","true","18","","","","","","","","","","","","","","","","","","",""
"","","","","","html-keyboard-response","66","180123","0.0-2.0-5.0-0.19","5993020a5f49420001caf86b","B2","batch2","","null","<p class=block-text>Trial 20 out of 78</p>","null","pattern_show_trial_num","","","","","","","","","","","","","","","","","","","","","","","","",""
"","","","","","image-keyboard-response","67","185516","0.0-2.0-5.0-1.19","5993020a5f49420001caf86b","B2","batch2","","5392.39999961853","stim/no_33_1_b.png","j","pattern_response","true","j","pattern_15","5392.39999961853","true","19","","","","","","","","","","","","","","","","","","",""
"","","","","","html-keyboard-response","68","186826","0.0-2.0-5.0-0.20","5993020a5f49420001caf86b","B2","batch2","","null","<p class=block-text>Trial 21 out of 78</p>","null","pattern_show_trial_num","","","","","","","","","","","","","","","","","","","","","","","","",""
"","","","","","image-keyboard-response","69","187761","0.0-2.0-5.0-1.20","5993020a5f49420001caf86b","B2","batch2","","933.9000005722046","stim/yes_29_hor_b1_b.png","f","pattern_response","true","f","pattern_52","933.9000005722046","true","20","","","","","","","","","","","","","","","","","","",""
"","","","","","html-keyboard-response","70","189074","0.0-2.0-5.0-0.21","5993020a5f49420001caf86b","B2","batch2","","null","<p class=block-text>Trial 22 out of 78</p>","null","pattern_show_trial_num","","","","","","","","","","","","","","","","","","","","","","","","",""
"","","","","","image-keyboard-response","71","189966","0.0-2.0-5.0-1.21","5993020a5f49420001caf86b","B2","batch2","","890.3999996185303","stim/yes_39_hor_w1_w.png","f","pattern_response","true","f","pattern_62","890.3999996185303","true","21","","","","","","","","","","","","","","","","","","",""
"","","","","","html-keyboard-response","72","191281","0.0-2.0-5.0-0.22","5993020a5f49420001caf86b","B2","batch2","","null","<p class=block-text>Trial 23 out of 78</p>","null","pattern_show_trial_num","","","","","","","","","","","","","","","","","","","","","","","","",""
"","","","","","image-keyboard-response","73","197590","0.0-2.0-5.0-1.22","5993020a5f49420001caf86b","B2","batch2","","6307.60000038147","stim/no_53_1_b.png","j","pattern_response","true","j","pattern_33","6307.60000038147","true","22","","","","","","","","","","","","","","","","","","",""
"","","","","","html-keyboard-response","74","198905","0.0-2.0-5.0-0.23","5993020a5f49420001caf86b","B2","batch2","","null","<p class=block-text>Trial 24 out of 78</p>","null","pattern_show_trial_num","","","","","","","","","","","","","","","","","","","","","","","","",""
"","","","","","image-keyboard-response","75","202008","0.0-2.0-5.0-1.23","5993020a5f49420001caf86b","B2","batch2","","3101.5","stim/no_36_1_b.png","j","pattern_response","true","j","pattern_17","3101.5","true","23","","","","","","","","","","","","","","","","","","",""
"","","","","","html-keyboard-response","76","203323","0.0-2.0-5.0-0.24","5993020a5f49420001caf86b","B2","batch2","","null","<p class=block-text>Trial 25 out of 78</p>","null","pattern_show_trial_num","","","","","","","","","","","","","","","","","","","","","","","","",""
"","","","","","image-keyboard-response","77","204475","0.0-2.0-5.0-1.24","5993020a5f49420001caf86b","B2","batch2","","1150.3000001907349","stim/yes_46_ver_b1_b.png","f","pattern_response","true","f","pattern_68","1150.3000001907349","true","24","","","","","","","","","","","","","","","","","","",""
"","","","","","html-keyboard-response","78","205785","0.0-2.0-5.0-0.25","5993020a5f49420001caf86b","B2","batch2","","null","<p class=block-text>Trial 26 out of 78</p>","null","pattern_show_trial_num","","","","","","","","","","","","","","","","","","","","","","","","",""
"","","","","","image-keyboard-response","79","207198","0.0-2.0-5.0-1.25","5993020a5f49420001caf86b","B2","batch2","","1411","stim/no_12_1.png","j","pattern_response","true","j","pattern_01","1411","true","25","","","","","","","","","","","","","","","","","","",""
"","","","","","html-keyboard-response","80","208513","0.0-2.0-5.0-0.26","5993020a5f49420001caf86b","B2","batch2","","null","<p class=block-text>Trial 27 out of 78</p>","null","pattern_show_trial_num","","","","","","","","","","","","","","","","","","","","","","","","",""
"","","","","","image-keyboard-response","81","211915","0.0-2.0-5.0-1.26","5993020a5f49420001caf86b","B2","batch2","","3400.8999996185303","stim/no_39_1_w.png","j","pattern_response","true","j","pattern_21","3400.8999996185303","true","26","","","","","","","","","","","","","","","","","","",""
"","","","","","html-keyboard-response","82","213226","0.0-2.0-5.0-0.27","5993020a5f49420001caf86b","B2","batch2","","null","<p class=block-text>Trial 28 out of 78</p>","null","pattern_show_trial_num","","","","","","","","","","","","","","","","","","","","","","","","",""
"","","","","","image-keyboard-response","83","214478","0.0-2.0-5.0-1.27","5993020a5f49420001caf86b","B2","batch2","","1250.5","stim/yes_30_ver_b1_b.png","f","pattern_response","true","f","pattern_54","1250.5","true","27","","","","","","","","","","","","","","","","","","",""
"","","","","","html-keyboard-response","84","215793","0.0-2.0-5.0-0.28","5993020a5f49420001caf86b","B2","batch2","","null","<p class=block-text>Trial 29 out of 78</p>","null","pattern_show_trial_num","","","","","","","","","","","","","","","","","","","","","","","","",""
"","","","","","image-keyboard-response","85","218767","0.0-2.0-5.0-1.28","5993020a5f49420001caf86b","B2","batch2","","2972.699999809265","stim/no_30_1_b.png","j","pattern_response","true","j","pattern_13","2972.699999809265","true","28","","","","","","","","","","","","","","","","","","",""
"","","","","","html-keyboard-response","86","220081","0.0-2.0-5.0-0.29","5993020a5f49420001caf86b","B2","batch2","","null","<p class=block-text>Trial 30 out of 78</p>","null","pattern_show_trial_num","","","","","","","","","","","","","","","","","","","","","","","","",""
"","","","","","image-keyboard-response","87","224738","0.0-2.0-5.0-1.29","5993020a5f49420001caf86b","B2","batch2","","4656.199999809265","stim/no_49_2_b.png","j","pattern_response","true","j","pattern_29","4656.199999809265","true","29","","","","","","","","","","","","","","","","","","",""
"","","","","","html-keyboard-response","88","226049","0.0-2.0-5.0-0.30","5993020a5f49420001caf86b","B2","batch2","","null","<p class=block-text>Trial 31 out of 78</p>","null","pattern_show_trial_num","","","","","","","","","","","","","","","","","","","","","","","","",""
"","","","","","image-keyboard-response","89","230337","0.0-2.0-5.0-1.30","5993020a5f49420001caf86b","B2","batch2","","4286.900000572205","stim/yes_58_dia_w1_w.png","j","pattern_response","false","f","pattern_76","4286.900000572205","false","29","","","","","","","","","","","","","","","","","","",""
"","","","","","html-keyboard-response","90","231652","0.0-2.0-5.0-0.31","5993020a5f49420001caf86b","B2","batch2","","null","<p class=block-text>Trial 32 out of 78</p>","null","pattern_show_trial_num","","","","","","","","","","","","","","","","","","","","","","","","",""
"","","","","","image-keyboard-response","91","232529","0.0-2.0-5.0-1.31","5993020a5f49420001caf86b","B2","batch2","","875.7999992370605","stim/yes_26_dia_w2_w.png","f","pattern_response","true","f","pattern_50","875.7999992370605","true","30","","","","","","","","","","","","","","","","","","",""
"","","","","","html-keyboard-response","92","233840","0.0-2.0-5.0-0.32","5993020a5f49420001caf86b","B2","batch2","","null","<p class=block-text>Trial 33 out of 78</p>","null","pattern_show_trial_num","","","","","","","","","","","","","","","","","","","","","","","","",""
"","","","","","image-keyboard-response","93","237373","0.0-2.0-5.0-1.32","5993020a5f49420001caf86b","B2","batch2","","3532.199999809265","stim/yes_44_ver_w1_w.png","j","pattern_response","false","f","pattern_66","3532.199999809265","false","30","","","","","","","","","","","","","","","","","","",""
"","","","","","html-keyboard-response","94","238688","0.0-2.0-5.0-0.33","5993020a5f49420001caf86b","B2","batch2","","null","<p class=block-text>Trial 34 out of 78</p>","null","pattern_show_trial_num","","","","","","","","","","","","","","","","","","","","","","","","",""
"","","","","","image-keyboard-response","95","243726","0.0-2.0-5.0-1.33","5993020a5f49420001caf86b","B2","batch2","","5036.300000190735","stim/no_43_2_b.png","j","pattern_response","true","j","pattern_23","5036.300000190735","true","31","","","","","","","","","","","","","","","","","","",""
"","","","","","html-keyboard-response","96","245039","0.0-2.0-5.0-0.34","5993020a5f49420001caf86b","B2","batch2","","null","<p class=block-text>Trial 35 out of 78</p>","null","pattern_show_trial_num","","","","","","","","","","","","","","","","","","","","","","","","",""
"","","","","","image-keyboard-response","97","248493","0.0-2.0-5.0-1.34","5993020a5f49420001caf86b","B2","batch2","","3452.199999809265","stim/yes_42_dia_w1_w.png","j","pattern_response","false","f","pattern_64","3452.199999809265","false","31","","","","","","","","","","","","","","","","","","",""
"","","","","","html-keyboard-response","98","249808","0.0-2.0-5.0-0.35","5993020a5f49420001caf86b","B2","batch2","","null","<p class=block-text>Trial 36 out of 78</p>","null","pattern_show_trial_num","","","","","","","","","","","","","","","","","","","","","","","","",""
"","","","","","image-keyboard-response","99","250947","0.0-2.0-5.0-1.35","5993020a5f49420001caf86b","B2","batch2","","1137.6000003814697","stim/yes_33_dia_w1_w.png","f","pattern_response","true","f","pattern_56","1137.6000003814697","true","32","","","","","","","","","","","","","","","","","","",""
"","","","","","html-keyboard-response","100","252263","0.0-2.0-5.0-0.36","5993020a5f49420001caf86b","B2","batch2","","null","<p class=block-text>Trial 37 out of 78</p>","null","pattern_show_trial_num","","","","","","","","","","","","","","","","","","","","","","","","",""
"","","","","","image-keyboard-response","101","253405","0.0-2.0-5.0-1.36","5993020a5f49420001caf86b","B2","batch2","","1141.4000005722046","stim/yes_49_hor_w1_b.png","f","pattern_response","true","f","pattern_70","1141.4000005722046","true","33","","","","","","","","","","","","","","","","","","",""
"","","","","","html-keyboard-response","102","254720","0.0-2.0-5.0-0.37","5993020a5f49420001caf86b","B2","batch2","","null","<p class=block-text>Trial 38 out of 78</p>","null","pattern_show_trial_num","","","","","","","","","","","","","","","","","","","","","","","","",""
"","","","","","image-keyboard-response","103","256908","0.0-2.0-5.0-1.37","5993020a5f49420001caf86b","B2","batch2","","2187","stim/yes_70_ver_b1.png","f","pattern_response","true","f","pattern_80","2187","true","34","","","","","","","","","","","","","","","","","","",""
"","","","","","html-keyboard-response","104","258223","0.0-2.0-5.0-0.38","5993020a5f49420001caf86b","B2","batch2","","null","<p class=block-text>Trial 39 out of 78</p>","null","pattern_show_trial_num","","","","","","","","","","","","","","","","","","","","","","","","",""
"","","","","","image-keyboard-response","105","261213","0.0-2.0-5.0-1.38","5993020a5f49420001caf86b","B2","batch2","","2989.4000005722046","stim/no_37_2_w.png","j","pattern_response","true","j","pattern_19","2989.4000005722046","true","35","","","","","","","","","","","","","","","","","","",""
"","","","","","image-keyboard-response","106","264356","0.0-2.0-6.0","5993020a5f49420001caf86b","B2","batch2","","2635.699999809265","stim/empty_board.png","j","attention_check","true","j","","","","","500","[""f"",""j""]","","","","","","","","","","","","","","","","",""
"","","","","","html-keyboard-response","107","265158","0.0-2.0-7.0-0.0","5993020a5f49420001caf86b","B2","batch2","","null","<p class=block-text>Trial 40 out of 78</p>","null","pattern_show_trial_num","","","","","","","","","","","","","","","","","","","","","","","","",""
"","","","","","image-keyboard-response","108","267259","0.0-2.0-7.0-1.0","5993020a5f49420001caf86b","B2","batch2","","2100","stim/yes_50_dia_w1.png","f","pattern_response","true","f","pattern_71","2100","true","36","","","","","","","","","","","","","","","","","","",""
"","","","","","html-keyboard-response","109","268574","0.0-2.0-7.0-0.1","5993020a5f49420001caf86b","B2","batch2","","null","<p class=block-text>Trial 41 out of 78</p>","null","pattern_show_trial_num","","","","","","","","","","","","","","","","","","","","","","","","",""
"","","","","","image-keyboard-response","110","270359","0.0-2.0-7.0-1.1","5993020a5f49420001caf86b","B2","batch2","","1783.6999998092651","stim/no_17_1_w.png","j","pattern_response","true","j","pattern_04","1783.6999998092651","true","37","","","","","","","","","","","","","","","","","","",""
"","","","","","html-keyboard-response","111","271671","0.0-2.0-7.0-0.2","5993020a5f49420001caf86b","B2","batch2","","null","<p class=block-text>Trial 42 out of 78</p>","null","pattern_show_trial_num","","","","","","","","","","","","","","","","","","","","","","","","",""
"","","","","","image-keyboard-response","112","276021","0.0-2.0-7.0-1.2","5993020a5f49420001caf86b","B2","batch2","","4348.5","stim/no_48_1_w.png","j","pattern_response","true","j","pattern_28","4348.5","true","38","","","","","","","","","","","","","","","","","","",""
"","","","","","html-keyboard-response","113","277335","0.0-2.0-7.0-0.3","5993020a5f49420001caf86b","B2","batch2","","null","<p class=block-text>Trial 43 out of 78</p>","null","pattern_show_trial_num","","","","","","","","","","","","","","","","","","","","","","","","",""
"","","","","","image-keyboard-response","114","278719","0.0-2.0-7.0-1.3","5993020a5f49420001caf86b","B2","batch2","","1383.1999998092651","stim/yes_17_dia_w1.png","f","pattern_response","true","f","pattern_45","1383.1999998092651","true","39","","","","","","","","","","","","","","","","","","",""
"","","","","","html-keyboard-response","115","280033","0.0-2.0-7.0-0.4","5993020a5f49420001caf86b","B2","batch2","","null","<p class=block-text>Trial 44 out of 78</p>","null","pattern_show_trial_num","","","","","","","","","","","","","","","","","","","","","","","","",""
"","","","","","image-keyboard-response","116","281037","0.0-2.0-7.0-1.4","5993020a5f49420001caf86b","B2","batch2","","1002.8999996185303","stim/yes_43_ver_w1_w.png","f","pattern_response","true","f","pattern_65","1002.8999996185303","true","40","","","","","","","","","","","","","","","","","","",""
"","","","","","html-keyboard-response","117","282351","0.0-2.0-7.0-0.5","5993020a5f49420001caf86b","B2","batch2","","null","<p class=block-text>Trial 45 out of 78</p>","null","pattern_show_trial_num","","","","","","","","","","","","","","","","","","","","","","","","",""
"","","","","","image-keyboard-response","118","283391","0.0-2.0-7.0-1.5","5993020a5f49420001caf86b","B2","batch2","","1038.6999998092651","stim/yes_45_hor_b2_b.png","f","pattern_response","true","f","pattern_67","1038.6999998092651","true","41","","","","","","","","","","","","","","","","","","",""
"","","","","","html-keyboard-response","119","284702","0.0-2.0-7.0-0.6","5993020a5f49420001caf86b","B2","batch2","","null","<p class=block-text>Trial 46 out of 78</p>","null","pattern_show_trial_num","","","","","","","","","","","","","","","","","","","","","","","","",""
"","","","","","image-keyboard-response","120","290291","0.0-2.0-7.0-1.6","5993020a5f49420001caf86b","B2","batch2","","5588.5","stim/no_36_2_w.png","j","pattern_response","true","j","pattern_18","5588.5","true","42","","","","","","","","","","","","","","","","","","",""
"","","","","","html-keyboard-response","121","291606","0.0-2.0-7.0-0.7","5993020a5f49420001caf86b","B2","batch2","","null","<p class=block-text>Trial 47 out of 78</p>","null","pattern_show_trial_num","","","","","","","","","","","","","","","","","","","","","","","","",""
"","","","","","image-keyboard-response","122","292929","0.0-2.0-7.0-1.7","5993020a5f49420001caf86b","B2","batch2","","1320.8999996185303","stim/yes_29_ver_w1.png","f","pattern_response","true","f","pattern_53","1320.8999996185303","true","43","","","","","","","","","","","","","","","","","","",""
"","","","","","html-keyboard-response","123","294238","0.0-2.0-7.0-0.8","5993020a5f49420001caf86b","B2","batch2","","null","<p class=block-text>Trial 48 out of 78</p>","null","pattern_show_trial_num","","","","","","","","","","","","","","","","","","","","","","","","",""
"","","","","","image-keyboard-response","124","295025","0.0-2.0-7.0-1.8","5993020a5f49420001caf86b","B2","batch2","","785.3999996185303","stim/yes_28_ver_b1.png","f","pattern_response","true","f","pattern_51","785.3999996185303","true","44","","","","","","","","","","","","","","","","","","",""
"","","","","","html-keyboard-response","125","296334","0.0-2.0-7.0-0.9","5993020a5f49420001caf86b","B2","batch2","","null","<p class=block-text>Trial 49 out of 78</p>","null","pattern_show_trial_num","","","","","","","","","","","","","","","","","","","","","","","","",""
"","","","","","image-keyboard-response","126","298175","0.0-2.0-7.0-1.9","5993020a5f49420001caf86b","B2","batch2","","1841","stim/yes_31_hor_b1.png","f","pattern_response","true","f","pattern_55","1841","true","45","","","","","","","","","","","","","","","","","","",""
"","","","","","html-keyboard-response","127","299487","0.0-2.0-7.0-0.10","5993020a5f49420001caf86b","B2","batch2","","null","<p class=block-text>Trial 50 out of 78</p>","null","pattern_show_trial_num","","","","","","","","","","","","","","","","","","","","","","","","",""
"","","","","","image-keyboard-response","128","302668","0.0-2.0-7.0-1.10","5993020a5f49420001caf86b","B2","batch2","","3180.0999994277954","stim/no_13_2_b.png","j","pattern_response","true","j","pattern_02","3180.0999994277954","true","46","","","","","","","","","","","","","","","","","","",""
"","","","","","html-keyboard-response","129","303982","0.0-2.0-7.0-0.11","5993020a5f49420001caf86b","B2","batch2","","null","<p class=block-text>Trial 51 out of 78</p>","null","pattern_show_trial_num","","","","","","","","","","","","","","","","","","","","","","","","",""
"","","","","","image-keyboard-response","130","305103","0.0-2.0-7.0-1.11","5993020a5f49420001caf86b","B2","batch2","","1119.3000001907349","stim/yes_38_hor_b1_b.png","f","pattern_response","true","f","pattern_61","1119.3000001907349","true","47","","","","","","","","","","","","","","","","","","",""
"","","","","","html-keyboard-response","131","306416","0.0-2.0-7.0-0.12","5993020a5f49420001caf86b","B2","batch2","","null","<p class=block-text>Trial 52 out of 78</p>","null","pattern_show_trial_num","","","","","","","","","","","","","","","","","","","","","","","","",""
"","","","","","image-keyboard-response","132","307742","0.0-2.0-7.0-1.12","5993020a5f49420001caf86b","B2","batch2","","1324.4000005722046","stim/no_20_1_w.png","j","pattern_response","true","j","pattern_06","1324.4000005722046","true","48","","","","","","","","","","","","","","","","","","",""
"","","","","","html-keyboard-response","133","309054","0.0-2.0-7.0-0.13","5993020a5f49420001caf86b","B2","batch2","","null","<p class=block-text>Trial 53 out of 78</p>","null","pattern_show_trial_num","","","","","","","","","","","","","","","","","","","","","","","","",""
"","","","","","image-keyboard-response","134","312792","0.0-2.0-7.0-1.13","5993020a5f49420001caf86b","B2","batch2","","3737.6000003814697","stim/no_44_1.png","j","pattern_response","true","j","pattern_24","3737.6000003814697","true","49","","","","","","","","","","","","","","","","","","",""
"","","","","","html-keyboard-response","135","314102","0.0-2.0-7.0-0.14","5993020a5f49420001caf86b","B2","batch2","","null","<p class=block-text>Trial 54 out of 78</p>","null","pattern_show_trial_num","","","","","","","","","","","","","","","","","","","","","","","","",""
"","","","","","image-keyboard-response","136","322255","0.0-2.0-7.0-1.14","5993020a5f49420001caf86b","B2","batch2","","8152.5","stim/no_65_1_b.png","j","pattern_response","true","j","pattern_38","8152.5","true","50","","","","","","","","","","","","","","","","","","",""
"","","","","","html-keyboard-response","137","323564","0.0-2.0-7.0-0.15","5993020a5f49420001caf86b","B2","batch2","","null","<p class=block-text>Trial 55 out of 78</p>","null","pattern_show_trial_num","","","","","","","","","","","","","","","","","","","","","","","","",""
"","","","","","image-keyboard-response","138","328041","0.0-2.0-7.0-1.15","5993020a5f49420001caf86b","B2","batch2","","4475.5","stim/no_38_1_b.png","j","pattern_response","true","j","pattern_20","4475.5","true","51","","","","","","","","","","","","","","","","","","",""
"","","","","","html-keyboard-response","139","329358","0.0-2.0-7.0-0.16","5993020a5f49420001caf86b","B2","batch2","","null","<p class=block-text>Trial 56 out of 78</p>","null","pattern_show_trial_num","","","","","","","","","","","","","","","","","","","","","","","","",""
"","","","","","image-keyboard-response","140","335019","0.0-2.0-7.0-1.16","5993020a5f49420001caf86b","B2","batch2","","5659.89999961853","stim/yes_60_ver_b1_b.png","j","pattern_response","false","f","pattern_77","5659.89999961853","false","51","","","","","","","","","","","","","","","","","","",""
"","","","","","html-keyboard-response","141","336332","0.0-2.0-7.0-0.17","5993020a5f49420001caf86b","B2","batch2","","null","<p class=block-text>Trial 57 out of 78</p>","null","pattern_show_trial_num","","","","","","","","","","","","","","","","","","","","","","","","",""
"","","","","","image-keyboard-response","142","340530","0.0-2.0-7.0-1.17","5993020a5f49420001caf86b","B2","batch2","","4196.099999427795","stim/no_55_1_w.png","j","pattern_response","true","j","pattern_34","4196.099999427795","true","52","","","","","","","","","","","","","","","","","","",""
"","","","","","html-keyboard-response","143","341844","0.0-2.0-7.0-0.18","5993020a5f49420001caf86b","B2","batch2","","null","<p class=block-text>Trial 58 out of 78</p>","null","pattern_show_trial_num","","","","","","","","","","","","","","","","","","","","","","","","",""
"","","","","","image-keyboard-response","144","344971","0.0-2.0-7.0-1.18","5993020a5f49420001caf86b","B2","batch2","","3124.8999996185303","stim/yes_48_dia_w1_w.png","f","pattern_response","true","f","pattern_69","3124.8999996185303","true","53","","","","","","","","","","","","","","","","","","",""
"","","","","","html-keyboard-response","145","346283","0.0-2.0-7.0-0.19","5993020a5f49420001caf86b","B2","batch2","","null","<p class=block-text>Trial 59 out of 78</p>","null","pattern_show_trial_num","","","","","","","","","","","","","","","","","","","","","","","","",""
"","","","","","image-keyboard-response","146","348916","0.0-2.0-7.0-1.19","5993020a5f49420001caf86b","B2","batch2","","2631.6000003814697","stim/yes_52_ver_w1.png","f","pattern_response","true","f","pattern_73","2631.6000003814697","true","54","","","","","","","","","","","","","","","","","","",""
"","","","","","html-keyboard-response","147","350229","0.0-2.0-7.0-0.20","5993020a5f49420001caf86b","B2","batch2","","null","<p class=block-text>Trial 60 out of 78</p>","null","pattern_show_trial_num","","","","","","","","","","","","","","","","","","","","","","","","",""
"","","","","","image-keyboard-response","148","357245","0.0-2.0-7.0-1.20","5993020a5f49420001caf86b","B2","batch2","","7015.10000038147","stim/no_70_2.png","j","pattern_response","true","j","pattern_40","7015.10000038147","true","55","","","","","","","","","","","","","","","","","","",""
"","","","","","html-keyboard-response","149","358556","0.0-2.0-7.0-0.21","5993020a5f49420001caf86b","B2","batch2","","null","<p class=block-text>Trial 61 out of 78</p>","null","pattern_show_trial_num","","","","","","","","","","","","","","","","","","","","","","","","",""
"","","","","","image-keyboard-response","150","360829","0.0-2.0-7.0-1.21","5993020a5f49420001caf86b","B2","batch2","","2270.8999996185303","stim/no_26_1_w.png","j","pattern_response","true","j","pattern_10","2270.8999996185303","true","56","","","","","","","","","","","","","","","","","","",""
"","","","","","html-keyboard-response","151","362139","0.0-2.0-7.0-0.22","5993020a5f49420001caf86b","B2","batch2","","null","<p class=block-text>Trial 62 out of 78</p>","null","pattern_show_trial_num","","","","","","","","","","","","","","","","","","","","","","","","",""
"","","","","","image-keyboard-response","152","364259","0.0-2.0-7.0-1.22","5993020a5f49420001caf86b","B2","batch2","","2118.699999809265","stim/yes_40_dia_b1_b.png","f","pattern_response","true","f","pattern_63","2118.699999809265","true","57","","","","","","","","","","","","","","","","","","",""
"","","","","","html-keyboard-response","153","365572","0.0-2.0-7.0-0.23","5993020a5f49420001caf86b","B2","batch2","","null","<p class=block-text>Trial 63 out of 78</p>","null","pattern_show_trial_num","","","","","","","","","","","","","","","","","","","","","","","","",""
"","","","","","image-keyboard-response","154","369359","0.0-2.0-7.0-1.23","5993020a5f49420001caf86b","B2","batch2","","3786.5","stim/no_46_1_b.png","j","pattern_response","true","j","pattern_26","3786.5","true","58","","","","","","","","","","","","","","","","","","",""
"","","","","","html-keyboard-response","155","370675","0.0-2.0-7.0-0.24","5993020a5f49420001caf86b","B2","batch2","","null","<p class=block-text>Trial 64 out of 78</p>","null","pattern_show_trial_num","","","","","","","","","","","","","","","","","","","","","","","","",""
"","","","","","image-keyboard-response","156","371751","0.0-2.0-7.0-1.24","5993020a5f49420001caf86b","B2","batch2","","1074.3000001907349","stim/yes_22_ver_w1.png","f","pattern_response","true","f","pattern_47","1074.3000001907349","true","59","","","","","","","","","","","","","","","","","","",""
"","","","","","html-keyboard-response","157","373068","0.0-2.0-7.0-0.25","5993020a5f49420001caf86b","B2","batch2","","null","<p class=block-text>Trial 65 out of 78</p>","null","pattern_show_trial_num","","","","","","","","","","","","","","","","","","","","","","","","",""
"","","","","","image-keyboard-response","158","378936","0.0-2.0-7.0-1.25","5993020a5f49420001caf86b","B2","batch2","","5868","stim/no_62_1_w.png","j","pattern_response","true","j","pattern_36","5868","true","60","","","","","","","","","","","","","","","","","","",""
"","","","","","html-keyboard-response","159","380252","0.0-2.0-7.0-0.26","5993020a5f49420001caf86b","B2","batch2","","null","<p class=block-text>Trial 66 out of 78</p>","null","pattern_show_trial_num","","","","","","","","","","","","","","","","","","","","","","","","",""
"","","","","","image-keyboard-response","160","381519","0.0-2.0-7.0-1.26","5993020a5f49420001caf86b","B2","batch2","","1266.4000005722046","stim/yes_67_hor_b1.png","f","pattern_response","true","f","pattern_79","1266.4000005722046","true","61","","","","","","","","","","","","","","","","","","",""
"","","","","","html-keyboard-response","161","382835","0.0-2.0-7.0-0.27","5993020a5f49420001caf86b","B2","batch2","","null","<p class=block-text>Trial 67 out of 78</p>","null","pattern_show_trial_num","","","","","","","","","","","","","","","","","","","","","","","","",""
"","","","","","image-keyboard-response","162","384382","0.0-2.0-7.0-1.27","5993020a5f49420001caf86b","B2","batch2","","1546.8000001907349","stim/yes_55_hor_w1_w.png","f","pattern_response","true","f","pattern_75","1546.8000001907349","true","62","","","","","","","","","","","","","","","","","","",""
"","","","","","html-keyboard-response","163","385698","0.0-2.0-7.0-0.28","5993020a5f49420001caf86b","B2","batch2","","null","<p class=block-text>Trial 68 out of 78</p>","null","pattern_show_trial_num","","","","","","","","","","","","","","","","","","","","","","","","",""
"","","","","","image-keyboard-response","164","388881","0.0-2.0-7.0-1.28","5993020a5f49420001caf86b","B2","batch2","","3182.1000003814697","stim/no_34_1_b.png","j","pattern_response","true","j","pattern_16","3182.1000003814697","true","63","","","","","","","","","","","","","","","","","","",""
"","","","","","html-keyboard-response","165","390195","0.0-2.0-7.0-0.29","5993020a5f49420001caf86b","B2","batch2","","null","<p class=block-text>Trial 69 out of 78</p>","null","pattern_show_trial_num","","","","","","","","","","","","","","","","","","","","","","","","",""
"","","","","","image-keyboard-response","166","391070","0.0-2.0-7.0-1.29","5993020a5f49420001caf86b","B2","batch2","","873.5","stim/yes_14_hor_b1_w.png","f","pattern_response","true","f","pattern_43","873.5","true","64","","","","","","","","","","","","","","","","","","",""
"","","","","","html-keyboard-response","167","392378","0.0-2.0-7.0-0.30","5993020a5f49420001caf86b","B2","batch2","","null","<p class=block-text>Trial 70 out of 78</p>","null","pattern_show_trial_num","","","","","","","","","","","","","","","","","","","","","","","","",""
"","","","","","image-keyboard-response","168","394857","0.0-2.0-7.0-1.30","5993020a5f49420001caf86b","B2","batch2","","2478.199999809265","stim/no_23_1.png","j","pattern_response","true","j","pattern_08","2478.199999809265","true","65","","","","","","","","","","","","","","","","","","",""
"","","","","","html-keyboard-response","169","396171","0.0-2.0-7.0-0.31","5993020a5f49420001caf86b","B2","batch2","","null","<p class=block-text>Trial 71 out of 78</p>","null","pattern_show_trial_num","","","","","","","","","","","","","","","","","","","","","","","","",""
"","","","","","image-keyboard-response","170","400094","0.0-2.0-7.0-1.31","5993020a5f49420001caf86b","B2","batch2","","3921.800000190735","stim/yes_37_dia_w1.png","j","pattern_response","false","f","pattern_59","3921.800000190735","false","65","","","","","","","","","","","","","","","","","","",""
"","","","","","html-keyboard-response","171","401411","0.0-2.0-7.0-0.32","5993020a5f49420001caf86b","B2","batch2","","null","<p class=block-text>Trial 72 out of 78</p>","null","pattern_show_trial_num","","","","","","","","","","","","","","","","","","","","","","","","",""
"","","","","","image-keyboard-response","172","402157","0.0-2.0-7.0-1.32","5993020a5f49420001caf86b","B2","batch2","","744.8999996185303","stim/yes_25_hor_b1_b.png","f","pattern_response","true","f","pattern_49","744.8999996185303","true","66","","","","","","","","","","","","","","","","","","",""
"","","","","","html-keyboard-response","173","403467","0.0-2.0-7.0-0.33","5993020a5f49420001caf86b","B2","batch2","","null","<p class=block-text>Trial 73 out of 78</p>","null","pattern_show_trial_num","","","","","","","","","","","","","","","","","","","","","","","","",""
"","","","","","image-keyboard-response","174","406873","0.0-2.0-7.0-1.33","5993020a5f49420001caf86b","B2","batch2","","3405.800000190735","stim/no_42_1_w.png","j","pattern_response","true","j","pattern_22","3405.800000190735","true","67","","","","","","","","","","","","","","","","","","",""
"","","","","","html-keyboard-response","175","408187","0.0-2.0-7.0-0.34","5993020a5f49420001caf86b","B2","batch2","","null","<p class=block-text>Trial 74 out of 78</p>","null","pattern_show_trial_num","","","","","","","","","","","","","","","","","","","","","","","","",""
"","","","","","image-keyboard-response","176","413414","0.0-2.0-7.0-1.34","5993020a5f49420001caf86b","B2","batch2","","5226.60000038147","stim/no_52_1.png","j","pattern_response","true","j","pattern_32","5226.60000038147","true","68","","","","","","","","","","","","","","","","","","",""
"","","","","","html-keyboard-response","177","414731","0.0-2.0-7.0-0.35","5993020a5f49420001caf86b","B2","batch2","","null","<p class=block-text>Trial 75 out of 78</p>","null","pattern_show_trial_num","","","","","","","","","","","","","","","","","","","","","","","","",""
"","","","","","image-keyboard-response","178","415607","0.0-2.0-7.0-1.35","5993020a5f49420001caf86b","B2","batch2","","875.4000005722046","stim/yes_35_dia_b1.png","f","pattern_response","true","f","pattern_57","875.4000005722046","true","69","","","","","","","","","","","","","","","","","","",""
"","","","","","html-keyboard-response","179","416922","0.0-2.0-7.0-0.36","5993020a5f49420001caf86b","B2","batch2","","null","<p class=block-text>Trial 76 out of 78</p>","null","pattern_show_trial_num","","","","","","","","","","","","","","","","","","","","","","","","",""
"","","","","","image-keyboard-response","180","420167","0.0-2.0-7.0-1.36","5993020a5f49420001caf86b","B2","batch2","","3243.8999996185303","stim/no_50_1.png","j","pattern_response","true","j","pattern_30","3243.8999996185303","true","70","","","","","","","","","","","","","","","","","","",""
"","","","","","html-keyboard-response","181","421481","0.0-2.0-7.0-0.37","5993020a5f49420001caf86b","B2","batch2","","null","<p class=block-text>Trial 77 out of 78</p>","null","pattern_show_trial_num","","","","","","","","","","","","","","","","","","","","","","","","",""
"","","","","","image-keyboard-response","182","424141","0.0-2.0-7.0-1.37","5993020a5f49420001caf86b","B2","batch2","","2658.2999992370605","stim/no_29_1_b.png","j","pattern_response","true","j","pattern_12","2658.2999992370605","true","71","","","","","","","","","","","","","","","","","","",""
"","","","","","html-keyboard-response","183","425457","0.0-2.0-7.0-0.38","5993020a5f49420001caf86b","B2","batch2","","null","<p class=block-text>Trial 78 out of 78</p>","null","pattern_show_trial_num","","","","","","","","","","","","","","","","","","","","","","","","",""
"","","","","","image-keyboard-response","184","430142","0.0-2.0-7.0-1.38","5993020a5f49420001caf86b","B2","batch2","","4683.89999961853","stim/no_32_1_w.png","j","pattern_response","true","j","pattern_14","4683.89999961853","true","72","","","","","","","","","","","","","","","","","","",""
"","","","","","html-button-response","185","435576","0.0-2.0-8.0","5993020a5f49420001caf86b","B2","batch2","","4924.5","<p class = block-text>This concludes the 4-in-a-row detection game.Thank you for your responses!<br>
            You responded correctly on 92% of the trials.<br>
            When you are ready, press ""Continue"" button to continue </p>","0","","","","","","","","","","","","","","","","","","","","","","","","","",""
"true","","","","","fullscreen","186","439761","0.0-3.0-0.0","5993020a5f49420001caf86b","B2","batch2","","","","","spm_fullscreen","","","","","","","","","","","","","","","","","","","","","","","","",""
"","","","","","html-button-response","187","447976","0.0-3.0-1.0","5993020a5f49420001caf86b","B2","batch2","","8214.39999961853","<p class = block-text><b>Instructions</b> <br>This is a widely used intelligence test in research. <br>In this test, a figure with a missing piece will be presented.<br>Below the figure are alternative pieces to complete the figure, only one of which is correct.<br> Different figures might involve different principles for obtaining the missing piece<br>Your job is to select the most logical piece to complete the figure.</p>","0","","","","","","","","","","","","","","","","","","","","","","","","","",""
"","","","","","html-keyboard-response","188","448785","0.0-3.0-2.0-0.0","5993020a5f49420001caf86b","B2","batch2","","null","<p class=block-text>Trial 1 out of 60</p>","null","spm_show_trial_num","","","","","","","","","","","","","","","","","","","","","","","","",""
"","","","","","image-button-response","189","457826","0.0-3.0-2.0-1.0","5993020a5f49420001caf86b","B2","batch2","","9037.900000572205","img/question_1_1.jpeg","3","spm_respsonse","1","4","mat_01","","","","","","1","9037.900000572205","","","","","","","","","","","","","","",""
"","","","","","html-keyboard-response","190","458888","0.0-3.0-2.0-0.1","5993020a5f49420001caf86b","B2","batch2","","null","<p class=block-text>Trial 2 out of 60</p>","null","spm_show_trial_num","","","","","","","","","","","","","","","","","","","","","","","","",""
"","","","","","image-button-response","191","461061","0.0-3.0-2.0-1.1","5993020a5f49420001caf86b","B2","batch2","","2172","img/question_1_2.jpeg","4","spm_respsonse","1","5","mat_02","","","","","","1","2172","","","","","","","","","","","","","","",""
"","","","","","html-keyboard-response","192","462129","0.0-3.0-2.0-0.2","5993020a5f49420001caf86b","B2","batch2","","null","<p class=block-text>Trial 3 out of 60</p>","null","spm_show_trial_num","","","","","","","","","","","","","","","","","","","","","","","","",""
"","","","","","image-button-response","193","465025","0.0-3.0-2.0-1.2","5993020a5f49420001caf86b","B2","batch2","","2896","img/question_1_3.jpeg","0","spm_respsonse","1","1","mat_03","","","","","","1","2896","","","","","","","","","","","","","","",""
"","","","","","html-keyboard-response","194","466089","0.0-3.0-2.0-0.3","5993020a5f49420001caf86b","B2","batch2","","null","<p class=block-text>Trial 4 out of 60</p>","null","spm_show_trial_num","","","","","","","","","","","","","","","","","","","","","","","","",""
"","","","","","image-button-response","195","469741","0.0-3.0-2.0-1.3","5993020a5f49420001caf86b","B2","batch2","","3651.0999994277954","img/question_1_4.jpeg","1","spm_respsonse","1","2","mat_04","","","","","","1","3651.0999994277954","","","","","","","","","","","","","","",""
"","","","","","html-keyboard-response","196","470808","0.0-3.0-2.0-0.4","5993020a5f49420001caf86b","B2","batch2","","null","<p class=block-text>Trial 5 out of 60</p>","null","spm_show_trial_num","","","","","","","","","","","","","","","","","","","","","","","","",""
"","","","","","image-button-response","197","475175","0.0-3.0-2.0-1.4","5993020a5f49420001caf86b","B2","batch2","","4365.099999427795","img/question_1_5.jpeg","5","spm_respsonse","1","6","mat_05","","","","","","1","4365.099999427795","","","","","","","","","","","","","","",""
"","","","","","html-keyboard-response","198","476240","0.0-3.0-2.0-0.5","5993020a5f49420001caf86b","B2","batch2","","null","<p class=block-text>Trial 6 out of 60</p>","null","spm_show_trial_num","","","","","","","","","","","","","","","","","","","","","","","","",""
"","","","","","image-button-response","199","479708","0.0-3.0-2.0-1.5","5993020a5f49420001caf86b","B2","batch2","","3466.5999994277954","img/question_1_6.jpeg","2","spm_respsonse","1","3","mat_06","","","","","","1","3466.5999994277954","","","","","","","","","","","","","","",""
"","","","","","html-keyboard-response","200","480775","0.0-3.0-2.0-0.6","5993020a5f49420001caf86b","B2","batch2","","null","<p class=block-text>Trial 7 out of 60</p>","null","spm_show_trial_num","","","","","","","","","","","","","","","","","","","","","","","","",""
"","","","","","image-button-response","201","485075","0.0-3.0-2.0-1.6","5993020a5f49420001caf86b","B2","batch2","","4299","img/question_1_7.jpeg","5","spm_respsonse","1","6","mat_07","","","","","","1","4299","","","","","","","","","","","","","","",""
"","","","","","html-keyboard-response","202","486135","0.0-3.0-2.0-0.7","5993020a5f49420001caf86b","B2","batch2","","null","<p class=block-text>Trial 8 out of 60</p>","null","spm_show_trial_num","","","","","","","","","","","","","","","","","","","","","","","","",""
"","","","","","image-button-response","203","490992","0.0-3.0-2.0-1.7","5993020a5f49420001caf86b","B2","batch2","","4856.199999809265","img/question_1_8.jpeg","1","spm_respsonse","1","2","mat_08","","","","","","1","4856.199999809265","","","","","","","","","","","","","","",""
"","","","","","html-keyboard-response","204","492055","0.0-3.0-2.0-0.8","5993020a5f49420001caf86b","B2","batch2","","null","<p class=block-text>Trial 9 out of 60</p>","null","spm_show_trial_num","","","","","","","","","","","","","","","","","","","","","","","","",""
"","","","","","image-button-response","205","495893","0.0-3.0-2.0-1.8","5993020a5f49420001caf86b","B2","batch2","","3837","img/question_1_9.jpeg","0","spm_respsonse","1","1","mat_09","","","","","","1","3837","","","","","","","","","","","","","","",""
"","","","","","html-keyboard-response","206","496959","0.0-3.0-2.0-0.9","5993020a5f49420001caf86b","B2","batch2","","null","<p class=block-text>Trial 10 out of 60</p>","null","spm_show_trial_num","","","","","","","","","","","","","","","","","","","","","","","","",""
"","","","","","image-button-response","207","500825","0.0-3.0-2.0-1.9","5993020a5f49420001caf86b","B2","batch2","","3865","img/question_1_10.jpeg","2","spm_respsonse","1","3","mat_10","","","","","","1","3865","","","","","","","","","","","","","","",""
"","","","","","html-keyboard-response","208","501886","0.0-3.0-2.0-0.10","5993020a5f49420001caf86b","B2","batch2","","null","<p class=block-text>Trial 11 out of 60</p>","null","spm_show_trial_num","","","","","","","","","","","","","","","","","","","","","","","","",""
"","","","","","image-button-response","209","513260","0.0-3.0-2.0-1.10","5993020a5f49420001caf86b","B2","batch2","","11373.800000190735","img/question_1_11.jpeg","3","spm_respsonse","1","4","mat_11","","","","","","1","11373.800000190735","","","","","","","","","","","","","","",""
"","","","","","html-keyboard-response","210","514326","0.0-3.0-2.0-0.11","5993020a5f49420001caf86b","B2","batch2","","null","<p class=block-text>Trial 12 out of 60</p>","null","spm_show_trial_num","","","","","","","","","","","","","","","","","","","","","","","","",""
"","","","","","image-button-response","211","526993","0.0-3.0-2.0-1.11","5993020a5f49420001caf86b","B2","batch2","","12665.29999923706","img/question_1_12.jpeg","4","spm_respsonse","1","5","mat_12","","","","","","1","12665.29999923706","","","","","","","","","","","","","","",""
"","","","","","html-keyboard-response","212","528054","0.0-3.0-2.0-0.12","5993020a5f49420001caf86b","B2","batch2","","null","<p class=block-text>Trial 13 out of 60</p>","null","spm_show_trial_num","","","","","","","","","","","","","","","","","","","","","","","","",""
"","","","","","image-button-response","213","530359","0.0-3.0-2.0-1.12","5993020a5f49420001caf86b","B2","batch2","","2303.800000190735","img/question_2_1.jpeg","1","spm_respsonse","1","2","mat_13","","","","","","1","2303.800000190735","","","","","","","","","","","","","","",""
"","","","","","html-keyboard-response","214","531422","0.0-3.0-2.0-0.13","5993020a5f49420001caf86b","B2","batch2","","null","<p class=block-text>Trial 14 out of 60</p>","null","spm_show_trial_num","","","","","","","","","","","","","","","","","","","","","","","","",""
"","","","","","image-button-response","215","539726","0.0-3.0-2.0-1.13","5993020a5f49420001caf86b","B2","batch2","","8302.20000076294","img/question_2_2.jpeg","5","spm_respsonse","1","6","mat_14","","","","","","1","8302.20000076294","","","","","","","","","","","","","","",""
"","","","","","html-keyboard-response","216","540790","0.0-3.0-2.0-0.14","5993020a5f49420001caf86b","B2","batch2","","null","<p class=block-text>Trial 15 out of 60</p>","null","spm_show_trial_num","","","","","","","","","","","","","","","","","","","","","","","","",""
"","","","","","image-button-response","217","543792","0.0-3.0-2.0-1.14","5993020a5f49420001caf86b","B2","batch2","","3000.300000190735","img/question_2_3.jpeg","0","spm_respsonse","1","1","mat_15","","","","","","1","3000.300000190735","","","","","","","","","","","","","","",""
"","","","","","html-keyboard-response","218","544854","0.0-3.0-2.0-0.15","5993020a5f49420001caf86b","B2","batch2","","null","<p class=block-text>Trial 16 out of 60</p>","null","spm_show_trial_num","","","","","","","","","","","","","","","","","","","","","","","","",""
"","","","","","image-button-response","219","547808","0.0-3.0-2.0-1.15","5993020a5f49420001caf86b","B2","batch2","","2953.5999994277954","img/question_2_4.jpeg","1","spm_respsonse","1","2","mat_16","","","","","","1","2953.5999994277954","","","","","","","","","","","","","","",""
"","","","","","html-keyboard-response","220","548870","0.0-3.0-2.0-0.16","5993020a5f49420001caf86b","B2","batch2","","null","<p class=block-text>Trial 17 out of 60</p>","null","spm_show_trial_num","","","","","","","","","","","","","","","","","","","","","","","","",""
"","","","","","image-button-response","221","553844","0.0-3.0-2.0-1.16","5993020a5f49420001caf86b","B2","batch2","","4972","img/question_2_5.jpeg","0","spm_respsonse","1","1","mat_17","","","","","","1","4972","","","","","","","","","","","","","","",""
"","","","","","html-keyboard-response","222","554910","0.0-3.0-2.0-0.17","5993020a5f49420001caf86b","B2","batch2","","null","<p class=block-text>Trial 18 out of 60</p>","null","spm_show_trial_num","","","","","","","","","","","","","","","","","","","","","","","","",""
"","","","","","image-button-response","223","559292","0.0-3.0-2.0-1.17","5993020a5f49420001caf86b","B2","batch2","","4380.5","img/question_2_6.jpeg","2","spm_respsonse","1","3","mat_18","","","","","","1","4380.5","","","","","","","","","","","","","","",""
"","","","","","html-keyboard-response","224","560357","0.0-3.0-2.0-0.18","5993020a5f49420001caf86b","B2","batch2","","null","<p class=block-text>Trial 19 out of 60</p>","null","spm_show_trial_num","","","","","","","","","","","","","","","","","","","","","","","","",""
"","","","","","image-button-response","225","569910","0.0-3.0-2.0-1.18","5993020a5f49420001caf86b","B2","batch2","","9551","img/question_2_7.jpeg","4","spm_respsonse","1","5","mat_19","","","","","","1","9551","","","","","","","","","","","","","","",""
"","","","","","html-keyboard-response","226","570973","0.0-3.0-2.0-0.19","5993020a5f49420001caf86b","B2","batch2","","null","<p class=block-text>Trial 20 out of 60</p>","null","spm_show_trial_num","","","","","","","","","","","","","","","","","","","","","","","","",""
"","","","","","image-button-response","227","584292","0.0-3.0-2.0-1.19","5993020a5f49420001caf86b","B2","batch2","","13317.10000038147","img/question_2_8.jpeg","5","spm_respsonse","1","6","mat_20","","","","","","1","13317.10000038147","","","","","","","","","","","","","","",""
"","","","","","html-keyboard-response","228","585356","0.0-3.0-2.0-0.20","5993020a5f49420001caf86b","B2","batch2","","null","<p class=block-text>Trial 21 out of 60</p>","null","spm_show_trial_num","","","","","","","","","","","","","","","","","","","","","","","","",""
"","","","","","image-button-response","229","591959","0.0-3.0-2.0-1.20","5993020a5f49420001caf86b","B2","batch2","","6601.800000190735","img/question_2_9.jpeg","3","spm_respsonse","1","4","mat_21","","","","","","1","6601.800000190735","","","","","","","","","","","","","","",""
"","","","","","html-keyboard-response","230","593019","0.0-3.0-2.0-0.21","5993020a5f49420001caf86b","B2","batch2","","null","<p class=block-text>Trial 22 out of 60</p>","null","spm_show_trial_num","","","","","","","","","","","","","","","","","","","","","","","","",""
"","","","","","image-button-response","231","597659","0.0-3.0-2.0-1.21","5993020a5f49420001caf86b","B2","batch2","","4638.599999427795","img/question_2_10.jpeg","2","spm_respsonse","1","3","mat_22","","","","","","1","4638.599999427795","","","","","","","","","","","","","","",""
"","","","","","html-keyboard-response","232","598724","0.0-3.0-2.0-0.22","5993020a5f49420001caf86b","B2","batch2","","null","<p class=block-text>Trial 23 out of 60</p>","null","spm_show_trial_num","","","","","","","","","","","","","","","","","","","","","","","","",""
"","","","","","image-button-response","233","609710","0.0-3.0-2.0-1.22","5993020a5f49420001caf86b","B2","batch2","","10985.099999427795","img/question_2_11.jpeg","3","spm_respsonse","1","4","mat_23","","","","","","1","10985.099999427795","","","","","","","","","","","","","","",""
"","","","","","html-keyboard-response","234","610770","0.0-3.0-2.0-0.23","5993020a5f49420001caf86b","B2","batch2","","null","<p class=block-text>Trial 24 out of 60</p>","null","spm_show_trial_num","","","","","","","","","","","","","","","","","","","","","","","","",""
"","","","","","image-button-response","235","666079","0.0-3.0-2.0-1.23","5993020a5f49420001caf86b","B2","batch2","","55307.89999961853","img/question_2_12.jpeg","1","spm_respsonse","0","5","mat_24","","","","","","0","55307.89999961853","","","","","","","","","","","","","","",""
"","","","","","html-button-response","236","667993","0.0-3.0-3.0","5993020a5f49420001caf86b","B2","batch2","","1652.5","<p class = block-text>Attention check: Please choose 1<br></p>","0","attention_check","true","","","","","","","","","","","","","","","","","","","","","","","",""
"","","","","","html-keyboard-response","237","668804","0.0-3.0-4.0-0.0","5993020a5f49420001caf86b","B2","batch2","","null","<p class=block-text>Trial 25 out of 60</p>","null","spm_show_trial_num","","","","","","","","","","","","","","","","","","","","","","","","",""
"","","","","","image-button-response","238","676310","0.0-3.0-4.0-1.0","5993020a5f49420001caf86b","B2","batch2","","7504.900000572205","img/question_3_1.jpeg","7","spm_respsonse","1","8","mat_25","","","","","","1","7504.900000572205","","","","","","","","","","","","","","",""
"","","","","","html-keyboard-response","239","677374","0.0-3.0-4.0-0.1","5993020a5f49420001caf86b","B2","batch2","","null","<p class=block-text>Trial 26 out of 60</p>","null","spm_show_trial_num","","","","","","","","","","","","","","","","","","","","","","","","",""
"","","","","","image-button-response","240","685575","0.0-3.0-4.0-1.1","5993020a5f49420001caf86b","B2","batch2","","8201.89999961853","img/question_3_2.jpeg","1","spm_respsonse","1","2","mat_26","","","","","","1","8201.89999961853","","","","","","","","","","","","","","",""
"","","","","","html-keyboard-response","241","686639","0.0-3.0-4.0-0.2","5993020a5f49420001caf86b","B2","batch2","","null","<p class=block-text>Trial 27 out of 60</p>","null","spm_show_trial_num","","","","","","","","","","","","","","","","","","","","","","","","",""
"","","","","","image-button-response","242","701440","0.0-3.0-4.0-1.2","5993020a5f49420001caf86b","B2","batch2","","14803.5","img/question_3_3.jpeg","2","spm_respsonse","1","3","mat_27","","","","","","1","14803.5","","","","","","","","","","","","","","",""
"","","","","","html-keyboard-response","243","702507","0.0-3.0-4.0-0.3","5993020a5f49420001caf86b","B2","batch2","","null","<p class=block-text>Trial 28 out of 60</p>","null","spm_show_trial_num","","","","","","","","","","","","","","","","","","","","","","","","",""
"","","","","","image-button-response","244","712556","0.0-3.0-4.0-1.3","5993020a5f49420001caf86b","B2","batch2","","10048.60000038147","img/question_3_4.jpeg","7","spm_respsonse","1","8","mat_28","","","","","","1","10048.60000038147","","","","","","","","","","","","","","",""
"","","","","","html-keyboard-response","245","713619","0.0-3.0-4.0-0.4","5993020a5f49420001caf86b","B2","batch2","","null","<p class=block-text>Trial 29 out of 60</p>","null","spm_show_trial_num","","","","","","","","","","","","","","","","","","","","","","","","",""
"","","","","","image-button-response","246","721088","0.0-3.0-4.0-1.4","5993020a5f49420001caf86b","B2","batch2","","7468.400000572205","img/question_3_5.jpeg","6","spm_respsonse","1","7","mat_29","","","","","","1","7468.400000572205","","","","","","","","","","","","","","",""
"","","","","","html-keyboard-response","247","722157","0.0-3.0-4.0-0.5","5993020a5f49420001caf86b","B2","batch2","","null","<p class=block-text>Trial 30 out of 60</p>","null","spm_show_trial_num","","","","","","","","","","","","","","","","","","","","","","","","",""
"","","","","","image-button-response","248","739706","0.0-3.0-4.0-1.5","5993020a5f49420001caf86b","B2","batch2","","17547.900000572205","img/question_3_6.jpeg","7","spm_respsonse","0","4","mat_30","","","","","","0","17547.900000572205","","","","","","","","","","","","","","",""
"","","","","","html-keyboard-response","249","740769","0.0-3.0-4.0-0.6","5993020a5f49420001caf86b","B2","batch2","","null","<p class=block-text>Trial 31 out of 60</p>","null","spm_show_trial_num","","","","","","","","","","","","","","","","","","","","","","","","",""
"","","","","","image-button-response","250","749688","0.0-3.0-4.0-1.6","5993020a5f49420001caf86b","B2","batch2","","8917.60000038147","img/question_3_7.jpeg","4","spm_respsonse","1","5","mat_31","","","","","","1","8917.60000038147","","","","","","","","","","","","","","",""
"","","","","","html-keyboard-response","251","750751","0.0-3.0-4.0-0.7","5993020a5f49420001caf86b","B2","batch2","","null","<p class=block-text>Trial 32 out of 60</p>","null","spm_show_trial_num","","","","","","","","","","","","","","","","","","","","","","","","",""
"","","","","","image-button-response","252","838322","0.0-3.0-4.0-1.7","5993020a5f49420001caf86b","B2","batch2","","87572.5","img/question_3_8.jpeg","6","spm_respsonse","0","1","mat_32","","","","","","0","87572.5","","","","","","","","","","","","","","",""
"","","","","","html-keyboard-response","253","839391","0.0-3.0-4.0-0.8","5993020a5f49420001caf86b","B2","batch2","","null","<p class=block-text>Trial 33 out of 60</p>","null","spm_show_trial_num","","","","","","","","","","","","","","","","","","","","","","","","",""
"","","","","","image-button-response","254","869623","0.0-3.0-4.0-1.8","5993020a5f49420001caf86b","B2","batch2","","30231.599999427795","img/question_3_9.jpeg","0","spm_respsonse","0","7","mat_33","","","","","","0","30231.599999427795","","","","","","","","","","","","","","",""
"","","","","","html-keyboard-response","255","870691","0.0-3.0-4.0-0.9","5993020a5f49420001caf86b","B2","batch2","","null","<p class=block-text>Trial 34 out of 60</p>","null","spm_show_trial_num","","","","","","","","","","","","","","","","","","","","","","","","",""
"","","","","","image-button-response","256","879856","0.0-3.0-4.0-1.9","5993020a5f49420001caf86b","B2","batch2","","9163.79999923706","img/question_3_10.jpeg","3","spm_respsonse","0","6","mat_34","","","","","","0","9163.79999923706","","","","","","","","","","","","","","",""
"","","","","","html-keyboard-response","257","880924","0.0-3.0-4.0-0.10","5993020a5f49420001caf86b","B2","batch2","","null","<p class=block-text>Trial 35 out of 60</p>","null","spm_show_trial_num","","","","","","","","","","","","","","","","","","","","","","","","",""
"","","","","","image-button-response","258","959011","0.0-3.0-4.0-1.10","5993020a5f49420001caf86b","B2","batch2","","78087.5","img/question_3_11.jpeg","0","spm_respsonse","1","1","mat_35","","","","","","1","78087.5","","","","","","","","","","","","","","",""
"","","","","","html-keyboard-response","259","960075","0.0-3.0-4.0-0.11","5993020a5f49420001caf86b","B2","batch2","","null","<p class=block-text>Trial 36 out of 60</p>","null","spm_show_trial_num","","","","","","","","","","","","","","","","","","","","","","","","",""
"","","","","","image-button-response","260","975357","0.0-3.0-4.0-1.11","5993020a5f49420001caf86b","B2","batch2","","15280.099999427795","img/question_3_12.jpeg","5","spm_respsonse","0","2","mat_36","","","","","","0","15280.099999427795","","","","","","","","","","","","","","",""
"","","","","","html-keyboard-response","261","976424","0.0-3.0-4.0-0.12","5993020a5f49420001caf86b","B2","batch2","","null","<p class=block-text>Trial 37 out of 60</p>","null","spm_show_trial_num","","","","","","","","","","","","","","","","","","","","","","","","",""
"","","","","","image-button-response","262","981525","0.0-3.0-4.0-1.12","5993020a5f49420001caf86b","B2","batch2","","5099","img/question_4_1.jpeg","2","spm_respsonse","1","3","mat_37","","","","","","1","5099","","","","","","","","","","","","","","",""
"","","","","","html-keyboard-response","263","982587","0.0-3.0-4.0-0.13","5993020a5f49420001caf86b","B2","batch2","","null","<p class=block-text>Trial 38 out of 60</p>","null","spm_show_trial_num","","","","","","","","","","","","","","","","","","","","","","","","",""
"","","","","","image-button-response","264","990757","0.0-3.0-4.0-1.13","5993020a5f49420001caf86b","B2","batch2","","8169.300000190735","img/question_4_2.jpeg","3","spm_respsonse","1","4","mat_38","","","","","","1","8169.300000190735","","","","","","","","","","","","","","",""
"","","","","","html-keyboard-response","265","991820","0.0-3.0-4.0-0.14","5993020a5f49420001caf86b","B2","batch2","","null","<p class=block-text>Trial 39 out of 60</p>","null","spm_show_trial_num","","","","","","","","","","","","","","","","","","","","","","","","",""
"","","","","","image-button-response","266","1002674","0.0-3.0-4.0-1.14","5993020a5f49420001caf86b","B2","batch2","","10852.800000190735","img/question_4_3.jpeg","2","spm_respsonse","1","3","mat_39","","","","","","1","10852.800000190735","","","","","","","","","","","","","","",""
"","","","","","html-keyboard-response","267","1003735","0.0-3.0-4.0-0.15","5993020a5f49420001caf86b","B2","batch2","","null","<p class=block-text>Trial 40 out of 60</p>","null","spm_show_trial_num","","","","","","","","","","","","","","","","","","","","","","","","",""
"","","","","","image-button-response","268","1011609","0.0-3.0-4.0-1.15","5993020a5f49420001caf86b","B2","batch2","","7871.400000572205","img/question_4_4.jpeg","6","spm_respsonse","1","7","mat_40","","","","","","1","7871.400000572205","","","","","","","","","","","","","","",""
"","","","","","html-keyboard-response","269","1012671","0.0-3.0-4.0-0.16","5993020a5f49420001caf86b","B2","batch2","","null","<p class=block-text>Trial 41 out of 60</p>","null","spm_show_trial_num","","","","","","","","","","","","","","","","","","","","","","","","",""
"","","","","","image-button-response","270","1021924","0.0-3.0-4.0-1.16","5993020a5f49420001caf86b","B2","batch2","","9251.199999809265","img/question_4_5.jpeg","7","spm_respsonse","1","8","mat_41","","","","","","1","9251.199999809265","","","","","","","","","","","","","","",""
"","","","","","html-keyboard-response","271","1022990","0.0-3.0-4.0-0.17","5993020a5f49420001caf86b","B2","batch2","","null","<p class=block-text>Trial 42 out of 60</p>","null","spm_show_trial_num","","","","","","","","","","","","","","","","","","","","","","","","",""
"","","","","","image-button-response","272","1048677","0.0-3.0-4.0-1.17","5993020a5f49420001caf86b","B2","batch2","","25685.400000572205","img/question_4_6.jpeg","5","spm_respsonse","1","6","mat_42","","","","","","1","25685.400000572205","","","","","","","","","","","","","","",""
"","","","","","html-keyboard-response","273","1049741","0.0-3.0-4.0-0.18","5993020a5f49420001caf86b","B2","batch2","","null","<p class=block-text>Trial 43 out of 60</p>","null","spm_show_trial_num","","","","","","","","","","","","","","","","","","","","","","","","",""
"","","","","","image-button-response","274","1063733","0.0-3.0-4.0-1.18","5993020a5f49420001caf86b","B2","batch2","","13989.400000572205","img/question_4_7.jpeg","4","spm_respsonse","1","5","mat_43","","","","","","1","13989.400000572205","","","","","","","","","","","","","","",""
"","","","","","html-keyboard-response","275","1064796","0.0-3.0-4.0-0.19","5993020a5f49420001caf86b","B2","batch2","","null","<p class=block-text>Trial 44 out of 60</p>","null","spm_show_trial_num","","","","","","","","","","","","","","","","","","","","","","","","",""
"","","","","","image-button-response","276","1087809","0.0-3.0-4.0-1.19","5993020a5f49420001caf86b","B2","batch2","","23011.5","img/question_4_8.jpeg","4","spm_respsonse","0","4","mat_44","","","","","","0","23011.5","","","","","","","","","","","","","","",""
"","","","","","html-keyboard-response","277","1088875","0.0-3.0-4.0-0.20","5993020a5f49420001caf86b","B2","batch2","","null","<p class=block-text>Trial 45 out of 60</p>","null","spm_show_trial_num","","","","","","","","","","","","","","","","","","","","","","","","",""
"","","","","","image-button-response","278","1103942","0.0-3.0-4.0-1.20","5993020a5f49420001caf86b","B2","batch2","","15065.300000190735","img/question_4_9.jpeg","0","spm_respsonse","1","1","mat_45","","","","","","1","15065.300000190735","","","","","","","","","","","","","","",""
"","","","","","html-keyboard-response","279","1105003","0.0-3.0-4.0-0.21","5993020a5f49420001caf86b","B2","batch2","","null","<p class=block-text>Trial 46 out of 60</p>","null","spm_show_trial_num","","","","","","","","","","","","","","","","","","","","","","","","",""
"","","","","","image-button-response","280","1154925","0.0-3.0-4.0-1.21","5993020a5f49420001caf86b","B2","batch2","","49921.89999961853","img/question_4_10.jpeg","1","spm_respsonse","1","2","mat_46","","","","","","1","49921.89999961853","","","","","","","","","","","","","","",""
"","","","","","html-keyboard-response","281","1155985","0.0-3.0-4.0-0.22","5993020a5f49420001caf86b","B2","batch2","","null","<p class=block-text>Trial 47 out of 60</p>","null","spm_show_trial_num","","","","","","","","","","","","","","","","","","","","","","","","",""
"","","","","","image-button-response","282","1228143","0.0-3.0-4.0-1.22","5993020a5f49420001caf86b","B2","batch2","","72158.29999923706","img/question_4_11.jpeg","6","spm_respsonse","0","5","mat_47","","","","","","0","72158.29999923706","","","","","","","","","","","","","","",""
"","","","","","html-keyboard-response","283","1229203","0.0-3.0-4.0-0.23","5993020a5f49420001caf86b","B2","batch2","","null","<p class=block-text>Trial 48 out of 60</p>","null","spm_show_trial_num","","","","","","","","","","","","","","","","","","","","","","","","",""
"","","","","","image-button-response","284","1263676","0.0-3.0-4.0-1.23","5993020a5f49420001caf86b","B2","batch2","","34472.900000572205","img/question_4_12.jpeg","6","spm_respsonse","0","6","mat_48","","","","","","0","34472.900000572205","","","","","","","","","","","","","","",""
"","","","","","html-keyboard-response","285","1264743","0.0-3.0-4.0-0.24","5993020a5f49420001caf86b","B2","batch2","","null","<p class=block-text>Trial 49 out of 60</p>","null","spm_show_trial_num","","","","","","","","","","","","","","","","","","","","","","","","",""
"","","","","","image-button-response","286","1303328","0.0-3.0-4.0-1.24","5993020a5f49420001caf86b","B2","batch2","","38583.5","img/question_5_1.jpeg","6","spm_respsonse","1","7","mat_49","","","","","","1","38583.5","","","","","","","","","","","","","","",""
"","","","","","html-keyboard-response","287","1304388","0.0-3.0-4.0-0.25","5993020a5f49420001caf86b","B2","batch2","","null","<p class=block-text>Trial 50 out of 60</p>","null","spm_show_trial_num","","","","","","","","","","","","","","","","","","","","","","","","",""
"","","","","","image-button-response","288","1314561","0.0-3.0-4.0-1.25","5993020a5f49420001caf86b","B2","batch2","","10171.60000038147","img/question_5_2.jpeg","5","spm_respsonse","1","6","mat_50","","","","","","1","10171.60000038147","","","","","","","","","","","","","","",""
"","","","","","html-keyboard-response","289","1315628","0.0-3.0-4.0-0.26","5993020a5f49420001caf86b","B2","batch2","","null","<p class=block-text>Trial 51 out of 60</p>","null","spm_show_trial_num","","","","","","","","","","","","","","","","","","","","","","","","",""
"","","","","","image-button-response","290","1334944","0.0-3.0-4.0-1.26","5993020a5f49420001caf86b","B2","batch2","","19314.199999809265","img/question_5_3.jpeg","7","spm_respsonse","1","8","mat_51","","","","","","1","19314.199999809265","","","","","","","","","","","","","","",""
"","","","","","html-keyboard-response","291","1336011","0.0-3.0-4.0-0.27","5993020a5f49420001caf86b","B2","batch2","","null","<p class=block-text>Trial 52 out of 60</p>","null","spm_show_trial_num","","","","","","","","","","","","","","","","","","","","","","","","",""
"","","","","","image-button-response","292","1358676","0.0-3.0-4.0-1.27","5993020a5f49420001caf86b","B2","batch2","","22664.199999809265","img/question_5_4.jpeg","1","spm_respsonse","1","2","mat_52","","","","","","1","22664.199999809265","","","","","","","","","","","","","","",""
"","","","","","html-keyboard-response","293","1359737","0.0-3.0-4.0-0.28","5993020a5f49420001caf86b","B2","batch2","","null","<p class=block-text>Trial 53 out of 60</p>","null","spm_show_trial_num","","","","","","","","","","","","","","","","","","","","","","","","",""
"","","","","","image-button-response","294","1379311","0.0-3.0-4.0-1.28","5993020a5f49420001caf86b","B2","batch2","","19572.800000190735","img/question_5_5.jpeg","6","spm_respsonse","0","1","mat_53","","","","","","0","19572.800000190735","","","","","","","","","","","","","","",""
"","","","","","html-keyboard-response","295","1380377","0.0-3.0-4.0-0.29","5993020a5f49420001caf86b","B2","batch2","","null","<p class=block-text>Trial 54 out of 60</p>","null","spm_show_trial_num","","","","","","","","","","","","","","","","","","","","","","","","",""
"","","","","","image-button-response","296","1393294","0.0-3.0-4.0-1.29","5993020a5f49420001caf86b","B2","batch2","","12914.60000038147","img/question_5_6.jpeg","4","spm_respsonse","1","5","mat_54","","","","","","1","12914.60000038147","","","","","","","","","","","","","","",""
"","","","","","html-keyboard-response","297","1394360","0.0-3.0-4.0-0.30","5993020a5f49420001caf86b","B2","batch2","","null","<p class=block-text>Trial 55 out of 60</p>","null","spm_show_trial_num","","","","","","","","","","","","","","","","","","","","","","","","",""
"","","","","","image-button-response","298","1438095","0.0-3.0-4.0-1.30","5993020a5f49420001caf86b","B2","batch2","","43733.800000190735","img/question_5_7.jpeg","2","spm_respsonse","0","1","mat_55","","","","","","0","43733.800000190735","","","","","","","","","","","","","","",""
"","","","","","html-keyboard-response","299","1439159","0.0-3.0-4.0-0.31","5993020a5f49420001caf86b","B2","batch2","","null","<p class=block-text>Trial 56 out of 60</p>","null","spm_show_trial_num","","","","","","","","","","","","","","","","","","","","","","","","",""
"","","","","","image-button-response","300","1452512","0.0-3.0-4.0-1.31","5993020a5f49420001caf86b","B2","batch2","","13351.900000572205","img/question_5_8.jpeg","1","spm_respsonse","0","6","mat_56","","","","","","0","13351.900000572205","","","","","","","","","","","","","","",""
"","","","","","html-keyboard-response","301","1453575","0.0-3.0-4.0-0.32","5993020a5f49420001caf86b","B2","batch2","","null","<p class=block-text>Trial 57 out of 60</p>","null","spm_show_trial_num","","","","","","","","","","","","","","","","","","","","","","","","",""
"","","","","","image-button-response","302","1460429","0.0-3.0-4.0-1.32","5993020a5f49420001caf86b","B2","batch2","","6852.199999809265","img/question_5_9.jpeg","3","spm_respsonse","0","3","mat_57","","","","","","0","6852.199999809265","","","","","","","","","","","","","","",""
"","","","","","html-keyboard-response","303","1461495","0.0-3.0-4.0-0.33","5993020a5f49420001caf86b","B2","batch2","","null","<p class=block-text>Trial 58 out of 60</p>","null","spm_show_trial_num","","","","","","","","","","","","","","","","","","","","","","","","",""
"","","","","","image-button-response","304","1477096","0.0-3.0-4.0-1.33","5993020a5f49420001caf86b","B2","batch2","","15600.10000038147","img/question_5_10.jpeg","6","spm_respsonse","0","2","mat_58","","","","","","0","15600.10000038147","","","","","","","","","","","","","","",""
"","","","","","html-keyboard-response","305","1478165","0.0-3.0-4.0-0.34","5993020a5f49420001caf86b","B2","batch2","","null","<p class=block-text>Trial 59 out of 60</p>","null","spm_show_trial_num","","","","","","","","","","","","","","","","","","","","","","","","",""
"","","","","","image-button-response","306","1492328","0.0-3.0-4.0-1.34","5993020a5f49420001caf86b","B2","batch2","","14161.099999427795","img/question_5_11.jpeg","0","spm_respsonse","0","4","mat_59","","","","","","0","14161.099999427795","","","","","","","","","","","","","","",""
"","","","","","html-keyboard-response","307","1493389","0.0-3.0-4.0-0.35","5993020a5f49420001caf86b","B2","batch2","","null","<p class=block-text>Trial 60 out of 60</p>","null","spm_show_trial_num","","","","","","","","","","","","","","","","","","","","","","","","",""
"","","","","","image-button-response","308","1519911","0.0-3.0-4.0-1.35","5993020a5f49420001caf86b","B2","batch2","","26522","img/question_5_12.jpeg","6","spm_respsonse","0","5","mat_60","","","","","","0","26522","","","","","","","","","","","","","","",""
"","","","","","html-button-response","309","1522812","0.0-3.0-5.0","5993020a5f49420001caf86b","B2","batch2","","2639.199999809265","<p class= block-text>This concludes the Standard Progressive Matrix game. Thank you for your responses!<br> When you are ready, click the button continue</p>","0","spm_goodbye","","","","","","","","","","","","","","","","","","","","","","","","",""
"true","","","","","fullscreen","310","1525420","0.0-4.0-0.0","5993020a5f49420001caf86b","B2","batch2","","","","","","","","","","","","","","","","","","","","","","","","","","","","","",""
"","","","","","instructions","311","1580145","0.0-4.0-1.0-0.0-0.0","5993020a5f49420001caf86b","B2","batch2","[{""page_index"":0,""viewing_time"":7456.799999237061},{""page_index"":1,""viewing_time"":12784.10000038147},{""page_index"":2,""viewing_time"":12368.199999809265},{""page_index"":3,""viewing_time"":6565.699999809265},{""page_index"":4,""viewing_time"":7667.200000762939},{""page_index"":5,""viewing_time"":5866.799999237061},{""page_index"":6,""viewing_time"":2016.4000005722046}]","54725.5","","","tol-instructions","","","","","","","","","","","","","","","","","","","","","","","","",""
"","","","","","html-button-response","312","1581364","0.0-4.0-1.0-1.0-0.0","5993020a5f49420001caf86b","B2","batch2","","1218","<p class=block-text> Let's answer a few questions <br>","0","tol_enter_quiz","","","","","","","","","","","","","","","","","","","","","","","","",""
"","","","","","html-button-response","313","1585462","0.0-4.0-1.0-1.0-1.0","5993020a5f49420001caf86b","B2","batch2","","4096.60000038147","<p class = block-text>True or False: You can only move the ball on top of a peg. <br></p>","0","tol_quiz","true","","","","","","","","","","","","","","","","","","","","","","","",""
"","","","","","html-button-response","314","1586779","0.0-4.0-1.0-1.0-2.0","5993020a5f49420001caf86b","B2","batch2","","1316","<p class = block-text>Correct! You can only move the ball on top of a peg.</p>","0","tol_quiz_feedback","","","","","","","","","","","","","","","","","","","","","","","","",""
"","","","","","html-button-response","315","1590295","0.0-4.0-1.0-1.0-3.0","5993020a5f49420001caf86b","B2","batch2","","3515.7999992370605","<p class = block-text>True or False: You should try to match your board with the target board with fewest moves possible. <br></p>","0","tol_quiz","true","","","","","","","","","","","","","","","","","","","","","","","",""
"","","","","","html-button-response","316","1591228","0.0-4.0-1.0-1.0-4.0","5993020a5f49420001caf86b","B2","batch2","","932.5","<p class = block-text>Correct! </p>","0","tol_quiz_feedback","","","","","","","","","","","","","","","","","","","","","","","","",""
"","","","","","html-button-response","317","1592595","0.0-4.0-2.0","5993020a5f49420001caf86b","B2","batch2","","1365.1999998092651","<p class=block-text> Now that you've understood the game, let's practice a few easier examples before we start!<br> <br>","0","","","","","","","","","","","","","","","","","","","","","","","","","",""
"","","","","","single-stim-button","318","1602033","0.0-4.0-3.0-0.0","5993020a5f49420001caf86b","B2","batch2","","9436","","","tol_practice","","","","","","","","","","","tol_peg_2","9436","9436","0","[[1,2,0],[0,0],[0]]","1","[[1,2,0],[0,0],[3]]","practice","9436","","","","","",""
"","","","","","single-stim-button","319","1604395","0.0-4.0-3.0-1.0","5993020a5f49420001caf86b","B2","batch2","","2361","","","tol_practice","","","","","","","","","","","tol_peg_3","2361","2361","0","[[1,2,0],[0,0],[3]]","1","[[1,2,0],[0,0],[3]]","practice","2361","","","","","",""
"","","","","","poldrack-single-stim","320","1605401","0.0-4.0-4.0","5993020a5f49420001caf86b","B2","batch2","","-1","","","tol_feedback","true","","","","","","","","","","","1000","1000","500","","","","","","-1","none","true","","0",""
"","","","","","single-stim-button","321","1612762","0.0-4.0-5.0-0.0","5993020a5f49420001caf86b","B2","batch2","","7360","","","tol_practice","","","","","","","","","","","tol_peg_1","7360","7360","0","[[1,0,0],[3,0],[0]]","2","[[0,0,0],[3,1],[2]]","practice","7360","","","","","",""
"","","","","","single-stim-button","322","1615512","0.0-4.0-5.0-1.0","5993020a5f49420001caf86b","B2","batch2","","2748","","","tol_practice","","","","","","","","","","","tol_peg_3","2748","2748","0","[[1,0,0],[3,0],[2]]","2","[[0,0,0],[3,1],[2]]","practice","2748","","","","","",""
"","","","","","single-stim-button","323","1617562","0.0-4.0-5.1-0.1","5993020a5f49420001caf86b","B2","batch2","","2048","","","tol_practice","","","","","","","","","","","tol_peg_1","2048","2048","0","[[0,0,0],[3,0],[2]]","3","[[0,0,0],[3,1],[2]]","practice","2048","","","","","",""
"","","","","","single-stim-button","324","1619279","0.0-4.0-5.1-1.1","5993020a5f49420001caf86b","B2","batch2","","1717","","","tol_practice","","","","","","","","","","","tol_peg_2","1717","1717","0","[[0,0,0],[3,1],[2]]","3","[[0,0,0],[3,1],[2]]","practice","1717","","","","","",""
"","","","","","poldrack-single-stim","325","1620281","0.0-4.0-6.0","5993020a5f49420001caf86b","B2","batch2","","-1","","","tol_feedback","true","","","","","","","","","","","1000","1000","500","","","","","","-1","none","true","","0",""
"","","","","","single-stim-button","326","1625696","0.0-4.0-7.0-0.0","5993020a5f49420001caf86b","B2","batch2","","5413","","","tol_practice","","","","","","","","","","","tol_peg_2","5413","5413","0","[[1,2,0],[0,0],[0]]","4","[[1,0,0],[2,0],[3]]","practice","5413","","","","","",""
"","","","","","single-stim-button","327","1628029","0.0-4.0-7.0-1.0","5993020a5f49420001caf86b","B2","batch2","","2333","","","tol_practice","","","","","","","","","","","tol_peg_3","2333","2333","0","[[1,2,0],[0,0],[3]]","4","[[1,0,0],[2,0],[3]]","practice","2333","","","","","",""
"","","","","","single-stim-button","328","1629478","0.0-4.0-7.1-0.1","5993020a5f49420001caf86b","B2","batch2","","1448","","","tol_practice","","","","","","","","","","","tol_peg_1","1448","1448","0","[[1,0,0],[0,0],[3]]","5","[[1,0,0],[2,0],[3]]","practice","1448","","","","","",""
"","","","","","single-stim-button","329","1630679","0.0-4.0-7.1-1.1","5993020a5f49420001caf86b","B2","batch2","","1201","","","tol_practice","","","","","","","","","","","tol_peg_2","1201","1201","0","[[1,0,0],[2,0],[3]]","5","[[1,0,0],[2,0],[3]]","practice","1201","","","","","",""
"","","","","","poldrack-single-stim","330","1631682","0.0-4.0-8.0","5993020a5f49420001caf86b","B2","batch2","","-1","","","tol_feedback","true","","","","","","","","","","","1000","1000","500","","","","","","-1","none","true","","0",""
"","","","","","html-button-response","331","1632995","0.0-4.0-9.0","5993020a5f49420001caf86b","B2","batch2","","1312","<div class = centerbox><p class = center-block-text>Great job! You are done with practice trials<br>You are about to start official trials.<br> <br> Problem <strong>1</strong> out of 25 problems</p></div>","0","tol_instruction","","","","","","","","","","","","","","","","","","","","","","","","",""
"","","","","","single-stim-button","332","1641279","0.0-4.0-10.0-0.0","5993020a5f49420001caf86b","B2","batch2","","7279","","","tol_tohand","","","","","","","","","","","tol_peg_1","7279","7279","0","[[1,0,0],[3,0],[0]]","1","[[1,3,0],[2,0],[0]]","0","0","","","","","","3"
"","","","","","single-stim-button","333","1644849","0.0-4.0-10.0-1.0","5993020a5f49420001caf86b","B2","batch2","","3567","","","tol_toboard","","","","","","","","","","","tol_peg_3","3567","3567","0","[[1,0,0],[3,0],[2]]","1","[[1,3,0],[2,0],[0]]","0","0","","","","","","3"
"","","","","","single-stim-button","334","1646479","0.0-4.0-10.1-0.1","5993020a5f49420001caf86b","B2","batch2","","1628","","","tol_tohand","","","","","","","","","","","tol_peg_2","1628","1628","0","[[1,0,0],[0,0],[2]]","2","[[1,3,0],[2,0],[0]]","0","0","","","","","","3"
"","","","","","single-stim-button","335","1647828","0.0-4.0-10.1-1.1","5993020a5f49420001caf86b","B2","batch2","","1349","","","tol_toboard","","","","","","","","","","","tol_peg_1","1349","1349","0","[[1,3,0],[0,0],[2]]","2","[[1,3,0],[2,0],[0]]","0","0","","","","","","3"
"","","","","","single-stim-button","336","1650062","0.0-4.0-10.2-0.2","5993020a5f49420001caf86b","B2","batch2","","2234","","","tol_tohand","","","","","","","","","","","tol_peg_3","2234","2234","0","[[1,3,0],[0,0],[0]]","3","[[1,3,0],[2,0],[0]]","0","0","","","","","","3"
"","","","","","single-stim-button","337","1651078","0.0-4.0-10.2-1.2","5993020a5f49420001caf86b","B2","batch2","","1016","","","tol_toboard","","","","","","","","","","","tol_peg_2","1016","1016","0","[[1,3,0],[2,0],[0]]","3","[[1,3,0],[2,0],[0]]","0","0","","","","","","3"
"","","","","","poldrack-single-stim","338","1652087","0.0-4.0-11.0","5993020a5f49420001caf86b","B2","batch2","","-1","","","tol_feedback","true","","","","","","","","","","","1000","1000","500","","","","","","-1","none","true","7279","11141",""
"","","","","","html-button-response","339","1653245","0.0-4.0-12.0","5993020a5f49420001caf86b","B2","batch2","","1157.8999996185303","<div class = centerbox><p class = center-block-text>problem <strong>2</strong> out of 25 problems</p></div>","0","tol_trial_num","","","","","","","","","","","","","","","","","","","","","","","","",""
"","","","","","single-stim-button","340","1659946","0.0-4.0-13.0-0.0","5993020a5f49420001caf86b","B2","batch2","","6700","","","tol_tohand","","","","","","","","","","","tol_peg_1","6700","6700","0","[[1,0,0],[3,0],[0]]","1","[[2,1,3],[0,0],[0]]","1","0","","","","","","5"
"","","","","","single-stim-button","341","1663712","0.0-4.0-13.0-1.0","5993020a5f49420001caf86b","B2","batch2","","3766","","","tol_toboard","","","","","","","","","","","tol_peg_3","3766","3766","0","[[1,0,0],[3,0],[2]]","1","[[2,1,3],[0,0],[0]]","1","0","","","","","","5"
"","","","","","single-stim-button","342","1666596","0.0-4.0-13.1-0.1","5993020a5f49420001caf86b","B2","batch2","","2883","","","tol_tohand","","","","","","","","","","","tol_peg_1","2883","2883","0","[[0,0,0],[3,0],[2]]","2","[[2,1,3],[0,0],[0]]","1","0","","","","","","5"
"","","","","","single-stim-button","343","1668712","0.0-4.0-13.1-1.1","5993020a5f49420001caf86b","B2","batch2","","2115","","","tol_toboard","","","","","","","","","","","tol_peg_2","2115","2115","0","[[0,0,0],[3,1],[2]]","2","[[2,1,3],[0,0],[0]]","1","0","","","","","","5"
"","","","","","single-stim-button","344","1670063","0.0-4.0-13.2-0.2","5993020a5f49420001caf86b","B2","batch2","","1350","","","tol_tohand","","","","","","","","","","","tol_peg_3","1350","1350","0","[[0,0,0],[3,1],[0]]","3","[[2,1,3],[0,0],[0]]","1","0","","","","","","5"
"","","","","","single-stim-button","345","1671146","0.0-4.0-13.2-1.2","5993020a5f49420001caf86b","B2","batch2","","1082","","","tol_toboard","","","","","","","","","","","tol_peg_1","1082","1082","0","[[2,0,0],[3,1],[0]]","3","[[2,1,3],[0,0],[0]]","1","0","","","","","","5"
"","","","","","single-stim-button","346","1672629","0.0-4.0-13.3-0.3","5993020a5f49420001caf86b","B2","batch2","","1483","","","tol_tohand","","","","","","","","","","","tol_peg_2","1483","1483","0","[[2,0,0],[3,0],[0]]","4","[[2,1,3],[0,0],[0]]","1","0","","","","","","5"
