"success","timeout","failed_images","failed_audio","failed_video","trial_type","trial_index","time_elapsed","internal_node_id","subject_id","study_id","session_id","task","rt","stimulus","response","item","answer","correct","spm_correct","spm_rt","view_history","mouse_click","stim_duration","block_duration","timing_post_trial","current_position","tol_num_moves_made","tol_target","tol_problem_id","tol_rt","key_press","possible_responses","tol_correct","preplanning","tol_rt_per_trial","tol_min_moves","fiar_detect_rt","fiar_detect_correct","total_correct_fiar_detect","post_trial_gap","choices"
"true","false","[]","[]","[]","preload","0","7124","0.0-0.0","59c86f966a287600011c393e","B2","batch2","","","","","","","","","","","","","","","","","","","","","","","","","","","","","",""
"true","","","","","fullscreen","1","106313","0.0-1.0-0.0","59c86f966a287600011c393e","B2","batch2","","","","","","","","","","","","","","","","","","","","","","","","","","","","","",""
"true","","","","","fullscreen","2","215584","0.0-2.0-0.0","59c86f966a287600011c393e","B2","batch2","spm_fullscreen","","","","","","","","","","","","","","","","","","","","","","","","","","","","",""
"","","","","","html-button-response","3","229187","0.0-2.0-1.0","59c86f966a287600011c393e","B2","batch2","","13595.300000011921","<p class = block-text><b>Instructions</b> <br>This is a widely used intelligence test in research. <br>In this test, a figure with a missing piece will be presented.<br>Below the figure are alternative pieces to complete the figure, only one of which is correct.<br> Different figures might involve different principles for obtaining the missing piece<br>Your job is to select the most logical piece to complete the figure.</p>","0","","","","","","","","","","","","","","","","","","","","","","","","","",""
"","","","","","html-keyboard-response","4","229993","0.0-2.0-2.0-0.0","59c86f966a287600011c393e","B2","batch2","spm_show_trial_num","null","<p class=block-text>Trial 1 out of 60</p>","null","","","","","","","","","","","","","","","","","","","","","","","","","",""
"","","","","","image-button-response","5","322476","0.0-2.0-2.0-1.0","59c86f966a287600011c393e","B2","batch2","spm_respsonse","92436","img/question_1_1.jpeg","3","mat_01","4","1","1","92436","","","","","","","","","","","","","","","","","","","","",""
"","","","","","html-keyboard-response","6","323536","0.0-2.0-2.0-0.1","59c86f966a287600011c393e","B2","batch2","spm_show_trial_num","null","<p class=block-text>Trial 2 out of 60</p>","null","","","","","","","","","","","","","","","","","","","","","","","","","",""
"","","","","","image-button-response","7","330113","0.0-2.0-2.0-1.1","59c86f966a287600011c393e","B2","batch2","spm_respsonse","6572.5999999940395","img/question_1_2.jpeg","4","mat_02","5","1","1","6572.5999999940395","","","","","","","","","","","","","","","","","","","","",""
"","","","","","html-keyboard-response","8","331176","0.0-2.0-2.0-0.2","59c86f966a287600011c393e","B2","batch2","spm_show_trial_num","null","<p class=block-text>Trial 3 out of 60</p>","null","","","","","","","","","","","","","","","","","","","","","","","","","",""
"","","","","","image-button-response","9","348296","0.0-2.0-2.0-1.2","59c86f966a287600011c393e","B2","batch2","spm_respsonse","17114.69999998808","img/question_1_3.jpeg","0","mat_03","1","1","1","17114.69999998808","","","","","","","","","","","","","","","","","","","","",""
"","","","","","html-keyboard-response","10","349361","0.0-2.0-2.0-0.3","59c86f966a287600011c393e","B2","batch2","spm_show_trial_num","null","<p class=block-text>Trial 4 out of 60</p>","null","","","","","","","","","","","","","","","","","","","","","","","","","",""
"","","","","","image-button-response","11","357185","0.0-2.0-2.0-1.3","59c86f966a287600011c393e","B2","batch2","spm_respsonse","7818.799999982119","img/question_1_4.jpeg","1","mat_04","2","1","1","7818.799999982119","","","","","","","","","","","","","","","","","","","","",""
"","","","","","html-keyboard-response","12","358248","0.0-2.0-2.0-0.4","59c86f966a287600011c393e","B2","batch2","spm_show_trial_num","null","<p class=block-text>Trial 5 out of 60</p>","null","","","","","","","","","","","","","","","","","","","","","","","","","",""
"","","","","","image-button-response","13","368319","0.0-2.0-2.0-1.4","59c86f966a287600011c393e","B2","batch2","spm_respsonse","10065.40000000596","img/question_1_5.jpeg","5","mat_05","6","1","1","10065.40000000596","","","","","","","","","","","","","","","","","","","","",""
"","","","","","html-keyboard-response","14","369384","0.0-2.0-2.0-0.5","59c86f966a287600011c393e","B2","batch2","spm_show_trial_num","null","<p class=block-text>Trial 6 out of 60</p>","null","","","","","","","","","","","","","","","","","","","","","","","","","",""
"","","","","","image-button-response","15","375367","0.0-2.0-2.0-1.5","59c86f966a287600011c393e","B2","batch2","spm_respsonse","5976.600000023842","img/question_1_6.jpeg","2","mat_06","3","1","1","5976.600000023842","","","","","","","","","","","","","","","","","","","","",""
"","","","","","html-keyboard-response","16","376432","0.0-2.0-2.0-0.6","59c86f966a287600011c393e","B2","batch2","spm_show_trial_num","null","<p class=block-text>Trial 7 out of 60</p>","null","","","","","","","","","","","","","","","","","","","","","","","","","",""
"","","","","","image-button-response","17","380398","0.0-2.0-2.0-1.6","59c86f966a287600011c393e","B2","batch2","spm_respsonse","3958.7000000178814","img/question_1_7.jpeg","2","mat_07","6","0","0","3958.7000000178814","","","","","","","","","","","","","","","","","","","","",""
"","","","","","html-keyboard-response","18","381465","0.0-2.0-2.0-0.7","59c86f966a287600011c393e","B2","batch2","spm_show_trial_num","null","<p class=block-text>Trial 8 out of 60</p>","null","","","","","","","","","","","","","","","","","","","","","","","","","",""
"","","","","","image-button-response","19","408709","0.0-2.0-2.0-1.7","59c86f966a287600011c393e","B2","batch2","spm_respsonse","27239.600000023842","img/question_1_8.jpeg","1","mat_08","2","1","1","27239.600000023842","","","","","","","","","","","","","","","","","","","","",""
"","","","","","html-keyboard-response","20","409768","0.0-2.0-2.0-0.8","59c86f966a287600011c393e","B2","batch2","spm_show_trial_num","null","<p class=block-text>Trial 9 out of 60</p>","null","","","","","","","","","","","","","","","","","","","","","","","","","",""
"","","","","","image-button-response","21","458257","0.0-2.0-2.0-1.8","59c86f966a287600011c393e","B2","batch2","spm_respsonse","48483.69999998808","img/question_1_9.jpeg","0","mat_09","1","1","1","48483.69999998808","","","","","","","","","","","","","","","","","","","","",""
"","","","","","html-keyboard-response","22","459320","0.0-2.0-2.0-0.9","59c86f966a287600011c393e","B2","batch2","spm_show_trial_num","null","<p class=block-text>Trial 10 out of 60</p>","null","","","","","","","","","","","","","","","","","","","","","","","","","",""
"","","","","","image-button-response","23","484748","0.0-2.0-2.0-1.9","59c86f966a287600011c393e","B2","batch2","spm_respsonse","25415","img/question_1_10.jpeg","2","mat_10","3","1","1","25415","","","","","","","","","","","","","","","","","","","","",""
"","","","","","html-keyboard-response","24","485808","0.0-2.0-2.0-0.10","59c86f966a287600011c393e","B2","batch2","spm_show_trial_num","null","<p class=block-text>Trial 11 out of 60</p>","null","","","","","","","","","","","","","","","","","","","","","","","","","",""
"","","","","","image-button-response","25","510812","0.0-2.0-2.0-1.10","59c86f966a287600011c393e","B2","batch2","spm_respsonse","24999.30000001192","img/question_1_11.jpeg","3","mat_11","4","1","1","24999.30000001192","","","","","","","","","","","","","","","","","","","","",""
"","","","","","html-keyboard-response","26","511872","0.0-2.0-2.0-0.11","59c86f966a287600011c393e","B2","batch2","spm_show_trial_num","null","<p class=block-text>Trial 12 out of 60</p>","null","","","","","","","","","","","","","","","","","","","","","","","","","",""
"","","","","","image-button-response","27","538602","0.0-2.0-2.0-1.11","59c86f966a287600011c393e","B2","batch2","spm_respsonse","26724","img/question_1_12.jpeg","4","mat_12","5","1","1","26724","","","","","","","","","","","","","","","","","","","","",""
"","","","","","html-keyboard-response","28","539664","0.0-2.0-2.0-0.12","59c86f966a287600011c393e","B2","batch2","spm_show_trial_num","null","<p class=block-text>Trial 13 out of 60</p>","null","","","","","","","","","","","","","","","","","","","","","","","","","",""
"","","","","","image-button-response","29","545996","0.0-2.0-2.0-1.12","59c86f966a287600011c393e","B2","batch2","spm_respsonse","6326.299999982119","img/question_2_1.jpeg","1","mat_13","2","1","1","6326.299999982119","","","","","","","","","","","","","","","","","","","","",""
"","","","","","html-keyboard-response","30","547056","0.0-2.0-2.0-0.13","59c86f966a287600011c393e","B2","batch2","spm_show_trial_num","null","<p class=block-text>Trial 14 out of 60</p>","null","","","","","","","","","","","","","","","","","","","","","","","","","",""
"","","","","","image-button-response","31","559435","0.0-2.0-2.0-1.13","59c86f966a287600011c393e","B2","batch2","spm_respsonse","12373.700000017881","img/question_2_2.jpeg","5","mat_14","6","1","1","12373.700000017881","","","","","","","","","","","","","","","","","","","","",""
"","","","","","html-keyboard-response","32","560496","0.0-2.0-2.0-0.14","59c86f966a287600011c393e","B2","batch2","spm_show_trial_num","null","<p class=block-text>Trial 15 out of 60</p>","null","","","","","","","","","","","","","","","","","","","","","","","","","",""
"","","","","","image-button-response","33","566143","0.0-2.0-2.0-1.14","59c86f966a287600011c393e","B2","batch2","spm_respsonse","5641.899999976158","img/question_2_3.jpeg","0","mat_15","1","1","1","5641.899999976158","","","","","","","","","","","","","","","","","","","","",""
"","","","","","html-keyboard-response","34","567208","0.0-2.0-2.0-0.15","59c86f966a287600011c393e","B2","batch2","spm_show_trial_num","null","<p class=block-text>Trial 16 out of 60</p>","null","","","","","","","","","","","","","","","","","","","","","","","","","",""
"","","","","","image-button-response","35","573328","0.0-2.0-2.0-1.15","59c86f966a287600011c393e","B2","batch2","spm_respsonse","6113.0999999940395","img/question_2_4.jpeg","1","mat_16","2","1","1","6113.0999999940395","","","","","","","","","","","","","","","","","","","","",""
"","","","","","html-keyboard-response","36","574392","0.0-2.0-2.0-0.16","59c86f966a287600011c393e","B2","batch2","spm_show_trial_num","null","<p class=block-text>Trial 17 out of 60</p>","null","","","","","","","","","","","","","","","","","","","","","","","","","",""
"","","","","","image-button-response","37","584151","0.0-2.0-2.0-1.16","59c86f966a287600011c393e","B2","batch2","spm_respsonse","9754.90000000596","img/question_2_5.jpeg","0","mat_17","1","1","1","9754.90000000596","","","","","","","","","","","","","","","","","","","","",""
"","","","","","html-keyboard-response","38","585216","0.0-2.0-2.0-0.17","59c86f966a287600011c393e","B2","batch2","spm_show_trial_num","null","<p class=block-text>Trial 18 out of 60</p>","null","","","","","","","","","","","","","","","","","","","","","","","","","",""
"","","","","","image-button-response","39","597904","0.0-2.0-2.0-1.17","59c86f966a287600011c393e","B2","batch2","spm_respsonse","12683","img/question_2_6.jpeg","2","mat_18","3","1","1","12683","","","","","","","","","","","","","","","","","","","","",""
"","","","","","html-keyboard-response","40","598968","0.0-2.0-2.0-0.18","59c86f966a287600011c393e","B2","batch2","spm_show_trial_num","null","<p class=block-text>Trial 19 out of 60</p>","null","","","","","","","","","","","","","","","","","","","","","","","","","",""
"","","","","","image-button-response","41","609572","0.0-2.0-2.0-1.18","59c86f966a287600011c393e","B2","batch2","spm_respsonse","10598.40000000596","img/question_2_7.jpeg","4","mat_19","5","1","1","10598.40000000596","","","","","","","","","","","","","","","","","","","","",""
"","","","","","html-keyboard-response","42","610633","0.0-2.0-2.0-0.19","59c86f966a287600011c393e","B2","batch2","spm_show_trial_num","null","<p class=block-text>Trial 20 out of 60</p>","null","","","","","","","","","","","","","","","","","","","","","","","","","",""
"","","","","","image-button-response","43","625649","0.0-2.0-2.0-1.19","59c86f966a287600011c393e","B2","batch2","spm_respsonse","15011.59999999404","img/question_2_8.jpeg","5","mat_20","6","1","1","15011.59999999404","","","","","","","","","","","","","","","","","","","","",""
"","","","","","html-keyboard-response","44","626712","0.0-2.0-2.0-0.20","59c86f966a287600011c393e","B2","batch2","spm_show_trial_num","null","<p class=block-text>Trial 21 out of 60</p>","null","","","","","","","","","","","","","","","","","","","","","","","","","",""
"","","","","","image-button-response","45","656119","0.0-2.0-2.0-1.20","59c86f966a287600011c393e","B2","batch2","spm_respsonse","29402.29999998212","img/question_2_9.jpeg","3","mat_21","4","1","1","29402.29999998212","","","","","","","","","","","","","","","","","","","","",""
"","","","","","html-keyboard-response","46","657184","0.0-2.0-2.0-0.21","59c86f966a287600011c393e","B2","batch2","spm_show_trial_num","null","<p class=block-text>Trial 22 out of 60</p>","null","","","","","","","","","","","","","","","","","","","","","","","","","",""
"","","","","","image-button-response","47","672370","0.0-2.0-2.0-1.21","59c86f966a287600011c393e","B2","batch2","spm_respsonse","15180.5","img/question_2_10.jpeg","2","mat_22","3","1","1","15180.5","","","","","","","","","","","","","","","","","","","","",""
"","","","","","html-keyboard-response","48","673432","0.0-2.0-2.0-0.22","59c86f966a287600011c393e","B2","batch2","spm_show_trial_num","null","<p class=block-text>Trial 23 out of 60</p>","null","","","","","","","","","","","","","","","","","","","","","","","","","",""
"","","","","","image-button-response","49","682376","0.0-2.0-2.0-1.22","59c86f966a287600011c393e","B2","batch2","spm_respsonse","8935.199999988079","img/question_2_11.jpeg","3","mat_23","4","1","1","8935.199999988079","","","","","","","","","","","","","","","","","","","","",""
"","","","","","html-keyboard-response","50","683439","0.0-2.0-2.0-0.23","59c86f966a287600011c393e","B2","batch2","spm_show_trial_num","null","<p class=block-text>Trial 24 out of 60</p>","null","","","","","","","","","","","","","","","","","","","","","","","","","",""
"","","","","","image-button-response","51","708704","0.0-2.0-2.0-1.23","59c86f966a287600011c393e","B2","batch2","spm_respsonse","25258.70000001788","img/question_2_12.jpeg","4","mat_24","5","1","1","25258.70000001788","","","","","","","","","","","","","","","","","","","","",""
"","","","","","html-button-response","52","711389","0.0-2.0-3.0","59c86f966a287600011c393e","B2","batch2","attention_check","2423.699999988079","<p class = block-text>Attention check: Please choose 1<br></p>","0","","","true","","","","","","","","","","","","","","","","","","","","","","",""
"","","","","","html-keyboard-response","53","712192","0.0-2.0-4.0-0.0","59c86f966a287600011c393e","B2","batch2","spm_show_trial_num","null","<p class=block-text>Trial 25 out of 60</p>","null","","","","","","","","","","","","","","","","","","","","","","","","","",""
"","","","","","image-button-response","54","727289","0.0-2.0-4.0-1.0","59c86f966a287600011c393e","B2","batch2","spm_respsonse","15091.199999988079","img/question_3_1.jpeg","7","mat_25","8","1","1","15091.199999988079","","","","","","","","","","","","","","","","","","","","",""
"","","","","","html-keyboard-response","55","728352","0.0-2.0-4.0-0.1","59c86f966a287600011c393e","B2","batch2","spm_show_trial_num","null","<p class=block-text>Trial 26 out of 60</p>","null","","","","","","","","","","","","","","","","","","","","","","","","","",""
"","","","","","image-button-response","56","752618","0.0-2.0-4.0-1.1","59c86f966a287600011c393e","B2","batch2","spm_respsonse","24260.80000001192","img/question_3_2.jpeg","1","mat_26","2","1","1","24260.80000001192","","","","","","","","","","","","","","","","","","","","",""
"","","","","","html-keyboard-response","57","753680","0.0-2.0-4.0-0.2","59c86f966a287600011c393e","B2","batch2","spm_show_trial_num","null","<p class=block-text>Trial 27 out of 60</p>","null","","","","","","","","","","","","","","","","","","","","","","","","","",""
"","","","","","image-button-response","58","773832","0.0-2.0-4.0-1.2","59c86f966a287600011c393e","B2","batch2","spm_respsonse","20145.5","img/question_3_3.jpeg","2","mat_27","3","1","1","20145.5","","","","","","","","","","","","","","","","","","","","",""
"","","","","","html-keyboard-response","59","774896","0.0-2.0-4.0-0.3","59c86f966a287600011c393e","B2","batch2","spm_show_trial_num","null","<p class=block-text>Trial 28 out of 60</p>","null","","","","","","","","","","","","","","","","","","","","","","","","","",""
"","","","","","image-button-response","60","801008","0.0-2.0-4.0-1.3","59c86f966a287600011c393e","B2","batch2","spm_respsonse","26106.29999998212","img/question_3_4.jpeg","7","mat_28","8","1","1","26106.29999998212","","","","","","","","","","","","","","","","","","","","",""
"","","","","","html-keyboard-response","61","802072","0.0-2.0-4.0-0.4","59c86f966a287600011c393e","B2","batch2","spm_show_trial_num","null","<p class=block-text>Trial 29 out of 60</p>","null","","","","","","","","","","","","","","","","","","","","","","","","","",""
"","","","","","image-button-response","62","821526","0.0-2.0-4.0-1.4","59c86f966a287600011c393e","B2","batch2","spm_respsonse","19448.30000001192","img/question_3_5.jpeg","6","mat_29","7","1","1","19448.30000001192","","","","","","","","","","","","","","","","","","","","",""
"","","","","","html-keyboard-response","63","822592","0.0-2.0-4.0-0.5","59c86f966a287600011c393e","B2","batch2","spm_show_trial_num","null","<p class=block-text>Trial 30 out of 60</p>","null","","","","","","","","","","","","","","","","","","","","","","","","","",""
"","","","","","image-button-response","64","838522","0.0-2.0-4.0-1.5","59c86f966a287600011c393e","B2","batch2","spm_respsonse","15924.5","img/question_3_6.jpeg","3","mat_30","4","1","1","15924.5","","","","","","","","","","","","","","","","","","","","",""
"","","","","","html-keyboard-response","65","839582","0.0-2.0-4.0-0.6","59c86f966a287600011c393e","B2","batch2","spm_show_trial_num","null","<p class=block-text>Trial 31 out of 60</p>","null","","","","","","","","","","","","","","","","","","","","","","","","","",""
"","","","","","image-button-response","66","854606","0.0-2.0-4.0-1.6","59c86f966a287600011c393e","B2","batch2","spm_respsonse","15015.5","img/question_3_7.jpeg","4","mat_31","5","1","1","15015.5","","","","","","","","","","","","","","","","","","","","",""
"","","","","","html-keyboard-response","67","855672","0.0-2.0-4.0-0.7","59c86f966a287600011c393e","B2","batch2","spm_show_trial_num","null","<p class=block-text>Trial 32 out of 60</p>","null","","","","","","","","","","","","","","","","","","","","","","","","","",""
"","","","","","image-button-response","68","905374","0.0-2.0-4.0-1.7","59c86f966a287600011c393e","B2","batch2","spm_respsonse","49697.29999998212","img/question_3_8.jpeg","0","mat_32","1","1","1","49697.29999998212","","","","","","","","","","","","","","","","","","","","",""
"","","","","","html-keyboard-response","69","906440","0.0-2.0-4.0-0.8","59c86f966a287600011c393e","B2","batch2","spm_show_trial_num","null","<p class=block-text>Trial 33 out of 60</p>","null","","","","","","","","","","","","","","","","","","","","","","","","","",""
"","","","","","image-button-response","70","932435","0.0-2.0-4.0-1.8","59c86f966a287600011c393e","B2","batch2","spm_respsonse","25990.69999998808","img/question_3_9.jpeg","6","mat_33","7","1","1","25990.69999998808","","","","","","","","","","","","","","","","","","","","",""
"","","","","","html-keyboard-response","71","933496","0.0-2.0-4.0-0.9","59c86f966a287600011c393e","B2","batch2","spm_show_trial_num","null","<p class=block-text>Trial 34 out of 60</p>","null","","","","","","","","","","","","","","","","","","","","","","","","","",""
"","","","","","image-button-response","72","1013963","0.0-2.0-4.0-1.9","59c86f966a287600011c393e","B2","batch2","spm_respsonse","80461.09999999404","img/question_3_10.jpeg","5","mat_34","6","1","1","80461.09999999404","","","","","","","","","","","","","","","","","","","","",""
"","","","","","html-keyboard-response","73","1015024","0.0-2.0-4.0-0.10","59c86f966a287600011c393e","B2","batch2","spm_show_trial_num","null","<p class=block-text>Trial 35 out of 60</p>","null","","","","","","","","","","","","","","","","","","","","","","","","","",""
"","","","","","image-button-response","74","1032884","0.0-2.0-4.0-1.10","59c86f966a287600011c393e","B2","batch2","spm_respsonse","17853.09999999404","img/question_3_11.jpeg","4","mat_35","1","0","0","17853.09999999404","","","","","","","","","","","","","","","","","","","","",""
"","","","","","html-keyboard-response","75","1033952","0.0-2.0-4.0-0.11","59c86f966a287600011c393e","B2","batch2","spm_show_trial_num","null","<p class=block-text>Trial 36 out of 60</p>","null","","","","","","","","","","","","","","","","","","","","","","","","","",""
"","","","","","image-button-response","76","1086885","0.0-2.0-4.0-1.11","59c86f966a287600011c393e","B2","batch2","spm_respsonse","52928","img/question_3_12.jpeg","3","mat_36","2","0","0","52928","","","","","","","","","","","","","","","","","","","","",""
"","","","","","html-keyboard-response","77","1087948","0.0-2.0-4.0-0.12","59c86f966a287600011c393e","B2","batch2","spm_show_trial_num","null","<p class=block-text>Trial 37 out of 60</p>","null","","","","","","","","","","","","","","","","","","","","","","","","","",""
"","","","","","image-button-response","78","1095947","0.0-2.0-4.0-1.12","59c86f966a287600011c393e","B2","batch2","spm_respsonse","7994.4000000059605","img/question_4_1.jpeg","2","mat_37","3","1","1","7994.4000000059605","","","","","","","","","","","","","","","","","","","","",""
"","","","","","html-keyboard-response","79","1097006","0.0-2.0-4.0-0.13","59c86f966a287600011c393e","B2","batch2","spm_show_trial_num","null","<p class=block-text>Trial 38 out of 60</p>","null","","","","","","","","","","","","","","","","","","","","","","","","","",""
"","","","","","image-button-response","80","1106806","0.0-2.0-4.0-1.13","59c86f966a287600011c393e","B2","batch2","spm_respsonse","9794.90000000596","img/question_4_2.jpeg","3","mat_38","4","1","1","9794.90000000596","","","","","","","","","","","","","","","","","","","","",""
"","","","","","html-keyboard-response","81","1107872","0.0-2.0-4.0-0.14","59c86f966a287600011c393e","B2","batch2","spm_show_trial_num","null","<p class=block-text>Trial 39 out of 60</p>","null","","","","","","","","","","","","","","","","","","","","","","","","","",""
"","","","","","image-button-response","82","1123076","0.0-2.0-4.0-1.14","59c86f966a287600011c393e","B2","batch2","spm_respsonse","15198.5","img/question_4_3.jpeg","2","mat_39","3","1","1","15198.5","","","","","","","","","","","","","","","","","","","","",""
"","","","","","html-keyboard-response","83","1124132","0.0-2.0-4.0-0.15","59c86f966a287600011c393e","B2","batch2","spm_show_trial_num","null","<p class=block-text>Trial 40 out of 60</p>","null","","","","","","","","","","","","","","","","","","","","","","","","","",""
"","","","","","image-button-response","84","1152151","0.0-2.0-4.0-1.15","59c86f966a287600011c393e","B2","batch2","spm_respsonse","28014.600000023842","img/question_4_4.jpeg","6","mat_40","7","1","1","28014.600000023842","","","","","","","","","","","","","","","","","","","","",""
"","","","","","html-keyboard-response","85","1153216","0.0-2.0-4.0-0.16","59c86f966a287600011c393e","B2","batch2","spm_show_trial_num","null","<p class=block-text>Trial 41 out of 60</p>","null","","","","","","","","","","","","","","","","","","","","","","","","","",""
"","","","","","image-button-response","86","1184019","0.0-2.0-4.0-1.16","59c86f966a287600011c393e","B2","batch2","spm_respsonse","30798.80000001192","img/question_4_5.jpeg","7","mat_41","8","1","1","30798.80000001192","","","","","","","","","","","","","","","","","","","","",""
"","","","","","html-keyboard-response","87","1185079","0.0-2.0-4.0-0.17","59c86f966a287600011c393e","B2","batch2","spm_show_trial_num","null","<p class=block-text>Trial 42 out of 60</p>","null","","","","","","","","","","","","","","","","","","","","","","","","","",""
"","","","","","image-button-response","88","1212796","0.0-2.0-4.0-1.17","59c86f966a287600011c393e","B2","batch2","spm_respsonse","27711.5","img/question_4_6.jpeg","5","mat_42","6","1","1","27711.5","","","","","","","","","","","","","","","","","","","","",""
"","","","","","html-keyboard-response","89","1213856","0.0-2.0-4.0-0.18","59c86f966a287600011c393e","B2","batch2","spm_show_trial_num","null","<p class=block-text>Trial 43 out of 60</p>","null","","","","","","","","","","","","","","","","","","","","","","","","","",""
"","","","","","image-button-response","90","1238056","0.0-2.0-4.0-1.18","59c86f966a287600011c393e","B2","batch2","spm_respsonse","24194.30000001192","img/question_4_7.jpeg","4","mat_43","5","1","1","24194.30000001192","","","","","","","","","","","","","","","","","","","","",""
"","","","","","html-keyboard-response","91","1239115","0.0-2.0-4.0-0.19","59c86f966a287600011c393e","B2","batch2","spm_show_trial_num","null","<p class=block-text>Trial 44 out of 60</p>","null","","","","","","","","","","","","","","","","","","","","","","","","","",""
"","","","","","image-button-response","92","1283082","0.0-2.0-4.0-1.19","59c86f966a287600011c393e","B2","batch2","spm_respsonse","43962.29999998212","img/question_4_8.jpeg","3","mat_44","4","1","1","43962.29999998212","","","","","","","","","","","","","","","","","","","","",""
"","","","","","html-keyboard-response","93","1284144","0.0-2.0-4.0-0.20","59c86f966a287600011c393e","B2","batch2","spm_show_trial_num","null","<p class=block-text>Trial 45 out of 60</p>","null","","","","","","","","","","","","","","","","","","","","","","","","","",""
"","","","","","image-button-response","94","1320029","0.0-2.0-4.0-1.20","59c86f966a287600011c393e","B2","batch2","spm_respsonse","35879.70000001788","img/question_4_9.jpeg","0","mat_45","1","1","1","35879.70000001788","","","","","","","","","","","","","","","","","","","","",""
"","","","","","html-keyboard-response","95","1321088","0.0-2.0-4.0-0.21","59c86f966a287600011c393e","B2","batch2","spm_show_trial_num","null","<p class=block-text>Trial 46 out of 60</p>","null","","","","","","","","","","","","","","","","","","","","","","","","","",""
"","","","","","image-button-response","96","1359363","0.0-2.0-4.0-1.21","59c86f966a287600011c393e","B2","batch2","spm_respsonse","38258.40000000596","img/question_4_10.jpeg","1","mat_46","2","1","1","38258.40000000596","","","","","","","","","","","","","","","","","","","","",""
"","","","","","html-keyboard-response","97","1360425","0.0-2.0-4.0-0.22","59c86f966a287600011c393e","B2","batch2","spm_show_trial_num","null","<p class=block-text>Trial 47 out of 60</p>","null","","","","","","","","","","","","","","","","","","","","","","","","","",""
"","","","","","image-button-response","98","1398846","0.0-2.0-4.0-1.22","59c86f966a287600011c393e","B2","batch2","spm_respsonse","38414.70000001788","img/question_4_11.jpeg","4","mat_47","5","1","1","38414.70000001788","","","","","","","","","","","","","","","","","","","","",""
"","","","","","html-keyboard-response","99","1399912","0.0-2.0-4.0-0.23","59c86f966a287600011c393e","B2","batch2","spm_show_trial_num","null","<p class=block-text>Trial 48 out of 60</p>","null","","","","","","","","","","","","","","","","","","","","","","","","","",""
"","","","","","image-button-response","100","1455407","0.0-2.0-4.0-1.23","59c86f966a287600011c393e","B2","batch2","spm_respsonse","55489.5","img/question_4_12.jpeg","4","mat_48","6","0","0","55489.5","","","","","","","","","","","","","","","","","","","","",""
"","","","","","html-keyboard-response","101","1456472","0.0-2.0-4.0-0.24","59c86f966a287600011c393e","B2","batch2","spm_show_trial_num","null","<p class=block-text>Trial 49 out of 60</p>","null","","","","","","","","","","","","","","","","","","","","","","","","","",""
"","","","","","image-button-response","102","1477602","0.0-2.0-4.0-1.24","59c86f966a287600011c393e","B2","batch2","spm_respsonse","21123.40000000596","img/question_5_1.jpeg","6","mat_49","7","1","1","21123.40000000596","","","","","","","","","","","","","","","","","","","","",""
"","","","","","html-keyboard-response","103","1478664","0.0-2.0-4.0-0.25","59c86f966a287600011c393e","B2","batch2","spm_show_trial_num","null","<p class=block-text>Trial 50 out of 60</p>","null","","","","","","","","","","","","","","","","","","","","","","","","","",""
"","","","","","image-button-response","104","1542859","0.0-2.0-4.0-1.25","59c86f966a287600011c393e","B2","batch2","spm_respsonse","64190","img/question_5_2.jpeg","5","mat_50","6","1","1","64190","","","","","","","","","","","","","","","","","","","","",""
"","","","","","html-keyboard-response","105","1543920","0.0-2.0-4.0-0.26","59c86f966a287600011c393e","B2","batch2","spm_show_trial_num","null","<p class=block-text>Trial 51 out of 60</p>","null","","","","","","","","","","","","","","","","","","","","","","","","","",""
"","","","","","image-button-response","106","1584865","0.0-2.0-4.0-1.26","59c86f966a287600011c393e","B2","batch2","spm_respsonse","40933.70000001788","img/question_5_3.jpeg","7","mat_51","8","1","1","40933.70000001788","","","","","","","","","","","","","","","","","","","","",""
"","","","","","html-keyboard-response","107","1585928","0.0-2.0-4.0-0.27","59c86f966a287600011c393e","B2","batch2","spm_show_trial_num","null","<p class=block-text>Trial 52 out of 60</p>","null","","","","","","","","","","","","","","","","","","","","","","","","","",""
"","","","","","image-button-response","108","1611773","0.0-2.0-4.0-1.27","59c86f966a287600011c393e","B2","batch2","spm_respsonse","25805.69999998808","img/question_5_4.jpeg","1","mat_52","2","1","1","25805.69999998808","","","","","","","","","","","","","","","","","","","","",""
"","","","","","html-keyboard-response","109","1612838","0.0-2.0-4.0-0.28","59c86f966a287600011c393e","B2","batch2","spm_show_trial_num","null","<p class=block-text>Trial 53 out of 60</p>","null","","","","","","","","","","","","","","","","","","","","","","","","","",""
"","","","","","image-button-response","110","1722547","0.0-2.0-4.0-1.28","59c86f966a287600011c393e","B2","batch2","spm_respsonse","109704.30000001192","img/question_5_5.jpeg","0","mat_53","1","1","1","109704.30000001192","","","","","","","","","","","","","","","","","","","","",""
"","","","","","html-keyboard-response","111","1723608","0.0-2.0-4.0-0.29","59c86f966a287600011c393e","B2","batch2","spm_show_trial_num","null","<p class=block-text>Trial 54 out of 60</p>","null","","","","","","","","","","","","","","","","","","","","","","","","","",""
"","","","","","image-button-response","112","1785372","0.0-2.0-4.0-1.29","59c86f966a287600011c393e","B2","batch2","spm_respsonse","61752.09999999404","img/question_5_6.jpeg","4","mat_54","5","1","1","61752.09999999404","","","","","","","","","","","","","","","","","","","","",""
"","","","","","html-keyboard-response","113","1786432","0.0-2.0-4.0-0.30","59c86f966a287600011c393e","B2","batch2","spm_show_trial_num","null","<p class=block-text>Trial 55 out of 60</p>","null","","","","","","","","","","","","","","","","","","","","","","","","","",""
"","","","","","image-button-response","114","1940086","0.0-2.0-4.0-1.30","59c86f966a287600011c393e","B2","batch2","spm_respsonse","153641","img/question_5_7.jpeg","0","mat_55","1","1","1","153641","","","","","","","","","","","","","","","","","","","","",""
"","","","","","html-keyboard-response","115","1941152","0.0-2.0-4.0-0.31","59c86f966a287600011c393e","B2","batch2","spm_show_trial_num","null","<p class=block-text>Trial 56 out of 60</p>","null","","","","","","","","","","","","","","","","","","","","","","","","","",""
"","","","","","image-button-response","116","2030856","0.0-2.0-4.0-1.31","59c86f966a287600011c393e","B2","batch2","spm_respsonse","89669.69999998808","img/question_5_8.jpeg","5","mat_56","6","1","1","89669.69999998808","","","","","","","","","","","","","","","","","","","","",""
"","","","","","html-keyboard-response","117","2031922","0.0-2.0-4.0-0.32","59c86f966a287600011c393e","B2","batch2","spm_show_trial_num","null","<p class=block-text>Trial 57 out of 60</p>","null","","","","","","","","","","","","","","","","","","","","","","","","","",""
"","","","","","image-button-response","118","2085270","0.0-2.0-4.0-1.32","59c86f966a287600011c393e","B2","batch2","spm_respsonse","53314.40000000596","img/question_5_9.jpeg","2","mat_57","3","1","1","53314.40000000596","","","","","","","","","","","","","","","","","","","","",""
"","","","","","html-keyboard-response","119","2086332","0.0-2.0-4.0-0.33","59c86f966a287600011c393e","B2","batch2","spm_show_trial_num","null","<p class=block-text>Trial 58 out of 60</p>","null","","","","","","","","","","","","","","","","","","","","","","","","","",""
"","","","","","image-button-response","120","2242974","0.0-2.0-4.0-1.33","59c86f966a287600011c393e","B2","batch2","spm_respsonse","156637.60000002384","img/question_5_10.jpeg","1","mat_58","2","1","1","156637.60000002384","","","","","","","","","","","","","","","","","","","","",""
"","","","","","html-keyboard-response","121","2244035","0.0-2.0-4.0-0.34","59c86f966a287600011c393e","B2","batch2","spm_show_trial_num","null","<p class=block-text>Trial 59 out of 60</p>","null","","","","","","","","","","","","","","","","","","","","","","","","","",""
"","","","","","image-button-response","122","2667577","0.0-2.0-4.0-1.34","59c86f966a287600011c393e","B2","batch2","spm_respsonse","423534.40000000596","img/question_5_11.jpeg","2","mat_59","4","0","0","423534.40000000596","","","","","","","","","","","","","","","","","","","","",""
"","","","","","html-keyboard-response","123","2668640","0.0-2.0-4.0-0.35","59c86f966a287600011c393e","B2","batch2","spm_show_trial_num","null","<p class=block-text>Trial 60 out of 60</p>","null","","","","","","","","","","","","","","","","","","","","","","","","","",""
"","","","","","image-button-response","124","2866685","0.0-2.0-4.0-1.35","59c86f966a287600011c393e","B2","batch2","spm_respsonse","198024.29999998212","img/question_5_12.jpeg","4","mat_60","5","1","1","198024.29999998212","","","","","","","","","","","","","","","","","","","","",""
"","","","","","html-button-response","125","3022681","0.0-2.0-5.0","59c86f966a287600011c393e","B2","batch2","spm_goodbye","155741.59999999404","<p class= block-text>This concludes the Standard Progressive Matrix game. Thank you for your responses!<br> When you are ready, click the button continue</p>","0","","","","","","","","","","","","","","","","","","","","","","","","","",""
"true","","","","","fullscreen","126","3054912","0.0-3.0-0.0","59c86f966a287600011c393e","B2","batch2","","","","","","","","","","","","","","","","","","","","","","","","","","","","","",""
"","","","","","instructions","127","3153191","0.0-3.0-1.0-0.0-0.0","59c86f966a287600011c393e","B2","batch2","tol-instructions","98271.20000001788","","","","","","","","[{""page_index"":0,""viewing_time"":26159.09999999404},{""page_index"":1,""viewing_time"":7370.300000011921},{""page_index"":2,""viewing_time"":12076.59999999404},{""page_index"":3,""viewing_time"":11545.59999999404},{""page_index"":4,""viewing_time"":18154.80000001192},{""page_index"":5,""viewing_time"":15974.40000000596},{""page_index"":6,""viewing_time"":6989.199999988079}]","","","","","","","","","","","","","","","","","","","",""
"","","","","","html-button-response","128","3154870","0.0-3.0-1.0-1.0-0.0","59c86f966a287600011c393e","B2","batch2","tol_enter_quiz","1677.0999999940395","<p class=block-text> Let's answer a few questions <br>","0","","","","","","","","","","","","","","","","","","","","","","","","","",""
"","","","","","html-button-response","129","3159733","0.0-3.0-1.0-1.0-1.0","59c86f966a287600011c393e","B2","batch2","tol_quiz","4860.5999999940395","<p class = block-text>True or False: You can only move the ball on top of a peg. <br></p>","0","","","true","","","","","","","","","","","","","","","","","","","","","","",""
"","","","","","html-button-response","130","3161744","0.0-3.0-1.0-1.0-2.0","59c86f966a287600011c393e","B2","batch2","tol_quiz_feedback","2007.4000000059605","<p class = block-text>Correct! You can only move the ball on top of a peg.</p>","0","","","","","","","","","","","","","","","","","","","","","","","","","",""
"","","","","","html-button-response","131","3166183","0.0-3.0-1.0-1.0-3.0","59c86f966a287600011c393e","B2","batch2","tol_quiz","4436","<p class = block-text>True or False: You should try to match your board with the target board with fewest moves possible. <br></p>","0","","","true","","","","","","","","","","","","","","","","","","","","","","",""
"","","","","","html-button-response","132","3167568","0.0-3.0-1.0-1.0-4.0","59c86f966a287600011c393e","B2","batch2","tol_quiz_feedback","1382.9000000059605","<p class = block-text>Correct! </p>","0","","","","","","","","","","","","","","","","","","","","","","","","","",""
"","","","","","html-button-response","133","3170839","0.0-3.0-2.0","59c86f966a287600011c393e","B2","batch2","","3266","<p class=block-text> Now that you've understood the game, let's practice a few easier examples before we start!<br> <br>","0","","","","","","","","","","","","","","","","","","","","","","","","","",""
"","","","","","single-stim-button","134","3174915","0.0-3.0-3.0-0.0","59c86f966a287600011c393e","B2","batch2","tol_practice","4068","","","","","","","","","tol_peg_2","4068","4068","0","[[1,2,0],[0,0],[0]]","1","[[1,2,0],[0,0],[3]]","practice","4068","","","","","","","","","","",""
"","","","","","single-stim-button","135","3177183","0.0-3.0-3.0-1.0","59c86f966a287600011c393e","B2","batch2","tol_practice","2265","","","","","","","","","tol_peg_3","2265","2265","0","[[1,2,0],[0,0],[3]]","1","[[1,2,0],[0,0],[3]]","practice","2265","","","","","","","","","","",""
"","","","","","poldrack-single-stim","136","3178193","0.0-3.0-4.0","59c86f966a287600011c393e","B2","batch2","tol_feedback","-1","","","","","true","","","","","1000","1000","500","","","","","","-1","none","true","","0","","","","","",""
"","","","","","single-stim-button","137","3188147","0.0-3.0-5.0-0.0","59c86f966a287600011c393e","B2","batch2","tol_practice","9952","","","","","","","","","tol_peg_1","9952","9952","0","[[1,0,0],[3,0],[0]]","2","[[0,0,0],[3,1],[2]]","practice","9952","","","","","","","","","","",""
"","","","","","single-stim-button","138","3190715","0.0-3.0-5.0-1.0","59c86f966a287600011c393e","B2","batch2","tol_practice","2568","","","","","","","","","tol_peg_3","2568","2568","0","[[1,0,0],[3,0],[2]]","2","[[0,0,0],[3,1],[2]]","practice","2568","","","","","","","","","","",""
"","","","","","single-stim-button","139","3193004","0.0-3.0-5.1-0.1","59c86f966a287600011c393e","B2","batch2","tol_practice","2287","","","","","","","","","tol_peg_1","2287","2287","0","[[0,0,0],[3,0],[2]]","3","[[0,0,0],[3,1],[2]]","practice","2287","","","","","","","","","","",""
"","","","","","single-stim-button","140","3194859","0.0-3.0-5.1-1.1","59c86f966a287600011c393e","B2","batch2","tol_practice","1855","","","","","","","","","tol_peg_2","1855","1855","0","[[0,0,0],[3,1],[2]]","3","[[0,0,0],[3,1],[2]]","practice","1855","","","","","","","","","","",""
"","","","","","poldrack-single-stim","141","3195865","0.0-3.0-6.0","59c86f966a287600011c393e","B2","batch2","tol_feedback","-1","","","","","true","","","","","1000","1000","500","","","","","","-1","none","true","","0","","","","","",""
"","","","","","single-stim-button","142","3202823","0.0-3.0-7.0-0.0","59c86f966a287600011c393e","B2","batch2","tol_practice","6957","","","","","","","","","tol_peg_2","6957","6957","0","[[1,2,0],[0,0],[0]]","4","[[1,0,0],[2,0],[3]]","practice","6957","","","","","","","","","","",""
"","","","","","single-stim-button","143","3204806","0.0-3.0-7.0-1.0","59c86f966a287600011c393e","B2","batch2","tol_practice","1981","","","","","","","","","tol_peg_3","1981","1981","0","[[1,2,0],[0,0],[3]]","4","[[1,0,0],[2,0],[3]]","practice","1981","","","","","","","","","","",""
"","","","","","single-stim-button","144","3207075","0.0-3.0-7.1-0.1","59c86f966a287600011c393e","B2","batch2","tol_practice","2268","","","","","","","","","tol_peg_1","2268","2268","0","[[1,0,0],[0,0],[3]]","5","[[1,0,0],[2,0],[3]]","practice","2268","","","","","","","","","","",""
"","","","","","single-stim-button","145","3208793","0.0-3.0-7.1-1.1","59c86f966a287600011c393e","B2","batch2","tol_practice","1716","","","","","","","","","tol_peg_2","1716","1716","0","[[1,0,0],[2,0],[3]]","5","[[1,0,0],[2,0],[3]]","practice","1716","","","","","","","","","","",""
"","","","","","poldrack-single-stim","146","3209801","0.0-3.0-8.0","59c86f966a287600011c393e","B2","batch2","tol_feedback","-1","","","","","true","","","","","1000","1000","500","","","","","","-1","none","true","","0","","","","","",""
"","","","","","html-button-response","147","3217608","0.0-3.0-9.0","59c86f966a287600011c393e","B2","batch2","tol_instruction","7804.699999988079","<div class = centerbox><p class = center-block-text>Great job! You are done with practice trials<br>You are about to start official trials.<br> <br> Problem <strong>1</strong> out of 25 problems</p></div>","0","","","","","","","","","","","","","","","","","","","","","","","","","",""
"","","","","","single-stim-button","148","3248460","0.0-3.0-10.0-0.0","59c86f966a287600011c393e","B2","batch2","tol_tohand","29842","","","","","","","","","tol_peg_2","29842","29842","0","[[1,2,0],[0,0],[0]]","1","[[1,3,0],[2,0],[0]]","0","0","","","","","","3","","","","",""
"","","","","","single-stim-button","149","3251023","0.0-3.0-10.0-1.0","59c86f966a287600011c393e","B2","batch2","tol_toboard","2561","","","","","","","","","tol_peg_3","2561","2561","0","[[1,2,0],[0,0],[3]]","1","[[1,3,0],[2,0],[0]]","0","0","","","","","","3","","","","",""
"","","","","","single-stim-button","150","3253815","0.0-3.0-10.1-0.1","59c86f966a287600011c393e","B2","batch2","tol_tohand","2790","","","","","","","","","tol_peg_1","2790","2790","0","[[1,0,0],[0,0],[3]]","2","[[1,3,0],[2,0],[0]]","0","0","","","","","","3","","","","",""
"","","","","","single-stim-button","151","3255515","0.0-3.0-10.1-1.1","59c86f966a287600011c393e","B2","batch2","tol_toboard","1699","","","","","","","","","tol_peg_2","1699","1699","0","[[1,0,0],[2,0],[3]]","2","[[1,3,0],[2,0],[0]]","0","0","","","","","","3","","","","",""
"","","","","","single-stim-button","152","3257636","0.0-3.0-10.2-0.2","59c86f966a287600011c393e","B2","batch2","tol_tohand","2119","","","","","","","","","tol_peg_3","2119","2119","0","[[1,0,0],[2,0],[0]]","3","[[1,3,0],[2,0],[0]]","0","0","","","","","","3","","","","",""
"","","","","","single-stim-button","153","3260574","0.0-3.0-10.2-1.2","59c86f966a287600011c393e","B2","batch2","tol_toboard","2938","","","","","","","","","tol_peg_1","2938","2938","0","[[1,3,0],[2,0],[0]]","3","[[1,3,0],[2,0],[0]]","0","0","","","","","","3","","","","",""
"","","","","","poldrack-single-stim","154","3261585","0.0-3.0-11.0","59c86f966a287600011c393e","B2","batch2","tol_feedback","-1","","","","","true","","","","","1000","1000","500","","","","","","-1","none","true","29842","34751","","","","","",""
"","","","","","html-button-response","155","3263885","0.0-3.0-12.0","59c86f966a287600011c393e","B2","batch2","tol_trial_num","2298.0999999940395","<div class = centerbox><p class = center-block-text>problem <strong>2</strong> out of 25 problems</p></div>","0","","","","","","","","","","","","","","","","","","","","","","","","","",""
"","","","","","single-stim-button","156","3274564","0.0-3.0-13.0-0.0","59c86f966a287600011c393e","B2","batch2","tol_tohand","10676","","","","","","","","","tol_peg_2","10676","10676","0","[[1,2,0],[0,0],[0]]","1","[[2,1,3],[0,0],[0]]","1","0","","","","","","5","","","","",""
"","","","","","single-stim-button","157","3276468","0.0-3.0-13.0-1.0","59c86f966a287600011c393e","B2","batch2","tol_toboard","1903","","","","","","","","","tol_peg_3","1903","1903","0","[[1,2,0],[0,0],[3]]","1","[[2,1,3],[0,0],[0]]","1","0","","","","","","5","","","","",""
"","","","","","single-stim-button","158","3332100","0.0-3.0-13.1-0.1","59c86f966a287600011c393e","B2","batch2","tol_tohand","55630","","","","","","","","","tol_peg_1","55630","55630","0","[[1,0,0],[0,0],[3]]","2","[[2,1,3],[0,0],[0]]","1","0","","","","","","5","","","","",""
"","","","","","single-stim-button","159","3369894","0.0-3.0-13.1-1.1","59c86f966a287600011c393e","B2","batch2","tol_toboard","37793","","","","","","","","","tol_peg_2","37793","37793","0","[[1,0,0],[2,0],[3]]","2","[[2,1,3],[0,0],[0]]","1","0","","","","","","5","","","","",""
"","","","","","single-stim-button","160","3378447","0.0-3.0-13.2-0.2","59c86f966a287600011c393e","B2","batch2","tol_tohand","8551","","","","","","","","","tol_peg_3","8551","8551","0","[[1,0,0],[2,0],[0]]","3","[[2,1,3],[0,0],[0]]","1","0","","","","","","5","","","","",""
"","","","","","single-stim-button","161","3391323","0.0-3.0-13.2-1.2","59c86f966a287600011c393e","B2","batch2","tol_toboard","12875","","","","","","","","","tol_peg_2","12875","12875","0","[[1,0,0],[2,3],[0]]","3","[[2,1,3],[0,0],[0]]","1","0","","","","","","5","","","","",""
"","","","","","single-stim-button","162","3416974","0.0-3.0-13.3-0.3","59c86f966a287600011c393e","B2","batch2","tol_tohand","25650","","","","","","","","","tol_peg_2","25650","25650","0","[[1,0,0],[2,0],[0]]","4","[[2,1,3],[0,0],[0]]","1","0","","","","","","5","","","","",""
"","","","","","single-stim-button","163","3418840","0.0-3.0-13.3-1.3","59c86f966a287600011c393e","B2","batch2","tol_toboard","1865","","","","","","","","","tol_peg_1","1865","1865","0","[[1,3,0],[2,0],[0]]","4","[[2,1,3],[0,0],[0]]","1","0","","","","","","5","","","","",""
"","","","","","single-stim-button","164","3420433","0.0-3.0-13.4-0.4","59c86f966a287600011c393e","B2","batch2","tol_tohand","1592","","","","","","","","","tol_peg_2","1592","1592","0","[[1,3,0],[0,0],[0]]","5","[[2,1,3],[0,0],[0]]","1","0","","","","","","5","","","","",""
"","","","","","single-stim-button","165","3422466","0.0-3.0-13.4-1.4","59c86f966a287600011c393e","B2","batch2","tol_toboard","2032","","","","","","","","","tol_peg_3","2032","2032","0","[[1,3,0],[0,0],[2]]","5","[[2,1,3],[0,0],[0]]","1","0","","","","","","5","","","","",""
"","","","","","single-stim-button","166","3429180","0.0-3.0-13.5-0.5","59c86f966a287600011c393e","B2","batch2","tol_tohand","6712","","","","","","","","","tol_peg_1","6712","6712","0","[[1,0,0],[0,0],[2]]","6","[[2,1,3],[0,0],[0]]","1","0","","","","","","5","","","","",""
"","","","","","single-stim-button","167","3434417","0.0-3.0-13.5-1.5","59c86f966a287600011c393e","B2","batch2","tol_toboard","5235","","","","","","","","","tol_peg_2","5235","5235","0","[[1,0,0],[3,0],[2]]","6","[[2,1,3],[0,0],[0]]","1","0","","","","","","5","","","","",""
"","","","","","single-stim-button","168","3436325","0.0-3.0-13.6-0.6","59c86f966a287600011c393e","B2","batch2","tol_tohand","1905","","","","","","","","","tol_peg_1","1905","1905","0","[[0,0,0],[3,0],[2]]","7","[[2,1,3],[0,0],[0]]","1","0","","","","","","5","","","","",""
"","","","","","single-stim-button","169","3438604","0.0-3.0-13.6-1.6","59c86f966a287600011c393e","B2","batch2","tol_toboard","2276","","","","","","","","","tol_peg_2","2276","2276","0","[[0,0,0],[3,1],[2]]","7","[[2,1,3],[0,0],[0]]","1","0","","","","","","5","","","","",""
"","","","","","single-stim-button","170","3440187","0.0-3.0-13.7-0.7","59c86f966a287600011c393e","B2","batch2","tol_tohand","1581","","","","","","","","","tol_peg_3","1581","1581","0","[[0,0,0],[3,1],[0]]","8","[[2,1,3],[0,0],[0]]","1","0","","","","","","5","","","","",""
"","","","","","single-stim-button","171","3443527","0.0-3.0-13.7-1.7","59c86f966a287600011c393e","B2","batch2","tol_toboard","3339","","","","","","","","","tol_peg_1","3339","3339","0","[[2,0,0],[3,1],[0]]","8","[[2,1,3],[0,0],[0]]","1","0","","","","","","5","","","","",""
"","","","","","single-stim-button","172","3446770","0.0-3.0-13.8-0.8","59c86f966a287600011c393e","B2","batch2","tol_tohand","3242","","","","","","","","","tol_peg_2","3242","3242","0","[[2,0,0],[3,0],[0]]","9","[[2,1,3],[0,0],[0]]","1","0","","","","","","5","","","","",""
"","","","","","single-stim-button","173","3447842","0.0-3.0-13.8-1.8","59c86f966a287600011c393e","B2","batch2","tol_toboard","1071","","","","","","","","","tol_peg_1","1071","1071","0","[[2,1,0],[3,0],[0]]","9","[[2,1,3],[0,0],[0]]","1","0","","","","","","5","","","","",""
"","","","","","single-stim-button","174","3449620","0.0-3.0-13.9-0.9","59c86f966a287600011c393e","B2","batch2","tol_tohand","1777","","","","","","","","","tol_peg_2","1777","1777","0","[[2,1,0],[0,0],[0]]","10","[[2,1,3],[0,0],[0]]","1","0","","","","","","5","","","","",""
"","","","","","single-stim-button","175","3451028","0.0-3.0-13.9-1.9","59c86f966a287600011c393e","B2","batch2","tol_toboard","1407","","","","","","","","","tol_peg_1","1407","1407","0","[[2,1,3],[0,0],[0]]","10","[[2,1,3],[0,0],[0]]","1","0","","","","","","5","","","","",""
"","","","","","poldrack-single-stim","176","3452033","0.0-3.0-14.0","59c86f966a287600011c393e","B2","batch2","tol_feedback","-1","","","","","true","","","","","1000","1000","500","","","","","","-1","none","true","10676","117316","","","","","",""
"","","","","","html-button-response","177","3454270","0.0-3.0-15.0","59c86f966a287600011c393e","B2","batch2","tol_trial_num","2235.4000000059605","<div class = centerbox><p class = center-block-text>problem <strong>3</strong> out of 25 problems</p></div>","0","","","","","","","","","","","","","","","","","","","","","","","","","",""
"","","","","","single-stim-button","178","3464392","0.0-3.0-16.0-0.0","59c86f966a287600011c393e","B2","batch2","tol_tohand","10120","","","","","","","","","tol_peg_1","10120","10120","0","[[2,0,0],[0,0],[1]]","1","[[1,2,0],[3,0],[0]]","2","0","","","","","","4","","","","",""
"","","","","","single-stim-button","179","3466798","0.0-3.0-16.0-1.0","59c86f966a287600011c393e","B2","batch2","tol_toboard","2404","","","","","","","","","tol_peg_2","2404","2404","0","[[2,0,0],[3,0],[1]]","1","[[1,2,0],[3,0],[0]]","2","0","","","","","","4","","","","",""
"","","","","","single-stim-button","180","3469776","0.0-3.0-16.1-0.1","59c86f966a287600011c393e","B2","batch2","tol_tohand","2977","","","","","","","","","tol_peg_1","2977","2977","0","[[0,0,0],[3,0],[1]]","2","[[1,2,0],[3,0],[0]]","2","0","","","","","","4","","","","",""
"","","","","","single-stim-button","181","3471760","0.0-3.0-16.1-1.1","59c86f966a287600011c393e","B2","batch2","tol_toboard","1983","","","","","","","","","tol_peg_2","1983","1983","0","[[0,0,0],[3,2],[1]]","2","[[1,2,0],[3,0],[0]]","2","0","","","","","","4","","","","",""
"","","","","","single-stim-button","182","3474070","0.0-3.0-16.2-0.2","59c86f966a287600011c393e","B2","batch2","tol_tohand","2309","","","","","","","","","tol_peg_3","2309","2309","0","[[0,0,0],[3,2],[0]]","3","[[1,2,0],[3,0],[0]]","2","0","","","","","","4","","","","",""
"","","","","","single-stim-button","183","3476117","0.0-3.0-16.2-1.2","59c86f966a287600011c393e","B2","batch2","tol_toboard","2045","","","","","","","","","tol_peg_1","2045","2045","0","[[1,0,0],[3,2],[0]]","3","[[1,2,0],[3,0],[0]]","2","0","","","","","","4","","","","",""
"","","","","","single-stim-button","184","3478819","0.0-3.0-16.3-0.3","59c86f966a287600011c393e","B2","batch2","tol_tohand","2701","","","","","","","","","tol_peg_2","2701","2701","0","[[1,0,0],[3,0],[0]]","4","[[1,2,0],[3,0],[0]]","2","0","","","","","","4","","","","",""
"","","","","","single-stim-button","185","3480892","0.0-3.0-16.3-1.3","59c86f966a287600011c393e","B2","batch2","tol_toboard","2072","","","","","","","","","tol_peg_1","2072","2072","0","[[1,2,0],[3,0],[0]]","4","[[1,2,0],[3,0],[0]]","2","0","","","","","","4","","","","",""
"","","","","","poldrack-single-stim","186","3481897","0.0-3.0-17.0","59c86f966a287600011c393e","B2","batch2","tol_feedback","-1","","","","","true","","","","","1000","1000","500","","","","","","-1","none","true","10120","18107","","","","","",""
"","","","","","html-button-response","187","3483428","0.0-3.0-18.0","59c86f966a287600011c393e","B2","batch2","tol_trial_num","1529.5","<div class = centerbox><p class = center-block-text>problem <strong>4</strong> out of 25 problems</p></div>","0","","","","","","","","","","","","","","","","","","","","","","","","","",""
"","","","","","single-stim-button","188","3496413","0.0-3.0-19.0-0.0","59c86f966a287600011c393e","B2","batch2","tol_tohand","12984","","","","","","","","","tol_peg_2","12984","12984","0","[[3,0,0],[2,0],[0]]","1","[[3,0,0],[1,0],[2]]","3","0","","","","","","3","","","","",""
"","","","","","single-stim-button","189","3500363","0.0-3.0-19.0-1.0","59c86f966a287600011c393e","B2","batch2","tol_toboard","3948","","","","","","","","","tol_peg_1","3948","3948","0","[[3,1,0],[2,0],[0]]","1","[[3,0,0],[1,0],[2]]","3","0","","","","","","3","","","","",""
"","","","","","single-stim-button","190","3502003","0.0-3.0-19.1-0.1","59c86f966a287600011c393e","B2","batch2","tol_tohand","1639","","","","","","","","","tol_peg_2","1639","1639","0","[[3,1,0],[0,0],[0]]","2","[[3,0,0],[1,0],[2]]","3","0","","","","","","3","","","","",""
"","","","","","single-stim-button","191","3503478","0.0-3.0-19.1-1.1","59c86f966a287600011c393e","B2","batch2","tol_toboard","1473","","","","","","","","","tol_peg_3","1473","1473","0","[[3,1,0],[0,0],[2]]","2","[[3,0,0],[1,0],[2]]","3","0","","","","","","3","","","","",""
"","","","","","single-stim-button","192","3505502","0.0-3.0-19.2-0.2","59c86f966a287600011c393e","B2","batch2","tol_tohand","2022","","","","","","","","","tol_peg_1","2022","2022","0","[[3,0,0],[0,0],[2]]","3","[[3,0,0],[1,0],[2]]","3","0","","","","","","3","","","","",""
"","","","","","single-stim-button","193","3507675","0.0-3.0-19.2-1.2","59c86f966a287600011c393e","B2","batch2","tol_toboard","2173","","","","","","","","","tol_peg_2","2173","2173","0","[[3,0,0],[1,0],[2]]","3","[[3,0,0],[1,0],[2]]","3","0","","","","","","3","","","","",""
"","","","","","poldrack-single-stim","194","3508681","0.0-3.0-20.0","59c86f966a287600011c393e","B2","batch2","tol_feedback","-1","","","","","true","","","","","1000","1000","500","","","","","","-1","none","true","12984","16645","","","","","",""
"","","","","","html-button-response","195","3510278","0.0-3.0-21.0","59c86f966a287600011c393e","B2","batch2","tol_trial_num","1595.2999999821186","<div class = centerbox><p class = center-block-text>problem <strong>5</strong> out of 25 problems</p></div>","0","","","","","","","","","","","","","","","","","","","","","","","","","",""
"","","","","","single-stim-button","196","3584253","0.0-3.0-22.0-0.0","59c86f966a287600011c393e","B2","batch2","tol_tohand","73973","","","","","","","","","tol_peg_1","73973","73973","0","[[0,0,0],[2,0],[3]]","1","[[0,0,0],[1,2],[3]]","4","0","","","","","","7","","","","",""
"","","","","","single-stim-button","197","3586313","0.0-3.0-22.0-1.0","59c86f966a287600011c393e","B2","batch2","tol_toboard","2059","","","","","","","","","tol_peg_2","2059","2059","0","[[0,0,0],[2,1],[3]]","1","[[0,0,0],[1,2],[3]]","4","0","","","","","","7","","","","",""
"","","","","","single-stim-button","198","3589106","0.0-3.0-22.1-0.1","59c86f966a287600011c393e","B2","batch2","tol_tohand","2792","","","","","","","","","tol_peg_3","2792","2792","0","[[0,0,0],[2,1],[0]]","2","[[0,0,0],[1,2],[3]]","4","0","","","","","","7","","","","",""
"","","","","","single-stim-button","199","3591966","0.0-3.0-22.1-1.1","59c86f966a287600011c393e","B2","batch2","tol_toboard","2858","","","","","","","","","tol_peg_1","2858","2858","0","[[3,0,0],[2,1],[0]]","2","[[0,0,0],[1,2],[3]]","4","0","","","","","","7","","","","",""
"","","","","","single-stim-button","200","3597351","0.0-3.0-22.2-0.2","59c86f966a287600011c393e","B2","batch2","tol_tohand","5384","","","","","","","","","tol_peg_2","5384","5384","0","[[3,0,0],[2,0],[0]]","3","[[0,0,0],[1,2],[3]]","4","0","","","","","","7","","","","",""
"","","","","","single-stim-button","201","3605370","0.0-3.0-22.2-1.2","59c86f966a287600011c393e","B2","batch2","tol_toboard","8018","","","","","","","","","tol_peg_1","8018","8018","0","[[3,1,0],[2,0],[0]]","3","[[0,0,0],[1,2],[3]]","4","0","","","","","","7","","","","",""
"","","","","","single-stim-button","202","3612167","0.0-3.0-22.3-0.3","59c86f966a287600011c393e","B2","batch2","tol_tohand","6796","","","","","","","","","tol_peg_2","6796","6796","0","[[3,1,0],[0,0],[0]]","4","[[0,0,0],[1,2],[3]]","4","0","","","","","","7","","","","",""
"","","","","","single-stim-button","203","3613553","0.0-3.0-22.3-1.3","59c86f966a287600011c393e","B2","batch2","tol_toboard","1384","","","","","","","","","tol_peg_3","1384","1384","0","[[3,1,0],[0,0],[2]]","4","[[0,0,0],[1,2],[3]]","4","0","","","","","","7","","","","",""
"","","","","","single-stim-button","204","3616657","0.0-3.0-22.4-0.4","59c86f966a287600011c393e","B2","batch2","tol_tohand","3103","","","","","","","","","tol_peg_1","3103","3103","0","[[3,0,0],[0,0],[2]]","5","[[0,0,0],[1,2],[3]]","4","0","","","","","","7","","","","",""
"","","","","","single-stim-button","205","3618160","0.0-3.0-22.4-1.4","59c86f966a287600011c393e","B2","batch2","tol_toboard","1501","","","","","","","","","tol_peg_2","1501","1501","0","[[3,0,0],[1,0],[2]]","5","[[0,0,0],[1,2],[3]]","4","0","","","","","","7","","","","",""
"","","","","","single-stim-button","206","3621038","0.0-3.0-22.5-0.5","59c86f966a287600011c393e","B2","batch2","tol_tohand","2877","","","","","","","","","tol_peg_3","2877","2877","0","[[3,0,0],[1,0],[0]]","6","[[0,0,0],[1,2],[3]]","4","0","","","","","","7","","","","",""
"","","","","","single-stim-button","207","3622394","0.0-3.0-22.5-1.5","59c86f966a287600011c393e","B2","batch2","tol_toboard","1354","","","","","","","","","tol_peg_2","1354","1354","0","[[3,0,0],[1,2],[0]]","6","[[0,0,0],[1,2],[3]]","4","0","","","","","","7","","","","",""
"","","","","","single-stim-button","208","3623789","0.0-3.0-22.6-0.6","59c86f966a287600011c393e","B2","batch2","tol_tohand","1393","","","","","","","","","tol_peg_1","1393","1393","0","[[0,0,0],[1,2],[0]]","7","[[0,0,0],[1,2],[3]]","4","0","","","","","","7","","","","",""
"","","","","","single-stim-button","209","3625183","0.0-3.0-22.6-1.6","59c86f966a287600011c393e","B2","batch2","tol_toboard","1394","","","","","","","","","tol_peg_3","1394","1394","0","[[0,0,0],[1,2],[3]]","7","[[0,0,0],[1,2],[3]]","4","0","","","","","","7","","","","",""
"","","","","","poldrack-single-stim","210","3626193","0.0-3.0-23.0","59c86f966a287600011c393e","B2","batch2","tol_feedback","-1","","","","","true","","","","","1000","1000","500","","","","","","-1","none","true","73973","96318","","","","","",""
"","","","","","html-button-response","211","3628378","0.0-3.0-24.0","59c86f966a287600011c393e","B2","batch2","tol_trial_num","2183.300000011921","<div class = centerbox><p class = center-block-text>problem <strong>6</strong> out of 25 problems</p></div>","0","","","","","","","","","","","","","","","","","","","","","","","","","",""
"","","","","","single-stim-button","212","3671378","0.0-3.0-25.0-0.0","59c86f966a287600011c393e","B2","batch2","tol_tohand","42998","","","","","","","","","tol_peg_3","42998","42998","0","[[0,0,0],[1,2],[0]]","1","[[1,0,0],[2,3],[0]]","5","0","","","","","","6","","","","",""
"","","","","","single-stim-button","213","3674532","0.0-3.0-25.0-1.0","59c86f966a287600011c393e","B2","batch2","tol_toboard","3151","","","","","","","","","tol_peg_1","3151","3151","0","[[3,0,0],[1,2],[0]]","1","[[1,0,0],[2,3],[0]]","5","0","","","","","","6","","","","",""
"","","","","","single-stim-button","214","3723167","0.0-3.0-25.1-0.1","59c86f966a287600011c393e","B2","batch2","tol_tohand","48633","","","","","","","","","tol_peg_1","48633","48633","0","[[0,0,0],[1,2],[0]]","2","[[1,0,0],[2,3],[0]]","5","0","","","","","","6","","","","",""
"","","","","","single-stim-button","215","3725493","0.0-3.0-25.1-1.1","59c86f966a287600011c393e","B2","batch2","tol_toboard","2325","","","","","","","","","tol_peg_3","2325","2325","0","[[0,0,0],[1,2],[3]]","2","[[1,0,0],[2,3],[0]]","5","0","","","","","","6","","","","",""
"","","","","","single-stim-button","216","3737415","0.0-3.0-25.2-0.2","59c86f966a287600011c393e","B2","batch2","tol_tohand","11920","","","","","","","","","tol_peg_2","11920","11920","0","[[0,0,0],[1,0],[3]]","3","[[1,0,0],[2,3],[0]]","5","0","","","","","","6","","","","",""
"","","","","","single-stim-button","217","3738642","0.0-3.0-25.2-1.2","59c86f966a287600011c393e","B2","batch2","tol_toboard","1226","","","","","","","","","tol_peg_1","1226","1226","0","[[2,0,0],[1,0],[3]]","3","[[1,0,0],[2,3],[0]]","5","0","","","","","","6","","","","",""
"","","","","","single-stim-button","218","3739644","0.0-3.0-25.3-0.3","59c86f966a287600011c393e","B2","batch2","tol_tohand","1000","","","","","","","","","tol_peg_2","1000","1000","0","[[2,0,0],[0,0],[3]]","4","[[1,0,0],[2,3],[0]]","5","0","","","","","","6","","","","",""
"","","","","","single-stim-button","219","3741903","0.0-3.0-25.3-1.3","59c86f966a287600011c393e","B2","batch2","tol_toboard","2259","","","","","","","","","tol_peg_1","2259","2259","0","[[2,1,0],[0,0],[3]]","4","[[1,0,0],[2,3],[0]]","5","0","","","","","","6","","","","",""
"","","","","","single-stim-button","220","3743750","0.0-3.0-25.4-0.4","59c86f966a287600011c393e","B2","batch2","tol_tohand","1846","","","","","","","","","tol_peg_3","1846","1846","0","[[2,1,0],[0,0],[0]]","5","[[1,0,0],[2,3],[0]]","5","0","","","","","","6","","","","",""
"","","","","","single-stim-button","221","3746992","0.0-3.0-25.4-1.4","59c86f966a287600011c393e","B2","batch2","tol_toboard","3240","","","","","","","","","tol_peg_2","3240","3240","0","[[2,1,0],[3,0],[0]]","5","[[1,0,0],[2,3],[0]]","5","0","","","","","","6","","","","",""
"","","","","","single-stim-button","222","3780321","0.0-3.0-25.5-0.5","59c86f966a287600011c393e","B2","batch2","tol_tohand","33327","","","","","","","","","tol_peg_1","33327","33327","0","[[2,0,0],[3,0],[0]]","6","[[1,0,0],[2,3],[0]]","5","0","","","","","","6","","","","",""
"","","","","","single-stim-button","223","3787560","0.0-3.0-25.5-1.5","59c86f966a287600011c393e","B2","batch2","tol_toboard","7238","","","","","","","","","tol_peg_3","7238","7238","0","[[2,0,0],[3,0],[1]]","6","[[1,0,0],[2,3],[0]]","5","0","","","","","","6","","","","",""
"","","","","","single-stim-button","224","3790185","0.0-3.0-25.6-0.6","59c86f966a287600011c393e","B2","batch2","tol_tohand","2623","","","","","","","","","tol_peg_1","2623","2623","0","[[0,0,0],[3,0],[1]]","7","[[1,0,0],[2,3],[0]]","5","0","","","","","","6","","","","",""
"","","","","","single-stim-button","225","3797901","0.0-3.0-25.6-1.6","59c86f966a287600011c393e","B2","batch2","tol_toboard","7714","","","","","","","","","tol_peg_2","7714","7714","0","[[0,0,0],[3,2],[1]]","7","[[1,0,0],[2,3],[0]]","5","0","","","","","","6","","","","",""
"","","","","","single-stim-button","226","3800542","0.0-3.0-25.7-0.7","59c86f966a287600011c393e","B2","batch2","tol_tohand","2639","","","","","","","","","tol_peg_3","2639","2639","0","[[0,0,0],[3,2],[0]]","8","[[1,0,0],[2,3],[0]]","5","0","","","","","","6","","","","",""
"","","","","","single-stim-button","227","3804316","0.0-3.0-25.7-1.7","59c86f966a287600011c393e","B2","batch2","tol_toboard","3773","","","","","","","","","tol_peg_1","3773","3773","0","[[1,0,0],[3,2],[0]]","8","[[1,0,0],[2,3],[0]]","5","0","","","","","","6","","","","",""
"","","","","","single-stim-button","228","3812278","0.0-3.0-25.8-0.8","59c86f966a287600011c393e","B2","batch2","tol_tohand","7961","","","","","","","","","tol_peg_2","7961","7961","0","[[1,0,0],[3,0],[0]]","9","[[1,0,0],[2,3],[0]]","5","0","","","","","","6","","","","",""
"","","","","","single-stim-button","229","3818979","0.0-3.0-25.8-1.8","59c86f966a287600011c393e","B2","batch2","tol_toboard","6699","","","","","","","","","tol_peg_1","6699","6699","0","[[1,2,0],[3,0],[0]]","9","[[1,0,0],[2,3],[0]]","5","0","","","","","","6","","","","",""
"","","","","","single-stim-button","230","3820581","0.0-3.0-25.9-0.9","59c86f966a287600011c393e","B2","batch2","tol_tohand","1600","","","","","","","","","tol_peg_2","1600","1600","0","[[1,2,0],[0,0],[0]]","10","[[1,0,0],[2,3],[0]]","5","0","","","","","","6","","","","",""
"","","","","","single-stim-button","231","3823963","0.0-3.0-25.9-1.9","59c86f966a287600011c393e","B2","batch2","tol_toboard","3381","","","","","","","","","tol_peg_3","3381","3381","0","[[1,2,0],[0,0],[3]]","10","[[1,0,0],[2,3],[0]]","5","0","","","","","","6","","","","",""
"","","","","","single-stim-button","232","3826269","0.0-3.0-25.10-0.10","59c86f966a287600011c393e","B2","batch2","tol_tohand","2306","","","","","","","","","tol_peg_1","2306","2306","0","[[1,0,0],[0,0],[3]]","11","[[1,0,0],[2,3],[0]]","5","0","","","","","","6","","","","",""
"","","","","","single-stim-button","233","3827724","0.0-3.0-25.10-1.10","59c86f966a287600011c393e","B2","batch2","tol_toboard","1454","","","","","","","","","tol_peg_2","1454","1454","0","[[1,0,0],[2,0],[3]]","11","[[1,0,0],[2,3],[0]]","5","0","","","","","","6","","","","",""
"","","","","","single-stim-button","234","3829119","0.0-3.0-25.11-0.11","59c86f966a287600011c393e","B2","batch2","tol_tohand","1394","","","","","","","","","tol_peg_3","1394","1394","0","[[1,0,0],[2,0],[0]]","12","[[1,0,0],[2,3],[0]]","5","0","","","","","","6","","","","",""
"","","","","","single-stim-button","235","3830976","0.0-3.0-25.11-1.11","59c86f966a287600011c393e","B2","batch2","tol_toboard","1856","","","","","","","","","tol_peg_2","1856","1856","0","[[1,0,0],[2,3],[0]]","12","[[1,0,0],[2,3],[0]]","5","0","","","","","","6","","","","",""
"","","","","","poldrack-single-stim","236","3831985","0.0-3.0-26.0","59c86f966a287600011c393e","B2","batch2","tol_feedback","-1","","","","","true","","","","","1000","1000","500","","","","","","-1","none","true","42998","158247","","","","","",""
"","","","","","html-button-response","237","3834269","0.0-3.0-27.0","59c86f966a287600011c393e","B2","batch2","tol_trial_num","2282.199999988079","<div class = centerbox><p class = center-block-text>problem <strong>7</strong> out of 25 problems</p></div>","0","","","","","","","","","","","","","","","","","","","","","","","","","",""
"","","","","","single-stim-button","238","3849317","0.0-3.0-28.0-0.0","59c86f966a287600011c393e","B2","batch2","tol_tohand","15041","","","","","","","","","tol_peg_3","15041","15041","0","[[2,1,0],[0,0],[0]]","1","[[1,2,0],[3,0],[0]]","6","0","","","","","","5","","","","",""
"","","","","","single-stim-button","239","3850914","0.0-3.0-28.0-1.0","59c86f966a287600011c393e","B2","batch2","tol_toboard","1584","","","","","","","","","tol_peg_2","1584","1584","0","[[2,1,0],[3,0],[0]]","1","[[1,2,0],[3,0],[0]]","6","0","","","","","","5","","","","",""
"","","","","","single-stim-button","240","3869600","0.0-3.0-28.1-0.1","59c86f966a287600011c393e","B2","batch2","tol_tohand","18685","","","","","","","","","tol_peg_1","18685","18685","0","[[2,0,0],[3,0],[0]]","2","[[1,2,0],[3,0],[0]]","6","0","","","","","","5","","","","",""
"","","","","","single-stim-button","241","3876740","0.0-3.0-28.1-1.1","59c86f966a287600011c393e","B2","batch2","tol_toboard","7138","","","","","","","","","tol_peg_2","7138","7138","0","[[2,0,0],[3,1],[0]]","2","[[1,2,0],[3,0],[0]]","6","0","","","","","","5","","","","",""
"","","","","","single-stim-button","242","3880827","0.0-3.0-28.2-0.2","59c86f966a287600011c393e","B2","batch2","tol_tohand","4086","","","","","","","","","tol_peg_1","4086","4086","0","[[0,0,0],[3,1],[0]]","3","[[1,2,0],[3,0],[0]]","6","0","","","","","","5","","","","",""
"","","","","","single-stim-button","243","3883715","0.0-3.0-28.2-1.2","59c86f966a287600011c393e","B2","batch2","tol_toboard","2886","","","","","","","","","tol_peg_3","2886","2886","0","[[0,0,0],[3,1],[2]]","3","[[1,2,0],[3,0],[0]]","6","0","","","","","","5","","","","",""
"","","","","","single-stim-button","244","3886651","0.0-3.0-28.3-0.3","59c86f966a287600011c393e","B2","batch2","tol_tohand","2935","","","","","","","","","tol_peg_2","2935","2935","0","[[0,0,0],[3,0],[2]]","4","[[1,2,0],[3,0],[0]]","6","0","","","","","","5","","","","",""
"","","","","","single-stim-button","245","3887812","0.0-3.0-28.3-1.3","59c86f966a287600011c393e","B2","batch2","tol_toboard","1159","","","","","","","","","tol_peg_1","1159","1159","0","[[1,0,0],[3,0],[2]]","4","[[1,2,0],[3,0],[0]]","6","0","","","","","","5","","","","",""
"","","","","","single-stim-button","246","3889716","0.0-3.0-28.4-0.4","59c86f966a287600011c393e","B2","batch2","tol_tohand","1904","","","","","","","","","tol_peg_3","1904","1904","0","[[1,0,0],[3,0],[0]]","5","[[1,2,0],[3,0],[0]]","6","0","","","","","","5","","","","",""
"","","","","","single-stim-button","247","3891328","0.0-3.0-28.4-1.4","59c86f966a287600011c393e","B2","batch2","tol_toboard","1610","","","","","","","","","tol_peg_1","1610","1610","0","[[1,2,0],[3,0],[0]]","5","[[1,2,0],[3,0],[0]]","6","0","","","","","","5","","","","",""
"","","","","","poldrack-single-stim","248","3892337","0.0-3.0-29.0","59c86f966a287600011c393e","B2","batch2","tol_feedback","-1","","","","","true","","","","","1000","1000","500","","","","","","-1","none","true","15041","42651","","","","","",""
"","","","","","html-button-response","249","3894196","0.0-3.0-30.0","59c86f966a287600011c393e","B2","batch2","tol_trial_num","1855.9000000059605","<div class = centerbox><p class = center-block-text>problem <strong>8</strong> out of 25 problems</p></div>","0","","","","","","","","","","","","","","","","","","","","","","","","","",""
"","","","","","single-stim-button","250","3902341","0.0-3.0-31.0-0.0","59c86f966a287600011c393e","B2","batch2","tol_tohand","8143","","","","","","","","","tol_peg_3","8143","8143","0","[[0,0,0],[2,3],[0]]","1","[[1,2,0],[3,0],[0]]","7","0","","","","","","4","","","","",""
"","","","","","single-stim-button","251","3904599","0.0-3.0-31.0-1.0","59c86f966a287600011c393e","B2","batch2","tol_toboard","2256","","","","","","","","","tol_peg_1","2256","2256","0","[[1,0,0],[2,3],[0]]","1","[[1,2,0],[3,0],[0]]","7","0","","","","","","4","","","","",""
"","","","","","single-stim-button","252","3909265","0.0-3.0-31.1-0.1","59c86f966a287600011c393e","B2","batch2","tol_tohand","4664","","","","","","","","","tol_peg_2","4664","4664","0","[[1,0,0],[2,0],[0]]","2","[[1,2,0],[3,0],[0]]","7","0","","","","","","4","","","","",""
"","","","","","single-stim-button","253","3910493","0.0-3.0-31.1-1.1","59c86f966a287600011c393e","B2","batch2","tol_toboard","1227","","","","","","","","","tol_peg_3","1227","1227","0","[[1,0,0],[2,0],[3]]","2","[[1,2,0],[3,0],[0]]","7","0","","","","","","4","","","","",""
"","","","","","single-stim-button","254","3911535","0.0-3.0-31.2-0.2","59c86f966a287600011c393e","B2","batch2","tol_tohand","1041","","","","","","","","","tol_peg_2","1041","1041","0","[[1,0,0],[0,0],[3]]","3","[[1,2,0],[3,0],[0]]","7","0","","","","","","4","","","","",""
"","","","","","single-stim-button","255","3912901","0.0-3.0-31.2-1.2","59c86f966a287600011c393e","B2","batch2","tol_toboard","1365","","","","","","","","","tol_peg_1","1365","1365","0","[[1,2,0],[0,0],[3]]","3","[[1,2,0],[3,0],[0]]","7","0","","","","","","4","","","","",""
"","","","","","single-stim-button","256","3915404","0.0-3.0-31.3-0.3","59c86f966a287600011c393e","B2","batch2","tol_tohand","2502","","","","","","","","","tol_peg_3","2502","2502","0","[[1,2,0],[0,0],[0]]","4","[[1,2,0],[3,0],[0]]","7","0","","","","","","4","","","","",""
"","","","","","single-stim-button","257","3917006","0.0-3.0-31.3-1.3","59c86f966a287600011c393e","B2","batch2","tol_toboard","1600","","","","","","","","","tol_peg_2","1600","1600","0","[[1,2,0],[3,0],[0]]","4","[[1,2,0],[3,0],[0]]","7","0","","","","","","4","","","","",""
"","","","","","poldrack-single-stim","258","3918009","0.0-3.0-32.0","59c86f966a287600011c393e","B2","batch2","tol_feedback","-1","","","","","true","","","","","1000","1000","500","","","","","","-1","none","true","8143","16350","","","","","",""
"","","","","","html-button-response","259","3921518","0.0-3.0-33.0","59c86f966a287600011c393e","B2","batch2","tol_trial_num","3506.5999999940395","<div class = centerbox><p class = center-block-text>problem <strong>9</strong> out of 25 problems</p></div>","0","","","","","","","","","","","","","","","","","","","","","","","","","",""
"","","","","","single-stim-button","260","4008248","0.0-3.0-34.0-0.0","59c86f966a287600011c393e","B2","batch2","tol_tohand","86728","","","","","","","","","tol_peg_3","86728","86728","0","[[3,2,0],[0,0],[0]]","1","[[2,1,0],[3,0],[0]]","8","0","","","","","","6","","","","",""
"","","","","","single-stim-button","261","4010252","0.0-3.0-34.0-1.0","59c86f966a287600011c393e","B2","batch2","tol_toboard","2003","","","","","","","","","tol_peg_2","2003","2003","0","[[3,2,0],[1,0],[0]]","1","[[2,1,0],[3,0],[0]]","8","0","","","","","","6","","","","",""
"","","","","","single-stim-button","262","4016990","0.0-3.0-34.1-0.1","59c86f966a287600011c393e","B2","batch2","tol_tohand","6736","","","","","","","","","tol_peg_1","6736","6736","0","[[3,0,0],[1,0],[0]]","2","[[2,1,0],[3,0],[0]]","8","0","","","","","","6","","","","",""
"","","","","","single-stim-button","263","4018553","0.0-3.0-34.1-1.1","59c86f966a287600011c393e","B2","batch2","tol_toboard","1562","","","","","","","","","tol_peg_2","1562","1562","0","[[3,0,0],[1,2],[0]]","2","[[2,1,0],[3,0],[0]]","8","0","","","","","","6","","","","",""
"","","","","","single-stim-button","264","4020351","0.0-3.0-34.2-0.2","59c86f966a287600011c393e","B2","batch2","tol_tohand","1796","","","","","","","","","tol_peg_1","1796","1796","0","[[0,0,0],[1,2],[0]]","3","[[2,1,0],[3,0],[0]]","8","0","","","","","","6","","","","",""
"","","","","","single-stim-button","265","4021726","0.0-3.0-34.2-1.2","59c86f966a287600011c393e","B2","batch2","tol_toboard","1373","","","","","","","","","tol_peg_3","1373","1373","0","[[0,0,0],[1,2],[3]]","3","[[2,1,0],[3,0],[0]]","8","0","","","","","","6","","","","",""
"","","","","","single-stim-button","266","4024497","0.0-3.0-34.3-0.3","59c86f966a287600011c393e","B2","batch2","tol_tohand","2770","","","","","","","","","tol_peg_2","2770","2770","0","[[0,0,0],[1,0],[3]]","4","[[2,1,0],[3,0],[0]]","8","0","","","","","","6","","","","",""
"","","","","","single-stim-button","267","4025924","0.0-3.0-34.3-1.3","59c86f966a287600011c393e","B2","batch2","tol_toboard","1425","","","","","","","","","tol_peg_1","1425","1425","0","[[2,0,0],[1,0],[3]]","4","[[2,1,0],[3,0],[0]]","8","0","","","","","","6","","","","",""
"","","","","","single-stim-button","268","4026975","0.0-3.0-34.4-0.4","59c86f966a287600011c393e","B2","batch2","tol_tohand","1049","","","","","","","","","tol_peg_2","1049","1049","0","[[2,0,0],[0,0],[3]]","5","[[2,1,0],[3,0],[0]]","8","0","","","","","","6","","","","",""
"","","","","","single-stim-button","269","4028174","0.0-3.0-34.4-1.4","59c86f966a287600011c393e","B2","batch2","tol_toboard","1198","","","","","","","","","tol_peg_1","1198","1198","0","[[2,1,0],[0,0],[3]]","5","[[2,1,0],[3,0],[0]]","8","0","","","","","","6","","","","",""
"","","","","","single-stim-button","270","4030878","0.0-3.0-34.5-0.5","59c86f966a287600011c393e","B2","batch2","tol_tohand","2704","","","","","","","","","tol_peg_3","2704","2704","0","[[2,1,0],[0,0],[0]]","6","[[2,1,0],[3,0],[0]]","8","0","","","","","","6","","","","",""
"","","","","","single-stim-button","271","4032124","0.0-3.0-34.5-1.5","59c86f966a287600011c393e","B2","batch2","tol_toboard","1244","","","","","","","","","tol_peg_2","1244","1244","0","[[2,1,0],[3,0],[0]]","6","[[2,1,0],[3,0],[0]]","8","0","","","","","","6","","","","",""
"","","","","","poldrack-single-stim","272","4033129","0.0-3.0-35.0","59c86f966a287600011c393e","B2","batch2","tol_feedback","-1","","","","","true","","","","","1000","1000","500","","","","","","-1","none","true","86728","101783","","","","","",""
"","","","","","html-button-response","273","4035083","0.0-3.0-36.0","59c86f966a287600011c393e","B2","batch2","tol_trial_num","1952.5999999940395","<div class = centerbox><p class = center-block-text>problem <strong>10</strong> out of 25 problems</p></div>","0","","","","","","","","","","","","","","","","","","","","","","","","","",""
"","","","","","single-stim-button","274","4042897","0.0-3.0-37.0-0.0","59c86f966a287600011c393e","B2","batch2","tol_tohand","7813","","","","","","","","","tol_peg_2","7813","7813","0","[[3,0,0],[0,0],[2]]","1","[[3,0,0],[2,1],[0]]","9","0","","","","","","3","","","","",""
"","","","","","single-stim-button","275","4044173","0.0-3.0-37.0-1.0","59c86f966a287600011c393e","B2","batch2","tol_toboard","1275","","","","","","","","","tol_peg_1","1275","1275","0","[[3,1,0],[0,0],[2]]","1","[[3,0,0],[2,1],[0]]","9","0","","","","","","3","","","","",""
"","","","","","single-stim-button","276","4047769","0.0-3.0-37.1-0.1","59c86f966a287600011c393e","B2","batch2","tol_tohand","3594","","","","","","","","","tol_peg_3","3594","3594","0","[[3,1,0],[0,0],[0]]","2","[[3,0,0],[2,1],[0]]","9","0","","","","","","3","","","","",""
"","","","","","single-stim-button","277","4049262","0.0-3.0-37.1-1.1","59c86f966a287600011c393e","B2","batch2","tol_toboard","1491","","","","","","","","","tol_peg_2","1491","1491","0","[[3,1,0],[2,0],[0]]","2","[[3,0,0],[2,1],[0]]","9","0","","","","","","3","","","","",""
"","","","","","single-stim-button","278","4050795","0.0-3.0-37.2-0.2","59c86f966a287600011c393e","B2","batch2","tol_tohand","1532","","","","","","","","","tol_peg_1","1532","1532","0","[[3,0,0],[2,0],[0]]","3","[[3,0,0],[2,1],[0]]","9","0","","","","","","3","","","","",""
"","","","","","single-stim-button","279","4051955","0.0-3.0-37.2-1.2","59c86f966a287600011c393e","B2","batch2","tol_toboard","1158","","","","","","","","","tol_peg_2","1158","1158","0","[[3,0,0],[2,1],[0]]","3","[[3,0,0],[2,1],[0]]","9","0","","","","","","3","","","","",""
"","","","","","poldrack-single-stim","280","4052961","0.0-3.0-38.0","59c86f966a287600011c393e","B2","batch2","tol_feedback","-1","","","","","true","","","","","1000","1000","500","","","","","","-1","none","true","7813","12939","","","","","",""
"","","","","","html-button-response","281","4054952","0.0-3.0-39.0","59c86f966a287600011c393e","B2","batch2","tol_trial_num","1989.8999999761581","<div class = centerbox><p class = center-block-text>problem <strong>11</strong> out of 25 problems</p></div>","0","","","","","","","","","","","","","","","","","","","","","","","","","",""
"","","","","","single-stim-button","282","4068584","0.0-3.0-40.0-0.0","59c86f966a287600011c393e","B2","batch2","tol_tohand","13630","","","","","","","","","tol_peg_2","13630","13630","0","[[1,2,0],[0,0],[0]]","1","[[2,0,0],[1,3],[0]]","10","0","","","","","","6","","","","",""
"","","","","","single-stim-button","283","4070133","0.0-3.0-40.0-1.0","59c86f966a287600011c393e","B2","batch2","tol_toboard","1547","","","","","","","","","tol_peg_3","1547","1547","0","[[1,2,0],[0,0],[3]]","1","[[2,0,0],[1,3],[0]]","10","0","","","","","","6","","","","",""
"","","","","","single-stim-button","284","4075893","0.0-3.0-40.1-0.1","59c86f966a287600011c393e","B2","batch2","tol_tohand","5759","","","","","","","","","tol_peg_1","5759","5759","0","[[1,0,0],[0,0],[3]]","2","[[2,0,0],[1,3],[0]]","10","0","","","","","","6","","","","",""
"","","","","","single-stim-button","285","4077152","0.0-3.0-40.1-1.1","59c86f966a287600011c393e","B2","batch2","tol_toboard","1257","","","","","","","","","tol_peg_2","1257","1257","0","[[1,0,0],[2,0],[3]]","2","[[2,0,0],[1,3],[0]]","10","0","","","","","","6","","","","",""
"","","","","","single-stim-button","286","4108385","0.0-3.0-40.2-0.2","59c86f966a287600011c393e","B2","batch2","tol_tohand","31231","","","","","","","","","tol_peg_1","31231","31231","0","[[0,0,0],[2,0],[3]]","3","[[2,0,0],[1,3],[0]]","10","0","","","","","","6","","","","",""
"","","","","","single-stim-button","287","4109532","0.0-3.0-40.2-1.2","59c86f966a287600011c393e","B2","batch2","tol_toboard","1145","","","","","","","","","tol_peg_2","1145","1145","0","[[0,0,0],[2,1],[3]]","3","[[2,0,0],[1,3],[0]]","10","0","","","","","","6","","","","",""
"","","","","","single-stim-button","288","4111291","0.0-3.0-40.3-0.3","59c86f966a287600011c393e","B2","batch2","tol_tohand","1757","","","","","","","","","tol_peg_3","1757","1757","0","[[0,0,0],[2,1],[0]]","4","[[2,0,0],[1,3],[0]]","10","0","","","","","","6","","","","",""
"","","","","","single-stim-button","289","4115584","0.0-3.0-40.3-1.3","59c86f966a287600011c393e","B2","batch2","tol_toboard","4284","","","","","","","","","tol_peg_1","4284","4284","0","[[3,0,0],[2,1],[0]]","4","[[2,0,0],[1,3],[0]]","10","0","","","","","","6","","","","",""
"","","","","","single-stim-button","290","4131693","0.0-3.0-40.4-0.4","59c86f966a287600011c393e","B2","batch2","tol_tohand","16091","","","","","","","","","tol_peg_2","16091","16091","0","[[3,0,0],[2,0],[0]]","5","[[2,0,0],[1,3],[0]]","10","0","","","","","","6","","","","",""
"","","","","","single-stim-button","291","4140709","0.0-3.0-40.4-1.4","59c86f966a287600011c393e","B2","batch2","tol_toboard","9015","","","","","","","","","tol_peg_1","9015","9015","0","[[3,1,0],[2,0],[0]]","5","[[2,0,0],[1,3],[0]]","10","0","","","","","","6","","","","",""
"","","","","","single-stim-button","292","4142263","0.0-3.0-40.5-0.5","59c86f966a287600011c393e","B2","batch2","tol_tohand","1552","","","","","","","","","tol_peg_2","1552","1552","0","[[3,1,0],[0,0],[0]]","6","[[2,0,0],[1,3],[0]]","10","0","","","","","","6","","","","",""
"","","","","","single-stim-button","293","4143764","0.0-3.0-40.5-1.5","59c86f966a287600011c393e","B2","batch2","tol_toboard","1500","","","","","","","","","tol_peg_3","1500","1500","0","[[3,1,0],[0,0],[2]]","6","[[2,0,0],[1,3],[0]]","10","0","","","","","","6","","","","",""
"","","","","","single-stim-button","294","4145592","0.0-3.0-40.6-0.6","59c86f966a287600011c393e","B2","batch2","tol_tohand","1827","","","","","","","","","tol_peg_1","1827","1827","0","[[3,0,0],[0,0],[2]]","7","[[2,0,0],[1,3],[0]]","10","0","","","","","","6","","","","",""
"","","","","","single-stim-button","295","4146770","0.0-3.0-40.6-1.6","59c86f966a287600011c393e","B2","batch2","tol_toboard","1176","","","","","","","","","tol_peg_2","1176","1176","0","[[3,0,0],[1,0],[2]]","7","[[2,0,0],[1,3],[0]]","10","0","","","","","","6","","","","",""
"","","","","","single-stim-button","296","4148057","0.0-3.0-40.7-0.7","59c86f966a287600011c393e","B2","batch2","tol_tohand","1286","","","","","","","","","tol_peg_1","1286","1286","0","[[0,0,0],[1,0],[2]]","8","[[2,0,0],[1,3],[0]]","10","0","","","","","","6","","","","",""
"","","","","","single-stim-button","297","4150229","0.0-3.0-40.7-1.7","59c86f966a287600011c393e","B2","batch2","tol_toboard","2170","","","","","","","","","tol_peg_2","2170","2170","0","[[0,0,0],[1,3],[2]]","8","[[2,0,0],[1,3],[0]]","10","0","","","","","","6","","","","",""
"","","","","","single-stim-button","298","4151428","0.0-3.0-40.8-0.8","59c86f966a287600011c393e","B2","batch2","tol_tohand","1198","","","","","","","","","tol_peg_3","1198","1198","0","[[0,0,0],[1,3],[0]]","9","[[2,0,0],[1,3],[0]]","10","0","","","","","","6","","","","",""
"","","","","","single-stim-button","299","4152922","0.0-3.0-40.8-1.8","59c86f966a287600011c393e","B2","batch2","tol_toboard","1493","","","","","","","","","tol_peg_1","1493","1493","0","[[2,0,0],[1,3],[0]]","9","[[2,0,0],[1,3],[0]]","10","0","","","","","","6","","","","",""
"","","","","","poldrack-single-stim","300","4153929","0.0-3.0-41.0","59c86f966a287600011c393e","B2","batch2","tol_feedback","-1","","","","","true","","","","","1000","1000","500","","","","","","-1","none","true","13630","74331","","","","","",""
"","","","","","html-button-response","301","4156323","0.0-3.0-42.0","59c86f966a287600011c393e","B2","batch2","tol_trial_num","2390.7999999821186","<div class = centerbox><p class = center-block-text>problem <strong>12</strong> out of 25 problems</p></div>","0","","","","","","","","","","","","","","","","","","","","","","","","","",""
"","","","","","single-stim-button","302","4167372","0.0-3.0-43.0-0.0","59c86f966a287600011c393e","B2","batch2","tol_tohand","11043","","","","","","","","","tol_peg_1","11043","11043","0","[[1,0,0],[3,0],[0]]","1","[[2,3,0],[0,0],[1]]","11","0","","","","","","4","","","","",""
"","","","","","single-stim-button","303","4168656","0.0-3.0-43.0-1.0","59c86f966a287600011c393e","B2","batch2","tol_toboard","1283","","","","","","","","","tol_peg_2","1283","1283","0","[[1,0,0],[3,2],[0]]","1","[[2,3,0],[0,0],[1]]","11","0","","","","","","4","","","","",""
"","","","","","single-stim-button","304","4170140","0.0-3.0-43.1-0.1","59c86f966a287600011c393e","B2","batch2","tol_tohand","1483","","","","","","","","","tol_peg_1","1483","1483","0","[[0,0,0],[3,2],[0]]","2","[[2,3,0],[0,0],[1]]","11","0","","","","","","4","","","","",""
"","","","","","single-stim-button","305","4171487","0.0-3.0-43.1-1.1","59c86f966a287600011c393e","B2","batch2","tol_toboard","1346","","","","","","","","","tol_peg_3","1346","1346","0","[[0,0,0],[3,2],[1]]","2","[[2,3,0],[0,0],[1]]","11","0","","","","","","4","","","","",""
"","","","","","single-stim-button","306","4173050","0.0-3.0-43.2-0.2","59c86f966a287600011c393e","B2","batch2","tol_tohand","1561","","","","","","","","","tol_peg_2","1561","1561","0","[[0,0,0],[3,0],[1]]","3","[[2,3,0],[0,0],[1]]","11","0","","","","","","4","","","","",""
"","","","","","single-stim-button","307","4174239","0.0-3.0-43.2-1.2","59c86f966a287600011c393e","B2","batch2","tol_toboard","1188","","","","","","","","","tol_peg_1","1188","1188","0","[[2,0,0],[3,0],[1]]","3","[[2,3,0],[0,0],[1]]","11","0","","","","","","4","","","","",""
"","","","","","single-stim-button","308","4175546","0.0-3.0-43.3-0.3","59c86f966a287600011c393e","B2","batch2","tol_tohand","1305","","","","","","","","","tol_peg_2","1305","1305","0","[[2,0,0],[0,0],[1]]","4","[[2,3,0],[0,0],[1]]","11","0","","","","","","4","","","","",""
"","","","","","single-stim-button","309","4176735","0.0-3.0-43.3-1.3","59c86f966a287600011c393e","B2","batch2","tol_toboard","1187","","","","","","","","","tol_peg_1","1187","1187","0","[[2,3,0],[0,0],[1]]","4","[[2,3,0],[0,0],[1]]","11","0","","","","","","4","","","","",""
"","","","","","poldrack-single-stim","310","4177742","0.0-3.0-44.0","59c86f966a287600011c393e","B2","batch2","tol_feedback","-1","","","","","true","","","","","1000","1000","500","","","","","","-1","none","true","11043","15392","","","","","",""
"","","","","","html-button-response","311","4179891","0.0-3.0-45.0","59c86f966a287600011c393e","B2","batch2","tol_trial_num","2146.100000023842","<div class = centerbox><p class = center-block-text>problem <strong>13</strong> out of 25 problems</p></div>","0","","","","","","","","","","","","","","","","","","","","","","","","","",""
"","","","","","single-stim-button","312","4215864","0.0-3.0-46.0-0.0","59c86f966a287600011c393e","B2","batch2","tol_tohand","35972","","","","","","","","","tol_peg_1","35972","35972","0","[[1,0,0],[3,0],[0]]","1","[[0,0,0],[2,3],[1]]","12","0","","","","","","4","","","","",""
"","","","","","single-stim-button","313","4224388","0.0-3.0-46.0-1.0","59c86f966a287600011c393e","B2","batch2","tol_toboard","8523","","","","","","","","","tol_peg_2","8523","8523","0","[[1,0,0],[3,2],[0]]","1","[[0,0,0],[2,3],[1]]","12","0","","","","","","4","","","","",""
"","","","","","single-stim-button","314","4226540","0.0-3.0-46.1-0.1","59c86f966a287600011c393e","B2","batch2","tol_tohand","2151","","","","","","","","","tol_peg_1","2151","2151","0","[[0,0,0],[3,2],[0]]","2","[[0,0,0],[2,3],[1]]","12","0","","","","","","4","","","","",""
"","","","","","single-stim-button","315","4227914","0.0-3.0-46.1-1.1","59c86f966a287600011c393e","B2","batch2","tol_toboard","1373","","","","","","","","","tol_peg_3","1373","1373","0","[[0,0,0],[3,2],[1]]","2","[[0,0,0],[2,3],[1]]","12","0","","","","","","4","","","","",""
"","","","","","single-stim-button","316","4280817","0.0-3.0-46.2-0.2","59c86f966a287600011c393e","B2","batch2","tol_tohand","52902","","","","","","","","","tol_peg_3","52902","52902","0","[[0,0,0],[3,2],[0]]","3","[[0,0,0],[2,3],[1]]","12","0","","","","","","4","","","","",""
"","","","","","single-stim-button","317","4282172","0.0-3.0-46.2-1.2","59c86f966a287600011c393e","B2","batch2","tol_toboard","1353","","","","","","","","","tol_peg_1","1353","1353","0","[[1,0,0],[3,2],[0]]","3","[[0,0,0],[2,3],[1]]","12","0","","","","","","4","","","","",""
"","","","","","single-stim-button","318","4283882","0.0-3.0-46.3-0.3","59c86f966a287600011c393e","B2","batch2","tol_tohand","1709","","","","","","","","","tol_peg_2","1709","1709","0","[[1,0,0],[3,0],[0]]","4","[[0,0,0],[2,3],[1]]","12","0","","","","","","4","","","","",""
"","","","","","single-stim-button","319","4285622","0.0-3.0-46.3-1.3","59c86f966a287600011c393e","B2","batch2","tol_toboard","1738","","","","","","","","","tol_peg_3","1738","1738","0","[[1,0,0],[3,0],[2]]","4","[[0,0,0],[2,3],[1]]","12","0","","","","","","4","","","","",""
"","","","","","single-stim-button","320","4293023","0.0-3.0-46.4-0.4","59c86f966a287600011c393e","B2","batch2","tol_tohand","7399","","","","","","","","","tol_peg_1","7399","7399","0","[[0,0,0],[3,0],[2]]","5","[[0,0,0],[2,3],[1]]","12","0","","","","","","4","","","","",""
"","","","","","single-stim-button","321","4359791","0.0-3.0-46.4-1.4","59c86f966a287600011c393e","B2","batch2","tol_toboard","66767","","","","","","","","","tol_peg_1","66767","66767","0","[[1,0,0],[3,0],[2]]","5","[[0,0,0],[2,3],[1]]","12","0","","","","","","4","","","","",""
"","","","","","single-stim-button","322","4362007","0.0-3.0-46.5-0.5","59c86f966a287600011c393e","B2","batch2","tol_tohand","2214","","","","","","","","","tol_peg_2","2214","2214","0","[[1,0,0],[0,0],[2]]","6","[[0,0,0],[2,3],[1]]","12","0","","","","","","4","","","","",""
"","","","","","single-stim-button","323","4364375","0.0-3.0-46.5-1.5","59c86f966a287600011c393e","B2","batch2","tol_toboard","2366","","","","","","","","","tol_peg_1","2366","2366","0","[[1,3,0],[0,0],[2]]","6","[[0,0,0],[2,3],[1]]","12","0","","","","","","4","","","","",""
"","","","","","single-stim-button","324","4366135","0.0-3.0-46.6-0.6","59c86f966a287600011c393e","B2","batch2","tol_tohand","1758","","","","","","","","","tol_peg_3","1758","1758","0","[[1,3,0],[0,0],[0]]","7","[[0,0,0],[2,3],[1]]","12","0","","","","","","4","","","","",""
"","","","","","single-stim-button","325","4367746","0.0-3.0-46.6-1.6","59c86f966a287600011c393e","B2","batch2","tol_toboard","1610","","","","","","","","","tol_peg_2","1610","1610","0","[[1,3,0],[2,0],[0]]","7","[[0,0,0],[2,3],[1]]","12","0","","","","","","4","","","","",""
"","","","","","single-stim-button","326","4370616","0.0-3.0-46.7-0.7","59c86f966a287600011c393e","B2","batch2","tol_tohand","2869","","","","","","","","","tol_peg_1","2869","2869","0","[[1,0,0],[2,0],[0]]","8","[[0,0,0],[2,3],[1]]","12","0","","","","","","4","","","","",""
"","","","","","single-stim-button","327","4372147","0.0-3.0-46.7-1.7","59c86f966a287600011c393e","B2","batch2","tol_toboard","1529","","","","","","","","","tol_peg_2","1529","1529","0","[[1,0,0],[2,3],[0]]","8","[[0,0,0],[2,3],[1]]","12","0","","","","","","4","","","","",""
"","","","","","single-stim-button","328","4373603","0.0-3.0-46.8-0.8","59c86f966a287600011c393e","B2","batch2","tol_tohand","1455","","","","","","","","","tol_peg_1","1455","1455","0","[[0,0,0],[2,3],[0]]","9","[[0,0,0],[2,3],[1]]","12","0","","","","","","4","","","","",""
"","","","","","single-stim-button","329","4375154","0.0-3.0-46.8-1.8","59c86f966a287600011c393e","B2","batch2","tol_toboard","1549","","","","","","","","","tol_peg_3","1549","1549","0","[[0,0,0],[2,3],[1]]","9","[[0,0,0],[2,3],[1]]","12","0","","","","","","4","","","","",""
"","","","","","poldrack-single-stim","330","4376169","0.0-3.0-47.0","59c86f966a287600011c393e","B2","batch2","tol_feedback","-1","","","","","true","","","","","1000","1000","500","","","","","","-1","none","true","35972","108429","","","","","",""
"","","","","","html-button-response","331","4381470","0.0-3.0-48.0","59c86f966a287600011c393e","B2","batch2","attention_check","5292.5","<p class = block-text>How many balls are in your board<br></p>","1","","","true","","","","","","","","","","","","","","","","","","","","","","",""
"","","","","","html-button-response","332","4383466","0.0-3.0-49.0","59c86f966a287600011c393e","B2","batch2","tol_trial_num","1993.6000000238419","<div class = centerbox><p class = center-block-text>problem <strong>14</strong> out of 25 problems</p></div>","0","","","","","","","","","","","","","","","","","","","","","","","","","",""
"","","","","","single-stim-button","333","4396260","0.0-3.0-50.0-0.0","59c86f966a287600011c393e","B2","batch2","tol_tohand","12791","","","","","","","","","tol_peg_1","12791","12791","0","[[2,0,0],[3,0],[0]]","1","[[1,2,0],[3,0],[0]]","13","0","","","","","","4","","","","",""
"","","","","","single-stim-button","334","4398115","0.0-3.0-50.0-1.0","59c86f966a287600011c393e","B2","batch2","tol_toboard","1854","","","","","","","","","tol_peg_3","1854","1854","0","[[2,0,0],[3,0],[1]]","1","[[1,2,0],[3,0],[0]]","13","0","","","","","","4","","","","",""
"","","","","","single-stim-button","335","4402665","0.0-3.0-50.1-0.1","59c86f966a287600011c393e","B2","batch2","tol_tohand","4549","","","","","","","","","tol_peg_1","4549","4549","0","[[0,0,0],[3,0],[1]]","2","[[1,2,0],[3,0],[0]]","13","0","","","","","","4","","","","",""
"","","","","","single-stim-button","336","4404207","0.0-3.0-50.1-1.1","59c86f966a287600011c393e","B2","batch2","tol_toboard","1539","","","","","","","","","tol_peg_2","1539","1539","0","[[0,0,0],[3,2],[1]]","2","[[1,2,0],[3,0],[0]]","13","0","","","","","","4","","","","",""
"","","","","","single-stim-button","337","4406331","0.0-3.0-50.2-0.2","59c86f966a287600011c393e","B2","batch2","tol_tohand","2124","","","","","","","","","tol_peg_3","2124","2124","0","[[0,0,0],[3,2],[0]]","3","[[1,2,0],[3,0],[0]]","13","0","","","","","","4","","","","",""
"","","","","","single-stim-button","338","4408206","0.0-3.0-50.2-1.2","59c86f966a287600011c393e","B2","batch2","tol_toboard","1874","","","","","","","","","tol_peg_1","1874","1874","0","[[1,0,0],[3,2],[0]]","3","[[1,2,0],[3,0],[0]]","13","0","","","","","","4","","","","",""
"","","","","","single-stim-button","339","4409661","0.0-3.0-50.3-0.3","59c86f966a287600011c393e","B2","batch2","tol_tohand","1454","","","","","","","","","tol_peg_2","1454","1454","0","[[1,0,0],[3,0],[0]]","4","[[1,2,0],[3,0],[0]]","13","0","","","","","","4","","","","",""
"","","","","","single-stim-button","340","4411508","0.0-3.0-50.3-1.3","59c86f966a287600011c393e","B2","batch2","tol_toboard","1845","","","","","","","","","tol_peg_1","1845","1845","0","[[1,2,0],[3,0],[0]]","4","[[1,2,0],[3,0],[0]]","13","0","","","","","","4","","","","",""
"","","","","","poldrack-single-stim","341","4412513","0.0-3.0-51.0","59c86f966a287600011c393e","B2","batch2","tol_feedback","-1","","","","","true","","","","","1000","1000","500","","","","","","-1","none","true","12791","20918","","","","","",""
"","","","","","html-button-response","342","4414151","0.0-3.0-52.0","59c86f966a287600011c393e","B2","batch2","tol_trial_num","1636.5999999940395","<div class = centerbox><p class = center-block-text>problem <strong>15</strong> out of 25 problems</p></div>","0","","","","","","","","","","","","","","","","","","","","","","","","","",""
"","","","","","single-stim-button","343","4421147","0.0-3.0-53.0-0.0","59c86f966a287600011c393e","B2","batch2","tol_tohand","6994","","","","","","","","","tol_peg_2","6994","6994","0","[[1,2,0],[0,0],[0]]","1","[[2,0,0],[3,0],[1]]","14","0","","","","","","3","","","","",""
"","","","","","single-stim-button","344","4424113","0.0-3.0-53.0-1.0","59c86f966a287600011c393e","B2","batch2","tol_toboard","2964","","","","","","","","","tol_peg_2","2964","2964","0","[[1,2,0],[3,0],[0]]","1","[[2,0,0],[3,0],[1]]","14","0","","","","","","3","","","","",""
"","","","","","single-stim-button","345","4429743","0.0-3.0-53.1-0.1","59c86f966a287600011c393e","B2","batch2","tol_tohand","5628","","","","","","","","","tol_peg_1","5628","5628","0","[[1,0,0],[3,0],[0]]","2","[[2,0,0],[3,0],[1]]","14","0","","","","","","3","","","","",""
"","","","","","single-stim-button","346","4431346","0.0-3.0-53.1-1.1","59c86f966a287600011c393e","B2","batch2","tol_toboard","1601","","","","","","","","","tol_peg_3","1601","1601","0","[[1,0,0],[3,0],[2]]","2","[[2,0,0],[3,0],[1]]","14","0","","","","","","3","","","","",""
"","","","","","single-stim-button","347","4436618","0.0-3.0-53.2-0.2","59c86f966a287600011c393e","B2","batch2","tol_tohand","5271","","","","","","","","","tol_peg_1","5271","5271","0","[[0,0,0],[3,0],[2]]","3","[[2,0,0],[3,0],[1]]","14","0","","","","","","3","","","","",""
"","","","","","single-stim-button","348","4437973","0.0-3.0-53.2-1.2","59c86f966a287600011c393e","B2","batch2","tol_toboard","1354","","","","","","","","","tol_peg_2","1354","1354","0","[[0,0,0],[3,1],[2]]","3","[[2,0,0],[3,0],[1]]","14","0","","","","","","3","","","","",""
"","","","","","single-stim-button","349","4440459","0.0-3.0-53.3-0.3","59c86f966a287600011c393e","B2","batch2","tol_tohand","2484","","","","","","","","","tol_peg_3","2484","2484","0","[[0,0,0],[3,1],[0]]","4","[[2,0,0],[3,0],[1]]","14","0","","","","","","3","","","","",""
"","","","","","single-stim-button","350","4442150","0.0-3.0-53.3-1.3","59c86f966a287600011c393e","B2","batch2","tol_toboard","1691","","","","","","","","","tol_peg_1","1691","1691","0","[[2,0,0],[3,1],[0]]","4","[[2,0,0],[3,0],[1]]","14","0","","","","","","3","","","","",""
"","","","","","single-stim-button","351","4446285","0.0-3.0-53.4-0.4","59c86f966a287600011c393e","B2","batch2","tol_tohand","4134","","","","","","","","","tol_peg_2","4134","4134","0","[[2,0,0],[3,0],[0]]","5","[[2,0,0],[3,0],[1]]","14","0","","","","","","3","","","","",""
"","","","","","single-stim-button","352","4447905","0.0-3.0-53.4-1.4","59c86f966a287600011c393e","B2","batch2","tol_toboard","1618","","","","","","","","","tol_peg_3","1618","1618","0","[[2,0,0],[3,0],[1]]","5","[[2,0,0],[3,0],[1]]","14","0","","","","","","3","","","","",""
