"success","timeout","failed_images","failed_audio","failed_video","trial_type","trial_index","time_elapsed","internal_node_id","subject_id","study_id","session_id","view_history","rt","stimulus","response","task","correct","answer","item","fiar_detect_rt","fiar_detect_correct","total_correct_fiar_detect","post_trial_gap","choices","spm_correct","spm_rt","mouse_click","stim_duration","block_duration","timing_post_trial","current_position","tol_num_moves_made","tol_target","tol_problem_id","tol_rt","key_press","possible_responses","tol_correct","preplanning","tol_rt_per_trial","tol_min_moves"
"true","false","[]","[]","[]","preload","0","42469","0.0-0.0","59db7128e776fd00015ec895","F1","batch6","","","","","","","","","","","","","","","","","","","","","","","","","","","","","",""
"true","","","","","fullscreen","1","52676","0.0-1.0-0.0","59db7128e776fd00015ec895","F1","batch6","","","","","","","","","","","","","","","","","","","","","","","","","","","","","",""
"true","","","","","fullscreen","2","57608","0.0-2.0-0.0","59db7128e776fd00015ec895","F1","batch6","","","","","","","","","","","","","","","","","","","","","","","","","","","","","",""
"","","","","","instructions","3","82445","0.0-2.0-1.0-0.0","59db7128e776fd00015ec895","F1","batch6","[{""page_index"":0,""viewing_time"":16387},{""page_index"":1,""viewing_time"":8448}]","24835","","","","","","","","","","","","","","","","","","","","","","","","","","","",""
"","","","","","html-button-response","4","84101","0.0-2.0-1.0-1.0-0.0","59db7128e776fd00015ec895","F1","batch6","","1654","<p class=block-text> Let's answer a few questions <br>","0","pattern_enter_quiz","","","","","","","","","","","","","","","","","","","","","","","","",""
"","","","","","html-button-response","5","86449","0.0-2.0-1.0-1.0-1.0","59db7128e776fd00015ec895","F1","batch6","","2345","<p class = block-text>True or False: You will have as much time as you want to make each choice. <br></p>","1","pattern_quiz","true","","","","","","","","","","","","","","","","","","","","","","","",""
"","","","","","html-button-response","6","87857","0.0-2.0-1.0-1.0-2.0","59db7128e776fd00015ec895","F1","batch6","","1407","<p class = block-text>Correct! You should make your choice <strong> as fast as you can</strong>.</p>","0","pattern_quiz_feedback","","","","","","","","","","","","","","","","","","","","","","","","",""
"","","","","","html-button-response","7","91178","0.0-2.0-1.0-1.0-3.0","59db7128e776fd00015ec895","F1","batch6","","3318","<p class = block-text>True or False: You will look for 4 pieces in black or white color connected in a row either horizontally, vertically or diagonally. <br></p>","0","pattern_quiz","true","","","","","","","","","","","","","","","","","","","","","","","",""
"","","","","","html-button-response","8","92359","0.0-2.0-1.0-1.0-4.0","59db7128e776fd00015ec895","F1","batch6","","1180","<p class = block-text>Correct! </p>","0","pattern_quiz_feedback","","","","","","","","","","","","","","","","","","","","","","","","",""
"","","","","","html-button-response","9","94127","0.0-2.0-2.0","59db7128e776fd00015ec895","F1","batch6","","1767","<p class=block-text> Now that you've understood the game, let's do a few practice trials before we start!<br> <br>","0","pattern_enter_practice","","","","","","","","","","","","","","","","","","","","","","","","",""
"","","","","","image-keyboard-response","10","95966","0.0-2.0-3.0-0.0","59db7128e776fd00015ec895","F1","batch6","","1828","stim/prac_no_16_1.png","j","pattern_practice","true","j","","","","","","","","","","","","","","","","","","","","","","",""
"","","","","","html-keyboard-response","11","96992","0.0-2.0-3.0-1.0","59db7128e776fd00015ec895","F1","batch6","","null","<p style=""font-size:30px;color:green;"">Correct!</p>","null","pattern_feedback","","","","","","","","","","","","","","","","","","","","","","","","",""
"","","","","","image-keyboard-response","12","98526","0.0-2.0-3.0-0.1","59db7128e776fd00015ec895","F1","batch6","","1525","stim/prac_no_18_1.png","j","pattern_practice","true","j","","","","","","","","","","","","","","","","","","","","","","",""
"","","","","","html-keyboard-response","13","99534","0.0-2.0-3.0-1.1","59db7128e776fd00015ec895","F1","batch6","","null","<p style=""font-size:30px;color:green;"">Correct!</p>","null","pattern_feedback","","","","","","","","","","","","","","","","","","","","","","","","",""
"","","","","","image-keyboard-response","14","100200","0.0-2.0-3.0-0.2","59db7128e776fd00015ec895","F1","batch6","","656","stim/prac_yes_16_ver_w1.png","f","pattern_practice","true","f","","","","","","","","","","","","","","","","","","","","","","",""
"","","","","","html-keyboard-response","15","101216","0.0-2.0-3.0-1.2","59db7128e776fd00015ec895","F1","batch6","","null","<p style=""font-size:30px;color:green;"">Correct!</p>","null","pattern_feedback","","","","","","","","","","","","","","","","","","","","","","","","",""
"","","","","","image-keyboard-response","16","103101","0.0-2.0-3.0-0.3","59db7128e776fd00015ec895","F1","batch6","","1872","stim/prac_yes_20_dia_b1.png","j","pattern_practice","false","f","","","","","","","","","","","","","","","","","","","","","","",""
"","","","","","html-keyboard-response","17","104127","0.0-2.0-3.0-1.3","59db7128e776fd00015ec895","F1","batch6","","null","<p style=""font-size:30px;color:red;"">Wrong.</p>","null","pattern_feedback","","","","","","","","","","","","","","","","","","","","","","","","",""
"","","","","","image-keyboard-response","18","105035","0.0-2.0-3.0-0.4","59db7128e776fd00015ec895","F1","batch6","","898","stim/prac_yes_18_hor_w1.png","f","pattern_practice","true","f","","","","","","","","","","","","","","","","","","","","","","",""
"","","","","","html-keyboard-response","19","106062","0.0-2.0-3.0-1.4","59db7128e776fd00015ec895","F1","batch6","","null","<p style=""font-size:30px;color:green;"">Correct!</p>","null","pattern_feedback","","","","","","","","","","","","","","","","","","","","","","","","",""
"","","","","","html-button-response","20","113192","0.0-2.0-4.0","59db7128e776fd00015ec895","F1","batch6","","7129","<p class=block-text> Good job! You are done with practice trials!<br>
        You responded correctly on 80% of the trials.<br>
        Press the button below to start official trials. Now you won't see any feedback about your response</p>","0","pattern_enter_official_trials","","","","","","","","","","","","","","","","","","","","","","","","",""
"","","","","","html-keyboard-response","21","114005","0.0-2.0-5.0-0.0","59db7128e776fd00015ec895","F1","batch6","","null","<p class=block-text>Trial 1 out of 78</p>","null","pattern_show_trial_num","","","","","","","","","","","","","","","","","","","","","","","","",""
"","","","","","image-keyboard-response","22","115037","0.0-2.0-5.0-1.0","59db7128e776fd00015ec895","F1","batch6","","1020","stim/no_39_1_w.png","f","pattern_response","false","j","pattern_21","1020","false","0","","","","","","","","","","","","","","","","","","",""
"","","","","","html-keyboard-response","23","116358","0.0-2.0-5.0-0.1","59db7128e776fd00015ec895","F1","batch6","","null","<p class=block-text>Trial 2 out of 78</p>","null","pattern_show_trial_num","","","","","","","","","","","","","","","","","","","","","","","","",""
"","","","","","image-keyboard-response","24","117192","0.0-2.0-5.0-1.1","59db7128e776fd00015ec895","F1","batch6","","824","stim/yes_46_ver_b1_b.png","f","pattern_response","true","f","pattern_68","824","true","1","","","","","","","","","","","","","","","","","","",""
"","","","","","html-keyboard-response","25","118511","0.0-2.0-5.0-0.2","59db7128e776fd00015ec895","F1","batch6","","null","<p class=block-text>Trial 3 out of 78</p>","null","pattern_show_trial_num","","","","","","","","","","","","","","","","","","","","","","","","",""
"","","","","","image-keyboard-response","26","120797","0.0-2.0-5.0-1.2","59db7128e776fd00015ec895","F1","batch6","","2277","stim/yes_51_dia_b1.png","j","pattern_response","false","f","pattern_72","2277","false","1","","","","","","","","","","","","","","","","","","",""
"","","","","","html-keyboard-response","27","122121","0.0-2.0-5.0-0.3","59db7128e776fd00015ec895","F1","batch6","","null","<p class=block-text>Trial 4 out of 78</p>","null","pattern_show_trial_num","","","","","","","","","","","","","","","","","","","","","","","","",""
"","","","","","image-keyboard-response","28","123493","0.0-2.0-5.0-1.3","59db7128e776fd00015ec895","F1","batch6","","1360","stim/yes_36_ver_w1_w.png","f","pattern_response","true","f","pattern_58","1360","true","2","","","","","","","","","","","","","","","","","","",""
"","","","","","html-keyboard-response","29","124812","0.0-2.0-5.0-0.4","59db7128e776fd00015ec895","F1","batch6","","null","<p class=block-text>Trial 5 out of 78</p>","null","pattern_show_trial_num","","","","","","","","","","","","","","","","","","","","","","","","",""
"","","","","","image-keyboard-response","30","127713","0.0-2.0-5.0-1.4","59db7128e776fd00015ec895","F1","batch6","","2893","stim/yes_44_ver_w1_w.png","f","pattern_response","true","f","pattern_66","2893","true","3","","","","","","","","","","","","","","","","","","",""
"","","","","","html-keyboard-response","31","129035","0.0-2.0-5.0-0.5","59db7128e776fd00015ec895","F1","batch6","","null","<p class=block-text>Trial 6 out of 78</p>","null","pattern_show_trial_num","","","","","","","","","","","","","","","","","","","","","","","","",""
"","","","","","image-keyboard-response","32","131655","0.0-2.0-5.0-1.5","59db7128e776fd00015ec895","F1","batch6","","2609","stim/no_30_1_b.png","j","pattern_response","true","j","pattern_13","2609","true","4","","","","","","","","","","","","","","","","","","",""
"","","","","","html-keyboard-response","33","132977","0.0-2.0-5.0-0.6","59db7128e776fd00015ec895","F1","batch6","","null","<p class=block-text>Trial 7 out of 78</p>","null","pattern_show_trial_num","","","","","","","","","","","","","","","","","","","","","","","","",""
"","","","","","image-keyboard-response","34","134987","0.0-2.0-5.0-1.6","59db7128e776fd00015ec895","F1","batch6","","2001","stim/no_25_1_b.png","f","pattern_response","false","j","pattern_09","2001","false","4","","","","","","","","","","","","","","","","","","",""
"","","","","","html-keyboard-response","35","136309","0.0-2.0-5.0-0.7","59db7128e776fd00015ec895","F1","batch6","","null","<p class=block-text>Trial 8 out of 78</p>","null","pattern_show_trial_num","","","","","","","","","","","","","","","","","","","","","","","","",""
"","","","","","image-keyboard-response","36","138951","0.0-2.0-5.0-1.7","59db7128e776fd00015ec895","F1","batch6","","2633","stim/no_36_1_b.png","j","pattern_response","true","j","pattern_17","2633","true","5","","","","","","","","","","","","","","","","","","",""
"","","","","","html-keyboard-response","37","140273","0.0-2.0-5.0-0.8","59db7128e776fd00015ec895","F1","batch6","","null","<p class=block-text>Trial 9 out of 78</p>","null","pattern_show_trial_num","","","","","","","","","","","","","","","","","","","","","","","","",""
"","","","","","image-keyboard-response","38","144252","0.0-2.0-5.0-1.8","59db7128e776fd00015ec895","F1","batch6","","3971","stim/yes_70_ver_b1.png","j","pattern_response","false","f","pattern_80","3971","false","5","","","","","","","","","","","","","","","","","","",""
"","","","","","html-keyboard-response","39","145578","0.0-2.0-5.0-0.9","59db7128e776fd00015ec895","F1","batch6","","null","<p class=block-text>Trial 10 out of 78</p>","null","pattern_show_trial_num","","","","","","","","","","","","","","","","","","","","","","","","",""
"","","","","","image-keyboard-response","40","147986","0.0-2.0-5.0-1.9","59db7128e776fd00015ec895","F1","batch6","","2394","stim/yes_42_dia_w1_w.png","j","pattern_response","false","f","pattern_64","2394","false","5","","","","","","","","","","","","","","","","","","",""
"","","","","","html-keyboard-response","41","149302","0.0-2.0-5.0-0.10","59db7128e776fd00015ec895","F1","batch6","","null","<p class=block-text>Trial 11 out of 78</p>","null","pattern_show_trial_num","","","","","","","","","","","","","","","","","","","","","","","","",""
"","","","","","image-keyboard-response","42","153164","0.0-2.0-5.0-1.10","59db7128e776fd00015ec895","F1","batch6","","3855","stim/no_53_1_b.png","j","pattern_response","true","j","pattern_33","3855","true","6","","","","","","","","","","","","","","","","","","",""
"","","","","","html-keyboard-response","43","154477","0.0-2.0-5.0-0.11","59db7128e776fd00015ec895","F1","batch6","","null","<p class=block-text>Trial 12 out of 78</p>","null","pattern_show_trial_num","","","","","","","","","","","","","","","","","","","","","","","","",""
"","","","","","image-keyboard-response","44","155769","0.0-2.0-5.0-1.11","59db7128e776fd00015ec895","F1","batch6","","1282","stim/yes_39_hor_w1_w.png","f","pattern_response","true","f","pattern_62","1282","true","7","","","","","","","","","","","","","","","","","","",""
"","","","","","html-keyboard-response","45","157101","0.0-2.0-5.0-0.12","59db7128e776fd00015ec895","F1","batch6","","null","<p class=block-text>Trial 13 out of 78</p>","null","pattern_show_trial_num","","","","","","","","","","","","","","","","","","","","","","","","",""
"","","","","","image-keyboard-response","46","159596","0.0-2.0-5.0-1.12","59db7128e776fd00015ec895","F1","batch6","","2481","stim/no_51_1.png","j","pattern_response","true","j","pattern_31","2481","true","8","","","","","","","","","","","","","","","","","","",""
"","","","","","html-keyboard-response","47","160916","0.0-2.0-5.0-0.13","59db7128e776fd00015ec895","F1","batch6","","null","<p class=block-text>Trial 14 out of 78</p>","null","pattern_show_trial_num","","","","","","","","","","","","","","","","","","","","","","","","",""
"","","","","","image-keyboard-response","48","161705","0.0-2.0-5.0-1.13","59db7128e776fd00015ec895","F1","batch6","","782","stim/yes_12_hor_w1_w.png","f","pattern_response","true","f","pattern_42","782","true","9","","","","","","","","","","","","","","","","","","",""
"","","","","","html-keyboard-response","49","163015","0.0-2.0-5.0-0.14","59db7128e776fd00015ec895","F1","batch6","","null","<p class=block-text>Trial 15 out of 78</p>","null","pattern_show_trial_num","","","","","","","","","","","","","","","","","","","","","","","","",""
"","","","","","image-keyboard-response","50","164466","0.0-2.0-5.0-1.14","59db7128e776fd00015ec895","F1","batch6","","1439","stim/no_45_1_w.png","f","pattern_response","false","j","pattern_25","1439","false","9","","","","","","","","","","","","","","","","","","",""
"","","","","","html-keyboard-response","51","165784","0.0-2.0-5.0-0.15","59db7128e776fd00015ec895","F1","batch6","","null","<p class=block-text>Trial 16 out of 78</p>","null","pattern_show_trial_num","","","","","","","","","","","","","","","","","","","","","","","","",""
"","","","","","image-keyboard-response","52","166929","0.0-2.0-5.0-1.15","59db7128e776fd00015ec895","F1","batch6","","1136","stim/yes_49_hor_w1_b.png","f","pattern_response","true","f","pattern_70","1136","true","10","","","","","","","","","","","","","","","","","","",""
"","","","","","html-keyboard-response","53","168244","0.0-2.0-5.0-0.16","59db7128e776fd00015ec895","F1","batch6","","null","<p class=block-text>Trial 17 out of 78</p>","null","pattern_show_trial_num","","","","","","","","","","","","","","","","","","","","","","","","",""
"","","","","","image-keyboard-response","54","170103","0.0-2.0-5.0-1.16","59db7128e776fd00015ec895","F1","batch6","","1846","stim/no_67_1.png","f","pattern_response","false","j","pattern_39","1846","false","10","","","","","","","","","","","","","","","","","","",""
"","","","","","html-keyboard-response","55","171422","0.0-2.0-5.0-0.17","59db7128e776fd00015ec895","F1","batch6","","null","<p class=block-text>Trial 18 out of 78</p>","null","pattern_show_trial_num","","","","","","","","","","","","","","","","","","","","","","","","",""
"","","","","","image-keyboard-response","56","173869","0.0-2.0-5.0-1.17","59db7128e776fd00015ec895","F1","batch6","","2438","stim/no_58_1_w.png","j","pattern_response","true","j","pattern_35","2438","true","11","","","","","","","","","","","","","","","","","","",""
"","","","","","html-keyboard-response","57","175186","0.0-2.0-5.0-0.18","59db7128e776fd00015ec895","F1","batch6","","null","<p class=block-text>Trial 19 out of 78</p>","null","pattern_show_trial_num","","","","","","","","","","","","","","","","","","","","","","","","",""
"","","","","","image-keyboard-response","58","176808","0.0-2.0-5.0-1.18","59db7128e776fd00015ec895","F1","batch6","","1611","stim/yes_30_ver_b1_b.png","j","pattern_response","false","f","pattern_54","1611","false","11","","","","","","","","","","","","","","","","","","",""
"","","","","","html-keyboard-response","59","178128","0.0-2.0-5.0-0.19","59db7128e776fd00015ec895","F1","batch6","","null","<p class=block-text>Trial 20 out of 78</p>","null","pattern_show_trial_num","","","","","","","","","","","","","","","","","","","","","","","","",""
"","","","","","image-keyboard-response","60","179814","0.0-2.0-5.0-1.19","59db7128e776fd00015ec895","F1","batch6","","1674","stim/no_37_2_w.png","j","pattern_response","true","j","pattern_19","1674","true","12","","","","","","","","","","","","","","","","","","",""
"","","","","","html-keyboard-response","61","181136","0.0-2.0-5.0-0.20","59db7128e776fd00015ec895","F1","batch6","","null","<p class=block-text>Trial 21 out of 78</p>","null","pattern_show_trial_num","","","","","","","","","","","","","","","","","","","","","","","","",""
"","","","","","image-keyboard-response","62","182447","0.0-2.0-5.0-1.20","59db7128e776fd00015ec895","F1","batch6","","1297","stim/no_47_1_b.png","j","pattern_response","true","j","pattern_27","1297","true","13","","","","","","","","","","","","","","","","","","",""
"","","","","","html-keyboard-response","63","183766","0.0-2.0-5.0-0.21","59db7128e776fd00015ec895","F1","batch6","","null","<p class=block-text>Trial 22 out of 78</p>","null","pattern_show_trial_num","","","","","","","","","","","","","","","","","","","","","","","","",""
"","","","","","image-keyboard-response","64","184783","0.0-2.0-5.0-1.21","59db7128e776fd00015ec895","F1","batch6","","1005","stim/no_22_1_b.png","j","pattern_response","true","j","pattern_07","1005","true","14","","","","","","","","","","","","","","","","","","",""
"","","","","","html-keyboard-response","65","186106","0.0-2.0-5.0-0.22","59db7128e776fd00015ec895","F1","batch6","","null","<p class=block-text>Trial 23 out of 78</p>","null","pattern_show_trial_num","","","","","","","","","","","","","","","","","","","","","","","","",""
"","","","","","image-keyboard-response","66","188742","0.0-2.0-5.0-1.22","59db7128e776fd00015ec895","F1","batch6","","2630","stim/yes_58_dia_w1_w.png","j","pattern_response","false","f","pattern_76","2630","false","14","","","","","","","","","","","","","","","","","","",""
"","","","","","html-keyboard-response","67","190057","0.0-2.0-5.0-0.23","59db7128e776fd00015ec895","F1","batch6","","null","<p class=block-text>Trial 24 out of 78</p>","null","pattern_show_trial_num","","","","","","","","","","","","","","","","","","","","","","","","",""
"","","","","","image-keyboard-response","68","191619","0.0-2.0-5.0-1.23","59db7128e776fd00015ec895","F1","batch6","","1552","stim/no_33_1_b.png","j","pattern_response","true","j","pattern_15","1552","true","15","","","","","","","","","","","","","","","","","","",""
"","","","","","html-keyboard-response","69","192929","0.0-2.0-5.0-0.24","59db7128e776fd00015ec895","F1","batch6","","null","<p class=block-text>Trial 25 out of 78</p>","null","pattern_show_trial_num","","","","","","","","","","","","","","","","","","","","","","","","",""
"","","","","","image-keyboard-response","70","193963","0.0-2.0-5.0-1.24","59db7128e776fd00015ec895","F1","batch6","","1024","stim/yes_15_dia_b1u_b.png","j","pattern_response","false","f","pattern_44","1024","false","15","","","","","","","","","","","","","","","","","","",""
"","","","","","html-keyboard-response","71","195288","0.0-2.0-5.0-0.25","59db7128e776fd00015ec895","F1","batch6","","null","<p class=block-text>Trial 26 out of 78</p>","null","pattern_show_trial_num","","","","","","","","","","","","","","","","","","","","","","","","",""
"","","","","","image-keyboard-response","72","196161","0.0-2.0-5.0-1.25","59db7128e776fd00015ec895","F1","batch6","","863","stim/yes_29_hor_b1_b.png","f","pattern_response","true","f","pattern_52","863","true","16","","","","","","","","","","","","","","","","","","",""
"","","","","","html-keyboard-response","73","197476","0.0-2.0-5.0-0.26","59db7128e776fd00015ec895","F1","batch6","","null","<p class=block-text>Trial 27 out of 78</p>","null","pattern_show_trial_num","","","","","","","","","","","","","","","","","","","","","","","","",""
"","","","","","image-keyboard-response","74","198632","0.0-2.0-5.0-1.26","59db7128e776fd00015ec895","F1","batch6","","1146","stim/no_18_1_b.png","j","pattern_response","true","j","pattern_05","1146","true","17","","","","","","","","","","","","","","","","","","",""
"","","","","","html-keyboard-response","75","199953","0.0-2.0-5.0-0.27","59db7128e776fd00015ec895","F1","batch6","","null","<p class=block-text>Trial 28 out of 78</p>","null","pattern_show_trial_num","","","","","","","","","","","","","","","","","","","","","","","","",""
"","","","","","image-keyboard-response","76","200952","0.0-2.0-5.0-1.27","59db7128e776fd00015ec895","F1","batch6","","987","stim/no_15_1_w.png","j","pattern_response","true","j","pattern_03","987","true","18","","","","","","","","","","","","","","","","","","",""
"","","","","","html-keyboard-response","77","202270","0.0-2.0-5.0-0.28","59db7128e776fd00015ec895","F1","batch6","","null","<p class=block-text>Trial 29 out of 78</p>","null","pattern_show_trial_num","","","","","","","","","","","","","","","","","","","","","","","","",""
"","","","","","image-keyboard-response","78","204397","0.0-2.0-5.0-1.28","59db7128e776fd00015ec895","F1","batch6","","2116","stim/yes_53_ver_b1_b.png","f","pattern_response","true","f","pattern_74","2116","true","19","","","","","","","","","","","","","","","","","","",""
"","","","","","html-keyboard-response","79","205713","0.0-2.0-5.0-0.29","59db7128e776fd00015ec895","F1","batch6","","null","<p class=block-text>Trial 30 out of 78</p>","null","pattern_show_trial_num","","","","","","","","","","","","","","","","","","","","","","","","",""
"","","","","","image-keyboard-response","80","206644","0.0-2.0-5.0-1.29","59db7128e776fd00015ec895","F1","batch6","","920","stim/yes_26_dia_w2_w.png","j","pattern_response","false","f","pattern_50","920","false","19","","","","","","","","","","","","","","","","","","",""
"","","","","","html-keyboard-response","81","207960","0.0-2.0-5.0-0.30","59db7128e776fd00015ec895","F1","batch6","","null","<p class=block-text>Trial 31 out of 78</p>","null","pattern_show_trial_num","","","","","","","","","","","","","","","","","","","","","","","","",""
"","","","","","image-keyboard-response","82","209052","0.0-2.0-5.0-1.30","59db7128e776fd00015ec895","F1","batch6","","1081","stim/yes_33_dia_w1_w.png","j","pattern_response","false","f","pattern_56","1081","false","19","","","","","","","","","","","","","","","","","","",""
"","","","","","html-keyboard-response","83","210375","0.0-2.0-5.0-0.31","59db7128e776fd00015ec895","F1","batch6","","null","<p class=block-text>Trial 32 out of 78</p>","null","pattern_show_trial_num","","","","","","","","","","","","","","","","","","","","","","","","",""
"","","","","","image-keyboard-response","84","211979","0.0-2.0-5.0-1.31","59db7128e776fd00015ec895","F1","batch6","","1595","stim/no_28_2.png","j","pattern_response","true","j","pattern_11","1595","true","20","","","","","","","","","","","","","","","","","","",""
"","","","","","html-keyboard-response","85","213288","0.0-2.0-5.0-0.32","59db7128e776fd00015ec895","F1","batch6","","null","<p class=block-text>Trial 33 out of 78</p>","null","pattern_show_trial_num","","","","","","","","","","","","","","","","","","","","","","","","",""
"","","","","","image-keyboard-response","86","215866","0.0-2.0-5.0-1.32","59db7128e776fd00015ec895","F1","batch6","","2568","stim/no_49_2_b.png","j","pattern_response","true","j","pattern_29","2568","true","21","","","","","","","","","","","","","","","","","","",""
"","","","","","html-keyboard-response","87","217186","0.0-2.0-5.0-0.33","59db7128e776fd00015ec895","F1","batch6","","null","<p class=block-text>Trial 34 out of 78</p>","null","pattern_show_trial_num","","","","","","","","","","","","","","","","","","","","","","","","",""
"","","","","","image-keyboard-response","88","218019","0.0-2.0-5.0-1.33","59db7128e776fd00015ec895","F1","batch6","","824","stim/no_12_1.png","j","pattern_response","true","j","pattern_01","824","true","22","","","","","","","","","","","","","","","","","","",""
"","","","","","html-keyboard-response","89","219336","0.0-2.0-5.0-0.34","59db7128e776fd00015ec895","F1","batch6","","null","<p class=block-text>Trial 35 out of 78</p>","null","pattern_show_trial_num","","","","","","","","","","","","","","","","","","","","","","","","",""
"","","","","","image-keyboard-response","90","221013","0.0-2.0-5.0-1.34","59db7128e776fd00015ec895","F1","batch6","","1666","stim/yes_23_ver_b1.png","f","pattern_response","true","f","pattern_48","1666","true","23","","","","","","","","","","","","","","","","","","",""
"","","","","","html-keyboard-response","91","222327","0.0-2.0-5.0-0.35","59db7128e776fd00015ec895","F1","batch6","","null","<p class=block-text>Trial 36 out of 78</p>","null","pattern_show_trial_num","","","","","","","","","","","","","","","","","","","","","","","","",""
"","","","","","image-keyboard-response","92","223311","0.0-2.0-5.0-1.35","59db7128e776fd00015ec895","F1","batch6","","977","stim/yes_37_hor_w1_w.png","f","pattern_response","true","f","pattern_60","977","true","24","","","","","","","","","","","","","","","","","","",""
"","","","","","html-keyboard-response","93","224641","0.0-2.0-5.0-0.36","59db7128e776fd00015ec895","F1","batch6","","null","<p class=block-text>Trial 37 out of 78</p>","null","pattern_show_trial_num","","","","","","","","","","","","","","","","","","","","","","","","",""
"","","","","","image-keyboard-response","94","226295","0.0-2.0-5.0-1.36","59db7128e776fd00015ec895","F1","batch6","","1641","stim/no_43_2_b.png","j","pattern_response","true","j","pattern_23","1641","true","25","","","","","","","","","","","","","","","","","","",""
"","","","","","html-keyboard-response","95","227620","0.0-2.0-5.0-0.37","59db7128e776fd00015ec895","F1","batch6","","null","<p class=block-text>Trial 38 out of 78</p>","null","pattern_show_trial_num","","","","","","","","","","","","","","","","","","","","","","","","",""
"","","","","","image-keyboard-response","96","229958","0.0-2.0-5.0-1.37","59db7128e776fd00015ec895","F1","batch6","","2326","stim/yes_63_dia_b1.png","j","pattern_response","false","f","pattern_78","2326","false","25","","","","","","","","","","","","","","","","","","",""
"","","","","","html-keyboard-response","97","231290","0.0-2.0-5.0-0.38","59db7128e776fd00015ec895","F1","batch6","","null","<p class=block-text>Trial 39 out of 78</p>","null","pattern_show_trial_num","","","","","","","","","","","","","","","","","","","","","","","","",""
"","","","","","image-keyboard-response","98","232212","0.0-2.0-5.0-1.38","59db7128e776fd00015ec895","F1","batch6","","913","stim/yes_17_ver_b1_b.png","f","pattern_response","true","f","pattern_46","913","true","26","","","","","","","","","","","","","","","","","","",""
"","","","","","image-keyboard-response","99","234105","0.0-2.0-6.0","59db7128e776fd00015ec895","F1","batch6","","1374","stim/empty_board.png","j","attention_check","true","j","","","","","500","[""f"",""j""]","","","","","","","","","","","","","","","","",""
"","","","","","html-keyboard-response","100","234907","0.0-2.0-7.0-0.0","59db7128e776fd00015ec895","F1","batch6","","null","<p class=block-text>Trial 40 out of 78</p>","null","pattern_show_trial_num","","","","","","","","","","","","","","","","","","","","","","","","",""
"","","","","","image-keyboard-response","101","237311","0.0-2.0-7.0-1.0","59db7128e776fd00015ec895","F1","batch6","","2396","stim/no_32_1_w.png","j","pattern_response","true","j","pattern_14","2396","true","27","","","","","","","","","","","","","","","","","","",""
"","","","","","html-keyboard-response","102","238627","0.0-2.0-7.0-0.1","59db7128e776fd00015ec895","F1","batch6","","null","<p class=block-text>Trial 41 out of 78</p>","null","pattern_show_trial_num","","","","","","","","","","","","","","","","","","","","","","","","",""
"","","","","","image-keyboard-response","103","242369","0.0-2.0-7.0-1.1","59db7128e776fd00015ec895","F1","batch6","","3733","stim/no_62_1_w.png","f","pattern_response","false","j","pattern_36","3733","false","27","","","","","","","","","","","","","","","","","","",""
"","","","","","html-keyboard-response","104","243696","0.0-2.0-7.0-0.2","59db7128e776fd00015ec895","F1","batch6","","null","<p class=block-text>Trial 42 out of 78</p>","null","pattern_show_trial_num","","","","","","","","","","","","","","","","","","","","","","","","",""
"","","","","","image-keyboard-response","105","246545","0.0-2.0-7.0-1.2","59db7128e776fd00015ec895","F1","batch6","","2836","stim/no_65_1_b.png","j","pattern_response","true","j","pattern_38","2836","true","28","","","","","","","","","","","","","","","","","","",""
"","","","","","html-keyboard-response","106","247859","0.0-2.0-7.0-0.3","59db7128e776fd00015ec895","F1","batch6","","null","<p class=block-text>Trial 43 out of 78</p>","null","pattern_show_trial_num","","","","","","","","","","","","","","","","","","","","","","","","",""
"","","","","","image-keyboard-response","107","249469","0.0-2.0-7.0-1.3","59db7128e776fd00015ec895","F1","batch6","","1599","stim/no_46_1_b.png","j","pattern_response","true","j","pattern_26","1599","true","29","","","","","","","","","","","","","","","","","","",""
"","","","","","html-keyboard-response","108","250786","0.0-2.0-7.0-0.4","59db7128e776fd00015ec895","F1","batch6","","null","<p class=block-text>Trial 44 out of 78</p>","null","pattern_show_trial_num","","","","","","","","","","","","","","","","","","","","","","","","",""
"","","","","","image-keyboard-response","109","253176","0.0-2.0-7.0-1.4","59db7128e776fd00015ec895","F1","batch6","","2385","stim/no_70_2.png","j","pattern_response","true","j","pattern_40","2385","true","30","","","","","","","","","","","","","","","","","","",""
"","","","","","html-keyboard-response","110","254496","0.0-2.0-7.0-0.5","59db7128e776fd00015ec895","F1","batch6","","null","<p class=block-text>Trial 45 out of 78</p>","null","pattern_show_trial_num","","","","","","","","","","","","","","","","","","","","","","","","",""
"","","","","","image-keyboard-response","111","255497","0.0-2.0-7.0-1.5","59db7128e776fd00015ec895","F1","batch6","","992","stim/yes_25_hor_b1_b.png","f","pattern_response","true","f","pattern_49","992","true","31","","","","","","","","","","","","","","","","","","",""
"","","","","","html-keyboard-response","112","256819","0.0-2.0-7.0-0.6","59db7128e776fd00015ec895","F1","batch6","","null","<p class=block-text>Trial 46 out of 78</p>","null","pattern_show_trial_num","","","","","","","","","","","","","","","","","","","","","","","","",""
"","","","","","image-keyboard-response","113","258710","0.0-2.0-7.0-1.6","59db7128e776fd00015ec895","F1","batch6","","1882","stim/no_48_1_w.png","j","pattern_response","true","j","pattern_28","1882","true","32","","","","","","","","","","","","","","","","","","",""
"","","","","","html-keyboard-response","114","260034","0.0-2.0-7.0-0.7","59db7128e776fd00015ec895","F1","batch6","","null","<p class=block-text>Trial 47 out of 78</p>","null","pattern_show_trial_num","","","","","","","","","","","","","","","","","","","","","","","","",""
"","","","","","image-keyboard-response","115","261253","0.0-2.0-7.0-1.7","59db7128e776fd00015ec895","F1","batch6","","1209","stim/no_26_1_w.png","j","pattern_response","true","j","pattern_10","1209","true","33","","","","","","","","","","","","","","","","","","",""
"","","","","","html-keyboard-response","116","262570","0.0-2.0-7.0-0.8","59db7128e776fd00015ec895","F1","batch6","","null","<p class=block-text>Trial 48 out of 78</p>","null","pattern_show_trial_num","","","","","","","","","","","","","","","","","","","","","","","","",""
"","","","","","image-keyboard-response","117","264191","0.0-2.0-7.0-1.8","59db7128e776fd00015ec895","F1","batch6","","1612","stim/yes_37_dia_w1.png","j","pattern_response","false","f","pattern_59","1612","false","33","","","","","","","","","","","","","","","","","","",""
"","","","","","html-keyboard-response","118","265509","0.0-2.0-7.0-0.9","59db7128e776fd00015ec895","F1","batch6","","null","<p class=block-text>Trial 49 out of 78</p>","null","pattern_show_trial_num","","","","","","","","","","","","","","","","","","","","","","","","",""
"","","","","","image-keyboard-response","119","266638","0.0-2.0-7.0-1.9","59db7128e776fd00015ec895","F1","batch6","","1118","stim/no_23_1.png","j","pattern_response","true","j","pattern_08","1118","true","34","","","","","","","","","","","","","","","","","","",""
"","","","","","html-keyboard-response","120","267952","0.0-2.0-7.0-0.10","59db7128e776fd00015ec895","F1","batch6","","null","<p class=block-text>Trial 50 out of 78</p>","null","pattern_show_trial_num","","","","","","","","","","","","","","","","","","","","","","","","",""
"","","","","","image-keyboard-response","121","269167","0.0-2.0-7.0-1.10","59db7128e776fd00015ec895","F1","batch6","","1204","stim/yes_38_hor_b1_b.png","j","pattern_response","false","f","pattern_61","1204","false","34","","","","","","","","","","","","","","","","","","",""
"","","","","","html-keyboard-response","122","270486","0.0-2.0-7.0-0.11","59db7128e776fd00015ec895","F1","batch6","","null","<p class=block-text>Trial 51 out of 78</p>","null","pattern_show_trial_num","","","","","","","","","","","","","","","","","","","","","","","","",""
"","","","","","image-keyboard-response","123","272273","0.0-2.0-7.0-1.11","59db7128e776fd00015ec895","F1","batch6","","1775","stim/yes_67_hor_b1.png","f","pattern_response","true","f","pattern_79","1775","true","35","","","","","","","","","","","","","","","","","","",""
"","","","","","html-keyboard-response","124","273588","0.0-2.0-7.0-0.12","59db7128e776fd00015ec895","F1","batch6","","null","<p class=block-text>Trial 52 out of 78</p>","null","pattern_show_trial_num","","","","","","","","","","","","","","","","","","","","","","","","",""
"","","","","","image-keyboard-response","125","274787","0.0-2.0-7.0-1.12","59db7128e776fd00015ec895","F1","batch6","","1190","stim/yes_17_dia_w1.png","f","pattern_response","true","f","pattern_45","1190","true","36","","","","","","","","","","","","","","","","","","",""
"","","","","","html-keyboard-response","126","276102","0.0-2.0-7.0-0.13","59db7128e776fd00015ec895","F1","batch6","","null","<p class=block-text>Trial 53 out of 78</p>","null","pattern_show_trial_num","","","","","","","","","","","","","","","","","","","","","","","","",""
"","","","","","image-keyboard-response","127","278591","0.0-2.0-7.0-1.13","59db7128e776fd00015ec895","F1","batch6","","2484","stim/yes_50_dia_w1.png","j","pattern_response","false","f","pattern_71","2484","false","36","","","","","","","","","","","","","","","","","","",""
"","","","","","html-keyboard-response","128","279894","0.0-2.0-7.0-0.14","59db7128e776fd00015ec895","F1","batch6","","null","<p class=block-text>Trial 54 out of 78</p>","null","pattern_show_trial_num","","","","","","","","","","","","","","","","","","","","","","","","",""
"","","","","","image-keyboard-response","129","281506","0.0-2.0-7.0-1.14","59db7128e776fd00015ec895","F1","batch6","","1599","stim/yes_43_ver_w1_w.png","f","pattern_response","true","f","pattern_65","1599","true","37","","","","","","","","","","","","","","","","","","",""
"","","","","","html-keyboard-response","130","282831","0.0-2.0-7.0-0.15","59db7128e776fd00015ec895","F1","batch6","","null","<p class=block-text>Trial 55 out of 78</p>","null","pattern_show_trial_num","","","","","","","","","","","","","","","","","","","","","","","","",""
"","","","","","image-keyboard-response","131","284793","0.0-2.0-7.0-1.15","59db7128e776fd00015ec895","F1","batch6","","1950","stim/yes_40_dia_b1_b.png","j","pattern_response","false","f","pattern_63","1950","false","37","","","","","","","","","","","","","","","","","","",""
"","","","","","html-keyboard-response","132","286119","0.0-2.0-7.0-0.16","59db7128e776fd00015ec895","F1","batch6","","null","<p class=block-text>Trial 56 out of 78</p>","null","pattern_show_trial_num","","","","","","","","","","","","","","","","","","","","","","","","",""
"","","","","","image-keyboard-response","133","288249","0.0-2.0-7.0-1.16","59db7128e776fd00015ec895","F1","batch6","","2120","stim/no_13_2_b.png","j","pattern_response","true","j","pattern_02","2120","true","38","","","","","","","","","","","","","","","","","","",""
"","","","","","html-keyboard-response","134","289575","0.0-2.0-7.0-0.17","59db7128e776fd00015ec895","F1","batch6","","null","<p class=block-text>Trial 57 out of 78</p>","null","pattern_show_trial_num","","","","","","","","","","","","","","","","","","","","","","","","",""
"","","","","","image-keyboard-response","135","291076","0.0-2.0-7.0-1.17","59db7128e776fd00015ec895","F1","batch6","","1491","stim/no_34_1_b.png","j","pattern_response","true","j","pattern_16","1491","true","39","","","","","","","","","","","","","","","","","","",""
"","","","","","html-keyboard-response","136","292385","0.0-2.0-7.0-0.18","59db7128e776fd00015ec895","F1","batch6","","null","<p class=block-text>Trial 58 out of 78</p>","null","pattern_show_trial_num","","","","","","","","","","","","","","","","","","","","","","","","",""
"","","","","","image-keyboard-response","137","294966","0.0-2.0-7.0-1.18","59db7128e776fd00015ec895","F1","batch6","","2569","stim/no_44_1.png","j","pattern_response","true","j","pattern_24","2569","true","40","","","","","","","","","","","","","","","","","","",""
"","","","","","html-keyboard-response","138","296272","0.0-2.0-7.0-0.19","59db7128e776fd00015ec895","F1","batch6","","null","<p class=block-text>Trial 59 out of 78</p>","null","pattern_show_trial_num","","","","","","","","","","","","","","","","","","","","","","","","",""
"","","","","","image-keyboard-response","139","297245","0.0-2.0-7.0-1.19","59db7128e776fd00015ec895","F1","batch6","","964","stim/no_20_1_w.png","j","pattern_response","true","j","pattern_06","964","true","41","","","","","","","","","","","","","","","","","","",""
"","","","","","html-keyboard-response","140","298572","0.0-2.0-7.0-0.20","59db7128e776fd00015ec895","F1","batch6","","null","<p class=block-text>Trial 60 out of 78</p>","null","pattern_show_trial_num","","","","","","","","","","","","","","","","","","","","","","","","",""
"","","","","","image-keyboard-response","141","299398","0.0-2.0-7.0-1.20","59db7128e776fd00015ec895","F1","batch6","","816","stim/yes_22_ver_w1.png","f","pattern_response","true","f","pattern_47","816","true","42","","","","","","","","","","","","","","","","","","",""
"","","","","","html-keyboard-response","142","300722","0.0-2.0-7.0-0.21","59db7128e776fd00015ec895","F1","batch6","","null","<p class=block-text>Trial 61 out of 78</p>","null","pattern_show_trial_num","","","","","","","","","","","","","","","","","","","","","","","","",""
"","","","","","image-keyboard-response","143","302555","0.0-2.0-7.0-1.21","59db7128e776fd00015ec895","F1","batch6","","1824","stim/no_52_1.png","j","pattern_response","true","j","pattern_32","1824","true","43","","","","","","","","","","","","","","","","","","",""
"","","","","","html-keyboard-response","144","303874","0.0-2.0-7.0-0.22","59db7128e776fd00015ec895","F1","batch6","","null","<p class=block-text>Trial 62 out of 78</p>","null","pattern_show_trial_num","","","","","","","","","","","","","","","","","","","","","","","","",""
"","","","","","image-keyboard-response","145","305114","0.0-2.0-7.0-1.22","59db7128e776fd00015ec895","F1","batch6","","1231","stim/no_42_1_w.png","j","pattern_response","true","j","pattern_22","1231","true","44","","","","","","","","","","","","","","","","","","",""
"","","","","","html-keyboard-response","146","306436","0.0-2.0-7.0-0.23","59db7128e776fd00015ec895","F1","batch6","","null","<p class=block-text>Trial 63 out of 78</p>","null","pattern_show_trial_num","","","","","","","","","","","","","","","","","","","","","","","","",""
"","","","","","image-keyboard-response","147","307305","0.0-2.0-7.0-1.23","59db7128e776fd00015ec895","F1","batch6","","860","stim/yes_55_hor_w1_w.png","f","pattern_response","true","f","pattern_75","860","true","45","","","","","","","","","","","","","","","","","","",""
"","","","","","html-keyboard-response","148","308617","0.0-2.0-7.0-0.24","59db7128e776fd00015ec895","F1","batch6","","null","<p class=block-text>Trial 64 out of 78</p>","null","pattern_show_trial_num","","","","","","","","","","","","","","","","","","","","","","","","",""
"","","","","","image-keyboard-response","149","310411","0.0-2.0-7.0-1.24","59db7128e776fd00015ec895","F1","batch6","","1788","stim/yes_31_hor_b1.png","j","pattern_response","false","f","pattern_55","1788","false","45","","","","","","","","","","","","","","","","","","",""
"","","","","","html-keyboard-response","150","311729","0.0-2.0-7.0-0.25","59db7128e776fd00015ec895","F1","batch6","","null","<p class=block-text>Trial 65 out of 78</p>","null","pattern_show_trial_num","","","","","","","","","","","","","","","","","","","","","","","","",""
"","","","","","image-keyboard-response","151","312943","0.0-2.0-7.0-1.25","59db7128e776fd00015ec895","F1","batch6","","1205","stim/yes_52_ver_w1.png","f","pattern_response","true","f","pattern_73","1205","true","46","","","","","","","","","","","","","","","","","","",""
"","","","","","html-keyboard-response","152","314260","0.0-2.0-7.0-0.26","59db7128e776fd00015ec895","F1","batch6","","null","<p class=block-text>Trial 66 out of 78</p>","null","pattern_show_trial_num","","","","","","","","","","","","","","","","","","","","","","","","",""
"","","","","","image-keyboard-response","153","315665","0.0-2.0-7.0-1.26","59db7128e776fd00015ec895","F1","batch6","","1394","stim/no_29_1_b.png","j","pattern_response","true","j","pattern_12","1394","true","47","","","","","","","","","","","","","","","","","","",""
"","","","","","html-keyboard-response","154","316983","0.0-2.0-7.0-0.27","59db7128e776fd00015ec895","F1","batch6","","null","<p class=block-text>Trial 67 out of 78</p>","null","pattern_show_trial_num","","","","","","","","","","","","","","","","","","","","","","","","",""
"","","","","","image-keyboard-response","155","319468","0.0-2.0-7.0-1.27","59db7128e776fd00015ec895","F1","batch6","","2475","stim/yes_48_dia_w1_w.png","j","pattern_response","false","f","pattern_69","2475","false","47","","","","","","","","","","","","","","","","","","",""
"","","","","","html-keyboard-response","156","320786","0.0-2.0-7.0-0.28","59db7128e776fd00015ec895","F1","batch6","","null","<p class=block-text>Trial 68 out of 78</p>","null","pattern_show_trial_num","","","","","","","","","","","","","","","","","","","","","","","","",""
"","","","","","image-keyboard-response","157","322645","0.0-2.0-7.0-1.28","59db7128e776fd00015ec895","F1","batch6","","1848","stim/no_50_1.png","j","pattern_response","true","j","pattern_30","1848","true","48","","","","","","","","","","","","","","","","","","",""
"","","","","","html-keyboard-response","158","323972","0.0-2.0-7.0-0.29","59db7128e776fd00015ec895","F1","batch6","","null","<p class=block-text>Trial 69 out of 78</p>","null","pattern_show_trial_num","","","","","","","","","","","","","","","","","","","","","","","","",""
"","","","","","image-keyboard-response","159","325078","0.0-2.0-7.0-1.29","59db7128e776fd00015ec895","F1","batch6","","1099","stim/yes_45_hor_b2_b.png","f","pattern_response","true","f","pattern_67","1099","true","49","","","","","","","","","","","","","","","","","","",""
"","","","","","html-keyboard-response","160","326403","0.0-2.0-7.0-0.30","59db7128e776fd00015ec895","F1","batch6","","null","<p class=block-text>Trial 70 out of 78</p>","null","pattern_show_trial_num","","","","","","","","","","","","","","","","","","","","","","","","",""
"","","","","","image-keyboard-response","161","327346","0.0-2.0-7.0-1.30","59db7128e776fd00015ec895","F1","batch6","","933","stim/yes_29_ver_w1.png","f","pattern_response","true","f","pattern_53","933","true","50","","","","","","","","","","","","","","","","","","",""
"","","","","","html-keyboard-response","162","328657","0.0-2.0-7.0-0.31","59db7128e776fd00015ec895","F1","batch6","","null","<p class=block-text>Trial 71 out of 78</p>","null","pattern_show_trial_num","","","","","","","","","","","","","","","","","","","","","","","","",""
"","","","","","image-keyboard-response","163","330121","0.0-2.0-7.0-1.31","59db7128e776fd00015ec895","F1","batch6","","1453","stim/yes_60_ver_b1_b.png","f","pattern_response","true","f","pattern_77","1453","true","51","","","","","","","","","","","","","","","","","","",""
"","","","","","html-keyboard-response","164","331434","0.0-2.0-7.0-0.32","59db7128e776fd00015ec895","F1","batch6","","null","<p class=block-text>Trial 72 out of 78</p>","null","pattern_show_trial_num","","","","","","","","","","","","","","","","","","","","","","","","",""
"","","","","","image-keyboard-response","165","332153","0.0-2.0-7.0-1.32","59db7128e776fd00015ec895","F1","batch6","","709","stim/yes_14_hor_b1_w.png","f","pattern_response","true","f","pattern_43","709","true","52","","","","","","","","","","","","","","","","","","",""
"","","","","","html-keyboard-response","166","333479","0.0-2.0-7.0-0.33","59db7128e776fd00015ec895","F1","batch6","","null","<p class=block-text>Trial 73 out of 78</p>","null","pattern_show_trial_num","","","","","","","","","","","","","","","","","","","","","","","","",""
"","","","","","image-keyboard-response","167","334369","0.0-2.0-7.0-1.33","59db7128e776fd00015ec895","F1","batch6","","878","stim/no_17_1_w.png","j","pattern_response","true","j","pattern_04","878","true","53","","","","","","","","","","","","","","","","","","",""
"","","","","","html-keyboard-response","168","335694","0.0-2.0-7.0-0.34","59db7128e776fd00015ec895","F1","batch6","","null","<p class=block-text>Trial 74 out of 78</p>","null","pattern_show_trial_num","","","","","","","","","","","","","","","","","","","","","","","","",""
"","","","","","image-keyboard-response","169","337366","0.0-2.0-7.0-1.34","59db7128e776fd00015ec895","F1","batch6","","1661","stim/yes_35_dia_b1.png","j","pattern_response","false","f","pattern_57","1661","false","53","","","","","","","","","","","","","","","","","","",""
"","","","","","html-keyboard-response","170","338690","0.0-2.0-7.0-0.35","59db7128e776fd00015ec895","F1","batch6","","null","<p class=block-text>Trial 75 out of 78</p>","null","pattern_show_trial_num","","","","","","","","","","","","","","","","","","","","","","","","",""
"","","","","","image-keyboard-response","171","340154","0.0-2.0-7.0-1.35","59db7128e776fd00015ec895","F1","batch6","","1451","stim/no_55_1_w.png","j","pattern_response","true","j","pattern_34","1451","true","54","","","","","","","","","","","","","","","","","","",""
"","","","","","html-keyboard-response","172","341467","0.0-2.0-7.0-0.36","59db7128e776fd00015ec895","F1","batch6","","null","<p class=block-text>Trial 76 out of 78</p>","null","pattern_show_trial_num","","","","","","","","","","","","","","","","","","","","","","","","",""
"","","","","","image-keyboard-response","173","342944","0.0-2.0-7.0-1.36","59db7128e776fd00015ec895","F1","batch6","","1468","stim/no_36_2_w.png","j","pattern_response","true","j","pattern_18","1468","true","55","","","","","","","","","","","","","","","","","","",""
"","","","","","html-keyboard-response","174","344259","0.0-2.0-7.0-0.37","59db7128e776fd00015ec895","F1","batch6","","null","<p class=block-text>Trial 77 out of 78</p>","null","pattern_show_trial_num","","","","","","","","","","","","","","","","","","","","","","","","",""
"","","","","","image-keyboard-response","175","345166","0.0-2.0-7.0-1.37","59db7128e776fd00015ec895","F1","batch6","","895","stim/yes_28_ver_b1.png","f","pattern_response","true","f","pattern_51","895","true","56","","","","","","","","","","","","","","","","","","",""
"","","","","","html-keyboard-response","176","346489","0.0-2.0-7.0-0.38","59db7128e776fd00015ec895","F1","batch6","","null","<p class=block-text>Trial 78 out of 78</p>","null","pattern_show_trial_num","","","","","","","","","","","","","","","","","","","","","","","","",""
"","","","","","image-keyboard-response","177","347518","0.0-2.0-7.0-1.38","59db7128e776fd00015ec895","F1","batch6","","1020","stim/no_38_1_b.png","j","pattern_response","true","j","pattern_20","1020","true","57","","","","","","","","","","","","","","","","","","",""
"","","","","","html-button-response","178","354477","0.0-2.0-8.0","59db7128e776fd00015ec895","F1","batch6","","6454","<p class = block-text>This concludes the 4-in-a-row detection game.Thank you for your responses!<br>
            You responded correctly on 73% of the trials.<br>
            When you are ready, press ""Continue"" button to continue </p>","0","","","","","","","","","","","","","","","","","","","","","","","","","",""
"true","","","","","fullscreen","179","357618","0.0-3.0-0.0","59db7128e776fd00015ec895","F1","batch6","","","","","spm_fullscreen","","","","","","","","","","","","","","","","","","","","","","","","",""
"","","","","","html-button-response","180","367533","0.0-3.0-1.0","59db7128e776fd00015ec895","F1","batch6","","9913","<p class = block-text><b>Instructions</b> <br>This is a widely used intelligence test in research. <br>In this test, a figure with a missing piece will be presented.<br>Below the figure are alternative pieces to complete the figure, only one of which is correct.<br> Different figures might involve different principles for obtaining the missing piece<br>Your job is to select the most logical piece to complete the figure.</p>","0","","","","","","","","","","","","","","","","","","","","","","","","","",""
"","","","","","html-keyboard-response","181","368341","0.0-3.0-2.0-0.0","59db7128e776fd00015ec895","F1","batch6","","null","<p class=block-text>Trial 1 out of 60</p>","null","spm_show_trial_num","","","","","","","","","","","","","","","","","","","","","","","","",""
"","","","","","image-button-response","182","375723","0.0-3.0-2.0-1.0","59db7128e776fd00015ec895","F1","batch6","","7377","img/question_1_1.jpeg","3","spm_respsonse","1","4","mat_01","","","","","","1","7377","","","","","","","","","","","","","","",""
"","","","","","html-keyboard-response","183","376789","0.0-3.0-2.0-0.1","59db7128e776fd00015ec895","F1","batch6","","null","<p class=block-text>Trial 2 out of 60</p>","null","spm_show_trial_num","","","","","","","","","","","","","","","","","","","","","","","","",""
"","","","","","image-button-response","184","381630","0.0-3.0-2.0-1.1","59db7128e776fd00015ec895","F1","batch6","","4836","img/question_1_2.jpeg","4","spm_respsonse","1","5","mat_02","","","","","","1","4836","","","","","","","","","","","","","","",""
"","","","","","html-keyboard-response","185","382702","0.0-3.0-2.0-0.2","59db7128e776fd00015ec895","F1","batch6","","null","<p class=block-text>Trial 3 out of 60</p>","null","spm_show_trial_num","","","","","","","","","","","","","","","","","","","","","","","","",""
"","","","","","image-button-response","186","386243","0.0-3.0-2.0-1.2","59db7128e776fd00015ec895","F1","batch6","","3537","img/question_1_3.jpeg","0","spm_respsonse","1","1","mat_03","","","","","","1","3537","","","","","","","","","","","","","","",""
"","","","","","html-keyboard-response","187","387310","0.0-3.0-2.0-0.3","59db7128e776fd00015ec895","F1","batch6","","null","<p class=block-text>Trial 4 out of 60</p>","null","spm_show_trial_num","","","","","","","","","","","","","","","","","","","","","","","","",""
"","","","","","image-button-response","188","393092","0.0-3.0-2.0-1.3","59db7128e776fd00015ec895","F1","batch6","","5778","img/question_1_4.jpeg","1","spm_respsonse","1","2","mat_04","","","","","","1","5778","","","","","","","","","","","","","","",""
"","","","","","html-keyboard-response","189","394162","0.0-3.0-2.0-0.4","59db7128e776fd00015ec895","F1","batch6","","null","<p class=block-text>Trial 5 out of 60</p>","null","spm_show_trial_num","","","","","","","","","","","","","","","","","","","","","","","","",""
"","","","","","image-button-response","190","398846","0.0-3.0-2.0-1.4","59db7128e776fd00015ec895","F1","batch6","","4678","img/question_1_5.jpeg","5","spm_respsonse","1","6","mat_05","","","","","","1","4678","","","","","","","","","","","","","","",""
"","","","","","html-keyboard-response","191","399919","0.0-3.0-2.0-0.5","59db7128e776fd00015ec895","F1","batch6","","null","<p class=block-text>Trial 6 out of 60</p>","null","spm_show_trial_num","","","","","","","","","","","","","","","","","","","","","","","","",""
"","","","","","image-button-response","192","402721","0.0-3.0-2.0-1.5","59db7128e776fd00015ec895","F1","batch6","","2799","img/question_1_6.jpeg","2","spm_respsonse","1","3","mat_06","","","","","","1","2799","","","","","","","","","","","","","","",""
"","","","","","html-keyboard-response","193","403795","0.0-3.0-2.0-0.6","59db7128e776fd00015ec895","F1","batch6","","null","<p class=block-text>Trial 7 out of 60</p>","null","spm_show_trial_num","","","","","","","","","","","","","","","","","","","","","","","","",""
"","","","","","image-button-response","194","407169","0.0-3.0-2.0-1.6","59db7128e776fd00015ec895","F1","batch6","","3368","img/question_1_7.jpeg","5","spm_respsonse","1","6","mat_07","","","","","","1","3368","","","","","","","","","","","","","","",""
"","","","","","html-keyboard-response","195","408239","0.0-3.0-2.0-0.7","59db7128e776fd00015ec895","F1","batch6","","null","<p class=block-text>Trial 8 out of 60</p>","null","spm_show_trial_num","","","","","","","","","","","","","","","","","","","","","","","","",""
"","","","","","image-button-response","196","411103","0.0-3.0-2.0-1.7","59db7128e776fd00015ec895","F1","batch6","","2858","img/question_1_8.jpeg","4","spm_respsonse","0","2","mat_08","","","","","","0","2858","","","","","","","","","","","","","","",""
"","","","","","html-keyboard-response","197","412177","0.0-3.0-2.0-0.8","59db7128e776fd00015ec895","F1","batch6","","null","<p class=block-text>Trial 9 out of 60</p>","null","spm_show_trial_num","","","","","","","","","","","","","","","","","","","","","","","","",""
"","","","","","image-button-response","198","417323","0.0-3.0-2.0-1.8","59db7128e776fd00015ec895","F1","batch6","","5140","img/question_1_9.jpeg","4","spm_respsonse","0","1","mat_09","","","","","","0","5140","","","","","","","","","","","","","","",""
"","","","","","html-keyboard-response","199","418398","0.0-3.0-2.0-0.9","59db7128e776fd00015ec895","F1","batch6","","null","<p class=block-text>Trial 10 out of 60</p>","null","spm_show_trial_num","","","","","","","","","","","","","","","","","","","","","","","","",""
"","","","","","image-button-response","200","424352","0.0-3.0-2.0-1.9","59db7128e776fd00015ec895","F1","batch6","","5947","img/question_1_10.jpeg","5","spm_respsonse","0","3","mat_10","","","","","","0","5947","","","","","","","","","","","","","","",""
"","","","","","html-keyboard-response","201","425422","0.0-3.0-2.0-0.10","59db7128e776fd00015ec895","F1","batch6","","null","<p class=block-text>Trial 11 out of 60</p>","null","spm_show_trial_num","","","","","","","","","","","","","","","","","","","","","","","","",""
"","","","","","image-button-response","202","431479","0.0-3.0-2.0-1.10","59db7128e776fd00015ec895","F1","batch6","","6050","img/question_1_11.jpeg","1","spm_respsonse","0","4","mat_11","","","","","","0","6050","","","","","","","","","","","","","","",""
"","","","","","html-keyboard-response","203","432541","0.0-3.0-2.0-0.11","59db7128e776fd00015ec895","F1","batch6","","null","<p class=block-text>Trial 12 out of 60</p>","null","spm_show_trial_num","","","","","","","","","","","","","","","","","","","","","","","","",""
"","","","","","image-button-response","204","439389","0.0-3.0-2.0-1.11","59db7128e776fd00015ec895","F1","batch6","","6845","img/question_1_12.jpeg","3","spm_respsonse","0","5","mat_12","","","","","","0","6845","","","","","","","","","","","","","","",""
"","","","","","html-keyboard-response","205","440465","0.0-3.0-2.0-0.12","59db7128e776fd00015ec895","F1","batch6","","null","<p class=block-text>Trial 13 out of 60</p>","null","spm_show_trial_num","","","","","","","","","","","","","","","","","","","","","","","","",""
"","","","","","image-button-response","206","443670","0.0-3.0-2.0-1.12","59db7128e776fd00015ec895","F1","batch6","","3197","img/question_2_1.jpeg","1","spm_respsonse","1","2","mat_13","","","","","","1","3197","","","","","","","","","","","","","","",""
"","","","","","html-keyboard-response","207","444741","0.0-3.0-2.0-0.13","59db7128e776fd00015ec895","F1","batch6","","null","<p class=block-text>Trial 14 out of 60</p>","null","spm_show_trial_num","","","","","","","","","","","","","","","","","","","","","","","","",""
"","","","","","image-button-response","208","448092","0.0-3.0-2.0-1.13","59db7128e776fd00015ec895","F1","batch6","","3345","img/question_2_2.jpeg","5","spm_respsonse","1","6","mat_14","","","","","","1","3345","","","","","","","","","","","","","","",""
"","","","","","html-keyboard-response","209","449168","0.0-3.0-2.0-0.14","59db7128e776fd00015ec895","F1","batch6","","null","<p class=block-text>Trial 15 out of 60</p>","null","spm_show_trial_num","","","","","","","","","","","","","","","","","","","","","","","","",""
"","","","","","image-button-response","210","452726","0.0-3.0-2.0-1.14","59db7128e776fd00015ec895","F1","batch6","","3552","img/question_2_3.jpeg","0","spm_respsonse","1","1","mat_15","","","","","","1","3552","","","","","","","","","","","","","","",""
"","","","","","html-keyboard-response","211","453801","0.0-3.0-2.0-0.15","59db7128e776fd00015ec895","F1","batch6","","null","<p class=block-text>Trial 16 out of 60</p>","null","spm_show_trial_num","","","","","","","","","","","","","","","","","","","","","","","","",""
"","","","","","image-button-response","212","458612","0.0-3.0-2.0-1.15","59db7128e776fd00015ec895","F1","batch6","","4806","img/question_2_4.jpeg","1","spm_respsonse","1","2","mat_16","","","","","","1","4806","","","","","","","","","","","","","","",""
"","","","","","html-keyboard-response","213","459686","0.0-3.0-2.0-0.16","59db7128e776fd00015ec895","F1","batch6","","null","<p class=block-text>Trial 17 out of 60</p>","null","spm_show_trial_num","","","","","","","","","","","","","","","","","","","","","","","","",""
"","","","","","image-button-response","214","464880","0.0-3.0-2.0-1.16","59db7128e776fd00015ec895","F1","batch6","","5190","img/question_2_5.jpeg","0","spm_respsonse","1","1","mat_17","","","","","","1","5190","","","","","","","","","","","","","","",""
"","","","","","html-keyboard-response","215","465952","0.0-3.0-2.0-0.17","59db7128e776fd00015ec895","F1","batch6","","null","<p class=block-text>Trial 18 out of 60</p>","null","spm_show_trial_num","","","","","","","","","","","","","","","","","","","","","","","","",""
"","","","","","image-button-response","216","471659","0.0-3.0-2.0-1.17","59db7128e776fd00015ec895","F1","batch6","","5704","img/question_2_6.jpeg","2","spm_respsonse","1","3","mat_18","","","","","","1","5704","","","","","","","","","","","","","","",""
"","","","","","html-keyboard-response","217","472723","0.0-3.0-2.0-0.18","59db7128e776fd00015ec895","F1","batch6","","null","<p class=block-text>Trial 19 out of 60</p>","null","spm_show_trial_num","","","","","","","","","","","","","","","","","","","","","","","","",""
"","","","","","image-button-response","218","483190","0.0-3.0-2.0-1.18","59db7128e776fd00015ec895","F1","batch6","","10462","img/question_2_7.jpeg","5","spm_respsonse","0","5","mat_19","","","","","","0","10462","","","","","","","","","","","","","","",""
"","","","","","html-keyboard-response","219","484263","0.0-3.0-2.0-0.19","59db7128e776fd00015ec895","F1","batch6","","null","<p class=block-text>Trial 20 out of 60</p>","null","spm_show_trial_num","","","","","","","","","","","","","","","","","","","","","","","","",""
"","","","","","image-button-response","220","491058","0.0-3.0-2.0-1.19","59db7128e776fd00015ec895","F1","batch6","","6789","img/question_2_8.jpeg","2","spm_respsonse","0","6","mat_20","","","","","","0","6789","","","","","","","","","","","","","","",""
"","","","","","html-keyboard-response","221","492132","0.0-3.0-2.0-0.20","59db7128e776fd00015ec895","F1","batch6","","null","<p class=block-text>Trial 21 out of 60</p>","null","spm_show_trial_num","","","","","","","","","","","","","","","","","","","","","","","","",""
"","","","","","image-button-response","222","498887","0.0-3.0-2.0-1.20","59db7128e776fd00015ec895","F1","batch6","","6753","img/question_2_9.jpeg","3","spm_respsonse","1","4","mat_21","","","","","","1","6753","","","","","","","","","","","","","","",""
"","","","","","html-keyboard-response","223","499966","0.0-3.0-2.0-0.21","59db7128e776fd00015ec895","F1","batch6","","null","<p class=block-text>Trial 22 out of 60</p>","null","spm_show_trial_num","","","","","","","","","","","","","","","","","","","","","","","","",""
"","","","","","image-button-response","224","509617","0.0-3.0-2.0-1.21","59db7128e776fd00015ec895","F1","batch6","","9645","img/question_2_10.jpeg","2","spm_respsonse","1","3","mat_22","","","","","","1","9645","","","","","","","","","","","","","","",""
"","","","","","html-keyboard-response","225","510688","0.0-3.0-2.0-0.22","59db7128e776fd00015ec895","F1","batch6","","null","<p class=block-text>Trial 23 out of 60</p>","null","spm_show_trial_num","","","","","","","","","","","","","","","","","","","","","","","","",""
"","","","","","image-button-response","226","519757","0.0-3.0-2.0-1.22","59db7128e776fd00015ec895","F1","batch6","","9064","img/question_2_11.jpeg","3","spm_respsonse","1","4","mat_23","","","","","","1","9064","","","","","","","","","","","","","","",""
"","","","","","html-keyboard-response","227","520827","0.0-3.0-2.0-0.23","59db7128e776fd00015ec895","F1","batch6","","null","<p class=block-text>Trial 24 out of 60</p>","null","spm_show_trial_num","","","","","","","","","","","","","","","","","","","","","","","","",""
"","","","","","image-button-response","228","528734","0.0-3.0-2.0-1.23","59db7128e776fd00015ec895","F1","batch6","","7902","img/question_2_12.jpeg","5","spm_respsonse","0","5","mat_24","","","","","","0","7902","","","","","","","","","","","","","","",""
"","","","","","html-button-response","229","532323","0.0-3.0-3.0","59db7128e776fd00015ec895","F1","batch6","","3323","<p class = block-text>Attention check: Please choose 1<br></p>","0","attention_check","true","","","","","","","","","","","","","","","","","","","","","","","",""
"","","","","","html-keyboard-response","230","533130","0.0-3.0-4.0-0.0","59db7128e776fd00015ec895","F1","batch6","","null","<p class=block-text>Trial 25 out of 60</p>","null","spm_show_trial_num","","","","","","","","","","","","","","","","","","","","","","","","",""
"","","","","","image-button-response","231","538426","0.0-3.0-4.0-1.0","59db7128e776fd00015ec895","F1","batch6","","5295","img/question_3_1.jpeg","7","spm_respsonse","1","8","mat_25","","","","","","1","5295","","","","","","","","","","","","","","",""
"","","","","","html-keyboard-response","232","539501","0.0-3.0-4.0-0.1","59db7128e776fd00015ec895","F1","batch6","","null","<p class=block-text>Trial 26 out of 60</p>","null","spm_show_trial_num","","","","","","","","","","","","","","","","","","","","","","","","",""
"","","","","","image-button-response","233","545014","0.0-3.0-4.0-1.1","59db7128e776fd00015ec895","F1","batch6","","5510","img/question_3_2.jpeg","1","spm_respsonse","1","2","mat_26","","","","","","1","5510","","","","","","","","","","","","","","",""
"","","","","","html-keyboard-response","234","546087","0.0-3.0-4.0-0.2","59db7128e776fd00015ec895","F1","batch6","","null","<p class=block-text>Trial 27 out of 60</p>","null","spm_show_trial_num","","","","","","","","","","","","","","","","","","","","","","","","",""
"","","","","","image-button-response","235","557188","0.0-3.0-4.0-1.2","59db7128e776fd00015ec895","F1","batch6","","11098","img/question_3_3.jpeg","2","spm_respsonse","1","3","mat_27","","","","","","1","11098","","","","","","","","","","","","","","",""
"","","","","","html-keyboard-response","236","558258","0.0-3.0-4.0-0.3","59db7128e776fd00015ec895","F1","batch6","","null","<p class=block-text>Trial 28 out of 60</p>","null","spm_show_trial_num","","","","","","","","","","","","","","","","","","","","","","","","",""
"","","","","","image-button-response","237","566531","0.0-3.0-4.0-1.3","59db7128e776fd00015ec895","F1","batch6","","8270","img/question_3_4.jpeg","2","spm_respsonse","0","8","mat_28","","","","","","0","8270","","","","","","","","","","","","","","",""
"","","","","","html-keyboard-response","238","567602","0.0-3.0-4.0-0.4","59db7128e776fd00015ec895","F1","batch6","","null","<p class=block-text>Trial 29 out of 60</p>","null","spm_show_trial_num","","","","","","","","","","","","","","","","","","","","","","","","",""
"","","","","","image-button-response","239","574279","0.0-3.0-4.0-1.4","59db7128e776fd00015ec895","F1","batch6","","6668","img/question_3_5.jpeg","3","spm_respsonse","0","7","mat_29","","","","","","0","6668","","","","","","","","","","","","","","",""
"","","","","","html-keyboard-response","240","575348","0.0-3.0-4.0-0.5","59db7128e776fd00015ec895","F1","batch6","","null","<p class=block-text>Trial 30 out of 60</p>","null","spm_show_trial_num","","","","","","","","","","","","","","","","","","","","","","","","",""
"","","","","","image-button-response","241","580370","0.0-3.0-4.0-1.5","59db7128e776fd00015ec895","F1","batch6","","5019","img/question_3_6.jpeg","0","spm_respsonse","0","4","mat_30","","","","","","0","5019","","","","","","","","","","","","","","",""
"","","","","","html-keyboard-response","242","581443","0.0-3.0-4.0-0.6","59db7128e776fd00015ec895","F1","batch6","","null","<p class=block-text>Trial 31 out of 60</p>","null","spm_show_trial_num","","","","","","","","","","","","","","","","","","","","","","","","",""
"","","","","","image-button-response","243","589434","0.0-3.0-4.0-1.6","59db7128e776fd00015ec895","F1","batch6","","7987","img/question_3_7.jpeg","7","spm_respsonse","0","5","mat_31","","","","","","0","7987","","","","","","","","","","","","","","",""
"","","","","","html-keyboard-response","244","590502","0.0-3.0-4.0-0.7","59db7128e776fd00015ec895","F1","batch6","","null","<p class=block-text>Trial 32 out of 60</p>","null","spm_show_trial_num","","","","","","","","","","","","","","","","","","","","","","","","",""
"","","","","","image-button-response","245","599318","0.0-3.0-4.0-1.7","59db7128e776fd00015ec895","F1","batch6","","8811","img/question_3_8.jpeg","5","spm_respsonse","0","1","mat_32","","","","","","0","8811","","","","","","","","","","","","","","",""
"","","","","","html-keyboard-response","246","600385","0.0-3.0-4.0-0.8","59db7128e776fd00015ec895","F1","batch6","","null","<p class=block-text>Trial 33 out of 60</p>","null","spm_show_trial_num","","","","","","","","","","","","","","","","","","","","","","","","",""
"","","","","","image-button-response","247","608031","0.0-3.0-4.0-1.8","59db7128e776fd00015ec895","F1","batch6","","7642","img/question_3_9.jpeg","6","spm_respsonse","1","7","mat_33","","","","","","1","7642","","","","","","","","","","","","","","",""
"","","","","","html-keyboard-response","248","609106","0.0-3.0-4.0-0.9","59db7128e776fd00015ec895","F1","batch6","","null","<p class=block-text>Trial 34 out of 60</p>","null","spm_show_trial_num","","","","","","","","","","","","","","","","","","","","","","","","",""
"","","","","","image-button-response","249","617893","0.0-3.0-4.0-1.9","59db7128e776fd00015ec895","F1","batch6","","8781","img/question_3_10.jpeg","1","spm_respsonse","0","6","mat_34","","","","","","0","8781","","","","","","","","","","","","","","",""
"","","","","","html-keyboard-response","250","618965","0.0-3.0-4.0-0.10","59db7128e776fd00015ec895","F1","batch6","","null","<p class=block-text>Trial 35 out of 60</p>","null","spm_show_trial_num","","","","","","","","","","","","","","","","","","","","","","","","",""
"","","","","","image-button-response","251","638476","0.0-3.0-4.0-1.10","59db7128e776fd00015ec895","F1","batch6","","19508","img/question_3_11.jpeg","4","spm_respsonse","0","1","mat_35","","","","","","0","19508","","","","","","","","","","","","","","",""
"","","","","","html-keyboard-response","252","639547","0.0-3.0-4.0-0.11","59db7128e776fd00015ec895","F1","batch6","","null","<p class=block-text>Trial 36 out of 60</p>","null","spm_show_trial_num","","","","","","","","","","","","","","","","","","","","","","","","",""
"","","","","","image-button-response","253","646272","0.0-3.0-4.0-1.11","59db7128e776fd00015ec895","F1","batch6","","6721","img/question_3_12.jpeg","5","spm_respsonse","0","2","mat_36","","","","","","0","6721","","","","","","","","","","","","","","",""
"","","","","","html-keyboard-response","254","647346","0.0-3.0-4.0-0.12","59db7128e776fd00015ec895","F1","batch6","","null","<p class=block-text>Trial 37 out of 60</p>","null","spm_show_trial_num","","","","","","","","","","","","","","","","","","","","","","","","",""
"","","","","","image-button-response","255","651824","0.0-3.0-4.0-1.12","59db7128e776fd00015ec895","F1","batch6","","4475","img/question_4_1.jpeg","2","spm_respsonse","1","3","mat_37","","","","","","1","4475","","","","","","","","","","","","","","",""
"","","","","","html-keyboard-response","256","652903","0.0-3.0-4.0-0.13","59db7128e776fd00015ec895","F1","batch6","","null","<p class=block-text>Trial 38 out of 60</p>","null","spm_show_trial_num","","","","","","","","","","","","","","","","","","","","","","","","",""
"","","","","","image-button-response","257","658488","0.0-3.0-4.0-1.13","59db7128e776fd00015ec895","F1","batch6","","5579","img/question_4_2.jpeg","3","spm_respsonse","1","4","mat_38","","","","","","1","5579","","","","","","","","","","","","","","",""
"","","","","","html-keyboard-response","258","659558","0.0-3.0-4.0-0.14","59db7128e776fd00015ec895","F1","batch6","","null","<p class=block-text>Trial 39 out of 60</p>","null","spm_show_trial_num","","","","","","","","","","","","","","","","","","","","","","","","",""
"","","","","","image-button-response","259","665846","0.0-3.0-4.0-1.14","59db7128e776fd00015ec895","F1","batch6","","6284","img/question_4_3.jpeg","2","spm_respsonse","1","3","mat_39","","","","","","1","6284","","","","","","","","","","","","","","",""
"","","","","","html-keyboard-response","260","666917","0.0-3.0-4.0-0.15","59db7128e776fd00015ec895","F1","batch6","","null","<p class=block-text>Trial 40 out of 60</p>","null","spm_show_trial_num","","","","","","","","","","","","","","","","","","","","","","","","",""
"","","","","","image-button-response","261","675653","0.0-3.0-4.0-1.15","59db7128e776fd00015ec895","F1","batch6","","8730","img/question_4_4.jpeg","6","spm_respsonse","1","7","mat_40","","","","","","1","8730","","","","","","","","","","","","","","",""
"","","","","","html-keyboard-response","262","676728","0.0-3.0-4.0-0.16","59db7128e776fd00015ec895","F1","batch6","","null","<p class=block-text>Trial 41 out of 60</p>","null","spm_show_trial_num","","","","","","","","","","","","","","","","","","","","","","","","",""
"","","","","","image-button-response","263","682969","0.0-3.0-4.0-1.16","59db7128e776fd00015ec895","F1","batch6","","6239","img/question_4_5.jpeg","7","spm_respsonse","1","8","mat_41","","","","","","1","6239","","","","","","","","","","","","","","",""
"","","","","","html-keyboard-response","264","684039","0.0-3.0-4.0-0.17","59db7128e776fd00015ec895","F1","batch6","","null","<p class=block-text>Trial 42 out of 60</p>","null","spm_show_trial_num","","","","","","","","","","","","","","","","","","","","","","","","",""
"","","","","","image-button-response","265","692859","0.0-3.0-4.0-1.17","59db7128e776fd00015ec895","F1","batch6","","8818","img/question_4_6.jpeg","2","spm_respsonse","0","6","mat_42","","","","","","0","8818","","","","","","","","","","","","","","",""
"","","","","","html-keyboard-response","266","693935","0.0-3.0-4.0-0.18","59db7128e776fd00015ec895","F1","batch6","","null","<p class=block-text>Trial 43 out of 60</p>","null","spm_show_trial_num","","","","","","","","","","","","","","","","","","","","","","","","",""
"","","","","","image-button-response","267","707961","0.0-3.0-4.0-1.18","59db7128e776fd00015ec895","F1","batch6","","14022","img/question_4_7.jpeg","4","spm_respsonse","1","5","mat_43","","","","","","1","14022","","","","","","","","","","","","","","",""
"","","","","","html-keyboard-response","268","709030","0.0-3.0-4.0-0.19","59db7128e776fd00015ec895","F1","batch6","","null","<p class=block-text>Trial 44 out of 60</p>","null","spm_show_trial_num","","","","","","","","","","","","","","","","","","","","","","","","",""
"","","","","","image-button-response","269","716207","0.0-3.0-4.0-1.19","59db7128e776fd00015ec895","F1","batch6","","7173","img/question_4_8.jpeg","3","spm_respsonse","1","4","mat_44","","","","","","1","7173","","","","","","","","","","","","","","",""
"","","","","","html-keyboard-response","270","717282","0.0-3.0-4.0-0.20","59db7128e776fd00015ec895","F1","batch6","","null","<p class=block-text>Trial 45 out of 60</p>","null","spm_show_trial_num","","","","","","","","","","","","","","","","","","","","","","","","",""
"","","","","","image-button-response","271","730828","0.0-3.0-4.0-1.20","59db7128e776fd00015ec895","F1","batch6","","13541","img/question_4_9.jpeg","3","spm_respsonse","0","1","mat_45","","","","","","0","13541","","","","","","","","","","","","","","",""
"","","","","","html-keyboard-response","272","731901","0.0-3.0-4.0-0.21","59db7128e776fd00015ec895","F1","batch6","","null","<p class=block-text>Trial 46 out of 60</p>","null","spm_show_trial_num","","","","","","","","","","","","","","","","","","","","","","","","",""
"","","","","","image-button-response","273","743133","0.0-3.0-4.0-1.21","59db7128e776fd00015ec895","F1","batch6","","11227","img/question_4_10.jpeg","6","spm_respsonse","0","2","mat_46","","","","","","0","11227","","","","","","","","","","","","","","",""
"","","","","","html-keyboard-response","274","744208","0.0-3.0-4.0-0.22","59db7128e776fd00015ec895","F1","batch6","","null","<p class=block-text>Trial 47 out of 60</p>","null","spm_show_trial_num","","","","","","","","","","","","","","","","","","","","","","","","",""
"","","","","","image-button-response","275","751276","0.0-3.0-4.0-1.22","59db7128e776fd00015ec895","F1","batch6","","7063","img/question_4_11.jpeg","7","spm_respsonse","0","5","mat_47","","","","","","0","7063","","","","","","","","","","","","","","",""
"","","","","","html-keyboard-response","276","752347","0.0-3.0-4.0-0.23","59db7128e776fd00015ec895","F1","batch6","","null","<p class=block-text>Trial 48 out of 60</p>","null","spm_show_trial_num","","","","","","","","","","","","","","","","","","","","","","","","",""
"","","","","","image-button-response","277","763848","0.0-3.0-4.0-1.23","59db7128e776fd00015ec895","F1","batch6","","11496","img/question_4_12.jpeg","7","spm_respsonse","0","6","mat_48","","","","","","0","11496","","","","","","","","","","","","","","",""
"","","","","","html-keyboard-response","278","764918","0.0-3.0-4.0-0.24","59db7128e776fd00015ec895","F1","batch6","","null","<p class=block-text>Trial 49 out of 60</p>","null","spm_show_trial_num","","","","","","","","","","","","","","","","","","","","","","","","",""
"","","","","","image-button-response","279","774477","0.0-3.0-4.0-1.24","59db7128e776fd00015ec895","F1","batch6","","9558","img/question_5_1.jpeg","4","spm_respsonse","0","7","mat_49","","","","","","0","9558","","","","","","","","","","","","","","",""
"","","","","","html-keyboard-response","280","775544","0.0-3.0-4.0-0.25","59db7128e776fd00015ec895","F1","batch6","","null","<p class=block-text>Trial 50 out of 60</p>","null","spm_show_trial_num","","","","","","","","","","","","","","","","","","","","","","","","",""
"","","","","","image-button-response","281","782435","0.0-3.0-4.0-1.25","59db7128e776fd00015ec895","F1","batch6","","6885","img/question_5_2.jpeg","6","spm_respsonse","0","6","mat_50","","","","","","0","6885","","","","","","","","","","","","","","",""
"","","","","","html-keyboard-response","282","783506","0.0-3.0-4.0-0.26","59db7128e776fd00015ec895","F1","batch6","","null","<p class=block-text>Trial 51 out of 60</p>","null","spm_show_trial_num","","","","","","","","","","","","","","","","","","","","","","","","",""
"","","","","","image-button-response","283","789793","0.0-3.0-4.0-1.26","59db7128e776fd00015ec895","F1","batch6","","6282","img/question_5_3.jpeg","2","spm_respsonse","0","8","mat_51","","","","","","0","6282","","","","","","","","","","","","","","",""
"","","","","","html-keyboard-response","284","790869","0.0-3.0-4.0-0.27","59db7128e776fd00015ec895","F1","batch6","","null","<p class=block-text>Trial 52 out of 60</p>","null","spm_show_trial_num","","","","","","","","","","","","","","","","","","","","","","","","",""
"","","","","","image-button-response","285","800261","0.0-3.0-4.0-1.27","59db7128e776fd00015ec895","F1","batch6","","9388","img/question_5_4.jpeg","0","spm_respsonse","0","2","mat_52","","","","","","0","9388","","","","","","","","","","","","","","",""
"","","","","","html-keyboard-response","286","801335","0.0-3.0-4.0-0.28","59db7128e776fd00015ec895","F1","batch6","","null","<p class=block-text>Trial 53 out of 60</p>","null","spm_show_trial_num","","","","","","","","","","","","","","","","","","","","","","","","",""
"","","","","","image-button-response","287","808747","0.0-3.0-4.0-1.28","59db7128e776fd00015ec895","F1","batch6","","7406","img/question_5_5.jpeg","6","spm_respsonse","0","1","mat_53","","","","","","0","7406","","","","","","","","","","","","","","",""
"","","","","","html-keyboard-response","288","809819","0.0-3.0-4.0-0.29","59db7128e776fd00015ec895","F1","batch6","","null","<p class=block-text>Trial 54 out of 60</p>","null","spm_show_trial_num","","","","","","","","","","","","","","","","","","","","","","","","",""
"","","","","","image-button-response","289","819098","0.0-3.0-4.0-1.29","59db7128e776fd00015ec895","F1","batch6","","9273","img/question_5_6.jpeg","5","spm_respsonse","0","5","mat_54","","","","","","0","9273","","","","","","","","","","","","","","",""
"","","","","","html-keyboard-response","290","820173","0.0-3.0-4.0-0.30","59db7128e776fd00015ec895","F1","batch6","","null","<p class=block-text>Trial 55 out of 60</p>","null","spm_show_trial_num","","","","","","","","","","","","","","","","","","","","","","","","",""
"","","","","","image-button-response","291","828070","0.0-3.0-4.0-1.30","59db7128e776fd00015ec895","F1","batch6","","7892","img/question_5_7.jpeg","6","spm_respsonse","0","1","mat_55","","","","","","0","7892","","","","","","","","","","","","","","",""
"","","","","","html-keyboard-response","292","829141","0.0-3.0-4.0-0.31","59db7128e776fd00015ec895","F1","batch6","","null","<p class=block-text>Trial 56 out of 60</p>","null","spm_show_trial_num","","","","","","","","","","","","","","","","","","","","","","","","",""
"","","","","","image-button-response","293","836972","0.0-3.0-4.0-1.31","59db7128e776fd00015ec895","F1","batch6","","7826","img/question_5_8.jpeg","4","spm_respsonse","0","6","mat_56","","","","","","0","7826","","","","","","","","","","","","","","",""
"","","","","","html-keyboard-response","294","838041","0.0-3.0-4.0-0.32","59db7128e776fd00015ec895","F1","batch6","","null","<p class=block-text>Trial 57 out of 60</p>","null","spm_show_trial_num","","","","","","","","","","","","","","","","","","","","","","","","",""
"","","","","","image-button-response","295","844928","0.0-3.0-4.0-1.32","59db7128e776fd00015ec895","F1","batch6","","6883","img/question_5_9.jpeg","4","spm_respsonse","0","3","mat_57","","","","","","0","6883","","","","","","","","","","","","","","",""
"","","","","","html-keyboard-response","296","845999","0.0-3.0-4.0-0.33","59db7128e776fd00015ec895","F1","batch6","","null","<p class=block-text>Trial 58 out of 60</p>","null","spm_show_trial_num","","","","","","","","","","","","","","","","","","","","","","","","",""
"","","","","","image-button-response","297","852172","0.0-3.0-4.0-1.33","59db7128e776fd00015ec895","F1","batch6","","6169","img/question_5_10.jpeg","3","spm_respsonse","0","2","mat_58","","","","","","0","6169","","","","","","","","","","","","","","",""
"","","","","","html-keyboard-response","298","853248","0.0-3.0-4.0-0.34","59db7128e776fd00015ec895","F1","batch6","","null","<p class=block-text>Trial 59 out of 60</p>","null","spm_show_trial_num","","","","","","","","","","","","","","","","","","","","","","","","",""
"","","","","","image-button-response","299","862090","0.0-3.0-4.0-1.34","59db7128e776fd00015ec895","F1","batch6","","8838","img/question_5_11.jpeg","6","spm_respsonse","0","4","mat_59","","","","","","0","8838","","","","","","","","","","","","","","",""
"","","","","","html-keyboard-response","300","863162","0.0-3.0-4.0-0.35","59db7128e776fd00015ec895","F1","batch6","","null","<p class=block-text>Trial 60 out of 60</p>","null","spm_show_trial_num","","","","","","","","","","","","","","","","","","","","","","","","",""
"","","","","","image-button-response","301","867424","0.0-3.0-4.0-1.35","59db7128e776fd00015ec895","F1","batch6","","4259","img/question_5_12.jpeg","3","spm_respsonse","0","5","mat_60","","","","","","0","4259","","","","","","","","","","","","","","",""
"","","","","","html-button-response","302","869574","0.0-3.0-5.0","59db7128e776fd00015ec895","F1","batch6","","1887","<p class= block-text>This concludes the Standard Progressive Matrix game. Thank you for your responses!<br> When you are ready, click the button continue</p>","0","spm_goodbye","","","","","","","","","","","","","","","","","","","","","","","","",""
"true","","","","","fullscreen","303","872819","0.0-4.0-0.0","59db7128e776fd00015ec895","F1","batch6","","","","","","","","","","","","","","","","","","","","","","","","","","","","","",""
"","","","","","instructions","304","941332","0.0-4.0-1.0-0.0-0.0","59db7128e776fd00015ec895","F1","batch6","[{""page_index"":0,""viewing_time"":9172},{""page_index"":1,""viewing_time"":10751},{""page_index"":2,""viewing_time"":4888},{""page_index"":3,""viewing_time"":11955},{""page_index"":4,""viewing_time"":8677},{""page_index"":5,""viewing_time"":19969},{""page_index"":6,""viewing_time"":3100}]","68512","","","tol-instructions","","","","","","","","","","","","","","","","","","","","","","","","",""
"","","","","","html-button-response","305","942750","0.0-4.0-1.0-1.0-0.0","59db7128e776fd00015ec895","F1","batch6","","1414","<p class=block-text> Let's answer a few questions <br>","0","tol_enter_quiz","","","","","","","","","","","","","","","","","","","","","","","","",""
"","","","","","html-button-response","306","947520","0.0-4.0-1.0-1.0-1.0","59db7128e776fd00015ec895","F1","batch6","","4767","<p class = block-text>True or False: You can only move the ball on top of a peg. <br></p>","0","tol_quiz","true","","","","","","","","","","","","","","","","","","","","","","","",""
"","","","","","html-button-response","307","949473","0.0-4.0-1.0-1.0-2.0","59db7128e776fd00015ec895","F1","batch6","","1951","<p class = block-text>Correct! You can only move the ball on top of a peg.</p>","0","tol_quiz_feedback","","","","","","","","","","","","","","","","","","","","","","","","",""
"","","","","","html-button-response","308","952790","0.0-4.0-1.0-1.0-3.0","59db7128e776fd00015ec895","F1","batch6","","3314","<p class = block-text>True or False: You should try to match your board with the target board with fewest moves possible. <br></p>","0","tol_quiz","true","","","","","","","","","","","","","","","","","","","","","","","",""
"","","","","","html-button-response","309","953743","0.0-4.0-1.0-1.0-4.0","59db7128e776fd00015ec895","F1","batch6","","951","<p class = block-text>Correct! </p>","0","tol_quiz_feedback","","","","","","","","","","","","","","","","","","","","","","","","",""
"","","","","","html-button-response","310","955344","0.0-4.0-2.0","59db7128e776fd00015ec895","F1","batch6","","1598","<p class=block-text> Now that you've understood the game, let's practice a few easier examples before we start!<br> <br>","0","","","","","","","","","","","","","","","","","","","","","","","","","",""
"","","","","","single-stim-button","311","958752","0.0-4.0-3.0-0.0","59db7128e776fd00015ec895","F1","batch6","","3405","","","tol_practice","","","","","","","","","","","tol_peg_2","3405","3405","0","[[1,2,0],[0,0],[0]]","1","[[1,2,0],[0,0],[3]]","practice","3405","","","","","",""
"","","","","","single-stim-button","312","960309","0.0-4.0-3.0-1.0","59db7128e776fd00015ec895","F1","batch6","","1557","","","tol_practice","","","","","","","","","","","tol_peg_3","1557","1557","0","[[1,2,0],[0,0],[3]]","1","[[1,2,0],[0,0],[3]]","practice","1557","","","","","",""
"","","","","","poldrack-single-stim","313","961317","0.0-4.0-4.0","59db7128e776fd00015ec895","F1","batch6","","-1","","","tol_feedback","true","","","","","","","","","","","1000","1000","500","","","","","","-1","none","true","","0",""
"","","","","","single-stim-button","314","964908","0.0-4.0-5.0-0.0","59db7128e776fd00015ec895","F1","batch6","","3590","","","tol_practice","","","","","","","","","","","tol_peg_1","3590","3590","0","[[1,0,0],[3,0],[0]]","2","[[0,0,0],[3,1],[2]]","practice","3590","","","","","",""
"","","","","","single-stim-button","315","966171","0.0-4.0-5.0-1.0","59db7128e776fd00015ec895","F1","batch6","","1263","","","tol_practice","","","","","","","","","","","tol_peg_3","1263","1263","0","[[1,0,0],[3,0],[2]]","2","[[0,0,0],[3,1],[2]]","practice","1263","","","","","",""
"","","","","","single-stim-button","316","967390","0.0-4.0-5.1-0.1","59db7128e776fd00015ec895","F1","batch6","","1218","","","tol_practice","","","","","","","","","","","tol_peg_1","1218","1218","0","[[0,0,0],[3,0],[2]]","3","[[0,0,0],[3,1],[2]]","practice","1218","","","","","",""
"","","","","","single-stim-button","317","968670","0.0-4.0-5.1-1.1","59db7128e776fd00015ec895","F1","batch6","","1278","","","tol_practice","","","","","","","","","","","tol_peg_2","1278","1278","0","[[0,0,0],[3,1],[2]]","3","[[0,0,0],[3,1],[2]]","practice","1278","","","","","",""
"","","","","","poldrack-single-stim","318","969678","0.0-4.0-6.0","59db7128e776fd00015ec895","F1","batch6","","-1","","","tol_feedback","true","","","","","","","","","","","1000","1000","500","","","","","","-1","none","true","","0",""
"","","","","","single-stim-button","319","974014","0.0-4.0-7.0-0.0","59db7128e776fd00015ec895","F1","batch6","","4335","","","tol_practice","","","","","","","","","","","tol_peg_2","4335","4335","0","[[1,2,0],[0,0],[0]]","4","[[1,0,0],[2,0],[3]]","practice","4335","","","","","",""
"","","","","","single-stim-button","320","975329","0.0-4.0-7.0-1.0","59db7128e776fd00015ec895","F1","batch6","","1314","","","tol_practice","","","","","","","","","","","tol_peg_3","1314","1314","0","[[1,2,0],[0,0],[3]]","4","[[1,0,0],[2,0],[3]]","practice","1314","","","","","",""
"","","","","","single-stim-button","321","976433","0.0-4.0-7.1-0.1","59db7128e776fd00015ec895","F1","batch6","","1104","","","tol_practice","","","","","","","","","","","tol_peg_1","1104","1104","0","[[1,0,0],[0,0],[3]]","5","[[1,0,0],[2,0],[3]]","practice","1104","","","","","",""
"","","","","","single-stim-button","322","977472","0.0-4.0-7.1-1.1","59db7128e776fd00015ec895","F1","batch6","","1039","","","tol_practice","","","","","","","","","","","tol_peg_2","1039","1039","0","[[1,0,0],[2,0],[3]]","5","[[1,0,0],[2,0],[3]]","practice","1039","","","","","",""
"","","","","","poldrack-single-stim","323","978489","0.0-4.0-8.0","59db7128e776fd00015ec895","F1","batch6","","-1","","","tol_feedback","true","","","","","","","","","","","1000","1000","500","","","","","","-1","none","true","","0",""
"","","","","","html-button-response","324","981171","0.0-4.0-9.0","59db7128e776fd00015ec895","F1","batch6","","2683","<div class = centerbox><p class = center-block-text>Great job! You are done with practice trials<br>You are about to start official trials.<br> <br> Problem <strong>1</strong> out of 25 problems</p></div>","0","tol_instruction","","","","","","","","","","","","","","","","","","","","","","","","",""
"","","","","","single-stim-button","325","986896","0.0-4.0-10.0-0.0","59db7128e776fd00015ec895","F1","batch6","","4707","","","tol_tohand","","","","","","","","","","","tol_peg_2","4707","4707","0","[[1,2,0],[0,0],[0]]","1","[[1,3,0],[2,0],[0]]","0","0","","","","","","3"
"","","","","","single-stim-button","326","987999","0.0-4.0-10.0-1.0","59db7128e776fd00015ec895","F1","batch6","","1102","","","tol_toboard","","","","","","","","","","","tol_peg_3","1102","1102","0","[[1,2,0],[0,0],[3]]","1","[[1,3,0],[2,0],[0]]","0","0","","","","","","3"
"","","","","","single-stim-button","327","989008","0.0-4.0-10.1-0.1","59db7128e776fd00015ec895","F1","batch6","","1009","","","tol_tohand","","","","","","","","","","","tol_peg_1","1009","1009","0","[[1,0,0],[0,0],[3]]","2","[[1,3,0],[2,0],[0]]","0","0","","","","","","3"
"","","","","","single-stim-button","328","990018","0.0-4.0-10.1-1.1","59db7128e776fd00015ec895","F1","batch6","","1010","","","tol_toboard","","","","","","","","","","","tol_peg_2","1010","1010","0","[[1,0,0],[2,0],[3]]","2","[[1,3,0],[2,0],[0]]","0","0","","","","","","3"
"","","","","","single-stim-button","329","991112","0.0-4.0-10.2-0.2","59db7128e776fd00015ec895","F1","batch6","","1092","","","tol_tohand","","","","","","","","","","","tol_peg_3","1092","1092","0","[[1,0,0],[2,0],[0]]","3","[[1,3,0],[2,0],[0]]","0","0","","","","","","3"
"","","","","","single-stim-button","330","992203","0.0-4.0-10.2-1.2","59db7128e776fd00015ec895","F1","batch6","","1091","","","tol_toboard","","","","","","","","","","","tol_peg_1","1091","1091","0","[[1,3,0],[2,0],[0]]","3","[[1,3,0],[2,0],[0]]","0","0","","","","","","3"
"","","","","","poldrack-single-stim","331","993215","0.0-4.0-11.0","59db7128e776fd00015ec895","F1","batch6","","-1","","","tol_feedback","true","","","","","","","","","","","1000","1000","500","","","","","","-1","none","true","4707","6808",""
"","","","","","html-button-response","332","994881","0.0-4.0-12.0","59db7128e776fd00015ec895","F1","batch6","","1665","<div class = centerbox><p class = center-block-text>problem <strong>2</strong> out of 25 problems</p></div>","0","tol_trial_num","","","","","","","","","","","","","","","","","","","","","","","","",""
"","","","","","single-stim-button","333","998672","0.0-4.0-13.0-0.0","59db7128e776fd00015ec895","F1","batch6","","3790","","","tol_tohand","","","","","","","","","","","tol_peg_1","3790","3790","0","[[1,0,0],[3,0],[0]]","1","[[2,1,3],[0,0],[0]]","1","0","","","","","","5"
"","","","","","single-stim-button","334","1000434","0.0-4.0-13.0-1.0","59db7128e776fd00015ec895","F1","batch6","","1761","","","tol_toboard","","","","","","","","","","","tol_peg_3","1761","1761","0","[[1,0,0],[3,0],[2]]","1","[[2,1,3],[0,0],[0]]","1","0","","","","","","5"
"","","","","","single-stim-button","335","1001661","0.0-4.0-13.1-0.1","59db7128e776fd00015ec895","F1","batch6","","1227","","","tol_tohand","","","","","","","","","","","tol_peg_1","1227","1227","0","[[0,0,0],[3,0],[2]]","2","[[2,1,3],[0,0],[0]]","1","0","","","","","","5"
"","","","","","single-stim-button","336","1002442","0.0-4.0-13.1-1.1","59db7128e776fd00015ec895","F1","batch6","","781","","","tol_toboard","","","","","","","","","","","tol_peg_2","781","781","0","[[0,0,0],[3,1],[2]]","2","[[2,1,3],[0,0],[0]]","1","0","","","","","","5"
"","","","","","single-stim-button","337","1003270","0.0-4.0-13.2-0.2","59db7128e776fd00015ec895","F1","batch6","","827","","","tol_tohand","","","","","","","","","","","tol_peg_3","827","827","0","[[0,0,0],[3,1],[0]]","3","[[2,1,3],[0,0],[0]]","1","0","","","","","","5"
"","","","","","single-stim-button","338","1004331","0.0-4.0-13.2-1.2","59db7128e776fd00015ec895","F1","batch6","","1061","","","tol_toboard","","","","","","","","","","","tol_peg_1","1061","1061","0","[[2,0,0],[3,1],[0]]","3","[[2,1,3],[0,0],[0]]","1","0","","","","","","5"
"","","","","","single-stim-button","339","1005153","0.0-4.0-13.3-0.3","59db7128e776fd00015ec895","F1","batch6","","821","","","tol_tohand","","","","","","","","","","","tol_peg_2","821","821","0","[[2,0,0],[3,0],[0]]","4","[[2,1,3],[0,0],[0]]","1","0","","","","","","5"
"","","","","","single-stim-button","340","1005858","0.0-4.0-13.3-1.3","59db7128e776fd00015ec895","F1","batch6","","704","","","tol_toboard","","","","","","","","","","","tol_peg_1","704","704","0","[[2,1,0],[3,0],[0]]","4","[[2,1,3],[0,0],[0]]","1","0","","","","","","5"
"","","","","","single-stim-button","341","1007104","0.0-4.0-13.4-0.4","59db7128e776fd00015ec895","F1","batch6","","1244","","","tol_tohand","","","","","","","","","","","tol_peg_2","1244","1244","0","[[2,1,0],[0,0],[0]]","5","[[2,1,3],[0,0],[0]]","1","0","","","","","","5"
"","","","","","single-stim-button","342","1010419","0.0-4.0-13.4-1.4","59db7128e776fd00015ec895","F1","batch6","","3315","","","tol_toboard","","","","","","","","","","","tol_peg_1","3315","3315","0","[[2,1,3],[0,0],[0]]","5","[[2,1,3],[0,0],[0]]","1","0","","","","","","5"
"","","","","","poldrack-single-stim","343","1011430","0.0-4.0-14.0","59db7128e776fd00015ec895","F1","batch6","","-1","","","tol_feedback","true","","","","","","","","","","","1000","1000","500","","","","","","-1","none","true","3790","7909",""
"","","","","","html-button-response","344","1012617","0.0-4.0-15.0","59db7128e776fd00015ec895","F1","batch6","","1186","<div class = centerbox><p class = center-block-text>problem <strong>3</strong> out of 25 problems</p></div>","0","tol_trial_num","","","","","","","","","","","","","","","","","","","","","","","","",""
"","","","","","single-stim-button","345","1017909","0.0-4.0-16.0-0.0","59db7128e776fd00015ec895","F1","batch6","","5290","","","tol_tohand","","","","","","","","","","","tol_peg_1","5290","5290","0","[[2,0,0],[0,0],[1]]","1","[[1,2,0],[3,0],[0]]","2","0","","","","","","4"
"","","","","","single-stim-button","346","1020035","0.0-4.0-16.0-1.0","59db7128e776fd00015ec895","F1","batch6","","2125","","","tol_toboard","","","","","","","","","","","tol_peg_2","2125","2125","0","[[2,0,0],[3,0],[1]]","1","[[1,2,0],[3,0],[0]]","2","0","","","","","","4"
"","","","","","single-stim-button","347","1020819","0.0-4.0-16.1-0.1","59db7128e776fd00015ec895","F1","batch6","","783","","","tol_tohand","","","","","","","","","","","tol_peg_1","783","783","0","[[0,0,0],[3,0],[1]]","2","[[1,2,0],[3,0],[0]]","2","0","","","","","","4"
"","","","","","single-stim-button","348","1021568","0.0-4.0-16.1-1.1","59db7128e776fd00015ec895","F1","batch6","","749","","","tol_toboard","","","","","","","","","","","tol_peg_2","749","749","0","[[0,0,0],[3,2],[1]]","2","[[1,2,0],[3,0],[0]]","2","0","","","","","","4"
"","","","","","single-stim-button","349","1022360","0.0-4.0-16.2-0.2","59db7128e776fd00015ec895","F1","batch6","","791","","","tol_tohand","","","","","","","","","","","tol_peg_3","791","791","0","[[0,0,0],[3,2],[0]]","3","[[1,2,0],[3,0],[0]]","2","0","","","","","","4"
"","","","","","single-stim-button","350","1024257","0.0-4.0-16.2-1.2","59db7128e776fd00015ec895","F1","batch6","","1896","","","tol_toboard","","","","","","","","","","","tol_peg_1","1896","1896","0","[[1,0,0],[3,2],[0]]","3","[[1,2,0],[3,0],[0]]","2","0","","","","","","4"
"","","","","","single-stim-button","351","1024947","0.0-4.0-16.3-0.3","59db7128e776fd00015ec895","F1","batch6","","688","","","tol_tohand","","","","","","","","","","","tol_peg_2","688","688","0","[[1,0,0],[3,0],[0]]","4","[[1,2,0],[3,0],[0]]","2","0","","","","","","4"
"","","","","","single-stim-button","352","1026532","0.0-4.0-16.3-1.3","59db7128e776fd00015ec895","F1","batch6","","1584","","","tol_toboard","","","","","","","","","","","tol_peg_1","1584","1584","0","[[1,2,0],[3,0],[0]]","4","[[1,2,0],[3,0],[0]]","2","0","","","","","","4"
"","","","","","poldrack-single-stim","353","1027542","0.0-4.0-17.0","59db7128e776fd00015ec895","F1","batch6","","-1","","","tol_feedback","true","","","","","","","","","","","1000","1000","500","","","","","","-1","none","true","5290","7552",""
"","","","","","html-button-response","354","1028889","0.0-4.0-18.0","59db7128e776fd00015ec895","F1","batch6","","1346","<div class = centerbox><p class = center-block-text>problem <strong>4</strong> out of 25 problems</p></div>","0","tol_trial_num","","","","","","","","","","","","","","","","","","","","","","","","",""
"","","","","","single-stim-button","355","1034655","0.0-4.0-19.0-0.0","59db7128e776fd00015ec895","F1","batch6","","5764","","","tol_tohand","","","","","","","","","","","tol_peg_2","5764","5764","0","[[3,0,0],[2,0],[0]]","1","[[3,0,0],[1,0],[2]]","3","0","","","","","","3"
"","","","","","single-stim-button","356","1035948","0.0-4.0-19.0-1.0","59db7128e776fd00015ec895","F1","batch6","","1293","","","tol_toboard","","","","","","","","","","","tol_peg_1","1293","1293","0","[[3,1,0],[2,0],[0]]","1","[[3,0,0],[1,0],[2]]","3","0","","","","","","3"
"","","","","","single-stim-button","357","1039048","0.0-4.0-19.1-0.1","59db7128e776fd00015ec895","F1","batch6","","3098","","","tol_tohand","","","","","","","","","","","tol_peg_2","3098","3098","0","[[3,1,0],[0,0],[0]]","2","[[3,0,0],[1,0],[2]]","3","0","","","","","","3"
"","","","","","single-stim-button","358","1040138","0.0-4.0-19.1-1.1","59db7128e776fd00015ec895","F1","batch6","","1090","","","tol_toboard","","","","","","","","","","","tol_peg_3","1090","1090","0","[[3,1,0],[0,0],[2]]","2","[[3,0,0],[1,0],[2]]","3","0","","","","","","3"
"","","","","","single-stim-button","359","1040856","0.0-4.0-19.2-0.2","59db7128e776fd00015ec895","F1","batch6","","717","","","tol_tohand","","","","","","","","","","","tol_peg_1","717","717","0","[[3,0,0],[0,0],[2]]","3","[[3,0,0],[1,0],[2]]","3","0","","","","","","3"
"","","","","","single-stim-button","360","1041849","0.0-4.0-19.2-1.2","59db7128e776fd00015ec895","F1","batch6","","993","","","tol_toboard","","","","","","","","","","","tol_peg_2","993","993","0","[[3,0,0],[1,0],[2]]","3","[[3,0,0],[1,0],[2]]","3","0","","","","","","3"
