"success","timeout","failed_images","failed_audio","failed_video","trial_type","trial_index","time_elapsed","internal_node_id","subject_id","study_id","session_id","task","rt","stimulus","response","item","answer","correct","spm_correct","spm_rt","view_history","mouse_click","stim_duration","block_duration","timing_post_trial","current_position","tol_num_moves_made","tol_target","tol_problem_id","tol_rt","key_press","possible_responses","tol_correct","preplanning","tol_rt_per_trial","tol_min_moves","fiar_detect_rt","fiar_detect_correct","total_correct_fiar_detect","post_trial_gap","choices"
"true","false","[]","[]","[]","preload","0","4871","0.0-0.0","59f21fe8cc514a00011a66cf","A3","batch1","","","","","","","","","","","","","","","","","","","","","","","","","","","","","",""
"true","","","","","fullscreen","1","28588","0.0-1.0-0.0","59f21fe8cc514a00011a66cf","A3","batch1","","","","","","","","","","","","","","","","","","","","","","","","","","","","","",""
"true","","","","","fullscreen","2","44308","0.0-2.0-0.0","59f21fe8cc514a00011a66cf","A3","batch1","spm_fullscreen","","","","","","","","","","","","","","","","","","","","","","","","","","","","",""
"","","","","","html-button-response","3","182257","0.0-2.0-1.0","59f21fe8cc514a00011a66cf","A3","batch1","","137939","<p class = block-text><b>Instructions</b> <br>This is a widely used intelligence test in research. <br>In this test, a figure with a missing piece will be presented.<br>Below the figure are alternative pieces to complete the figure, only one of which is correct.<br> Different figures might involve different principles for obtaining the missing piece<br>Your job is to select the most logical piece to complete the figure.</p>","0","","","","","","","","","","","","","","","","","","","","","","","","","",""
"","","","","","html-keyboard-response","4","183067","0.0-2.0-2.0-0.0","59f21fe8cc514a00011a66cf","A3","batch1","spm_show_trial_num","null","<p class=block-text>Trial 1 out of 60</p>","null","","","","","","","","","","","","","","","","","","","","","","","","","",""
"","","","","","image-button-response","5","189554","0.0-2.0-2.0-1.0","59f21fe8cc514a00011a66cf","A3","batch1","spm_respsonse","6460","img/question_1_1.jpeg","3","mat_01","4","1","1","6460","","","","","","","","","","","","","","","","","","","","",""
"","","","","","html-keyboard-response","6","190615","0.0-2.0-2.0-0.1","59f21fe8cc514a00011a66cf","A3","batch1","spm_show_trial_num","null","<p class=block-text>Trial 2 out of 60</p>","null","","","","","","","","","","","","","","","","","","","","","","","","","",""
"","","","","","image-button-response","7","194249","0.0-2.0-2.0-1.1","59f21fe8cc514a00011a66cf","A3","batch1","spm_respsonse","3631","img/question_1_2.jpeg","4","mat_02","5","1","1","3631","","","","","","","","","","","","","","","","","","","","",""
"","","","","","html-keyboard-response","8","195311","0.0-2.0-2.0-0.2","59f21fe8cc514a00011a66cf","A3","batch1","spm_show_trial_num","null","<p class=block-text>Trial 3 out of 60</p>","null","","","","","","","","","","","","","","","","","","","","","","","","","",""
"","","","","","image-button-response","9","198844","0.0-2.0-2.0-1.2","59f21fe8cc514a00011a66cf","A3","batch1","spm_respsonse","3528","img/question_1_3.jpeg","0","mat_03","1","1","1","3528","","","","","","","","","","","","","","","","","","","","",""
"","","","","","html-keyboard-response","10","199910","0.0-2.0-2.0-0.3","59f21fe8cc514a00011a66cf","A3","batch1","spm_show_trial_num","null","<p class=block-text>Trial 4 out of 60</p>","null","","","","","","","","","","","","","","","","","","","","","","","","","",""
"","","","","","image-button-response","11","202503","0.0-2.0-2.0-1.3","59f21fe8cc514a00011a66cf","A3","batch1","spm_respsonse","2588","img/question_1_4.jpeg","1","mat_04","2","1","1","2588","","","","","","","","","","","","","","","","","","","","",""
"","","","","","html-keyboard-response","12","203567","0.0-2.0-2.0-0.4","59f21fe8cc514a00011a66cf","A3","batch1","spm_show_trial_num","null","<p class=block-text>Trial 5 out of 60</p>","null","","","","","","","","","","","","","","","","","","","","","","","","","",""
"","","","","","image-button-response","13","209324","0.0-2.0-2.0-1.4","59f21fe8cc514a00011a66cf","A3","batch1","spm_respsonse","5753","img/question_1_5.jpeg","5","mat_05","6","1","1","5753","","","","","","","","","","","","","","","","","","","","",""
"","","","","","html-keyboard-response","14","210390","0.0-2.0-2.0-0.5","59f21fe8cc514a00011a66cf","A3","batch1","spm_show_trial_num","null","<p class=block-text>Trial 6 out of 60</p>","null","","","","","","","","","","","","","","","","","","","","","","","","","",""
"","","","","","image-button-response","15","216093","0.0-2.0-2.0-1.5","59f21fe8cc514a00011a66cf","A3","batch1","spm_respsonse","5698","img/question_1_6.jpeg","2","mat_06","3","1","1","5698","","","","","","","","","","","","","","","","","","","","",""
"","","","","","html-keyboard-response","16","217158","0.0-2.0-2.0-0.6","59f21fe8cc514a00011a66cf","A3","batch1","spm_show_trial_num","null","<p class=block-text>Trial 7 out of 60</p>","null","","","","","","","","","","","","","","","","","","","","","","","","","",""
"","","","","","image-button-response","17","222231","0.0-2.0-2.0-1.6","59f21fe8cc514a00011a66cf","A3","batch1","spm_respsonse","5068","img/question_1_7.jpeg","5","mat_07","6","1","1","5068","","","","","","","","","","","","","","","","","","","","",""
"","","","","","html-keyboard-response","18","223295","0.0-2.0-2.0-0.7","59f21fe8cc514a00011a66cf","A3","batch1","spm_show_trial_num","null","<p class=block-text>Trial 8 out of 60</p>","null","","","","","","","","","","","","","","","","","","","","","","","","","",""
"","","","","","image-button-response","19","230025","0.0-2.0-2.0-1.7","59f21fe8cc514a00011a66cf","A3","batch1","spm_respsonse","6726","img/question_1_8.jpeg","1","mat_08","2","1","1","6726","","","","","","","","","","","","","","","","","","","","",""
"","","","","","html-keyboard-response","20","231087","0.0-2.0-2.0-0.8","59f21fe8cc514a00011a66cf","A3","batch1","spm_show_trial_num","null","<p class=block-text>Trial 9 out of 60</p>","null","","","","","","","","","","","","","","","","","","","","","","","","","",""
"","","","","","image-button-response","21","238142","0.0-2.0-2.0-1.8","59f21fe8cc514a00011a66cf","A3","batch1","spm_respsonse","7051","img/question_1_9.jpeg","0","mat_09","1","1","1","7051","","","","","","","","","","","","","","","","","","","","",""
"","","","","","html-keyboard-response","22","239207","0.0-2.0-2.0-0.9","59f21fe8cc514a00011a66cf","A3","batch1","spm_show_trial_num","null","<p class=block-text>Trial 10 out of 60</p>","null","","","","","","","","","","","","","","","","","","","","","","","","","",""
"","","","","","image-button-response","23","245244","0.0-2.0-2.0-1.9","59f21fe8cc514a00011a66cf","A3","batch1","spm_respsonse","6033","img/question_1_10.jpeg","2","mat_10","3","1","1","6033","","","","","","","","","","","","","","","","","","","","",""
"","","","","","html-keyboard-response","24","246314","0.0-2.0-2.0-0.10","59f21fe8cc514a00011a66cf","A3","batch1","spm_show_trial_num","null","<p class=block-text>Trial 11 out of 60</p>","null","","","","","","","","","","","","","","","","","","","","","","","","","",""
"","","","","","image-button-response","25","258579","0.0-2.0-2.0-1.10","59f21fe8cc514a00011a66cf","A3","batch1","spm_respsonse","12260","img/question_1_11.jpeg","3","mat_11","4","1","1","12260","","","","","","","","","","","","","","","","","","","","",""
"","","","","","html-keyboard-response","26","259641","0.0-2.0-2.0-0.11","59f21fe8cc514a00011a66cf","A3","batch1","spm_show_trial_num","null","<p class=block-text>Trial 12 out of 60</p>","null","","","","","","","","","","","","","","","","","","","","","","","","","",""
"","","","","","image-button-response","27","270279","0.0-2.0-2.0-1.11","59f21fe8cc514a00011a66cf","A3","batch1","spm_respsonse","10633","img/question_1_12.jpeg","0","mat_12","5","0","0","10633","","","","","","","","","","","","","","","","","","","","",""
"","","","","","html-keyboard-response","28","271344","0.0-2.0-2.0-0.12","59f21fe8cc514a00011a66cf","A3","batch1","spm_show_trial_num","null","<p class=block-text>Trial 13 out of 60</p>","null","","","","","","","","","","","","","","","","","","","","","","","","","",""
"","","","","","image-button-response","29","275409","0.0-2.0-2.0-1.12","59f21fe8cc514a00011a66cf","A3","batch1","spm_respsonse","4060","img/question_2_1.jpeg","1","mat_13","2","1","1","4060","","","","","","","","","","","","","","","","","","","","",""
"","","","","","html-keyboard-response","30","276472","0.0-2.0-2.0-0.13","59f21fe8cc514a00011a66cf","A3","batch1","spm_show_trial_num","null","<p class=block-text>Trial 14 out of 60</p>","null","","","","","","","","","","","","","","","","","","","","","","","","","",""
"","","","","","image-button-response","31","281783","0.0-2.0-2.0-1.13","59f21fe8cc514a00011a66cf","A3","batch1","spm_respsonse","5305","img/question_2_2.jpeg","5","mat_14","6","1","1","5305","","","","","","","","","","","","","","","","","","","","",""
"","","","","","html-keyboard-response","32","282848","0.0-2.0-2.0-0.14","59f21fe8cc514a00011a66cf","A3","batch1","spm_show_trial_num","null","<p class=block-text>Trial 15 out of 60</p>","null","","","","","","","","","","","","","","","","","","","","","","","","","",""
"","","","","","image-button-response","33","286094","0.0-2.0-2.0-1.14","59f21fe8cc514a00011a66cf","A3","batch1","spm_respsonse","3240","img/question_2_3.jpeg","0","mat_15","1","1","1","3240","","","","","","","","","","","","","","","","","","","","",""
"","","","","","html-keyboard-response","34","287160","0.0-2.0-2.0-0.15","59f21fe8cc514a00011a66cf","A3","batch1","spm_show_trial_num","null","<p class=block-text>Trial 16 out of 60</p>","null","","","","","","","","","","","","","","","","","","","","","","","","","",""
"","","","","","image-button-response","35","292611","0.0-2.0-2.0-1.15","59f21fe8cc514a00011a66cf","A3","batch1","spm_respsonse","5447","img/question_2_4.jpeg","1","mat_16","2","1","1","5447","","","","","","","","","","","","","","","","","","","","",""
"","","","","","html-keyboard-response","36","293673","0.0-2.0-2.0-0.16","59f21fe8cc514a00011a66cf","A3","batch1","spm_show_trial_num","null","<p class=block-text>Trial 17 out of 60</p>","null","","","","","","","","","","","","","","","","","","","","","","","","","",""
"","","","","","image-button-response","37","298865","0.0-2.0-2.0-1.16","59f21fe8cc514a00011a66cf","A3","batch1","spm_respsonse","5188","img/question_2_5.jpeg","0","mat_17","1","1","1","5188","","","","","","","","","","","","","","","","","","","","",""
"","","","","","html-keyboard-response","38","299929","0.0-2.0-2.0-0.17","59f21fe8cc514a00011a66cf","A3","batch1","spm_show_trial_num","null","<p class=block-text>Trial 18 out of 60</p>","null","","","","","","","","","","","","","","","","","","","","","","","","","",""
"","","","","","image-button-response","39","309938","0.0-2.0-2.0-1.17","59f21fe8cc514a00011a66cf","A3","batch1","spm_respsonse","10002","img/question_2_6.jpeg","2","mat_18","3","1","1","10002","","","","","","","","","","","","","","","","","","","","",""
"","","","","","html-keyboard-response","40","311003","0.0-2.0-2.0-0.18","59f21fe8cc514a00011a66cf","A3","batch1","spm_show_trial_num","null","<p class=block-text>Trial 19 out of 60</p>","null","","","","","","","","","","","","","","","","","","","","","","","","","",""
"","","","","","image-button-response","41","316031","0.0-2.0-2.0-1.18","59f21fe8cc514a00011a66cf","A3","batch1","spm_respsonse","5021","img/question_2_7.jpeg","4","mat_19","5","1","1","5021","","","","","","","","","","","","","","","","","","","","",""
"","","","","","html-keyboard-response","42","317092","0.0-2.0-2.0-0.19","59f21fe8cc514a00011a66cf","A3","batch1","spm_show_trial_num","null","<p class=block-text>Trial 20 out of 60</p>","null","","","","","","","","","","","","","","","","","","","","","","","","","",""
"","","","","","image-button-response","43","322445","0.0-2.0-2.0-1.19","59f21fe8cc514a00011a66cf","A3","batch1","spm_respsonse","5348","img/question_2_8.jpeg","5","mat_20","6","1","1","5348","","","","","","","","","","","","","","","","","","","","",""
"","","","","","html-keyboard-response","44","323508","0.0-2.0-2.0-0.20","59f21fe8cc514a00011a66cf","A3","batch1","spm_show_trial_num","null","<p class=block-text>Trial 21 out of 60</p>","null","","","","","","","","","","","","","","","","","","","","","","","","","",""
"","","","","","image-button-response","45","328762","0.0-2.0-2.0-1.20","59f21fe8cc514a00011a66cf","A3","batch1","spm_respsonse","5250","img/question_2_9.jpeg","3","mat_21","4","1","1","5250","","","","","","","","","","","","","","","","","","","","",""
"","","","","","html-keyboard-response","46","329828","0.0-2.0-2.0-0.21","59f21fe8cc514a00011a66cf","A3","batch1","spm_show_trial_num","null","<p class=block-text>Trial 22 out of 60</p>","null","","","","","","","","","","","","","","","","","","","","","","","","","",""
"","","","","","image-button-response","47","334472","0.0-2.0-2.0-1.21","59f21fe8cc514a00011a66cf","A3","batch1","spm_respsonse","4639","img/question_2_10.jpeg","2","mat_22","3","1","1","4639","","","","","","","","","","","","","","","","","","","","",""
"","","","","","html-keyboard-response","48","335532","0.0-2.0-2.0-0.22","59f21fe8cc514a00011a66cf","A3","batch1","spm_show_trial_num","null","<p class=block-text>Trial 23 out of 60</p>","null","","","","","","","","","","","","","","","","","","","","","","","","","",""
"","","","","","image-button-response","49","343105","0.0-2.0-2.0-1.22","59f21fe8cc514a00011a66cf","A3","batch1","spm_respsonse","7569","img/question_2_11.jpeg","3","mat_23","4","1","1","7569","","","","","","","","","","","","","","","","","","","","",""
"","","","","","html-keyboard-response","50","344171","0.0-2.0-2.0-0.23","59f21fe8cc514a00011a66cf","A3","batch1","spm_show_trial_num","null","<p class=block-text>Trial 24 out of 60</p>","null","","","","","","","","","","","","","","","","","","","","","","","","","",""
"","","","","","image-button-response","51","353155","0.0-2.0-2.0-1.23","59f21fe8cc514a00011a66cf","A3","batch1","spm_respsonse","8979","img/question_2_12.jpeg","4","mat_24","5","1","1","8979","","","","","","","","","","","","","","","","","","","","",""
"","","","","","html-button-response","52","355635","0.0-2.0-3.0","59f21fe8cc514a00011a66cf","A3","batch1","attention_check","2221","<p class = block-text>Attention check: Please choose 1<br></p>","0","","","true","","","","","","","","","","","","","","","","","","","","","","",""
"","","","","","html-keyboard-response","53","356444","0.0-2.0-4.0-0.0","59f21fe8cc514a00011a66cf","A3","batch1","spm_show_trial_num","null","<p class=block-text>Trial 25 out of 60</p>","null","","","","","","","","","","","","","","","","","","","","","","","","","",""
"","","","","","image-button-response","54","362349","0.0-2.0-4.0-1.0","59f21fe8cc514a00011a66cf","A3","batch1","spm_respsonse","5900","img/question_3_1.jpeg","7","mat_25","8","1","1","5900","","","","","","","","","","","","","","","","","","","","",""
"","","","","","html-keyboard-response","55","363412","0.0-2.0-4.0-0.1","59f21fe8cc514a00011a66cf","A3","batch1","spm_show_trial_num","null","<p class=block-text>Trial 26 out of 60</p>","null","","","","","","","","","","","","","","","","","","","","","","","","","",""
"","","","","","image-button-response","56","378395","0.0-2.0-4.0-1.1","59f21fe8cc514a00011a66cf","A3","batch1","spm_respsonse","14976","img/question_3_2.jpeg","1","mat_26","2","1","1","14976","","","","","","","","","","","","","","","","","","","","",""
"","","","","","html-keyboard-response","57","379455","0.0-2.0-4.0-0.2","59f21fe8cc514a00011a66cf","A3","batch1","spm_show_trial_num","null","<p class=block-text>Trial 27 out of 60</p>","null","","","","","","","","","","","","","","","","","","","","","","","","","",""
"","","","","","image-button-response","58","392219","0.0-2.0-4.0-1.2","59f21fe8cc514a00011a66cf","A3","batch1","spm_respsonse","12758","img/question_3_3.jpeg","2","mat_27","3","1","1","12758","","","","","","","","","","","","","","","","","","","","",""
"","","","","","html-keyboard-response","59","393280","0.0-2.0-4.0-0.3","59f21fe8cc514a00011a66cf","A3","batch1","spm_show_trial_num","null","<p class=block-text>Trial 28 out of 60</p>","null","","","","","","","","","","","","","","","","","","","","","","","","","",""
"","","","","","image-button-response","60","417003","0.0-2.0-4.0-1.3","59f21fe8cc514a00011a66cf","A3","batch1","spm_respsonse","23717","img/question_3_4.jpeg","7","mat_28","8","1","1","23717","","","","","","","","","","","","","","","","","","","","",""
"","","","","","html-keyboard-response","61","418064","0.0-2.0-4.0-0.4","59f21fe8cc514a00011a66cf","A3","batch1","spm_show_trial_num","null","<p class=block-text>Trial 29 out of 60</p>","null","","","","","","","","","","","","","","","","","","","","","","","","","",""
"","","","","","image-button-response","62","427881","0.0-2.0-4.0-1.4","59f21fe8cc514a00011a66cf","A3","batch1","spm_respsonse","9810","img/question_3_5.jpeg","6","mat_29","7","1","1","9810","","","","","","","","","","","","","","","","","","","","",""
"","","","","","html-keyboard-response","63","428948","0.0-2.0-4.0-0.5","59f21fe8cc514a00011a66cf","A3","batch1","spm_show_trial_num","null","<p class=block-text>Trial 30 out of 60</p>","null","","","","","","","","","","","","","","","","","","","","","","","","","",""
"","","","","","image-button-response","64","442173","0.0-2.0-4.0-1.5","59f21fe8cc514a00011a66cf","A3","batch1","spm_respsonse","13221","img/question_3_6.jpeg","3","mat_30","4","1","1","13221","","","","","","","","","","","","","","","","","","","","",""
"","","","","","html-keyboard-response","65","443242","0.0-2.0-4.0-0.6","59f21fe8cc514a00011a66cf","A3","batch1","spm_show_trial_num","null","<p class=block-text>Trial 31 out of 60</p>","null","","","","","","","","","","","","","","","","","","","","","","","","","",""
"","","","","","image-button-response","66","460736","0.0-2.0-4.0-1.6","59f21fe8cc514a00011a66cf","A3","batch1","spm_respsonse","17488","img/question_3_7.jpeg","4","mat_31","5","1","1","17488","","","","","","","","","","","","","","","","","","","","",""
"","","","","","html-keyboard-response","67","461794","0.0-2.0-4.0-0.7","59f21fe8cc514a00011a66cf","A3","batch1","spm_show_trial_num","null","<p class=block-text>Trial 32 out of 60</p>","null","","","","","","","","","","","","","","","","","","","","","","","","","",""
"","","","","","image-button-response","68","475914","0.0-2.0-4.0-1.7","59f21fe8cc514a00011a66cf","A3","batch1","spm_respsonse","14115","img/question_3_8.jpeg","0","mat_32","1","1","1","14115","","","","","","","","","","","","","","","","","","","","",""
"","","","","","html-keyboard-response","69","476978","0.0-2.0-4.0-0.8","59f21fe8cc514a00011a66cf","A3","batch1","spm_show_trial_num","null","<p class=block-text>Trial 33 out of 60</p>","null","","","","","","","","","","","","","","","","","","","","","","","","","",""
"","","","","","image-button-response","70","491737","0.0-2.0-4.0-1.8","59f21fe8cc514a00011a66cf","A3","batch1","spm_respsonse","14751","img/question_3_9.jpeg","6","mat_33","7","1","1","14751","","","","","","","","","","","","","","","","","","","","",""
"","","","","","html-keyboard-response","71","492795","0.0-2.0-4.0-0.9","59f21fe8cc514a00011a66cf","A3","batch1","spm_show_trial_num","null","<p class=block-text>Trial 34 out of 60</p>","null","","","","","","","","","","","","","","","","","","","","","","","","","",""
"","","","","","image-button-response","72","509546","0.0-2.0-4.0-1.9","59f21fe8cc514a00011a66cf","A3","batch1","spm_respsonse","16745","img/question_3_10.jpeg","5","mat_34","6","1","1","16745","","","","","","","","","","","","","","","","","","","","",""
"","","","","","html-keyboard-response","73","510609","0.0-2.0-4.0-0.10","59f21fe8cc514a00011a66cf","A3","batch1","spm_show_trial_num","null","<p class=block-text>Trial 35 out of 60</p>","null","","","","","","","","","","","","","","","","","","","","","","","","","",""
"","","","","","image-button-response","74","594022","0.0-2.0-4.0-1.10","59f21fe8cc514a00011a66cf","A3","batch1","spm_respsonse","83405","img/question_3_11.jpeg","0","mat_35","1","1","1","83405","","","","","","","","","","","","","","","","","","","","",""
"","","","","","html-keyboard-response","75","595088","0.0-2.0-4.0-0.11","59f21fe8cc514a00011a66cf","A3","batch1","spm_show_trial_num","null","<p class=block-text>Trial 36 out of 60</p>","null","","","","","","","","","","","","","","","","","","","","","","","","","",""
"","","","","","image-button-response","76","643239","0.0-2.0-4.0-1.11","59f21fe8cc514a00011a66cf","A3","batch1","spm_respsonse","48143","img/question_3_12.jpeg","1","mat_36","2","1","1","48143","","","","","","","","","","","","","","","","","","","","",""
"","","","","","html-keyboard-response","77","644307","0.0-2.0-4.0-0.12","59f21fe8cc514a00011a66cf","A3","batch1","spm_show_trial_num","null","<p class=block-text>Trial 37 out of 60</p>","null","","","","","","","","","","","","","","","","","","","","","","","","","",""
"","","","","","image-button-response","78","653187","0.0-2.0-4.0-1.12","59f21fe8cc514a00011a66cf","A3","batch1","spm_respsonse","8876","img/question_4_1.jpeg","2","mat_37","3","1","1","8876","","","","","","","","","","","","","","","","","","","","",""
"","","","","","html-keyboard-response","79","654251","0.0-2.0-4.0-0.13","59f21fe8cc514a00011a66cf","A3","batch1","spm_show_trial_num","null","<p class=block-text>Trial 38 out of 60</p>","null","","","","","","","","","","","","","","","","","","","","","","","","","",""
"","","","","","image-button-response","80","669996","0.0-2.0-4.0-1.13","59f21fe8cc514a00011a66cf","A3","batch1","spm_respsonse","15735","img/question_4_2.jpeg","3","mat_38","4","1","1","15735","","","","","","","","","","","","","","","","","","","","",""
"","","","","","html-keyboard-response","81","671061","0.0-2.0-4.0-0.14","59f21fe8cc514a00011a66cf","A3","batch1","spm_show_trial_num","null","<p class=block-text>Trial 39 out of 60</p>","null","","","","","","","","","","","","","","","","","","","","","","","","","",""
"","","","","","image-button-response","82","709400","0.0-2.0-4.0-1.14","59f21fe8cc514a00011a66cf","A3","batch1","spm_respsonse","38333","img/question_4_3.jpeg","2","mat_39","3","1","1","38333","","","","","","","","","","","","","","","","","","","","",""
"","","","","","html-keyboard-response","83","710462","0.0-2.0-4.0-0.15","59f21fe8cc514a00011a66cf","A3","batch1","spm_show_trial_num","null","<p class=block-text>Trial 40 out of 60</p>","null","","","","","","","","","","","","","","","","","","","","","","","","","",""
"","","","","","image-button-response","84","722201","0.0-2.0-4.0-1.15","59f21fe8cc514a00011a66cf","A3","batch1","spm_respsonse","11734","img/question_4_4.jpeg","6","mat_40","7","1","1","11734","","","","","","","","","","","","","","","","","","","","",""
"","","","","","html-keyboard-response","85","723262","0.0-2.0-4.0-0.16","59f21fe8cc514a00011a66cf","A3","batch1","spm_show_trial_num","null","<p class=block-text>Trial 41 out of 60</p>","null","","","","","","","","","","","","","","","","","","","","","","","","","",""
"","","","","","image-button-response","86","736476","0.0-2.0-4.0-1.16","59f21fe8cc514a00011a66cf","A3","batch1","spm_respsonse","13205","img/question_4_5.jpeg","7","mat_41","8","1","1","13205","","","","","","","","","","","","","","","","","","","","",""
"","","","","","html-keyboard-response","87","737537","0.0-2.0-4.0-0.17","59f21fe8cc514a00011a66cf","A3","batch1","spm_show_trial_num","null","<p class=block-text>Trial 42 out of 60</p>","null","","","","","","","","","","","","","","","","","","","","","","","","","",""
"","","","","","image-button-response","88","758664","0.0-2.0-4.0-1.17","59f21fe8cc514a00011a66cf","A3","batch1","spm_respsonse","21122","img/question_4_6.jpeg","5","mat_42","6","1","1","21122","","","","","","","","","","","","","","","","","","","","",""
"","","","","","html-keyboard-response","89","759729","0.0-2.0-4.0-0.18","59f21fe8cc514a00011a66cf","A3","batch1","spm_show_trial_num","null","<p class=block-text>Trial 43 out of 60</p>","null","","","","","","","","","","","","","","","","","","","","","","","","","",""
"","","","","","image-button-response","90","799684","0.0-2.0-4.0-1.18","59f21fe8cc514a00011a66cf","A3","batch1","spm_respsonse","39947","img/question_4_7.jpeg","4","mat_43","5","1","1","39947","","","","","","","","","","","","","","","","","","","","",""
"","","","","","html-keyboard-response","91","800748","0.0-2.0-4.0-0.19","59f21fe8cc514a00011a66cf","A3","batch1","spm_show_trial_num","null","<p class=block-text>Trial 44 out of 60</p>","null","","","","","","","","","","","","","","","","","","","","","","","","","",""
"","","","","","image-button-response","92","822081","0.0-2.0-4.0-1.19","59f21fe8cc514a00011a66cf","A3","batch1","spm_respsonse","21326","img/question_4_8.jpeg","3","mat_44","4","1","1","21326","","","","","","","","","","","","","","","","","","","","",""
"","","","","","html-keyboard-response","93","823147","0.0-2.0-4.0-0.20","59f21fe8cc514a00011a66cf","A3","batch1","spm_show_trial_num","null","<p class=block-text>Trial 45 out of 60</p>","null","","","","","","","","","","","","","","","","","","","","","","","","","",""
"","","","","","image-button-response","94","855595","0.0-2.0-4.0-1.20","59f21fe8cc514a00011a66cf","A3","batch1","spm_respsonse","32443","img/question_4_9.jpeg","0","mat_45","1","1","1","32443","","","","","","","","","","","","","","","","","","","","",""
"","","","","","html-keyboard-response","95","856661","0.0-2.0-4.0-0.21","59f21fe8cc514a00011a66cf","A3","batch1","spm_show_trial_num","null","<p class=block-text>Trial 46 out of 60</p>","null","","","","","","","","","","","","","","","","","","","","","","","","","",""
"","","","","","image-button-response","96","920732","0.0-2.0-4.0-1.21","59f21fe8cc514a00011a66cf","A3","batch1","spm_respsonse","64061","img/question_4_10.jpeg","1","mat_46","2","1","1","64061","","","","","","","","","","","","","","","","","","","","",""
"","","","","","html-keyboard-response","97","921795","0.0-2.0-4.0-0.22","59f21fe8cc514a00011a66cf","A3","batch1","spm_show_trial_num","null","<p class=block-text>Trial 47 out of 60</p>","null","","","","","","","","","","","","","","","","","","","","","","","","","",""
"","","","","","image-button-response","98","1111612","0.0-2.0-4.0-1.22","59f21fe8cc514a00011a66cf","A3","batch1","spm_respsonse","189803","img/question_4_11.jpeg","1","mat_47","5","0","0","189803","","","","","","","","","","","","","","","","","","","","",""
"","","","","","html-keyboard-response","99","1112675","0.0-2.0-4.0-0.23","59f21fe8cc514a00011a66cf","A3","batch1","spm_show_trial_num","null","<p class=block-text>Trial 48 out of 60</p>","null","","","","","","","","","","","","","","","","","","","","","","","","","",""
"","","","","","image-button-response","100","1192698","0.0-2.0-4.0-1.23","59f21fe8cc514a00011a66cf","A3","batch1","spm_respsonse","80015","img/question_4_12.jpeg","5","mat_48","6","1","1","80015","","","","","","","","","","","","","","","","","","","","",""
"","","","","","html-keyboard-response","101","1193757","0.0-2.0-4.0-0.24","59f21fe8cc514a00011a66cf","A3","batch1","spm_show_trial_num","null","<p class=block-text>Trial 49 out of 60</p>","null","","","","","","","","","","","","","","","","","","","","","","","","","",""
"","","","","","image-button-response","102","1206021","0.0-2.0-4.0-1.24","59f21fe8cc514a00011a66cf","A3","batch1","spm_respsonse","12259","img/question_5_1.jpeg","6","mat_49","7","1","1","12259","","","","","","","","","","","","","","","","","","","","",""
"","","","","","html-keyboard-response","103","1207087","0.0-2.0-4.0-0.25","59f21fe8cc514a00011a66cf","A3","batch1","spm_show_trial_num","null","<p class=block-text>Trial 50 out of 60</p>","null","","","","","","","","","","","","","","","","","","","","","","","","","",""
"","","","","","image-button-response","104","1226717","0.0-2.0-4.0-1.25","59f21fe8cc514a00011a66cf","A3","batch1","spm_respsonse","19621","img/question_5_2.jpeg","5","mat_50","6","1","1","19621","","","","","","","","","","","","","","","","","","","","",""
"","","","","","html-keyboard-response","105","1227777","0.0-2.0-4.0-0.26","59f21fe8cc514a00011a66cf","A3","batch1","spm_show_trial_num","null","<p class=block-text>Trial 51 out of 60</p>","null","","","","","","","","","","","","","","","","","","","","","","","","","",""
"","","","","","image-button-response","106","1249990","0.0-2.0-4.0-1.26","59f21fe8cc514a00011a66cf","A3","batch1","spm_respsonse","22208","img/question_5_3.jpeg","7","mat_51","8","1","1","22208","","","","","","","","","","","","","","","","","","","","",""
"","","","","","html-keyboard-response","107","1251057","0.0-2.0-4.0-0.27","59f21fe8cc514a00011a66cf","A3","batch1","spm_show_trial_num","null","<p class=block-text>Trial 52 out of 60</p>","null","","","","","","","","","","","","","","","","","","","","","","","","","",""
"","","","","","image-button-response","108","1262487","0.0-2.0-4.0-1.27","59f21fe8cc514a00011a66cf","A3","batch1","spm_respsonse","11425","img/question_5_4.jpeg","1","mat_52","2","1","1","11425","","","","","","","","","","","","","","","","","","","","",""
"","","","","","html-keyboard-response","109","1263553","0.0-2.0-4.0-0.28","59f21fe8cc514a00011a66cf","A3","batch1","spm_show_trial_num","null","<p class=block-text>Trial 53 out of 60</p>","null","","","","","","","","","","","","","","","","","","","","","","","","","",""
"","","","","","image-button-response","110","1276014","0.0-2.0-4.0-1.28","59f21fe8cc514a00011a66cf","A3","batch1","spm_respsonse","12456","img/question_5_5.jpeg","0","mat_53","1","1","1","12456","","","","","","","","","","","","","","","","","","","","",""
"","","","","","html-keyboard-response","111","1277081","0.0-2.0-4.0-0.29","59f21fe8cc514a00011a66cf","A3","batch1","spm_show_trial_num","null","<p class=block-text>Trial 54 out of 60</p>","null","","","","","","","","","","","","","","","","","","","","","","","","","",""
"","","","","","image-button-response","112","1357630","0.0-2.0-4.0-1.29","59f21fe8cc514a00011a66cf","A3","batch1","spm_respsonse","80538","img/question_5_6.jpeg","4","mat_54","5","1","1","80538","","","","","","","","","","","","","","","","","","","","",""
"","","","","","html-keyboard-response","113","1358695","0.0-2.0-4.0-0.30","59f21fe8cc514a00011a66cf","A3","batch1","spm_show_trial_num","null","<p class=block-text>Trial 55 out of 60</p>","null","","","","","","","","","","","","","","","","","","","","","","","","","",""
"","","","","","image-button-response","114","1412848","0.0-2.0-4.0-1.30","59f21fe8cc514a00011a66cf","A3","batch1","spm_respsonse","54145","img/question_5_7.jpeg","0","mat_55","1","1","1","54145","","","","","","","","","","","","","","","","","","","","",""
"","","","","","html-keyboard-response","115","1413914","0.0-2.0-4.0-0.31","59f21fe8cc514a00011a66cf","A3","batch1","spm_show_trial_num","null","<p class=block-text>Trial 56 out of 60</p>","null","","","","","","","","","","","","","","","","","","","","","","","","","",""
"","","","","","image-button-response","116","1459722","0.0-2.0-4.0-1.31","59f21fe8cc514a00011a66cf","A3","batch1","spm_respsonse","45804","img/question_5_8.jpeg","5","mat_56","6","1","1","45804","","","","","","","","","","","","","","","","","","","","",""
"","","","","","html-keyboard-response","117","1460787","0.0-2.0-4.0-0.32","59f21fe8cc514a00011a66cf","A3","batch1","spm_show_trial_num","null","<p class=block-text>Trial 57 out of 60</p>","null","","","","","","","","","","","","","","","","","","","","","","","","","",""
"","","","","","image-button-response","118","1492204","0.0-2.0-4.0-1.32","59f21fe8cc514a00011a66cf","A3","batch1","spm_respsonse","31409","img/question_5_9.jpeg","2","mat_57","3","1","1","31409","","","","","","","","","","","","","","","","","","","","",""
"","","","","","html-keyboard-response","119","1493270","0.0-2.0-4.0-0.33","59f21fe8cc514a00011a66cf","A3","batch1","spm_show_trial_num","null","<p class=block-text>Trial 58 out of 60</p>","null","","","","","","","","","","","","","","","","","","","","","","","","","",""
"","","","","","image-button-response","120","1594339","0.0-2.0-4.0-1.33","59f21fe8cc514a00011a66cf","A3","batch1","spm_respsonse","101058","img/question_5_10.jpeg","1","mat_58","2","1","1","101058","","","","","","","","","","","","","","","","","","","","",""
"","","","","","html-keyboard-response","121","1595404","0.0-2.0-4.0-0.34","59f21fe8cc514a00011a66cf","A3","batch1","spm_show_trial_num","null","<p class=block-text>Trial 59 out of 60</p>","null","","","","","","","","","","","","","","","","","","","","","","","","","",""
"","","","","","image-button-response","122","1937294","0.0-2.0-4.0-1.34","59f21fe8cc514a00011a66cf","A3","batch1","spm_respsonse","341868","img/question_5_11.jpeg","5","mat_59","4","0","0","341868","","","","","","","","","","","","","","","","","","","","",""
"","","","","","html-keyboard-response","123","1938356","0.0-2.0-4.0-0.35","59f21fe8cc514a00011a66cf","A3","batch1","spm_show_trial_num","null","<p class=block-text>Trial 60 out of 60</p>","null","","","","","","","","","","","","","","","","","","","","","","","","","",""
"","","","","","image-button-response","124","2267109","0.0-2.0-4.0-1.35","59f21fe8cc514a00011a66cf","A3","batch1","spm_respsonse","328730","img/question_5_12.jpeg","1","mat_60","5","0","0","328730","","","","","","","","","","","","","","","","","","","","",""
"","","","","","html-button-response","125","2308289","0.0-2.0-5.0","59f21fe8cc514a00011a66cf","A3","batch1","spm_goodbye","40919","<p class= block-text>This concludes the Standard Progressive Matrix game. Thank you for your responses!<br> When you are ready, click the button continue</p>","0","","","","","","","","","","","","","","","","","","","","","","","","","",""
"true","","","","","fullscreen","126","2311263","0.0-3.0-0.0","59f21fe8cc514a00011a66cf","A3","batch1","","","","","","","","","","","","","","","","","","","","","","","","","","","","","",""
"","","","","","instructions","127","2399012","0.0-3.0-1.0-0.0-0.0","59f21fe8cc514a00011a66cf","A3","batch1","tol-instructions","87744","","","","","","","","[{""page_index"":0,""viewing_time"":16384},{""page_index"":1,""viewing_time"":7921},{""page_index"":2,""viewing_time"":8073},{""page_index"":3,""viewing_time"":15552},{""page_index"":4,""viewing_time"":8134},{""page_index"":5,""viewing_time"":22944},{""page_index"":6,""viewing_time"":8736}]","","","","","","","","","","","","","","","","","","","",""
"","","","","","html-button-response","128","2400597","0.0-3.0-1.0-1.0-0.0","59f21fe8cc514a00011a66cf","A3","batch1","tol_enter_quiz","1581","<p class=block-text> Let's answer a few questions <br>","0","","","","","","","","","","","","","","","","","","","","","","","","","",""
"","","","","","html-button-response","129","2406955","0.0-3.0-1.0-1.0-1.0","59f21fe8cc514a00011a66cf","A3","batch1","tol_quiz","6356","<p class = block-text>True or False: You can only move the ball on top of a peg. <br></p>","0","","","true","","","","","","","","","","","","","","","","","","","","","","",""
"","","","","","html-button-response","130","2408617","0.0-3.0-1.0-1.0-2.0","59f21fe8cc514a00011a66cf","A3","batch1","tol_quiz_feedback","1655","<p class = block-text>Correct! You can only move the ball on top of a peg.</p>","0","","","","","","","","","","","","","","","","","","","","","","","","","",""
"","","","","","html-button-response","131","2412234","0.0-3.0-1.0-1.0-3.0","59f21fe8cc514a00011a66cf","A3","batch1","tol_quiz","3616","<p class = block-text>True or False: You should try to match your board with the target board with fewest moves possible. <br></p>","0","","","true","","","","","","","","","","","","","","","","","","","","","","",""
"","","","","","html-button-response","132","2413266","0.0-3.0-1.0-1.0-4.0","59f21fe8cc514a00011a66cf","A3","batch1","tol_quiz_feedback","1030","<p class = block-text>Correct! </p>","0","","","","","","","","","","","","","","","","","","","","","","","","","",""
"","","","","","html-button-response","133","2416147","0.0-3.0-2.0","59f21fe8cc514a00011a66cf","A3","batch1","","2874","<p class=block-text> Now that you've understood the game, let's practice a few easier examples before we start!<br> <br>","0","","","","","","","","","","","","","","","","","","","","","","","","","",""
"","","","","","single-stim-button","134","2419680","0.0-3.0-3.0-0.0","59f21fe8cc514a00011a66cf","A3","batch1","tol_practice","3528","","","","","","","","","tol_peg_2","3528","3528","0","[[1,2,0],[0,0],[0]]","1","[[1,2,0],[0,0],[3]]","practice","3528","","","","","","","","","","",""
"","","","","","single-stim-button","135","2421809","0.0-3.0-3.0-1.0","59f21fe8cc514a00011a66cf","A3","batch1","tol_practice","2127","","","","","","","","","tol_peg_3","2127","2127","0","[[1,2,0],[0,0],[3]]","1","[[1,2,0],[0,0],[3]]","practice","2127","","","","","","","","","","",""
"","","","","","poldrack-single-stim","136","2422820","0.0-3.0-4.0","59f21fe8cc514a00011a66cf","A3","batch1","tol_feedback","-1","","","","","true","","","","","1000","1000","500","","","","","","-1","none","true","","0","","","","","",""
"","","","","","single-stim-button","137","2429248","0.0-3.0-5.0-0.0","59f21fe8cc514a00011a66cf","A3","batch1","tol_practice","6426","","","","","","","","","tol_peg_1","6426","6426","0","[[1,0,0],[3,0],[0]]","2","[[0,0,0],[3,1],[2]]","practice","6426","","","","","","","","","","",""
"","","","","","single-stim-button","138","2432975","0.0-3.0-5.0-1.0","59f21fe8cc514a00011a66cf","A3","batch1","tol_practice","3725","","","","","","","","","tol_peg_3","3725","3725","0","[[1,0,0],[3,0],[2]]","2","[[0,0,0],[3,1],[2]]","practice","3725","","","","","","","","","","",""
"","","","","","single-stim-button","139","2434206","0.0-3.0-5.1-0.1","59f21fe8cc514a00011a66cf","A3","batch1","tol_practice","1230","","","","","","","","","tol_peg_1","1230","1230","0","[[0,0,0],[3,0],[2]]","3","[[0,0,0],[3,1],[2]]","practice","1230","","","","","","","","","","",""
"","","","","","single-stim-button","140","2435866","0.0-3.0-5.1-1.1","59f21fe8cc514a00011a66cf","A3","batch1","tol_practice","1658","","","","","","","","","tol_peg_2","1658","1658","0","[[0,0,0],[3,1],[2]]","3","[[0,0,0],[3,1],[2]]","practice","1658","","","","","","","","","","",""
"","","","","","poldrack-single-stim","141","2436872","0.0-3.0-6.0","59f21fe8cc514a00011a66cf","A3","batch1","tol_feedback","-1","","","","","true","","","","","1000","1000","500","","","","","","-1","none","true","","0","","","","","",""
"","","","","","single-stim-button","142","2442973","0.0-3.0-7.0-0.0","59f21fe8cc514a00011a66cf","A3","batch1","tol_practice","6099","","","","","","","","","tol_peg_2","6099","6099","0","[[1,2,0],[0,0],[0]]","4","[[1,0,0],[2,0],[3]]","practice","6099","","","","","","","","","","",""
"","","","","","single-stim-button","143","2444350","0.0-3.0-7.0-1.0","59f21fe8cc514a00011a66cf","A3","batch1","tol_practice","1375","","","","","","","","","tol_peg_3","1375","1375","0","[[1,2,0],[0,0],[3]]","4","[[1,0,0],[2,0],[3]]","practice","1375","","","","","","","","","","",""
"","","","","","single-stim-button","144","2445758","0.0-3.0-7.1-0.1","59f21fe8cc514a00011a66cf","A3","batch1","tol_practice","1406","","","","","","","","","tol_peg_1","1406","1406","0","[[1,0,0],[0,0],[3]]","5","[[1,0,0],[2,0],[3]]","practice","1406","","","","","","","","","","",""
"","","","","","single-stim-button","145","2447066","0.0-3.0-7.1-1.1","59f21fe8cc514a00011a66cf","A3","batch1","tol_practice","1306","","","","","","","","","tol_peg_2","1306","1306","0","[[1,0,0],[2,0],[3]]","5","[[1,0,0],[2,0],[3]]","practice","1306","","","","","","","","","","",""
"","","","","","poldrack-single-stim","146","2448076","0.0-3.0-8.0","59f21fe8cc514a00011a66cf","A3","batch1","tol_feedback","-1","","","","","true","","","","","1000","1000","500","","","","","","-1","none","true","","0","","","","","",""
"","","","","","html-button-response","147","2451241","0.0-3.0-9.0","59f21fe8cc514a00011a66cf","A3","batch1","tol_instruction","3161","<div class = centerbox><p class = center-block-text>Great job! You are done with practice trials<br>You are about to start official trials.<br> <br> Problem <strong>1</strong> out of 25 problems</p></div>","0","","","","","","","","","","","","","","","","","","","","","","","","","",""
"","","","","","single-stim-button","148","2459657","0.0-3.0-10.0-0.0","59f21fe8cc514a00011a66cf","A3","batch1","tol_tohand","7409","","","","","","","","","tol_peg_1","7409","7409","0","[[1,0,0],[3,0],[0]]","1","[[1,3,0],[2,0],[0]]","0","0","","","","","","3","","","","",""
"","","","","","single-stim-button","149","2463368","0.0-3.0-10.0-1.0","59f21fe8cc514a00011a66cf","A3","batch1","tol_toboard","3709","","","","","","","","","tol_peg_3","3709","3709","0","[[1,0,0],[3,0],[2]]","1","[[1,3,0],[2,0],[0]]","0","0","","","","","","3","","","","",""
"","","","","","single-stim-button","150","2464920","0.0-3.0-10.1-0.1","59f21fe8cc514a00011a66cf","A3","batch1","tol_tohand","1550","","","","","","","","","tol_peg_2","1550","1550","0","[[1,0,0],[0,0],[2]]","2","[[1,3,0],[2,0],[0]]","0","0","","","","","","3","","","","",""
"","","","","","single-stim-button","151","2466312","0.0-3.0-10.1-1.1","59f21fe8cc514a00011a66cf","A3","batch1","tol_toboard","1390","","","","","","","","","tol_peg_1","1390","1390","0","[[1,3,0],[0,0],[2]]","2","[[1,3,0],[2,0],[0]]","0","0","","","","","","3","","","","",""
"","","","","","single-stim-button","152","2467273","0.0-3.0-10.2-0.2","59f21fe8cc514a00011a66cf","A3","batch1","tol_tohand","959","","","","","","","","","tol_peg_3","959","959","0","[[1,3,0],[0,0],[0]]","3","[[1,3,0],[2,0],[0]]","0","0","","","","","","3","","","","",""
"","","","","","single-stim-button","153","2468269","0.0-3.0-10.2-1.2","59f21fe8cc514a00011a66cf","A3","batch1","tol_toboard","995","","","","","","","","","tol_peg_2","995","995","0","[[1,3,0],[2,0],[0]]","3","[[1,3,0],[2,0],[0]]","0","0","","","","","","3","","","","",""
"","","","","","poldrack-single-stim","154","2469278","0.0-3.0-11.0","59f21fe8cc514a00011a66cf","A3","batch1","tol_feedback","-1","","","","","true","","","","","1000","1000","500","","","","","","-1","none","true","7409","9918","","","","","",""
"","","","","","html-button-response","155","2470793","0.0-3.0-12.0","59f21fe8cc514a00011a66cf","A3","batch1","tol_trial_num","1513","<div class = centerbox><p class = center-block-text>problem <strong>2</strong> out of 25 problems</p></div>","0","","","","","","","","","","","","","","","","","","","","","","","","","",""
"","","","","","single-stim-button","156","2486569","0.0-3.0-13.0-0.0","59f21fe8cc514a00011a66cf","A3","batch1","tol_tohand","15774","","","","","","","","","tol_peg_1","15774","15774","0","[[1,0,0],[3,0],[0]]","1","[[2,1,3],[0,0],[0]]","1","0","","","","","","5","","","","",""
"","","","","","single-stim-button","157","2488080","0.0-3.0-13.0-1.0","59f21fe8cc514a00011a66cf","A3","batch1","tol_toboard","1510","","","","","","","","","tol_peg_3","1510","1510","0","[[1,0,0],[3,0],[2]]","1","[[2,1,3],[0,0],[0]]","1","0","","","","","","5","","","","",""
"","","","","","single-stim-button","158","2491750","0.0-3.0-13.1-0.1","59f21fe8cc514a00011a66cf","A3","batch1","tol_tohand","3668","","","","","","","","","tol_peg_1","3668","3668","0","[[0,0,0],[3,0],[2]]","2","[[2,1,3],[0,0],[0]]","1","0","","","","","","5","","","","",""
"","","","","","single-stim-button","159","2493174","0.0-3.0-13.1-1.1","59f21fe8cc514a00011a66cf","A3","batch1","tol_toboard","1422","","","","","","","","","tol_peg_2","1422","1422","0","[[0,0,0],[3,1],[2]]","2","[[2,1,3],[0,0],[0]]","1","0","","","","","","5","","","","",""
"","","","","","single-stim-button","160","2494333","0.0-3.0-13.2-0.2","59f21fe8cc514a00011a66cf","A3","batch1","tol_tohand","1158","","","","","","","","","tol_peg_3","1158","1158","0","[[0,0,0],[3,1],[0]]","3","[[2,1,3],[0,0],[0]]","1","0","","","","","","5","","","","",""
"","","","","","single-stim-button","161","2495594","0.0-3.0-13.2-1.2","59f21fe8cc514a00011a66cf","A3","batch1","tol_toboard","1259","","","","","","","","","tol_peg_1","1259","1259","0","[[2,0,0],[3,1],[0]]","3","[[2,1,3],[0,0],[0]]","1","0","","","","","","5","","","","",""
"","","","","","single-stim-button","162","2496466","0.0-3.0-13.3-0.3","59f21fe8cc514a00011a66cf","A3","batch1","tol_tohand","870","","","","","","","","","tol_peg_2","870","870","0","[[2,0,0],[3,0],[0]]","4","[[2,1,3],[0,0],[0]]","1","0","","","","","","5","","","","",""
"","","","","","single-stim-button","163","2497628","0.0-3.0-13.3-1.3","59f21fe8cc514a00011a66cf","A3","batch1","tol_toboard","1160","","","","","","","","","tol_peg_1","1160","1160","0","[[2,1,0],[3,0],[0]]","4","[[2,1,3],[0,0],[0]]","1","0","","","","","","5","","","","",""
"","","","","","single-stim-button","164","2498432","0.0-3.0-13.4-0.4","59f21fe8cc514a00011a66cf","A3","batch1","tol_tohand","802","","","","","","","","","tol_peg_2","802","802","0","[[2,1,0],[0,0],[0]]","5","[[2,1,3],[0,0],[0]]","1","0","","","","","","5","","","","",""
"","","","","","single-stim-button","165","2499952","0.0-3.0-13.4-1.4","59f21fe8cc514a00011a66cf","A3","batch1","tol_toboard","1518","","","","","","","","","tol_peg_1","1518","1518","0","[[2,1,3],[0,0],[0]]","5","[[2,1,3],[0,0],[0]]","1","0","","","","","","5","","","","",""
"","","","","","poldrack-single-stim","166","2500959","0.0-3.0-14.0","59f21fe8cc514a00011a66cf","A3","batch1","tol_feedback","-1","","","","","true","","","","","1000","1000","500","","","","","","-1","none","true","15774","22272","","","","","",""
"","","","","","html-button-response","167","2502357","0.0-3.0-15.0","59f21fe8cc514a00011a66cf","A3","batch1","tol_trial_num","1397","<div class = centerbox><p class = center-block-text>problem <strong>3</strong> out of 25 problems</p></div>","0","","","","","","","","","","","","","","","","","","","","","","","","","",""
"","","","","","single-stim-button","168","2510393","0.0-3.0-16.0-0.0","59f21fe8cc514a00011a66cf","A3","batch1","tol_tohand","8035","","","","","","","","","tol_peg_1","8035","8035","0","[[2,0,0],[0,0],[1]]","1","[[1,2,0],[3,0],[0]]","2","0","","","","","","4","","","","",""
"","","","","","single-stim-button","169","2512293","0.0-3.0-16.0-1.0","59f21fe8cc514a00011a66cf","A3","batch1","tol_toboard","1898","","","","","","","","","tol_peg_2","1898","1898","0","[[2,0,0],[3,0],[1]]","1","[[1,2,0],[3,0],[0]]","2","0","","","","","","4","","","","",""
"","","","","","single-stim-button","170","2514242","0.0-3.0-16.1-0.1","59f21fe8cc514a00011a66cf","A3","batch1","tol_tohand","1947","","","","","","","","","tol_peg_1","1947","1947","0","[[0,0,0],[3,0],[1]]","2","[[1,2,0],[3,0],[0]]","2","0","","","","","","4","","","","",""
"","","","","","single-stim-button","171","2515346","0.0-3.0-16.1-1.1","59f21fe8cc514a00011a66cf","A3","batch1","tol_toboard","1102","","","","","","","","","tol_peg_2","1102","1102","0","[[0,0,0],[3,2],[1]]","2","[[1,2,0],[3,0],[0]]","2","0","","","","","","4","","","","",""
"","","","","","single-stim-button","172","2516366","0.0-3.0-16.2-0.2","59f21fe8cc514a00011a66cf","A3","batch1","tol_tohand","1018","","","","","","","","","tol_peg_3","1018","1018","0","[[0,0,0],[3,2],[0]]","3","[[1,2,0],[3,0],[0]]","2","0","","","","","","4","","","","",""
"","","","","","single-stim-button","173","2518342","0.0-3.0-16.2-1.2","59f21fe8cc514a00011a66cf","A3","batch1","tol_toboard","1975","","","","","","","","","tol_peg_1","1975","1975","0","[[1,0,0],[3,2],[0]]","3","[[1,2,0],[3,0],[0]]","2","0","","","","","","4","","","","",""
"","","","","","single-stim-button","174","2519229","0.0-3.0-16.3-0.3","59f21fe8cc514a00011a66cf","A3","batch1","tol_tohand","886","","","","","","","","","tol_peg_2","886","886","0","[[1,0,0],[3,0],[0]]","4","[[1,2,0],[3,0],[0]]","2","0","","","","","","4","","","","",""
"","","","","","single-stim-button","175","2520572","0.0-3.0-16.3-1.3","59f21fe8cc514a00011a66cf","A3","batch1","tol_toboard","1341","","","","","","","","","tol_peg_1","1341","1341","0","[[1,2,0],[3,0],[0]]","4","[[1,2,0],[3,0],[0]]","2","0","","","","","","4","","","","",""
"","","","","","poldrack-single-stim","176","2521578","0.0-3.0-17.0","59f21fe8cc514a00011a66cf","A3","batch1","tol_feedback","-1","","","","","true","","","","","1000","1000","500","","","","","","-1","none","true","8035","11886","","","","","",""
"","","","","","html-button-response","177","2522847","0.0-3.0-18.0","59f21fe8cc514a00011a66cf","A3","batch1","tol_trial_num","1268","<div class = centerbox><p class = center-block-text>problem <strong>4</strong> out of 25 problems</p></div>","0","","","","","","","","","","","","","","","","","","","","","","","","","",""
"","","","","","single-stim-button","178","2528289","0.0-3.0-19.0-0.0","59f21fe8cc514a00011a66cf","A3","batch1","tol_tohand","5440","","","","","","","","","tol_peg_2","5440","5440","0","[[3,0,0],[2,0],[0]]","1","[[3,0,0],[1,0],[2]]","3","0","","","","","","3","","","","",""
"","","","","","single-stim-button","179","2529161","0.0-3.0-19.0-1.0","59f21fe8cc514a00011a66cf","A3","batch1","tol_toboard","870","","","","","","","","","tol_peg_1","870","870","0","[[3,1,0],[2,0],[0]]","1","[[3,0,0],[1,0],[2]]","3","0","","","","","","3","","","","",""
"","","","","","single-stim-button","180","2530032","0.0-3.0-19.1-0.1","59f21fe8cc514a00011a66cf","A3","batch1","tol_tohand","869","","","","","","","","","tol_peg_2","869","869","0","[[3,1,0],[0,0],[0]]","2","[[3,0,0],[1,0],[2]]","3","0","","","","","","3","","","","",""
"","","","","","single-stim-button","181","2531105","0.0-3.0-19.1-1.1","59f21fe8cc514a00011a66cf","A3","batch1","tol_toboard","1072","","","","","","","","","tol_peg_3","1072","1072","0","[[3,1,0],[0,0],[2]]","2","[[3,0,0],[1,0],[2]]","3","0","","","","","","3","","","","",""
"","","","","","single-stim-button","182","2532008","0.0-3.0-19.2-0.2","59f21fe8cc514a00011a66cf","A3","batch1","tol_tohand","901","","","","","","","","","tol_peg_1","901","901","0","[[3,0,0],[0,0],[2]]","3","[[3,0,0],[1,0],[2]]","3","0","","","","","","3","","","","",""
"","","","","","single-stim-button","183","2533316","0.0-3.0-19.2-1.2","59f21fe8cc514a00011a66cf","A3","batch1","tol_toboard","1308","","","","","","","","","tol_peg_2","1308","1308","0","[[3,0,0],[1,0],[2]]","3","[[3,0,0],[1,0],[2]]","3","0","","","","","","3","","","","",""
"","","","","","poldrack-single-stim","184","2534322","0.0-3.0-20.0","59f21fe8cc514a00011a66cf","A3","batch1","tol_feedback","-1","","","","","true","","","","","1000","1000","500","","","","","","-1","none","true","5440","7210","","","","","",""
"","","","","","html-button-response","185","2535960","0.0-3.0-21.0","59f21fe8cc514a00011a66cf","A3","batch1","tol_trial_num","1634","<div class = centerbox><p class = center-block-text>problem <strong>5</strong> out of 25 problems</p></div>","0","","","","","","","","","","","","","","","","","","","","","","","","","",""
"","","","","","single-stim-button","186","2542654","0.0-3.0-22.0-0.0","59f21fe8cc514a00011a66cf","A3","batch1","tol_tohand","6691","","","","","","","","","tol_peg_2","6691","6691","0","[[1,0,0],[0,0],[3]]","1","[[0,0,0],[1,2],[3]]","4","0","","","","","","7","","","","",""
"","","","","","single-stim-button","187","2553339","0.0-3.0-22.0-1.0","59f21fe8cc514a00011a66cf","A3","batch1","tol_toboard","10681","","","","","","","","","tol_peg_1","10681","10681","0","[[1,2,0],[0,0],[3]]","1","[[0,0,0],[1,2],[3]]","4","0","","","","","","7","","","","",""
"","","","","","single-stim-button","188","2560303","0.0-3.0-22.1-0.1","59f21fe8cc514a00011a66cf","A3","batch1","tol_tohand","6962","","","","","","","","","tol_peg_3","6962","6962","0","[[1,2,0],[0,0],[0]]","2","[[0,0,0],[1,2],[3]]","4","0","","","","","","7","","","","",""
"","","","","","single-stim-button","189","2561239","0.0-3.0-22.1-1.1","59f21fe8cc514a00011a66cf","A3","batch1","tol_toboard","934","","","","","","","","","tol_peg_2","934","934","0","[[1,2,0],[3,0],[0]]","2","[[0,0,0],[1,2],[3]]","4","0","","","","","","7","","","","",""
"","","","","","single-stim-button","190","2562307","0.0-3.0-22.2-0.2","59f21fe8cc514a00011a66cf","A3","batch1","tol_tohand","1066","","","","","","","","","tol_peg_1","1066","1066","0","[[1,0,0],[3,0],[0]]","3","[[0,0,0],[1,2],[3]]","4","0","","","","","","7","","","","",""
"","","","","","single-stim-button","191","2563551","0.0-3.0-22.2-1.2","59f21fe8cc514a00011a66cf","A3","batch1","tol_toboard","1242","","","","","","","","","tol_peg_3","1242","1242","0","[[1,0,0],[3,0],[2]]","3","[[0,0,0],[1,2],[3]]","4","0","","","","","","7","","","","",""
"","","","","","single-stim-button","192","2572748","0.0-3.0-22.3-0.3","59f21fe8cc514a00011a66cf","A3","batch1","tol_tohand","9195","","","","","","","","","tol_peg_1","9195","9195","0","[[0,0,0],[3,0],[2]]","4","[[0,0,0],[1,2],[3]]","4","0","","","","","","7","","","","",""
"","","","","","single-stim-button","193","2574527","0.0-3.0-22.3-1.3","59f21fe8cc514a00011a66cf","A3","batch1","tol_toboard","1777","","","","","","","","","tol_peg_2","1777","1777","0","[[0,0,0],[3,1],[2]]","4","[[0,0,0],[1,2],[3]]","4","0","","","","","","7","","","","",""
"","","","","","single-stim-button","194","2579505","0.0-3.0-22.4-0.4","59f21fe8cc514a00011a66cf","A3","batch1","tol_tohand","4976","","","","","","","","","tol_peg_3","4976","4976","0","[[0,0,0],[3,1],[0]]","5","[[0,0,0],[1,2],[3]]","4","0","","","","","","7","","","","",""
"","","","","","single-stim-button","195","2581339","0.0-3.0-22.4-1.4","59f21fe8cc514a00011a66cf","A3","batch1","tol_toboard","1832","","","","","","","","","tol_peg_1","1832","1832","0","[[2,0,0],[3,1],[0]]","5","[[0,0,0],[1,2],[3]]","4","0","","","","","","7","","","","",""
"","","","","","single-stim-button","196","2582375","0.0-3.0-22.5-0.5","59f21fe8cc514a00011a66cf","A3","batch1","tol_tohand","1034","","","","","","","","","tol_peg_2","1034","1034","0","[[2,0,0],[3,0],[0]]","6","[[0,0,0],[1,2],[3]]","4","0","","","","","","7","","","","",""
"","","","","","single-stim-button","197","2583971","0.0-3.0-22.5-1.5","59f21fe8cc514a00011a66cf","A3","batch1","tol_toboard","1596","","","","","","","","","tol_peg_3","1596","1596","0","[[2,0,0],[3,0],[1]]","6","[[0,0,0],[1,2],[3]]","4","0","","","","","","7","","","","",""
"","","","","","single-stim-button","198","2584915","0.0-3.0-22.6-0.6","59f21fe8cc514a00011a66cf","A3","batch1","tol_tohand","942","","","","","","","","","tol_peg_2","942","942","0","[[2,0,0],[0,0],[1]]","7","[[0,0,0],[1,2],[3]]","4","0","","","","","","7","","","","",""
"","","","","","single-stim-button","199","2585779","0.0-3.0-22.6-1.6","59f21fe8cc514a00011a66cf","A3","batch1","tol_toboard","863","","","","","","","","","tol_peg_1","863","863","0","[[2,3,0],[0,0],[1]]","7","[[0,0,0],[1,2],[3]]","4","0","","","","","","7","","","","",""
"","","","","","single-stim-button","200","2586779","0.0-3.0-22.7-0.7","59f21fe8cc514a00011a66cf","A3","batch1","tol_tohand","998","","","","","","","","","tol_peg_3","998","998","0","[[2,3,0],[0,0],[0]]","8","[[0,0,0],[1,2],[3]]","4","0","","","","","","7","","","","",""
"","","","","","single-stim-button","201","2587666","0.0-3.0-22.7-1.7","59f21fe8cc514a00011a66cf","A3","batch1","tol_toboard","887","","","","","","","","","tol_peg_2","887","887","0","[[2,3,0],[1,0],[0]]","8","[[0,0,0],[1,2],[3]]","4","0","","","","","","7","","","","",""
"","","","","","single-stim-button","202","2589421","0.0-3.0-22.8-0.8","59f21fe8cc514a00011a66cf","A3","batch1","tol_tohand","1753","","","","","","","","","tol_peg_1","1753","1753","0","[[2,0,0],[1,0],[0]]","9","[[0,0,0],[1,2],[3]]","4","0","","","","","","7","","","","",""
"","","","","","single-stim-button","203","2590517","0.0-3.0-22.8-1.8","59f21fe8cc514a00011a66cf","A3","batch1","tol_toboard","1095","","","","","","","","","tol_peg_3","1095","1095","0","[[2,0,0],[1,0],[3]]","9","[[0,0,0],[1,2],[3]]","4","0","","","","","","7","","","","",""
"","","","","","single-stim-button","204","2591505","0.0-3.0-22.9-0.9","59f21fe8cc514a00011a66cf","A3","batch1","tol_tohand","986","","","","","","","","","tol_peg_1","986","986","0","[[0,0,0],[1,0],[3]]","10","[[0,0,0],[1,2],[3]]","4","0","","","","","","7","","","","",""
"","","","","","single-stim-button","205","2592496","0.0-3.0-22.9-1.9","59f21fe8cc514a00011a66cf","A3","batch1","tol_toboard","991","","","","","","","","","tol_peg_2","991","991","0","[[0,0,0],[1,2],[3]]","10","[[0,0,0],[1,2],[3]]","4","0","","","","","","7","","","","",""
"","","","","","poldrack-single-stim","206","2593500","0.0-3.0-23.0","59f21fe8cc514a00011a66cf","A3","batch1","tol_feedback","-1","","","","","true","","","","","1000","1000","500","","","","","","-1","none","true","6691","34603","","","","","",""
"","","","","","html-button-response","207","2595712","0.0-3.0-24.0","59f21fe8cc514a00011a66cf","A3","batch1","tol_trial_num","2210","<div class = centerbox><p class = center-block-text>problem <strong>6</strong> out of 25 problems</p></div>","0","","","","","","","","","","","","","","","","","","","","","","","","","",""
"","","","","","single-stim-button","208","2617766","0.0-3.0-25.0-0.0","59f21fe8cc514a00011a66cf","A3","batch1","tol_tohand","22051","","","","","","","","","tol_peg_2","22051","22051","0","[[0,0,0],[1,0],[3]]","1","[[1,0,0],[2,3],[0]]","5","0","","","","","","6","","","","",""
"","","","","","single-stim-button","209","2618829","0.0-3.0-25.0-1.0","59f21fe8cc514a00011a66cf","A3","batch1","tol_toboard","1061","","","","","","","","","tol_peg_1","1061","1061","0","[[2,0,0],[1,0],[3]]","1","[[1,0,0],[2,3],[0]]","5","0","","","","","","6","","","","",""
"","","","","","single-stim-button","210","2619771","0.0-3.0-25.1-0.1","59f21fe8cc514a00011a66cf","A3","batch1","tol_tohand","940","","","","","","","","","tol_peg_2","940","940","0","[[2,0,0],[0,0],[3]]","2","[[1,0,0],[2,3],[0]]","5","0","","","","","","6","","","","",""
"","","","","","single-stim-button","211","2620631","0.0-3.0-25.1-1.1","59f21fe8cc514a00011a66cf","A3","batch1","tol_toboard","858","","","","","","","","","tol_peg_1","858","858","0","[[2,1,0],[0,0],[3]]","2","[[1,0,0],[2,3],[0]]","5","0","","","","","","6","","","","",""
"","","","","","single-stim-button","212","2621470","0.0-3.0-25.2-0.2","59f21fe8cc514a00011a66cf","A3","batch1","tol_tohand","838","","","","","","","","","tol_peg_3","838","838","0","[[2,1,0],[0,0],[0]]","3","[[1,0,0],[2,3],[0]]","5","0","","","","","","6","","","","",""
"","","","","","single-stim-button","213","2623367","0.0-3.0-25.2-1.2","59f21fe8cc514a00011a66cf","A3","batch1","tol_toboard","1895","","","","","","","","","tol_peg_2","1895","1895","0","[[2,1,0],[3,0],[0]]","3","[[1,0,0],[2,3],[0]]","5","0","","","","","","6","","","","",""
"","","","","","single-stim-button","214","2624592","0.0-3.0-25.3-0.3","59f21fe8cc514a00011a66cf","A3","batch1","tol_tohand","1223","","","","","","","","","tol_peg_1","1223","1223","0","[[2,0,0],[3,0],[0]]","4","[[1,0,0],[2,3],[0]]","5","0","","","","","","6","","","","",""
"","","","","","single-stim-button","215","2625423","0.0-3.0-25.3-1.3","59f21fe8cc514a00011a66cf","A3","batch1","tol_toboard","828","","","","","","","","","tol_peg_2","828","828","0","[[2,0,0],[3,1],[0]]","4","[[1,0,0],[2,3],[0]]","5","0","","","","","","6","","","","",""
"","","","","","single-stim-button","216","2626657","0.0-3.0-25.4-0.4","59f21fe8cc514a00011a66cf","A3","batch1","tol_tohand","1233","","","","","","","","","tol_peg_1","1233","1233","0","[[0,0,0],[3,1],[0]]","5","[[1,0,0],[2,3],[0]]","5","0","","","","","","6","","","","",""
"","","","","","single-stim-button","217","2627957","0.0-3.0-25.4-1.4","59f21fe8cc514a00011a66cf","A3","batch1","tol_toboard","1298","","","","","","","","","tol_peg_3","1298","1298","0","[[0,0,0],[3,1],[2]]","5","[[1,0,0],[2,3],[0]]","5","0","","","","","","6","","","","",""
"","","","","","single-stim-button","218","2628676","0.0-3.0-25.5-0.5","59f21fe8cc514a00011a66cf","A3","batch1","tol_tohand","717","","","","","","","","","tol_peg_2","717","717","0","[[0,0,0],[3,0],[2]]","6","[[1,0,0],[2,3],[0]]","5","0","","","","","","6","","","","",""
"","","","","","single-stim-button","219","2629824","0.0-3.0-25.5-1.5","59f21fe8cc514a00011a66cf","A3","batch1","tol_toboard","1146","","","","","","","","","tol_peg_1","1146","1146","0","[[1,0,0],[3,0],[2]]","6","[[1,0,0],[2,3],[0]]","5","0","","","","","","6","","","","",""
"","","","","","single-stim-button","220","2631840","0.0-3.0-25.6-0.6","59f21fe8cc514a00011a66cf","A3","batch1","tol_tohand","2014","","","","","","","","","tol_peg_2","2014","2014","0","[[1,0,0],[0,0],[2]]","7","[[1,0,0],[2,3],[0]]","5","0","","","","","","6","","","","",""
"","","","","","single-stim-button","221","2633036","0.0-3.0-25.6-1.6","59f21fe8cc514a00011a66cf","A3","batch1","tol_toboard","1194","","","","","","","","","tol_peg_1","1194","1194","0","[[1,3,0],[0,0],[2]]","7","[[1,0,0],[2,3],[0]]","5","0","","","","","","6","","","","",""
"","","","","","single-stim-button","222","2633744","0.0-3.0-25.7-0.7","59f21fe8cc514a00011a66cf","A3","batch1","tol_tohand","707","","","","","","","","","tol_peg_3","707","707","0","[[1,3,0],[0,0],[0]]","8","[[1,0,0],[2,3],[0]]","5","0","","","","","","6","","","","",""
"","","","","","single-stim-button","223","2634371","0.0-3.0-25.7-1.7","59f21fe8cc514a00011a66cf","A3","batch1","tol_toboard","627","","","","","","","","","tol_peg_2","627","627","0","[[1,3,0],[2,0],[0]]","8","[[1,0,0],[2,3],[0]]","5","0","","","","","","6","","","","",""
"","","","","","single-stim-button","224","2635090","0.0-3.0-25.8-0.8","59f21fe8cc514a00011a66cf","A3","batch1","tol_tohand","718","","","","","","","","","tol_peg_1","718","718","0","[[1,0,0],[2,0],[0]]","9","[[1,0,0],[2,3],[0]]","5","0","","","","","","6","","","","",""
"","","","","","single-stim-button","225","2635838","0.0-3.0-25.8-1.8","59f21fe8cc514a00011a66cf","A3","batch1","tol_toboard","746","","","","","","","","","tol_peg_2","746","746","0","[[1,0,0],[2,3],[0]]","9","[[1,0,0],[2,3],[0]]","5","0","","","","","","6","","","","",""
"","","","","","poldrack-single-stim","226","2636848","0.0-3.0-26.0","59f21fe8cc514a00011a66cf","A3","batch1","tol_feedback","-1","","","","","true","","","","","1000","1000","500","","","","","","-1","none","true","22051","30441","","","","","",""
"","","","","","html-button-response","227","2638777","0.0-3.0-27.0","59f21fe8cc514a00011a66cf","A3","batch1","tol_trial_num","1926","<div class = centerbox><p class = center-block-text>problem <strong>7</strong> out of 25 problems</p></div>","0","","","","","","","","","","","","","","","","","","","","","","","","","",""
"","","","","","single-stim-button","228","2642815","0.0-3.0-28.0-0.0","59f21fe8cc514a00011a66cf","A3","batch1","tol_tohand","4035","","","","","","","","","tol_peg_3","4035","4035","0","[[2,1,0],[0,0],[0]]","1","[[1,2,0],[3,0],[0]]","6","0","","","","","","5","","","","",""
"","","","","","single-stim-button","229","2643815","0.0-3.0-28.0-1.0","59f21fe8cc514a00011a66cf","A3","batch1","tol_toboard","998","","","","","","","","","tol_peg_2","998","998","0","[[2,1,0],[3,0],[0]]","1","[[1,2,0],[3,0],[0]]","6","0","","","","","","5","","","","",""
"","","","","","single-stim-button","230","2644627","0.0-3.0-28.1-0.1","59f21fe8cc514a00011a66cf","A3","batch1","tol_tohand","810","","","","","","","","","tol_peg_1","810","810","0","[[2,0,0],[3,0],[0]]","2","[[1,2,0],[3,0],[0]]","6","0","","","","","","5","","","","",""
"","","","","","single-stim-button","231","2645563","0.0-3.0-28.1-1.1","59f21fe8cc514a00011a66cf","A3","batch1","tol_toboard","934","","","","","","","","","tol_peg_3","934","934","0","[[2,0,0],[3,0],[1]]","2","[[1,2,0],[3,0],[0]]","6","0","","","","","","5","","","","",""
"","","","","","single-stim-button","232","2646467","0.0-3.0-28.2-0.2","59f21fe8cc514a00011a66cf","A3","batch1","tol_tohand","902","","","","","","","","","tol_peg_1","902","902","0","[[0,0,0],[3,0],[1]]","3","[[1,2,0],[3,0],[0]]","6","0","","","","","","5","","","","",""
"","","","","","single-stim-button","233","2647139","0.0-3.0-28.2-1.2","59f21fe8cc514a00011a66cf","A3","batch1","tol_toboard","671","","","","","","","","","tol_peg_2","671","671","0","[[0,0,0],[3,2],[1]]","3","[[1,2,0],[3,0],[0]]","6","0","","","","","","5","","","","",""
"","","","","","single-stim-button","234","2647743","0.0-3.0-28.3-0.3","59f21fe8cc514a00011a66cf","A3","batch1","tol_tohand","603","","","","","","","","","tol_peg_3","603","603","0","[[0,0,0],[3,2],[0]]","4","[[1,2,0],[3,0],[0]]","6","0","","","","","","5","","","","",""
"","","","","","single-stim-button","235","2648555","0.0-3.0-28.3-1.3","59f21fe8cc514a00011a66cf","A3","batch1","tol_toboard","810","","","","","","","","","tol_peg_1","810","810","0","[[1,0,0],[3,2],[0]]","4","[[1,2,0],[3,0],[0]]","6","0","","","","","","5","","","","",""
"","","","","","single-stim-button","236","2649223","0.0-3.0-28.4-0.4","59f21fe8cc514a00011a66cf","A3","batch1","tol_tohand","666","","","","","","","","","tol_peg_2","666","666","0","[[1,0,0],[3,0],[0]]","5","[[1,2,0],[3,0],[0]]","6","0","","","","","","5","","","","",""
"","","","","","single-stim-button","237","2650117","0.0-3.0-28.4-1.4","59f21fe8cc514a00011a66cf","A3","batch1","tol_toboard","892","","","","","","","","","tol_peg_1","892","892","0","[[1,2,0],[3,0],[0]]","5","[[1,2,0],[3,0],[0]]","6","0","","","","","","5","","","","",""
"","","","","","poldrack-single-stim","238","2651121","0.0-3.0-29.0","59f21fe8cc514a00011a66cf","A3","batch1","tol_feedback","-1","","","","","true","","","","","1000","1000","500","","","","","","-1","none","true","4035","7016","","","","","",""
"","","","","","html-button-response","239","2652537","0.0-3.0-30.0","59f21fe8cc514a00011a66cf","A3","batch1","tol_trial_num","1414","<div class = centerbox><p class = center-block-text>problem <strong>8</strong> out of 25 problems</p></div>","0","","","","","","","","","","","","","","","","","","","","","","","","","",""
"","","","","","single-stim-button","240","2655872","0.0-3.0-31.0-0.0","59f21fe8cc514a00011a66cf","A3","batch1","tol_tohand","3334","","","","","","","","","tol_peg_3","3334","3334","0","[[0,0,0],[2,3],[0]]","1","[[1,2,0],[3,0],[0]]","7","0","","","","","","4","","","","",""
"","","","","","single-stim-button","241","2656737","0.0-3.0-31.0-1.0","59f21fe8cc514a00011a66cf","A3","batch1","tol_toboard","863","","","","","","","","","tol_peg_1","863","863","0","[[1,0,0],[2,3],[0]]","1","[[1,2,0],[3,0],[0]]","7","0","","","","","","4","","","","",""
"","","","","","single-stim-button","242","2657435","0.0-3.0-31.1-0.1","59f21fe8cc514a00011a66cf","A3","batch1","tol_tohand","696","","","","","","","","","tol_peg_2","696","696","0","[[1,0,0],[2,0],[0]]","2","[[1,2,0],[3,0],[0]]","7","0","","","","","","4","","","","",""
"","","","","","single-stim-button","243","2658147","0.0-3.0-31.1-1.1","59f21fe8cc514a00011a66cf","A3","batch1","tol_toboard","710","","","","","","","","","tol_peg_3","710","710","0","[[1,0,0],[2,0],[3]]","2","[[1,2,0],[3,0],[0]]","7","0","","","","","","4","","","","",""
"","","","","","single-stim-button","244","2658810","0.0-3.0-31.2-0.2","59f21fe8cc514a00011a66cf","A3","batch1","tol_tohand","661","","","","","","","","","tol_peg_2","661","661","0","[[1,0,0],[0,0],[3]]","3","[[1,2,0],[3,0],[0]]","7","0","","","","","","4","","","","",""
"","","","","","single-stim-button","245","2659566","0.0-3.0-31.2-1.2","59f21fe8cc514a00011a66cf","A3","batch1","tol_toboard","754","","","","","","","","","tol_peg_1","754","754","0","[[1,2,0],[0,0],[3]]","3","[[1,2,0],[3,0],[0]]","7","0","","","","","","4","","","","",""
"","","","","","single-stim-button","246","2660477","0.0-3.0-31.3-0.3","59f21fe8cc514a00011a66cf","A3","batch1","tol_tohand","910","","","","","","","","","tol_peg_3","910","910","0","[[1,2,0],[0,0],[0]]","4","[[1,2,0],[3,0],[0]]","7","0","","","","","","4","","","","",""
"","","","","","single-stim-button","247","2661258","0.0-3.0-31.3-1.3","59f21fe8cc514a00011a66cf","A3","batch1","tol_toboard","779","","","","","","","","","tol_peg_2","779","779","0","[[1,2,0],[3,0],[0]]","4","[[1,2,0],[3,0],[0]]","7","0","","","","","","4","","","","",""
"","","","","","poldrack-single-stim","248","2662264","0.0-3.0-32.0","59f21fe8cc514a00011a66cf","A3","batch1","tol_feedback","-1","","","","","true","","","","","1000","1000","500","","","","","","-1","none","true","3334","5601","","","","","",""
"","","","","","html-button-response","249","2663846","0.0-3.0-33.0","59f21fe8cc514a00011a66cf","A3","batch1","tol_trial_num","1580","<div class = centerbox><p class = center-block-text>problem <strong>9</strong> out of 25 problems</p></div>","0","","","","","","","","","","","","","","","","","","","","","","","","","",""
"","","","","","single-stim-button","250","2673718","0.0-3.0-34.0-0.0","59f21fe8cc514a00011a66cf","A3","batch1","tol_tohand","9870","","","","","","","","","tol_peg_3","9870","9870","0","[[3,2,0],[0,0],[0]]","1","[[2,1,0],[3,0],[0]]","8","0","","","","","","6","","","","",""
"","","","","","single-stim-button","251","2674513","0.0-3.0-34.0-1.0","59f21fe8cc514a00011a66cf","A3","batch1","tol_toboard","794","","","","","","","","","tol_peg_2","794","794","0","[[3,2,0],[1,0],[0]]","1","[[2,1,0],[3,0],[0]]","8","0","","","","","","6","","","","",""
"","","","","","single-stim-button","252","2675282","0.0-3.0-34.1-0.1","59f21fe8cc514a00011a66cf","A3","batch1","tol_tohand","766","","","","","","","","","tol_peg_1","766","766","0","[[3,0,0],[1,0],[0]]","2","[[2,1,0],[3,0],[0]]","8","0","","","","","","6","","","","",""
"","","","","","single-stim-button","253","2677346","0.0-3.0-34.1-1.1","59f21fe8cc514a00011a66cf","A3","batch1","tol_toboard","2062","","","","","","","","","tol_peg_3","2062","2062","0","[[3,0,0],[1,0],[2]]","2","[[2,1,0],[3,0],[0]]","8","0","","","","","","6","","","","",""
"","","","","","single-stim-button","254","2678181","0.0-3.0-34.2-0.2","59f21fe8cc514a00011a66cf","A3","batch1","tol_tohand","833","","","","","","","","","tol_peg_1","833","833","0","[[0,0,0],[1,0],[2]]","3","[[2,1,0],[3,0],[0]]","8","0","","","","","","6","","","","",""
"","","","","","single-stim-button","255","2681023","0.0-3.0-34.2-1.2","59f21fe8cc514a00011a66cf","A3","batch1","tol_toboard","2840","","","","","","","","","tol_peg_2","2840","2840","0","[[0,0,0],[1,3],[2]]","3","[[2,1,0],[3,0],[0]]","8","0","","","","","","6","","","","",""
"","","","","","single-stim-button","256","2681819","0.0-3.0-34.3-0.3","59f21fe8cc514a00011a66cf","A3","batch1","tol_tohand","795","","","","","","","","","tol_peg_3","795","795","0","[[0,0,0],[1,3],[0]]","4","[[2,1,0],[3,0],[0]]","8","0","","","","","","6","","","","",""
"","","","","","single-stim-button","257","2682719","0.0-3.0-34.3-1.3","59f21fe8cc514a00011a66cf","A3","batch1","tol_toboard","898","","","","","","","","","tol_peg_1","898","898","0","[[2,0,0],[1,3],[0]]","4","[[2,1,0],[3,0],[0]]","8","0","","","","","","6","","","","",""
"","","","","","single-stim-button","258","2683483","0.0-3.0-34.4-0.4","59f21fe8cc514a00011a66cf","A3","batch1","tol_tohand","762","","","","","","","","","tol_peg_2","762","762","0","[[2,0,0],[1,0],[0]]","5","[[2,1,0],[3,0],[0]]","8","0","","","","","","6","","","","",""
"","","","","","single-stim-button","259","2684131","0.0-3.0-34.4-1.4","59f21fe8cc514a00011a66cf","A3","batch1","tol_toboard","646","","","","","","","","","tol_peg_3","646","646","0","[[2,0,0],[1,0],[3]]","5","[[2,1,0],[3,0],[0]]","8","0","","","","","","6","","","","",""
"","","","","","single-stim-button","260","2684719","0.0-3.0-34.5-0.5","59f21fe8cc514a00011a66cf","A3","batch1","tol_tohand","586","","","","","","","","","tol_peg_2","586","586","0","[[2,0,0],[0,0],[3]]","6","[[2,1,0],[3,0],[0]]","8","0","","","","","","6","","","","",""
"","","","","","single-stim-button","261","2685463","0.0-3.0-34.5-1.5","59f21fe8cc514a00011a66cf","A3","batch1","tol_toboard","742","","","","","","","","","tol_peg_1","742","742","0","[[2,1,0],[0,0],[3]]","6","[[2,1,0],[3,0],[0]]","8","0","","","","","","6","","","","",""
"","","","","","single-stim-button","262","2686263","0.0-3.0-34.6-0.6","59f21fe8cc514a00011a66cf","A3","batch1","tol_tohand","798","","","","","","","","","tol_peg_3","798","798","0","[[2,1,0],[0,0],[0]]","7","[[2,1,0],[3,0],[0]]","8","0","","","","","","6","","","","",""
"","","","","","single-stim-button","263","2686923","0.0-3.0-34.6-1.6","59f21fe8cc514a00011a66cf","A3","batch1","tol_toboard","659","","","","","","","","","tol_peg_2","659","659","0","[[2,1,0],[3,0],[0]]","7","[[2,1,0],[3,0],[0]]","8","0","","","","","","6","","","","",""
"","","","","","poldrack-single-stim","264","2687929","0.0-3.0-35.0","59f21fe8cc514a00011a66cf","A3","batch1","tol_feedback","-1","","","","","true","","","","","1000","1000","500","","","","","","-1","none","true","9870","14410","","","","","",""
"","","","","","html-button-response","265","2689580","0.0-3.0-36.0","59f21fe8cc514a00011a66cf","A3","batch1","tol_trial_num","1649","<div class = centerbox><p class = center-block-text>problem <strong>10</strong> out of 25 problems</p></div>","0","","","","","","","","","","","","","","","","","","","","","","","","","",""
"","","","","","single-stim-button","266","2693867","0.0-3.0-37.0-0.0","59f21fe8cc514a00011a66cf","A3","batch1","tol_tohand","4285","","","","","","","","","tol_peg_2","4285","4285","0","[[3,0,0],[0,0],[2]]","1","[[3,0,0],[2,1],[0]]","9","0","","","","","","3","","","","",""
"","","","","","single-stim-button","267","2694467","0.0-3.0-37.0-1.0","59f21fe8cc514a00011a66cf","A3","batch1","tol_toboard","597","","","","","","","","","tol_peg_1","597","597","0","[[3,1,0],[0,0],[2]]","1","[[3,0,0],[2,1],[0]]","9","0","","","","","","3","","","","",""
"","","","","","single-stim-button","268","2695139","0.0-3.0-37.1-0.1","59f21fe8cc514a00011a66cf","A3","batch1","tol_tohand","670","","","","","","","","","tol_peg_3","670","670","0","[[3,1,0],[0,0],[0]]","2","[[3,0,0],[2,1],[0]]","9","0","","","","","","3","","","","",""
"","","","","","single-stim-button","269","2696061","0.0-3.0-37.1-1.1","59f21fe8cc514a00011a66cf","A3","batch1","tol_toboard","920","","","","","","","","","tol_peg_2","920","920","0","[[3,1,0],[2,0],[0]]","2","[[3,0,0],[2,1],[0]]","9","0","","","","","","3","","","","",""
"","","","","","single-stim-button","270","2696705","0.0-3.0-37.2-0.2","59f21fe8cc514a00011a66cf","A3","batch1","tol_tohand","642","","","","","","","","","tol_peg_1","642","642","0","[[3,0,0],[2,0],[0]]","3","[[3,0,0],[2,1],[0]]","9","0","","","","","","3","","","","",""
"","","","","","single-stim-button","271","2697568","0.0-3.0-37.2-1.2","59f21fe8cc514a00011a66cf","A3","batch1","tol_toboard","862","","","","","","","","","tol_peg_2","862","862","0","[[3,0,0],[2,1],[0]]","3","[[3,0,0],[2,1],[0]]","9","0","","","","","","3","","","","",""
"","","","","","poldrack-single-stim","272","2698578","0.0-3.0-38.0","59f21fe8cc514a00011a66cf","A3","batch1","tol_feedback","-1","","","","","true","","","","","1000","1000","500","","","","","","-1","none","true","4285","5597","","","","","",""
"","","","","","html-button-response","273","2703182","0.0-3.0-39.0","59f21fe8cc514a00011a66cf","A3","batch1","tol_trial_num","4602","<div class = centerbox><p class = center-block-text>problem <strong>11</strong> out of 25 problems</p></div>","0","","","","","","","","","","","","","","","","","","","","","","","","","",""
"","","","","","single-stim-button","274","2724497","0.0-3.0-40.0-0.0","59f21fe8cc514a00011a66cf","A3","batch1","tol_tohand","21313","","","","","","","","","tol_peg_1","21313","21313","0","[[1,0,0],[3,0],[0]]","1","[[2,0,0],[1,3],[0]]","10","0","","","","","","6","","","","",""
"","","","","","single-stim-button","275","2728007","0.0-3.0-40.0-1.0","59f21fe8cc514a00011a66cf","A3","batch1","tol_toboard","3507","","","","","","","","","tol_peg_3","3507","3507","0","[[1,0,0],[3,0],[2]]","1","[[2,0,0],[1,3],[0]]","10","0","","","","","","6","","","","",""
"","","","","","single-stim-button","276","2728843","0.0-3.0-40.1-0.1","59f21fe8cc514a00011a66cf","A3","batch1","tol_tohand","834","","","","","","","","","tol_peg_1","834","834","0","[[0,0,0],[3,0],[2]]","2","[[2,0,0],[1,3],[0]]","10","0","","","","","","6","","","","",""
"","","","","","single-stim-button","277","2730284","0.0-3.0-40.1-1.1","59f21fe8cc514a00011a66cf","A3","batch1","tol_toboard","1438","","","","","","","","","tol_peg_2","1438","1438","0","[[0,0,0],[3,1],[2]]","2","[[2,0,0],[1,3],[0]]","10","0","","","","","","6","","","","",""
"","","","","","single-stim-button","278","2730998","0.0-3.0-40.2-0.2","59f21fe8cc514a00011a66cf","A3","batch1","tol_tohand","714","","","","","","","","","tol_peg_3","714","714","0","[[0,0,0],[3,1],[0]]","3","[[2,0,0],[1,3],[0]]","10","0","","","","","","6","","","","",""
"","","","","","single-stim-button","279","2731807","0.0-3.0-40.2-1.2","59f21fe8cc514a00011a66cf","A3","batch1","tol_toboard","807","","","","","","","","","tol_peg_1","807","807","0","[[2,0,0],[3,1],[0]]","3","[[2,0,0],[1,3],[0]]","10","0","","","","","","6","","","","",""
"","","","","","single-stim-button","280","2732559","0.0-3.0-40.3-0.3","59f21fe8cc514a00011a66cf","A3","batch1","tol_tohand","750","","","","","","","","","tol_peg_2","750","750","0","[[2,0,0],[3,0],[0]]","4","[[2,0,0],[1,3],[0]]","10","0","","","","","","6","","","","",""
"","","","","","single-stim-button","281","2734981","0.0-3.0-40.3-1.3","59f21fe8cc514a00011a66cf","A3","batch1","tol_toboard","2420","","","","","","","","","tol_peg_3","2420","2420","0","[[2,0,0],[3,0],[1]]","4","[[2,0,0],[1,3],[0]]","10","0","","","","","","6","","","","",""
"","","","","","single-stim-button","282","2735729","0.0-3.0-40.4-0.4","59f21fe8cc514a00011a66cf","A3","batch1","tol_tohand","747","","","","","","","","","tol_peg_2","747","747","0","[[2,0,0],[0,0],[1]]","5","[[2,0,0],[1,3],[0]]","10","0","","","","","","6","","","","",""
"","","","","","single-stim-button","283","2736373","0.0-3.0-40.4-1.4","59f21fe8cc514a00011a66cf","A3","batch1","tol_toboard","643","","","","","","","","","tol_peg_1","643","643","0","[[2,3,0],[0,0],[1]]","5","[[2,0,0],[1,3],[0]]","10","0","","","","","","6","","","","",""
"","","","","","single-stim-button","284","2737117","0.0-3.0-40.5-0.5","59f21fe8cc514a00011a66cf","A3","batch1","tol_tohand","742","","","","","","","","","tol_peg_3","742","742","0","[[2,3,0],[0,0],[0]]","6","[[2,0,0],[1,3],[0]]","10","0","","","","","","6","","","","",""
"","","","","","single-stim-button","285","2738021","0.0-3.0-40.5-1.5","59f21fe8cc514a00011a66cf","A3","batch1","tol_toboard","901","","","","","","","","","tol_peg_2","901","901","0","[[2,3,0],[1,0],[0]]","6","[[2,0,0],[1,3],[0]]","10","0","","","","","","6","","","","",""
"","","","","","single-stim-button","286","2739656","0.0-3.0-40.6-0.6","59f21fe8cc514a00011a66cf","A3","batch1","tol_tohand","1634","","","","","","","","","tol_peg_1","1634","1634","0","[[2,0,0],[1,0],[0]]","7","[[2,0,0],[1,3],[0]]","10","0","","","","","","6","","","","",""
"","","","","","single-stim-button","287","2740536","0.0-3.0-40.6-1.6","59f21fe8cc514a00011a66cf","A3","batch1","tol_toboard","879","","","","","","","","","tol_peg_2","879","879","0","[[2,0,0],[1,3],[0]]","7","[[2,0,0],[1,3],[0]]","10","0","","","","","","6","","","","",""
"","","","","","poldrack-single-stim","288","2741547","0.0-3.0-41.0","59f21fe8cc514a00011a66cf","A3","batch1","tol_feedback","-1","","","","","true","","","","","1000","1000","500","","","","","","-1","none","true","21313","26734","","","","","",""
"","","","","","html-button-response","289","2742990","0.0-3.0-42.0","59f21fe8cc514a00011a66cf","A3","batch1","tol_trial_num","1441","<div class = centerbox><p class = center-block-text>problem <strong>12</strong> out of 25 problems</p></div>","0","","","","","","","","","","","","","","","","","","","","","","","","","",""
"","","","","","single-stim-button","290","2751853","0.0-3.0-43.0-0.0","59f21fe8cc514a00011a66cf","A3","batch1","tol_tohand","8861","","","","","","","","","tol_peg_1","8861","8861","0","[[1,0,0],[3,0],[0]]","1","[[2,3,0],[0,0],[1]]","11","0","","","","","","4","","","","",""
"","","","","","single-stim-button","291","2752527","0.0-3.0-43.0-1.0","59f21fe8cc514a00011a66cf","A3","batch1","tol_toboard","673","","","","","","","","","tol_peg_2","673","673","0","[[1,0,0],[3,2],[0]]","1","[[2,3,0],[0,0],[1]]","11","0","","","","","","4","","","","",""
"","","","","","single-stim-button","292","2753346","0.0-3.0-43.1-0.1","59f21fe8cc514a00011a66cf","A3","batch1","tol_tohand","817","","","","","","","","","tol_peg_1","817","817","0","[[0,0,0],[3,2],[0]]","2","[[2,3,0],[0,0],[1]]","11","0","","","","","","4","","","","",""
"","","","","","single-stim-button","293","2754498","0.0-3.0-43.1-1.1","59f21fe8cc514a00011a66cf","A3","batch1","tol_toboard","1151","","","","","","","","","tol_peg_3","1151","1151","0","[[0,0,0],[3,2],[1]]","2","[[2,3,0],[0,0],[1]]","11","0","","","","","","4","","","","",""
"","","","","","single-stim-button","294","2755521","0.0-3.0-43.2-0.2","59f21fe8cc514a00011a66cf","A3","batch1","tol_tohand","1022","","","","","","","","","tol_peg_2","1022","1022","0","[[0,0,0],[3,0],[1]]","3","[[2,3,0],[0,0],[1]]","11","0","","","","","","4","","","","",""
"","","","","","single-stim-button","295","2756246","0.0-3.0-43.2-1.2","59f21fe8cc514a00011a66cf","A3","batch1","tol_toboard","723","","","","","","","","","tol_peg_1","723","723","0","[[2,0,0],[3,0],[1]]","3","[[2,3,0],[0,0],[1]]","11","0","","","","","","4","","","","",""
"","","","","","single-stim-button","296","2756948","0.0-3.0-43.3-0.3","59f21fe8cc514a00011a66cf","A3","batch1","tol_tohand","700","","","","","","","","","tol_peg_2","700","700","0","[[2,0,0],[0,0],[1]]","4","[[2,3,0],[0,0],[1]]","11","0","","","","","","4","","","","",""
"","","","","","single-stim-button","297","2757968","0.0-3.0-43.3-1.3","59f21fe8cc514a00011a66cf","A3","batch1","tol_toboard","1019","","","","","","","","","tol_peg_1","1019","1019","0","[[2,3,0],[0,0],[1]]","4","[[2,3,0],[0,0],[1]]","11","0","","","","","","4","","","","",""
"","","","","","poldrack-single-stim","298","2758973","0.0-3.0-44.0","59f21fe8cc514a00011a66cf","A3","batch1","tol_feedback","-1","","","","","true","","","","","1000","1000","500","","","","","","-1","none","true","8861","11400","","","","","",""
"","","","","","html-button-response","299","2759932","0.0-3.0-45.0","59f21fe8cc514a00011a66cf","A3","batch1","tol_trial_num","956","<div class = centerbox><p class = center-block-text>problem <strong>13</strong> out of 25 problems</p></div>","0","","","","","","","","","","","","","","","","","","","","","","","","","",""
"","","","","","single-stim-button","300","2763668","0.0-3.0-46.0-0.0","59f21fe8cc514a00011a66cf","A3","batch1","tol_tohand","3734","","","","","","","","","tol_peg_1","3734","3734","0","[[1,0,0],[3,0],[0]]","1","[[0,0,0],[2,3],[1]]","12","0","","","","","","4","","","","",""
"","","","","","single-stim-button","301","2764689","0.0-3.0-46.0-1.0","59f21fe8cc514a00011a66cf","A3","batch1","tol_toboard","1019","","","","","","","","","tol_peg_2","1019","1019","0","[[1,0,0],[3,2],[0]]","1","[[0,0,0],[2,3],[1]]","12","0","","","","","","4","","","","",""
"","","","","","single-stim-button","302","2765517","0.0-3.0-46.1-0.1","59f21fe8cc514a00011a66cf","A3","batch1","tol_tohand","827","","","","","","","","","tol_peg_1","827","827","0","[[0,0,0],[3,2],[0]]","2","[[0,0,0],[2,3],[1]]","12","0","","","","","","4","","","","",""
"","","","","","single-stim-button","303","2766550","0.0-3.0-46.1-1.1","59f21fe8cc514a00011a66cf","A3","batch1","tol_toboard","1030","","","","","","","","","tol_peg_3","1030","1030","0","[[0,0,0],[3,2],[1]]","2","[[0,0,0],[2,3],[1]]","12","0","","","","","","4","","","","",""
"","","","","","single-stim-button","304","2767221","0.0-3.0-46.2-0.2","59f21fe8cc514a00011a66cf","A3","batch1","tol_tohand","669","","","","","","","","","tol_peg_2","669","669","0","[[0,0,0],[3,0],[1]]","3","[[0,0,0],[2,3],[1]]","12","0","","","","","","4","","","","",""
"","","","","","single-stim-button","305","2768585","0.0-3.0-46.2-1.2","59f21fe8cc514a00011a66cf","A3","batch1","tol_toboard","1362","","","","","","","","","tol_peg_1","1362","1362","0","[[2,0,0],[3,0],[1]]","3","[[0,0,0],[2,3],[1]]","12","0","","","","","","4","","","","",""
"","","","","","single-stim-button","306","2783032","0.0-3.0-46.3-0.3","59f21fe8cc514a00011a66cf","A3","batch1","tol_tohand","14445","","","","","","","","","tol_peg_3","14445","14445","0","[[2,0,0],[3,0],[0]]","4","[[0,0,0],[2,3],[1]]","12","0","","","","","","4","","","","",""
"","","","","","single-stim-button","307","2785224","0.0-3.0-46.3-1.3","59f21fe8cc514a00011a66cf","A3","batch1","tol_toboard","2190","","","","","","","","","tol_peg_1","2190","2190","0","[[2,1,0],[3,0],[0]]","4","[[0,0,0],[2,3],[1]]","12","0","","","","","","4","","","","",""
"","","","","","single-stim-button","308","2785957","0.0-3.0-46.4-0.4","59f21fe8cc514a00011a66cf","A3","batch1","tol_tohand","730","","","","","","","","","tol_peg_2","730","730","0","[[2,1,0],[0,0],[0]]","5","[[0,0,0],[2,3],[1]]","12","0","","","","","","4","","","","",""
"","","","","","single-stim-button","309","2786846","0.0-3.0-46.4-1.4","59f21fe8cc514a00011a66cf","A3","batch1","tol_toboard","888","","","","","","","","","tol_peg_3","888","888","0","[[2,1,0],[0,0],[3]]","5","[[0,0,0],[2,3],[1]]","12","0","","","","","","4","","","","",""
"","","","","","single-stim-button","310","2787666","0.0-3.0-46.5-0.5","59f21fe8cc514a00011a66cf","A3","batch1","tol_tohand","818","","","","","","","","","tol_peg_1","818","818","0","[[2,0,0],[0,0],[3]]","6","[[0,0,0],[2,3],[1]]","12","0","","","","","","4","","","","",""
"","","","","","single-stim-button","311","2788829","0.0-3.0-46.5-1.5","59f21fe8cc514a00011a66cf","A3","batch1","tol_toboard","1162","","","","","","","","","tol_peg_2","1162","1162","0","[[2,0,0],[1,0],[3]]","6","[[0,0,0],[2,3],[1]]","12","0","","","","","","4","","","","",""
"","","","","","single-stim-button","312","2789690","0.0-3.0-46.6-0.6","59f21fe8cc514a00011a66cf","A3","batch1","tol_tohand","859","","","","","","","","","tol_peg_1","859","859","0","[[0,0,0],[1,0],[3]]","7","[[0,0,0],[2,3],[1]]","12","0","","","","","","4","","","","",""
"","","","","","single-stim-button","313","2790626","0.0-3.0-46.6-1.6","59f21fe8cc514a00011a66cf","A3","batch1","tol_toboard","935","","","","","","","","","tol_peg_2","935","935","0","[[0,0,0],[1,2],[3]]","7","[[0,0,0],[2,3],[1]]","12","0","","","","","","4","","","","",""
"","","","","","single-stim-button","314","2791305","0.0-3.0-46.7-0.7","59f21fe8cc514a00011a66cf","A3","batch1","tol_tohand","677","","","","","","","","","tol_peg_3","677","677","0","[[0,0,0],[1,2],[0]]","8","[[0,0,0],[2,3],[1]]","12","0","","","","","","4","","","","",""
"","","","","","single-stim-button","315","2792262","0.0-3.0-46.7-1.7","59f21fe8cc514a00011a66cf","A3","batch1","tol_toboard","956","","","","","","","","","tol_peg_1","956","956","0","[[3,0,0],[1,2],[0]]","8","[[0,0,0],[2,3],[1]]","12","0","","","","","","4","","","","",""
"","","","","","single-stim-button","316","2793062","0.0-3.0-46.8-0.8","59f21fe8cc514a00011a66cf","A3","batch1","tol_tohand","798","","","","","","","","","tol_peg_2","798","798","0","[[3,0,0],[1,0],[0]]","9","[[0,0,0],[2,3],[1]]","12","0","","","","","","4","","","","",""
"","","","","","single-stim-button","317","2794070","0.0-3.0-46.8-1.8","59f21fe8cc514a00011a66cf","A3","batch1","tol_toboard","1006","","","","","","","","","tol_peg_3","1006","1006","0","[[3,0,0],[1,0],[2]]","9","[[0,0,0],[2,3],[1]]","12","0","","","","","","4","","","","",""
"","","","","","single-stim-button","318","2795064","0.0-3.0-46.9-0.9","59f21fe8cc514a00011a66cf","A3","batch1","tol_tohand","993","","","","","","","","","tol_peg_2","993","993","0","[[3,0,0],[0,0],[2]]","10","[[0,0,0],[2,3],[1]]","12","0","","","","","","4","","","","",""
"","","","","","single-stim-button","319","2795923","0.0-3.0-46.9-1.9","59f21fe8cc514a00011a66cf","A3","batch1","tol_toboard","859","","","","","","","","","tol_peg_1","859","859","0","[[3,1,0],[0,0],[2]]","10","[[0,0,0],[2,3],[1]]","12","0","","","","","","4","","","","",""
"","","","","","single-stim-button","320","2796968","0.0-3.0-46.10-0.10","59f21fe8cc514a00011a66cf","A3","batch1","tol_tohand","1042","","","","","","","","","tol_peg_3","1042","1042","0","[[3,1,0],[0,0],[0]]","11","[[0,0,0],[2,3],[1]]","12","0","","","","","","4","","","","",""
"","","","","","single-stim-button","321","2797731","0.0-3.0-46.10-1.10","59f21fe8cc514a00011a66cf","A3","batch1","tol_toboard","763","","","","","","","","","tol_peg_2","763","763","0","[[3,1,0],[2,0],[0]]","11","[[0,0,0],[2,3],[1]]","12","0","","","","","","4","","","","",""
"","","","","","single-stim-button","322","2798587","0.0-3.0-46.11-0.11","59f21fe8cc514a00011a66cf","A3","batch1","tol_tohand","855","","","","","","","","","tol_peg_1","855","855","0","[[3,0,0],[2,0],[0]]","12","[[0,0,0],[2,3],[1]]","12","0","","","","","","4","","","","",""
"","","","","","single-stim-button","323","2799623","0.0-3.0-46.11-1.11","59f21fe8cc514a00011a66cf","A3","batch1","tol_toboard","1035","","","","","","","","","tol_peg_3","1035","1035","0","[[3,0,0],[2,0],[1]]","12","[[0,0,0],[2,3],[1]]","12","0","","","","","","4","","","","",""
"","","","","","single-stim-button","324","2800432","0.0-3.0-46.12-0.12","59f21fe8cc514a00011a66cf","A3","batch1","tol_tohand","807","","","","","","","","","tol_peg_1","807","807","0","[[0,0,0],[2,0],[1]]","13","[[0,0,0],[2,3],[1]]","12","0","","","","","","4","","","","",""
"","","","","","single-stim-button","325","2801492","0.0-3.0-46.12-1.12","59f21fe8cc514a00011a66cf","A3","batch1","tol_toboard","1059","","","","","","","","","tol_peg_2","1059","1059","0","[[0,0,0],[2,3],[1]]","13","[[0,0,0],[2,3],[1]]","12","0","","","","","","4","","","","",""
"","","","","","poldrack-single-stim","326","2802502","0.0-3.0-47.0","59f21fe8cc514a00011a66cf","A3","batch1","tol_feedback","-1","","","","","true","","","","","1000","1000","500","","","","","","-1","none","true","3734","27254","","","","","",""
"","","","","","html-button-response","327","2805069","0.0-3.0-48.0","59f21fe8cc514a00011a66cf","A3","batch1","attention_check","2566","<p class = block-text>How many balls are in your board<br></p>","1","","","true","","","","","","","","","","","","","","","","","","","","","","",""
"","","","","","html-button-response","328","2806469","0.0-3.0-49.0","59f21fe8cc514a00011a66cf","A3","batch1","tol_trial_num","1397","<div class = centerbox><p class = center-block-text>problem <strong>14</strong> out of 25 problems</p></div>","0","","","","","","","","","","","","","","","","","","","","","","","","","",""
"","","","","","single-stim-button","329","2819396","0.0-3.0-50.0-0.0","59f21fe8cc514a00011a66cf","A3","batch1","tol_tohand","12925","","","","","","","","","tol_peg_1","12925","12925","0","[[2,0,0],[3,0],[0]]","1","[[1,2,0],[3,0],[0]]","13","0","","","","","","4","","","","",""
"","","","","","single-stim-button","330","2821008","0.0-3.0-50.0-1.0","59f21fe8cc514a00011a66cf","A3","batch1","tol_toboard","1610","","","","","","","","","tol_peg_3","1610","1610","0","[[2,0,0],[3,0],[1]]","1","[[1,2,0],[3,0],[0]]","13","0","","","","","","4","","","","",""
"","","","","","single-stim-button","331","2821987","0.0-3.0-50.1-0.1","59f21fe8cc514a00011a66cf","A3","batch1","tol_tohand","978","","","","","","","","","tol_peg_1","978","978","0","[[0,0,0],[3,0],[1]]","2","[[1,2,0],[3,0],[0]]","13","0","","","","","","4","","","","",""
"","","","","","single-stim-button","332","2822648","0.0-3.0-50.1-1.1","59f21fe8cc514a00011a66cf","A3","batch1","tol_toboard","660","","","","","","","","","tol_peg_2","660","660","0","[[0,0,0],[3,2],[1]]","2","[[1,2,0],[3,0],[0]]","13","0","","","","","","4","","","","",""
"","","","","","single-stim-button","333","2823355","0.0-3.0-50.2-0.2","59f21fe8cc514a00011a66cf","A3","batch1","tol_tohand","705","","","","","","","","","tol_peg_3","705","705","0","[[0,0,0],[3,2],[0]]","3","[[1,2,0],[3,0],[0]]","13","0","","","","","","4","","","","",""
"","","","","","single-stim-button","334","2824191","0.0-3.0-50.2-1.2","59f21fe8cc514a00011a66cf","A3","batch1","tol_toboard","836","","","","","","","","","tol_peg_1","836","836","0","[[1,0,0],[3,2],[0]]","3","[[1,2,0],[3,0],[0]]","13","0","","","","","","4","","","","",""
"","","","","","single-stim-button","335","2824877","0.0-3.0-50.3-0.3","59f21fe8cc514a00011a66cf","A3","batch1","tol_tohand","685","","","","","","","","","tol_peg_2","685","685","0","[[1,0,0],[3,0],[0]]","4","[[1,2,0],[3,0],[0]]","13","0","","","","","","4","","","","",""
"","","","","","single-stim-button","336","2825597","0.0-3.0-50.3-1.3","59f21fe8cc514a00011a66cf","A3","batch1","tol_toboard","719","","","","","","","","","tol_peg_1","719","719","0","[[1,2,0],[3,0],[0]]","4","[[1,2,0],[3,0],[0]]","13","0","","","","","","4","","","","",""
"","","","","","poldrack-single-stim","337","2826601","0.0-3.0-51.0","59f21fe8cc514a00011a66cf","A3","batch1","tol_feedback","-1","","","","","true","","","","","1000","1000","500","","","","","","-1","none","true","12925","15293","","","","","",""
"","","","","","html-button-response","338","2827465","0.0-3.0-52.0","59f21fe8cc514a00011a66cf","A3","batch1","tol_trial_num","862","<div class = centerbox><p class = center-block-text>problem <strong>15</strong> out of 25 problems</p></div>","0","","","","","","","","","","","","","","","","","","","","","","","","","",""
"","","","","","single-stim-button","339","2832799","0.0-3.0-53.0-0.0","59f21fe8cc514a00011a66cf","A3","batch1","tol_tohand","5331","","","","","","","","","tol_peg_1","5331","5331","0","[[1,0,0],[3,0],[0]]","1","[[2,0,0],[3,0],[1]]","14","0","","","","","","3","","","","",""
"","","","","","single-stim-button","340","2833815","0.0-3.0-53.0-1.0","59f21fe8cc514a00011a66cf","A3","batch1","tol_toboard","1014","","","","","","","","","tol_peg_2","1014","1014","0","[[1,0,0],[3,2],[0]]","1","[[2,0,0],[3,0],[1]]","14","0","","","","","","3","","","","",""
"","","","","","single-stim-button","341","2834695","0.0-3.0-53.1-0.1","59f21fe8cc514a00011a66cf","A3","batch1","tol_tohand","878","","","","","","","","","tol_peg_1","878","878","0","[[0,0,0],[3,2],[0]]","2","[[2,0,0],[3,0],[1]]","14","0","","","","","","3","","","","",""
"","","","","","single-stim-button","342","2836139","0.0-3.0-53.1-1.1","59f21fe8cc514a00011a66cf","A3","batch1","tol_toboard","1442","","","","","","","","","tol_peg_3","1442","1442","0","[[0,0,0],[3,2],[1]]","2","[[2,0,0],[3,0],[1]]","14","0","","","","","","3","","","","",""
"","","","","","single-stim-button","343","2836955","0.0-3.0-53.2-0.2","59f21fe8cc514a00011a66cf","A3","batch1","tol_tohand","814","","","","","","","","","tol_peg_2","814","814","0","[[0,0,0],[3,0],[1]]","3","[[2,0,0],[3,0],[1]]","14","0","","","","","","3","","","","",""
"","","","","","single-stim-button","344","2837995","0.0-3.0-53.2-1.2","59f21fe8cc514a00011a66cf","A3","batch1","tol_toboard","1039","","","","","","","","","tol_peg_1","1039","1039","0","[[2,0,0],[3,0],[1]]","3","[[2,0,0],[3,0],[1]]","14","0","","","","","","3","","","","",""
"","","","","","poldrack-single-stim","345","2839002","0.0-3.0-54.0","59f21fe8cc514a00011a66cf","A3","batch1","tol_feedback","-1","","","","","true","","","","","1000","1000","500","","","","","","-1","none","true","5331","7023","","","","","",""
"","","","","","html-button-response","346","2840000","0.0-3.0-55.0","59f21fe8cc514a00011a66cf","A3","batch1","tol_trial_num","995","<div class = centerbox><p class = center-block-text>problem <strong>16</strong> out of 25 problems</p></div>","0","","","","","","","","","","","","","","","","","","","","","","","","","",""
"","","","","","single-stim-button","347","2846289","0.0-3.0-56.0-0.0","59f21fe8cc514a00011a66cf","A3","batch1","tol_tohand","6288","","","","","","","","","tol_peg_3","6288","6288","0","[[0,0,0],[2,3],[0]]","1","[[2,3,0],[1,0],[0]]","15","0","","","","","","7","","","","",""
"","","","","","single-stim-button","348","2847553","0.0-3.0-56.0-1.0","59f21fe8cc514a00011a66cf","A3","batch1","tol_toboard","1262","","","","","","","","","tol_peg_1","1262","1262","0","[[1,0,0],[2,3],[0]]","1","[[2,3,0],[1,0],[0]]","15","0","","","","","","7","","","","",""
"","","","","","single-stim-button","349","2848291","0.0-3.0-56.1-0.1","59f21fe8cc514a00011a66cf","A3","batch1","tol_tohand","735","","","","","","","","","tol_peg_2","735","735","0","[[1,0,0],[2,0],[0]]","2","[[2,3,0],[1,0],[0]]","15","0","","","","","","7","","","","",""
"","","","","","single-stim-button","350","2849095","0.0-3.0-56.1-1.1","59f21fe8cc514a00011a66cf","A3","batch1","tol_toboard","802","","","","","","","","","tol_peg_3","802","802","0","[[1,0,0],[2,0],[3]]","2","[[2,3,0],[1,0],[0]]","15","0","","","","","","7","","","","",""
"","","","","","single-stim-button","351","2854546","0.0-3.0-56.2-0.2","59f21fe8cc514a00011a66cf","A3","batch1","tol_tohand","5449","","","","","","","","","tol_peg_1","5449","5449","0","[[0,0,0],[2,0],[3]]","3","[[2,3,0],[1,0],[0]]","15","0","","","","","","7","","","","",""
"","","","","","single-stim-button","352","2857872","0.0-3.0-56.2-1.2","59f21fe8cc514a00011a66cf","A3","batch1","tol_toboard","3323","","","","","","","","","tol_peg_2","3323","3323","0","[[0,0,0],[2,1],[3]]","3","[[2,3,0],[1,0],[0]]","15","0","","","","","","7","","","","",""
"","","","","","single-stim-button","353","2858880","0.0-3.0-56.3-0.3","59f21fe8cc514a00011a66cf","A3","batch1","tol_tohand","1006","","","","","","","","","tol_peg_3","1006","1006","0","[[0,0,0],[2,1],[0]]","4","[[2,3,0],[1,0],[0]]","15","0","","","","","","7","","","","",""
"","","","","","single-stim-button","354","2860627","0.0-3.0-56.3-1.3","59f21fe8cc514a00011a66cf","A3","batch1","tol_toboard","1745","","","","","","","","","tol_peg_1","1745","1745","0","[[3,0,0],[2,1],[0]]","4","[[2,3,0],[1,0],[0]]","15","0","","","","","","7","","","","",""
"","","","","","single-stim-button","355","2861324","0.0-3.0-56.4-0.4","59f21fe8cc514a00011a66cf","A3","batch1","tol_tohand","695","","","","","","","","","tol_peg_2","695","695","0","[[3,0,0],[2,0],[0]]","5","[[2,3,0],[1,0],[0]]","15","0","","","","","","7","","","","",""
"","","","","","single-stim-button","356","2862176","0.0-3.0-56.4-1.4","59f21fe8cc514a00011a66cf","A3","batch1","tol_toboard","850","","","","","","","","","tol_peg_1","850","850","0","[[3,1,0],[2,0],[0]]","5","[[2,3,0],[1,0],[0]]","15","0","","","","","","7","","","","",""
"","","","","","single-stim-button","357","2862835","0.0-3.0-56.5-0.5","59f21fe8cc514a00011a66cf","A3","batch1","tol_tohand","658","","","","","","","","","tol_peg_2","658","658","0","[[3,1,0],[0,0],[0]]","6","[[2,3,0],[1,0],[0]]","15","0","","","","","","7","","","","",""
"","","","","","single-stim-button","358","2863658","0.0-3.0-56.5-1.5","59f21fe8cc514a00011a66cf","A3","batch1","tol_toboard","821","","","","","","","","","tol_peg_3","821","821","0","[[3,1,0],[0,0],[2]]","6","[[2,3,0],[1,0],[0]]","15","0","","","","","","7","","","","",""
"","","","","","single-stim-button","359","2864373","0.0-3.0-56.6-0.6","59f21fe8cc514a00011a66cf","A3","batch1","tol_tohand","714","","","","","","","","","tol_peg_1","714","714","0","[[3,0,0],[0,0],[2]]","7","[[2,3,0],[1,0],[0]]","15","0","","","","","","7","","","","",""
