"success","timeout","failed_images","failed_audio","failed_video","trial_type","trial_index","time_elapsed","internal_node_id","subject_id","study_id","session_id","task","rt","stimulus","response","item","answer","correct","spm_correct","spm_rt","view_history","mouse_click","stim_duration","block_duration","timing_post_trial","current_position","tol_num_moves_made","tol_target","tol_problem_id","tol_rt","key_press","possible_responses","tol_correct","preplanning","tol_rt_per_trial","tol_min_moves","fiar_detect_rt","fiar_detect_correct","total_correct_fiar_detect","post_trial_gap","choices"
"true","false","[]","[]","[]","preload","0","24575","0.0-0.0","59f6a6ec07e3780001ccd4d0","D2","batch4","","","","","","","","","","","","","","","","","","","","","","","","","","","","","",""
"true","","","","","fullscreen","1","58728","0.0-1.0-0.0","59f6a6ec07e3780001ccd4d0","D2","batch4","","","","","","","","","","","","","","","","","","","","","","","","","","","","","",""
"true","","","","","fullscreen","2","62322","0.0-2.0-0.0","59f6a6ec07e3780001ccd4d0","D2","batch4","spm_fullscreen","","","","","","","","","","","","","","","","","","","","","","","","","","","","",""
"","","","","","html-button-response","3","80217","0.0-2.0-1.0","59f6a6ec07e3780001ccd4d0","D2","batch4","","17892.69999998808","<p class = block-text><b>Instructions</b> <br>This is a widely used intelligence test in research. <br>In this test, a figure with a missing piece will be presented.<br>Below the figure are alternative pieces to complete the figure, only one of which is correct.<br> Different figures might involve different principles for obtaining the missing piece<br>Your job is to select the most logical piece to complete the figure.</p>","0","","","","","","","","","","","","","","","","","","","","","","","","","",""
"","","","","","html-keyboard-response","4","81019","0.0-2.0-2.0-0.0","59f6a6ec07e3780001ccd4d0","D2","batch4","spm_show_trial_num","null","<p class=block-text>Trial 1 out of 60</p>","null","","","","","","","","","","","","","","","","","","","","","","","","","",""
"","","","","","image-button-response","5","91471","0.0-2.0-2.0-1.0","59f6a6ec07e3780001ccd4d0","D2","batch4","spm_respsonse","10445.699999988079","img/question_1_1.jpeg","3","mat_01","4","1","1","10445.699999988079","","","","","","","","","","","","","","","","","","","","",""
"","","","","","html-keyboard-response","6","92535","0.0-2.0-2.0-0.1","59f6a6ec07e3780001ccd4d0","D2","batch4","spm_show_trial_num","null","<p class=block-text>Trial 2 out of 60</p>","null","","","","","","","","","","","","","","","","","","","","","","","","","",""
"","","","","","image-button-response","7","98812","0.0-2.0-2.0-1.1","59f6a6ec07e3780001ccd4d0","D2","batch4","spm_respsonse","6275.100000023842","img/question_1_2.jpeg","4","mat_02","5","1","1","6275.100000023842","","","","","","","","","","","","","","","","","","","","",""
"","","","","","html-keyboard-response","8","99871","0.0-2.0-2.0-0.2","59f6a6ec07e3780001ccd4d0","D2","batch4","spm_show_trial_num","null","<p class=block-text>Trial 3 out of 60</p>","null","","","","","","","","","","","","","","","","","","","","","","","","","",""
"","","","","","image-button-response","9","102823","0.0-2.0-2.0-1.2","59f6a6ec07e3780001ccd4d0","D2","batch4","spm_respsonse","2949","img/question_1_3.jpeg","0","mat_03","1","1","1","2949","","","","","","","","","","","","","","","","","","","","",""
"","","","","","html-keyboard-response","10","103885","0.0-2.0-2.0-0.3","59f6a6ec07e3780001ccd4d0","D2","batch4","spm_show_trial_num","null","<p class=block-text>Trial 4 out of 60</p>","null","","","","","","","","","","","","","","","","","","","","","","","","","",""
"","","","","","image-button-response","11","106586","0.0-2.0-2.0-1.3","59f6a6ec07e3780001ccd4d0","D2","batch4","spm_respsonse","2697.699999988079","img/question_1_4.jpeg","1","mat_04","2","1","1","2697.699999988079","","","","","","","","","","","","","","","","","","","","",""
"","","","","","html-keyboard-response","12","107652","0.0-2.0-2.0-0.4","59f6a6ec07e3780001ccd4d0","D2","batch4","spm_show_trial_num","null","<p class=block-text>Trial 5 out of 60</p>","null","","","","","","","","","","","","","","","","","","","","","","","","","",""
"","","","","","image-button-response","13","114740","0.0-2.0-2.0-1.4","59f6a6ec07e3780001ccd4d0","D2","batch4","spm_respsonse","7085","img/question_1_5.jpeg","5","mat_05","6","1","1","7085","","","","","","","","","","","","","","","","","","","","",""
"","","","","","html-keyboard-response","14","115792","0.0-2.0-2.0-0.5","59f6a6ec07e3780001ccd4d0","D2","batch4","spm_show_trial_num","null","<p class=block-text>Trial 6 out of 60</p>","null","","","","","","","","","","","","","","","","","","","","","","","","","",""
"","","","","","image-button-response","15","120070","0.0-2.0-2.0-1.5","59f6a6ec07e3780001ccd4d0","D2","batch4","spm_respsonse","4274.5","img/question_1_6.jpeg","2","mat_06","3","1","1","4274.5","","","","","","","","","","","","","","","","","","","","",""
"","","","","","html-keyboard-response","16","121132","0.0-2.0-2.0-0.6","59f6a6ec07e3780001ccd4d0","D2","batch4","spm_show_trial_num","null","<p class=block-text>Trial 7 out of 60</p>","null","","","","","","","","","","","","","","","","","","","","","","","","","",""
"","","","","","image-button-response","17","137294","0.0-2.0-2.0-1.6","59f6a6ec07e3780001ccd4d0","D2","batch4","spm_respsonse","16161.300000011921","img/question_1_7.jpeg","5","mat_07","6","1","1","16161.300000011921","","","","","","","","","","","","","","","","","","","","",""
"","","","","","html-keyboard-response","18","138348","0.0-2.0-2.0-0.7","59f6a6ec07e3780001ccd4d0","D2","batch4","spm_show_trial_num","null","<p class=block-text>Trial 8 out of 60</p>","null","","","","","","","","","","","","","","","","","","","","","","","","","",""
"","","","","","image-button-response","19","152262","0.0-2.0-2.0-1.7","59f6a6ec07e3780001ccd4d0","D2","batch4","spm_respsonse","13910.799999982119","img/question_1_8.jpeg","1","mat_08","2","1","1","13910.799999982119","","","","","","","","","","","","","","","","","","","","",""
"","","","","","html-keyboard-response","20","153314","0.0-2.0-2.0-0.8","59f6a6ec07e3780001ccd4d0","D2","batch4","spm_show_trial_num","null","<p class=block-text>Trial 9 out of 60</p>","null","","","","","","","","","","","","","","","","","","","","","","","","","",""
"","","","","","image-button-response","21","157008","0.0-2.0-2.0-1.8","59f6a6ec07e3780001ccd4d0","D2","batch4","spm_respsonse","3691.699999988079","img/question_1_9.jpeg","0","mat_09","1","1","1","3691.699999988079","","","","","","","","","","","","","","","","","","","","",""
"","","","","","html-keyboard-response","22","158065","0.0-2.0-2.0-0.9","59f6a6ec07e3780001ccd4d0","D2","batch4","spm_show_trial_num","null","<p class=block-text>Trial 10 out of 60</p>","null","","","","","","","","","","","","","","","","","","","","","","","","","",""
"","","","","","image-button-response","23","166808","0.0-2.0-2.0-1.9","59f6a6ec07e3780001ccd4d0","D2","batch4","spm_respsonse","8740.5","img/question_1_10.jpeg","2","mat_10","3","1","1","8740.5","","","","","","","","","","","","","","","","","","","","",""
"","","","","","html-keyboard-response","24","167861","0.0-2.0-2.0-0.10","59f6a6ec07e3780001ccd4d0","D2","batch4","spm_show_trial_num","null","<p class=block-text>Trial 11 out of 60</p>","null","","","","","","","","","","","","","","","","","","","","","","","","","",""
"","","","","","image-button-response","25","180819","0.0-2.0-2.0-1.10","59f6a6ec07e3780001ccd4d0","D2","batch4","spm_respsonse","12957.09999999404","img/question_1_11.jpeg","4","mat_11","4","0","0","12957.09999999404","","","","","","","","","","","","","","","","","","","","",""
"","","","","","html-keyboard-response","26","181879","0.0-2.0-2.0-0.11","59f6a6ec07e3780001ccd4d0","D2","batch4","spm_show_trial_num","null","<p class=block-text>Trial 12 out of 60</p>","null","","","","","","","","","","","","","","","","","","","","","","","","","",""
"","","","","","image-button-response","27","207910","0.0-2.0-2.0-1.11","59f6a6ec07e3780001ccd4d0","D2","batch4","spm_respsonse","26029.09999999404","img/question_1_12.jpeg","1","mat_12","5","0","0","26029.09999999404","","","","","","","","","","","","","","","","","","","","",""
"","","","","","html-keyboard-response","28","208969","0.0-2.0-2.0-0.12","59f6a6ec07e3780001ccd4d0","D2","batch4","spm_show_trial_num","null","<p class=block-text>Trial 13 out of 60</p>","null","","","","","","","","","","","","","","","","","","","","","","","","","",""
"","","","","","image-button-response","29","212925","0.0-2.0-2.0-1.12","59f6a6ec07e3780001ccd4d0","D2","batch4","spm_respsonse","3952.199999988079","img/question_2_1.jpeg","1","mat_13","2","1","1","3952.199999988079","","","","","","","","","","","","","","","","","","","","",""
"","","","","","html-keyboard-response","30","213995","0.0-2.0-2.0-0.13","59f6a6ec07e3780001ccd4d0","D2","batch4","spm_show_trial_num","null","<p class=block-text>Trial 14 out of 60</p>","null","","","","","","","","","","","","","","","","","","","","","","","","","",""
"","","","","","image-button-response","31","219478","0.0-2.0-2.0-1.13","59f6a6ec07e3780001ccd4d0","D2","batch4","spm_respsonse","5480.5","img/question_2_2.jpeg","5","mat_14","6","1","1","5480.5","","","","","","","","","","","","","","","","","","","","",""
"","","","","","html-keyboard-response","32","220543","0.0-2.0-2.0-0.14","59f6a6ec07e3780001ccd4d0","D2","batch4","spm_show_trial_num","null","<p class=block-text>Trial 15 out of 60</p>","null","","","","","","","","","","","","","","","","","","","","","","","","","",""
"","","","","","image-button-response","33","225362","0.0-2.0-2.0-1.14","59f6a6ec07e3780001ccd4d0","D2","batch4","spm_respsonse","4816.800000011921","img/question_2_3.jpeg","0","mat_15","1","1","1","4816.800000011921","","","","","","","","","","","","","","","","","","","","",""
"","","","","","html-keyboard-response","34","226424","0.0-2.0-2.0-0.15","59f6a6ec07e3780001ccd4d0","D2","batch4","spm_show_trial_num","null","<p class=block-text>Trial 16 out of 60</p>","null","","","","","","","","","","","","","","","","","","","","","","","","","",""
"","","","","","image-button-response","35","232900","0.0-2.0-2.0-1.15","59f6a6ec07e3780001ccd4d0","D2","batch4","spm_respsonse","6473.4000000059605","img/question_2_4.jpeg","2","mat_16","2","0","0","6473.4000000059605","","","","","","","","","","","","","","","","","","","","",""
"","","","","","html-keyboard-response","36","233952","0.0-2.0-2.0-0.16","59f6a6ec07e3780001ccd4d0","D2","batch4","spm_show_trial_num","null","<p class=block-text>Trial 17 out of 60</p>","null","","","","","","","","","","","","","","","","","","","","","","","","","",""
"","","","","","image-button-response","37","239358","0.0-2.0-2.0-1.16","59f6a6ec07e3780001ccd4d0","D2","batch4","spm_respsonse","5403.0999999940395","img/question_2_5.jpeg","0","mat_17","1","1","1","5403.0999999940395","","","","","","","","","","","","","","","","","","","","",""
"","","","","","html-keyboard-response","38","240421","0.0-2.0-2.0-0.17","59f6a6ec07e3780001ccd4d0","D2","batch4","spm_show_trial_num","null","<p class=block-text>Trial 18 out of 60</p>","null","","","","","","","","","","","","","","","","","","","","","","","","","",""
"","","","","","image-button-response","39","256486","0.0-2.0-2.0-1.17","59f6a6ec07e3780001ccd4d0","D2","batch4","spm_respsonse","16062.59999999404","img/question_2_6.jpeg","2","mat_18","3","1","1","16062.59999999404","","","","","","","","","","","","","","","","","","","","",""
"","","","","","html-keyboard-response","40","257541","0.0-2.0-2.0-0.18","59f6a6ec07e3780001ccd4d0","D2","batch4","spm_show_trial_num","null","<p class=block-text>Trial 19 out of 60</p>","null","","","","","","","","","","","","","","","","","","","","","","","","","",""
"","","","","","image-button-response","41","311908","0.0-2.0-2.0-1.18","59f6a6ec07e3780001ccd4d0","D2","batch4","spm_respsonse","54363.80000001192","img/question_2_7.jpeg","4","mat_19","5","1","1","54363.80000001192","","","","","","","","","","","","","","","","","","","","",""
"","","","","","html-keyboard-response","42","312960","0.0-2.0-2.0-0.19","59f6a6ec07e3780001ccd4d0","D2","batch4","spm_show_trial_num","null","<p class=block-text>Trial 20 out of 60</p>","null","","","","","","","","","","","","","","","","","","","","","","","","","",""
"","","","","","image-button-response","43","323862","0.0-2.0-2.0-1.19","59f6a6ec07e3780001ccd4d0","D2","batch4","spm_respsonse","10899.700000017881","img/question_2_8.jpeg","5","mat_20","6","1","1","10899.700000017881","","","","","","","","","","","","","","","","","","","","",""
"","","","","","html-keyboard-response","44","324914","0.0-2.0-2.0-0.20","59f6a6ec07e3780001ccd4d0","D2","batch4","spm_show_trial_num","null","<p class=block-text>Trial 21 out of 60</p>","null","","","","","","","","","","","","","","","","","","","","","","","","","",""
"","","","","","image-button-response","45","331786","0.0-2.0-2.0-1.20","59f6a6ec07e3780001ccd4d0","D2","batch4","spm_respsonse","6869.9000000059605","img/question_2_9.jpeg","3","mat_21","4","1","1","6869.9000000059605","","","","","","","","","","","","","","","","","","","","",""
"","","","","","html-keyboard-response","46","332838","0.0-2.0-2.0-0.21","59f6a6ec07e3780001ccd4d0","D2","batch4","spm_show_trial_num","null","<p class=block-text>Trial 22 out of 60</p>","null","","","","","","","","","","","","","","","","","","","","","","","","","",""
"","","","","","image-button-response","47","337671","0.0-2.0-2.0-1.21","59f6a6ec07e3780001ccd4d0","D2","batch4","spm_respsonse","4830.699999988079","img/question_2_10.jpeg","2","mat_22","3","1","1","4830.699999988079","","","","","","","","","","","","","","","","","","","","",""
"","","","","","html-keyboard-response","48","338722","0.0-2.0-2.0-0.22","59f6a6ec07e3780001ccd4d0","D2","batch4","spm_show_trial_num","null","<p class=block-text>Trial 23 out of 60</p>","null","","","","","","","","","","","","","","","","","","","","","","","","","",""
"","","","","","image-button-response","49","343220","0.0-2.0-2.0-1.22","59f6a6ec07e3780001ccd4d0","D2","batch4","spm_respsonse","4495.4000000059605","img/question_2_11.jpeg","5","mat_23","4","0","0","4495.4000000059605","","","","","","","","","","","","","","","","","","","","",""
"","","","","","html-keyboard-response","50","344286","0.0-2.0-2.0-0.23","59f6a6ec07e3780001ccd4d0","D2","batch4","spm_show_trial_num","null","<p class=block-text>Trial 24 out of 60</p>","null","","","","","","","","","","","","","","","","","","","","","","","","","",""
"","","","","","image-button-response","51","375311","0.0-2.0-2.0-1.23","59f6a6ec07e3780001ccd4d0","D2","batch4","spm_respsonse","31022.20000001788","img/question_2_12.jpeg","4","mat_24","5","1","1","31022.20000001788","","","","","","","","","","","","","","","","","","","","",""
"","","","","","html-button-response","52","377124","0.0-2.0-3.0","59f6a6ec07e3780001ccd4d0","D2","batch4","attention_check","1561","<p class = block-text>Attention check: Please choose 1<br></p>","0","","","true","","","","","","","","","","","","","","","","","","","","","","",""
"","","","","","html-keyboard-response","53","377928","0.0-2.0-4.0-0.0","59f6a6ec07e3780001ccd4d0","D2","batch4","spm_show_trial_num","null","<p class=block-text>Trial 25 out of 60</p>","null","","","","","","","","","","","","","","","","","","","","","","","","","",""
"","","","","","image-button-response","54","384072","0.0-2.0-4.0-1.0","59f6a6ec07e3780001ccd4d0","D2","batch4","spm_respsonse","6140.5999999940395","img/question_3_1.jpeg","7","mat_25","8","1","1","6140.5999999940395","","","","","","","","","","","","","","","","","","","","",""
"","","","","","html-keyboard-response","55","385125","0.0-2.0-4.0-0.1","59f6a6ec07e3780001ccd4d0","D2","batch4","spm_show_trial_num","null","<p class=block-text>Trial 26 out of 60</p>","null","","","","","","","","","","","","","","","","","","","","","","","","","",""
"","","","","","image-button-response","56","391596","0.0-2.0-4.0-1.1","59f6a6ec07e3780001ccd4d0","D2","batch4","spm_respsonse","6468.5999999940395","img/question_3_2.jpeg","1","mat_26","2","1","1","6468.5999999940395","","","","","","","","","","","","","","","","","","","","",""
"","","","","","html-keyboard-response","57","392649","0.0-2.0-4.0-0.2","59f6a6ec07e3780001ccd4d0","D2","batch4","spm_show_trial_num","null","<p class=block-text>Trial 27 out of 60</p>","null","","","","","","","","","","","","","","","","","","","","","","","","","",""
"","","","","","image-button-response","58","402550","0.0-2.0-4.0-1.2","59f6a6ec07e3780001ccd4d0","D2","batch4","spm_respsonse","9898.800000011921","img/question_3_3.jpeg","2","mat_27","3","1","1","9898.800000011921","","","","","","","","","","","","","","","","","","","","",""
"","","","","","html-keyboard-response","59","403602","0.0-2.0-4.0-0.3","59f6a6ec07e3780001ccd4d0","D2","batch4","spm_show_trial_num","null","<p class=block-text>Trial 28 out of 60</p>","null","","","","","","","","","","","","","","","","","","","","","","","","","",""
"","","","","","image-button-response","60","415112","0.0-2.0-4.0-1.3","59f6a6ec07e3780001ccd4d0","D2","batch4","spm_respsonse","11507.5","img/question_3_4.jpeg","7","mat_28","8","1","1","11507.5","","","","","","","","","","","","","","","","","","","","",""
"","","","","","html-keyboard-response","61","416165","0.0-2.0-4.0-0.4","59f6a6ec07e3780001ccd4d0","D2","batch4","spm_show_trial_num","null","<p class=block-text>Trial 29 out of 60</p>","null","","","","","","","","","","","","","","","","","","","","","","","","","",""
"","","","","","image-button-response","62","422021","0.0-2.0-4.0-1.4","59f6a6ec07e3780001ccd4d0","D2","batch4","spm_respsonse","5852.700000017881","img/question_3_5.jpeg","6","mat_29","7","1","1","5852.700000017881","","","","","","","","","","","","","","","","","","","","",""
"","","","","","html-keyboard-response","63","423082","0.0-2.0-4.0-0.5","59f6a6ec07e3780001ccd4d0","D2","batch4","spm_show_trial_num","null","<p class=block-text>Trial 30 out of 60</p>","null","","","","","","","","","","","","","","","","","","","","","","","","","",""
"","","","","","image-button-response","64","436266","0.0-2.0-4.0-1.5","59f6a6ec07e3780001ccd4d0","D2","batch4","spm_respsonse","13181.59999999404","img/question_3_6.jpeg","3","mat_30","4","1","1","13181.59999999404","","","","","","","","","","","","","","","","","","","","",""
"","","","","","html-keyboard-response","65","437324","0.0-2.0-4.0-0.6","59f6a6ec07e3780001ccd4d0","D2","batch4","spm_show_trial_num","null","<p class=block-text>Trial 31 out of 60</p>","null","","","","","","","","","","","","","","","","","","","","","","","","","",""
"","","","","","image-button-response","66","449923","0.0-2.0-4.0-1.6","59f6a6ec07e3780001ccd4d0","D2","batch4","spm_respsonse","12597.199999988079","img/question_3_7.jpeg","4","mat_31","5","1","1","12597.199999988079","","","","","","","","","","","","","","","","","","","","",""
"","","","","","html-keyboard-response","67","450975","0.0-2.0-4.0-0.7","59f6a6ec07e3780001ccd4d0","D2","batch4","spm_show_trial_num","null","<p class=block-text>Trial 32 out of 60</p>","null","","","","","","","","","","","","","","","","","","","","","","","","","",""
"","","","","","image-button-response","68","464294","0.0-2.0-4.0-1.7","59f6a6ec07e3780001ccd4d0","D2","batch4","spm_respsonse","13317","img/question_3_8.jpeg","0","mat_32","1","1","1","13317","","","","","","","","","","","","","","","","","","","","",""
"","","","","","html-keyboard-response","69","465360","0.0-2.0-4.0-0.8","59f6a6ec07e3780001ccd4d0","D2","batch4","spm_show_trial_num","null","<p class=block-text>Trial 33 out of 60</p>","null","","","","","","","","","","","","","","","","","","","","","","","","","",""
"","","","","","image-button-response","70","483238","0.0-2.0-4.0-1.8","59f6a6ec07e3780001ccd4d0","D2","batch4","spm_respsonse","17874.70000001788","img/question_3_9.jpeg","0","mat_33","7","0","0","17874.70000001788","","","","","","","","","","","","","","","","","","","","",""
"","","","","","html-keyboard-response","71","484290","0.0-2.0-4.0-0.9","59f6a6ec07e3780001ccd4d0","D2","batch4","spm_show_trial_num","null","<p class=block-text>Trial 34 out of 60</p>","null","","","","","","","","","","","","","","","","","","","","","","","","","",""
"","","","","","image-button-response","72","538348","0.0-2.0-4.0-1.9","59f6a6ec07e3780001ccd4d0","D2","batch4","spm_respsonse","54054.89999997616","img/question_3_10.jpeg","0","mat_34","6","0","0","54054.89999997616","","","","","","","","","","","","","","","","","","","","",""
"","","","","","html-keyboard-response","73","539400","0.0-2.0-4.0-0.10","59f6a6ec07e3780001ccd4d0","D2","batch4","spm_show_trial_num","null","<p class=block-text>Trial 35 out of 60</p>","null","","","","","","","","","","","","","","","","","","","","","","","","","",""
"","","","","","image-button-response","74","589546","0.0-2.0-4.0-1.10","59f6a6ec07e3780001ccd4d0","D2","batch4","spm_respsonse","50143.70000001788","img/question_3_11.jpeg","4","mat_35","1","0","0","50143.70000001788","","","","","","","","","","","","","","","","","","","","",""
"","","","","","html-keyboard-response","75","590598","0.0-2.0-4.0-0.11","59f6a6ec07e3780001ccd4d0","D2","batch4","spm_show_trial_num","null","<p class=block-text>Trial 36 out of 60</p>","null","","","","","","","","","","","","","","","","","","","","","","","","","",""
"","","","","","image-button-response","76","696145","0.0-2.0-4.0-1.11","59f6a6ec07e3780001ccd4d0","D2","batch4","spm_respsonse","105545.89999997616","img/question_3_12.jpeg","3","mat_36","2","0","0","105545.89999997616","","","","","","","","","","","","","","","","","","","","",""
"","","","","","html-keyboard-response","77","697208","0.0-2.0-4.0-0.12","59f6a6ec07e3780001ccd4d0","D2","batch4","spm_show_trial_num","null","<p class=block-text>Trial 37 out of 60</p>","null","","","","","","","","","","","","","","","","","","","","","","","","","",""
"","","","","","image-button-response","78","700340","0.0-2.0-4.0-1.12","59f6a6ec07e3780001ccd4d0","D2","batch4","spm_respsonse","3128.9000000059605","img/question_4_1.jpeg","2","mat_37","3","1","1","3128.9000000059605","","","","","","","","","","","","","","","","","","","","",""
"","","","","","html-keyboard-response","79","701392","0.0-2.0-4.0-0.13","59f6a6ec07e3780001ccd4d0","D2","batch4","spm_show_trial_num","null","<p class=block-text>Trial 38 out of 60</p>","null","","","","","","","","","","","","","","","","","","","","","","","","","",""
"","","","","","image-button-response","80","707736","0.0-2.0-4.0-1.13","59f6a6ec07e3780001ccd4d0","D2","batch4","spm_respsonse","6343.100000023842","img/question_4_2.jpeg","3","mat_38","4","1","1","6343.100000023842","","","","","","","","","","","","","","","","","","","","",""
"","","","","","html-keyboard-response","81","708788","0.0-2.0-4.0-0.14","59f6a6ec07e3780001ccd4d0","D2","batch4","spm_show_trial_num","null","<p class=block-text>Trial 39 out of 60</p>","null","","","","","","","","","","","","","","","","","","","","","","","","","",""
"","","","","","image-button-response","82","729616","0.0-2.0-4.0-1.14","59f6a6ec07e3780001ccd4d0","D2","batch4","spm_respsonse","20825.30000001192","img/question_4_3.jpeg","2","mat_39","3","1","1","20825.30000001192","","","","","","","","","","","","","","","","","","","","",""
"","","","","","html-keyboard-response","83","730667","0.0-2.0-4.0-0.15","59f6a6ec07e3780001ccd4d0","D2","batch4","spm_show_trial_num","null","<p class=block-text>Trial 40 out of 60</p>","null","","","","","","","","","","","","","","","","","","","","","","","","","",""
"","","","","","image-button-response","84","737928","0.0-2.0-4.0-1.15","59f6a6ec07e3780001ccd4d0","D2","batch4","spm_respsonse","7258.9000000059605","img/question_4_4.jpeg","6","mat_40","7","1","1","7258.9000000059605","","","","","","","","","","","","","","","","","","","","",""
"","","","","","html-keyboard-response","85","738980","0.0-2.0-4.0-0.16","59f6a6ec07e3780001ccd4d0","D2","batch4","spm_show_trial_num","null","<p class=block-text>Trial 41 out of 60</p>","null","","","","","","","","","","","","","","","","","","","","","","","","","",""
"","","","","","image-button-response","86","750088","0.0-2.0-4.0-1.16","59f6a6ec07e3780001ccd4d0","D2","batch4","spm_respsonse","11107.09999999404","img/question_4_5.jpeg","7","mat_41","8","1","1","11107.09999999404","","","","","","","","","","","","","","","","","","","","",""
"","","","","","html-keyboard-response","87","751142","0.0-2.0-4.0-0.17","59f6a6ec07e3780001ccd4d0","D2","batch4","spm_show_trial_num","null","<p class=block-text>Trial 42 out of 60</p>","null","","","","","","","","","","","","","","","","","","","","","","","","","",""
"","","","","","image-button-response","88","766496","0.0-2.0-4.0-1.17","59f6a6ec07e3780001ccd4d0","D2","batch4","spm_respsonse","15351.699999988079","img/question_4_6.jpeg","5","mat_42","6","1","1","15351.699999988079","","","","","","","","","","","","","","","","","","","","",""
"","","","","","html-keyboard-response","89","767548","0.0-2.0-4.0-0.18","59f6a6ec07e3780001ccd4d0","D2","batch4","spm_show_trial_num","null","<p class=block-text>Trial 43 out of 60</p>","null","","","","","","","","","","","","","","","","","","","","","","","","","",""
"","","","","","image-button-response","90","778166","0.0-2.0-4.0-1.18","59f6a6ec07e3780001ccd4d0","D2","batch4","spm_respsonse","10616.299999982119","img/question_4_7.jpeg","4","mat_43","5","1","1","10616.299999982119","","","","","","","","","","","","","","","","","","","","",""
"","","","","","html-keyboard-response","91","779218","0.0-2.0-4.0-0.19","59f6a6ec07e3780001ccd4d0","D2","batch4","spm_show_trial_num","null","<p class=block-text>Trial 44 out of 60</p>","null","","","","","","","","","","","","","","","","","","","","","","","","","",""
"","","","","","image-button-response","92","799766","0.0-2.0-4.0-1.19","59f6a6ec07e3780001ccd4d0","D2","batch4","spm_respsonse","20547.20000001788","img/question_4_8.jpeg","3","mat_44","4","1","1","20547.20000001788","","","","","","","","","","","","","","","","","","","","",""
"","","","","","html-keyboard-response","93","800818","0.0-2.0-4.0-0.20","59f6a6ec07e3780001ccd4d0","D2","batch4","spm_show_trial_num","null","<p class=block-text>Trial 45 out of 60</p>","null","","","","","","","","","","","","","","","","","","","","","","","","","",""
"","","","","","image-button-response","94","837024","0.0-2.0-4.0-1.20","59f6a6ec07e3780001ccd4d0","D2","batch4","spm_respsonse","36203.79999998212","img/question_4_9.jpeg","0","mat_45","1","1","1","36203.79999998212","","","","","","","","","","","","","","","","","","","","",""
"","","","","","html-keyboard-response","95","838076","0.0-2.0-4.0-0.21","59f6a6ec07e3780001ccd4d0","D2","batch4","spm_show_trial_num","null","<p class=block-text>Trial 46 out of 60</p>","null","","","","","","","","","","","","","","","","","","","","","","","","","",""
"","","","","","image-button-response","96","886844","0.0-2.0-4.0-1.21","59f6a6ec07e3780001ccd4d0","D2","batch4","spm_respsonse","48765.80000001192","img/question_4_10.jpeg","1","mat_46","2","1","1","48765.80000001192","","","","","","","","","","","","","","","","","","","","",""
"","","","","","html-keyboard-response","97","887896","0.0-2.0-4.0-0.22","59f6a6ec07e3780001ccd4d0","D2","batch4","spm_show_trial_num","null","<p class=block-text>Trial 47 out of 60</p>","null","","","","","","","","","","","","","","","","","","","","","","","","","",""
"","","","","","image-button-response","98","979773","0.0-2.0-4.0-1.22","59f6a6ec07e3780001ccd4d0","D2","batch4","spm_respsonse","91875.30000001192","img/question_4_11.jpeg","5","mat_47","5","0","0","91875.30000001192","","","","","","","","","","","","","","","","","","","","",""
"","","","","","html-keyboard-response","99","980826","0.0-2.0-4.0-0.23","59f6a6ec07e3780001ccd4d0","D2","batch4","spm_show_trial_num","null","<p class=block-text>Trial 48 out of 60</p>","null","","","","","","","","","","","","","","","","","","","","","","","","","",""
"","","","","","image-button-response","100","1088746","0.0-2.0-4.0-1.23","59f6a6ec07e3780001ccd4d0","D2","batch4","spm_respsonse","107918.60000002384","img/question_4_12.jpeg","7","mat_48","6","0","0","107918.60000002384","","","","","","","","","","","","","","","","","","","","",""
"","","","","","html-keyboard-response","101","1089802","0.0-2.0-4.0-0.24","59f6a6ec07e3780001ccd4d0","D2","batch4","spm_show_trial_num","null","<p class=block-text>Trial 49 out of 60</p>","null","","","","","","","","","","","","","","","","","","","","","","","","","",""
"","","","","","image-button-response","102","1130571","0.0-2.0-4.0-1.24","59f6a6ec07e3780001ccd4d0","D2","batch4","spm_respsonse","40767.40000000596","img/question_5_1.jpeg","0","mat_49","7","0","0","40767.40000000596","","","","","","","","","","","","","","","","","","","","",""
"","","","","","html-keyboard-response","103","1131623","0.0-2.0-4.0-0.25","59f6a6ec07e3780001ccd4d0","D2","batch4","spm_show_trial_num","null","<p class=block-text>Trial 50 out of 60</p>","null","","","","","","","","","","","","","","","","","","","","","","","","","",""
"","","","","","image-button-response","104","1236726","0.0-2.0-4.0-1.25","59f6a6ec07e3780001ccd4d0","D2","batch4","spm_respsonse","105102.29999998212","img/question_5_2.jpeg","5","mat_50","6","1","1","105102.29999998212","","","","","","","","","","","","","","","","","","","","",""
"","","","","","html-keyboard-response","105","1237778","0.0-2.0-4.0-0.26","59f6a6ec07e3780001ccd4d0","D2","batch4","spm_show_trial_num","null","<p class=block-text>Trial 51 out of 60</p>","null","","","","","","","","","","","","","","","","","","","","","","","","","",""
"","","","","","image-button-response","106","1304509","0.0-2.0-4.0-1.26","59f6a6ec07e3780001ccd4d0","D2","batch4","spm_respsonse","66727.69999998808","img/question_5_3.jpeg","7","mat_51","8","1","1","66727.69999998808","","","","","","","","","","","","","","","","","","","","",""
"","","","","","html-keyboard-response","107","1305561","0.0-2.0-4.0-0.27","59f6a6ec07e3780001ccd4d0","D2","batch4","spm_show_trial_num","null","<p class=block-text>Trial 52 out of 60</p>","null","","","","","","","","","","","","","","","","","","","","","","","","","",""
"","","","","","image-button-response","108","1397148","0.0-2.0-4.0-1.27","59f6a6ec07e3780001ccd4d0","D2","batch4","spm_respsonse","91584.80000001192","img/question_5_4.jpeg","5","mat_52","2","0","0","91584.80000001192","","","","","","","","","","","","","","","","","","","","",""
"","","","","","html-keyboard-response","109","1398201","0.0-2.0-4.0-0.28","59f6a6ec07e3780001ccd4d0","D2","batch4","spm_show_trial_num","null","<p class=block-text>Trial 53 out of 60</p>","null","","","","","","","","","","","","","","","","","","","","","","","","","",""
"","","","","","image-button-response","110","1518755","0.0-2.0-4.0-1.28","59f6a6ec07e3780001ccd4d0","D2","batch4","spm_respsonse","120551.69999998808","img/question_5_5.jpeg","6","mat_53","1","0","0","120551.69999998808","","","","","","","","","","","","","","","","","","","","",""
"","","","","","html-keyboard-response","111","1519807","0.0-2.0-4.0-0.29","59f6a6ec07e3780001ccd4d0","D2","batch4","spm_show_trial_num","null","<p class=block-text>Trial 54 out of 60</p>","null","","","","","","","","","","","","","","","","","","","","","","","","","",""
"","","","","","image-button-response","112","1727438","0.0-2.0-4.0-1.29","59f6a6ec07e3780001ccd4d0","D2","batch4","spm_respsonse","207629.19999998808","img/question_5_6.jpeg","1","mat_54","5","0","0","207629.19999998808","","","","","","","","","","","","","","","","","","","","",""
"","","","","","html-keyboard-response","113","1728491","0.0-2.0-4.0-0.30","59f6a6ec07e3780001ccd4d0","D2","batch4","spm_show_trial_num","null","<p class=block-text>Trial 55 out of 60</p>","null","","","","","","","","","","","","","","","","","","","","","","","","","",""
"","","","","","image-button-response","114","1825501","0.0-2.0-4.0-1.30","59f6a6ec07e3780001ccd4d0","D2","batch4","spm_respsonse","97008.30000001192","img/question_5_7.jpeg","7","mat_55","1","0","0","97008.30000001192","","","","","","","","","","","","","","","","","","","","",""
"","","","","","html-keyboard-response","115","1826553","0.0-2.0-4.0-0.31","59f6a6ec07e3780001ccd4d0","D2","batch4","spm_show_trial_num","null","<p class=block-text>Trial 56 out of 60</p>","null","","","","","","","","","","","","","","","","","","","","","","","","","",""
"","","","","","image-button-response","116","1863017","0.0-2.0-4.0-1.31","59f6a6ec07e3780001ccd4d0","D2","batch4","spm_respsonse","36462.09999999404","img/question_5_8.jpeg","4","mat_56","6","0","0","36462.09999999404","","","","","","","","","","","","","","","","","","","","",""
"","","","","","html-keyboard-response","117","1864069","0.0-2.0-4.0-0.32","59f6a6ec07e3780001ccd4d0","D2","batch4","spm_show_trial_num","null","<p class=block-text>Trial 57 out of 60</p>","null","","","","","","","","","","","","","","","","","","","","","","","","","",""
"","","","","","image-button-response","118","1912286","0.0-2.0-4.0-1.32","59f6a6ec07e3780001ccd4d0","D2","batch4","spm_respsonse","48215","img/question_5_9.jpeg","4","mat_57","3","0","0","48215","","","","","","","","","","","","","","","","","","","","",""
"","","","","","html-keyboard-response","119","1913338","0.0-2.0-4.0-0.33","59f6a6ec07e3780001ccd4d0","D2","batch4","spm_show_trial_num","null","<p class=block-text>Trial 58 out of 60</p>","null","","","","","","","","","","","","","","","","","","","","","","","","","",""
"","","","","","image-button-response","120","2011188","0.0-2.0-4.0-1.33","59f6a6ec07e3780001ccd4d0","D2","batch4","spm_respsonse","97849.09999999404","img/question_5_10.jpeg","0","mat_58","2","0","0","97849.09999999404","","","","","","","","","","","","","","","","","","","","",""
"","","","","","html-keyboard-response","121","2012243","0.0-2.0-4.0-0.34","59f6a6ec07e3780001ccd4d0","D2","batch4","spm_show_trial_num","null","<p class=block-text>Trial 59 out of 60</p>","null","","","","","","","","","","","","","","","","","","","","","","","","","",""
"","","","","","image-button-response","122","2055020","0.0-2.0-4.0-1.34","59f6a6ec07e3780001ccd4d0","D2","batch4","spm_respsonse","42773.80000001192","img/question_5_11.jpeg","2","mat_59","4","0","0","42773.80000001192","","","","","","","","","","","","","","","","","","","","",""
"","","","","","html-keyboard-response","123","2056085","0.0-2.0-4.0-0.35","59f6a6ec07e3780001ccd4d0","D2","batch4","spm_show_trial_num","null","<p class=block-text>Trial 60 out of 60</p>","null","","","","","","","","","","","","","","","","","","","","","","","","","",""
"","","","","","image-button-response","124","2063002","0.0-2.0-4.0-1.35","59f6a6ec07e3780001ccd4d0","D2","batch4","spm_respsonse","6915.200000017881","img/question_5_12.jpeg","3","mat_60","5","0","0","6915.200000017881","","","","","","","","","","","","","","","","","","","","",""
"","","","","","html-button-response","125","2066046","0.0-2.0-5.0","59f6a6ec07e3780001ccd4d0","D2","batch4","spm_goodbye","2789.699999988079","<p class= block-text>This concludes the Standard Progressive Matrix game. Thank you for your responses!<br> When you are ready, click the button continue</p>","0","","","","","","","","","","","","","","","","","","","","","","","","","",""
"true","","","","","fullscreen","126","2385195","0.0-3.0-0.0","59f6a6ec07e3780001ccd4d0","D2","batch4","","","","","","","","","","","","","","","","","","","","","","","","","","","","","",""
"","","","","","instructions","127","2948897","0.0-3.0-1.0-0.0-0.0","59f6a6ec07e3780001ccd4d0","D2","batch4","tol-instructions","563699.599999994","","","","","","","","[{""page_index"":0,""viewing_time"":320613.7999999821},{""page_index"":1,""viewing_time"":25170.5},{""page_index"":2,""viewing_time"":9572.200000017881},{""page_index"":3,""viewing_time"":168793.59999999404},{""page_index"":4,""viewing_time"":11679.59999999404},{""page_index"":5,""viewing_time"":24064.90000000596},{""page_index"":6,""viewing_time"":3804.699999988079}]","","","","","","","","","","","","","","","","","","","",""
"","","","","","html-button-response","128","2950473","0.0-3.0-1.0-1.0-0.0","59f6a6ec07e3780001ccd4d0","D2","batch4","tol_enter_quiz","1575","<p class=block-text> Let's answer a few questions <br>","0","","","","","","","","","","","","","","","","","","","","","","","","","",""
"","","","","","html-button-response","129","2953359","0.0-3.0-1.0-1.0-1.0","59f6a6ec07e3780001ccd4d0","D2","batch4","tol_quiz","2883.0999999940395","<p class = block-text>True or False: You can only move the ball on top of a peg. <br></p>","0","","","true","","","","","","","","","","","","","","","","","","","","","","",""
"","","","","","html-button-response","130","2954471","0.0-3.0-1.0-1.0-2.0","59f6a6ec07e3780001ccd4d0","D2","batch4","tol_quiz_feedback","1110.300000011921","<p class = block-text>Correct! You can only move the ball on top of a peg.</p>","0","","","","","","","","","","","","","","","","","","","","","","","","","",""
"","","","","","html-button-response","131","2957765","0.0-3.0-1.0-1.0-3.0","59f6a6ec07e3780001ccd4d0","D2","batch4","tol_quiz","3293.800000011921","<p class = block-text>True or False: You should try to match your board with the target board with fewest moves possible. <br></p>","0","","","true","","","","","","","","","","","","","","","","","","","","","","",""
"","","","","","html-button-response","132","2958513","0.0-3.0-1.0-1.0-4.0","59f6a6ec07e3780001ccd4d0","D2","batch4","tol_quiz_feedback","747","<p class = block-text>Correct! </p>","0","","","","","","","","","","","","","","","","","","","","","","","","","",""
"","","","","","html-button-response","133","2958845","0.0-3.0-2.0","59f6a6ec07e3780001ccd4d0","D2","batch4","","328.59999999403954","<p class=block-text> Now that you've understood the game, let's practice a few easier examples before we start!<br> <br>","0","","","","","","","","","","","","","","","","","","","","","","","","","",""
"","","","","","single-stim-button","134","2965060","0.0-3.0-3.0-0.0","59f6a6ec07e3780001ccd4d0","D2","batch4","tol_practice","6211","","","","","","","","","tol_peg_2","6211","6211","0","[[1,2,0],[0,0],[0]]","1","[[1,2,0],[0,0],[3]]","practice","6211","","","","","","","","","","",""
"","","","","","single-stim-button","135","2968569","0.0-3.0-3.0-1.0","59f6a6ec07e3780001ccd4d0","D2","batch4","tol_practice","3508","","","","","","","","","tol_peg_3","3508","3508","0","[[1,2,0],[0,0],[3]]","1","[[1,2,0],[0,0],[3]]","practice","3508","","","","","","","","","","",""
"","","","","","poldrack-single-stim","136","2969578","0.0-3.0-4.0","59f6a6ec07e3780001ccd4d0","D2","batch4","tol_feedback","-1","","","","","true","","","","","1000","1000","500","","","","","","-1","none","true","","0","","","","","",""
"","","","","","single-stim-button","137","2973070","0.0-3.0-5.0-0.0","59f6a6ec07e3780001ccd4d0","D2","batch4","tol_practice","3488","","","","","","","","","tol_peg_1","3488","3488","0","[[1,0,0],[3,0],[0]]","2","[[0,0,0],[3,1],[2]]","practice","3488","","","","","","","","","","",""
"","","","","","single-stim-button","138","2973899","0.0-3.0-5.0-1.0","59f6a6ec07e3780001ccd4d0","D2","batch4","tol_practice","828","","","","","","","","","tol_peg_3","828","828","0","[[1,0,0],[3,0],[2]]","2","[[0,0,0],[3,1],[2]]","practice","828","","","","","","","","","","",""
"","","","","","single-stim-button","139","2974842","0.0-3.0-5.1-0.1","59f6a6ec07e3780001ccd4d0","D2","batch4","tol_practice","943","","","","","","","","","tol_peg_1","943","943","0","[[0,0,0],[3,0],[2]]","3","[[0,0,0],[3,1],[2]]","practice","943","","","","","","","","","","",""
"","","","","","single-stim-button","140","2975805","0.0-3.0-5.1-1.1","59f6a6ec07e3780001ccd4d0","D2","batch4","tol_practice","962","","","","","","","","","tol_peg_2","962","962","0","[[0,0,0],[3,1],[2]]","3","[[0,0,0],[3,1],[2]]","practice","962","","","","","","","","","","",""
"","","","","","poldrack-single-stim","141","2976808","0.0-3.0-6.0","59f6a6ec07e3780001ccd4d0","D2","batch4","tol_feedback","-1","","","","","true","","","","","1000","1000","500","","","","","","-1","none","true","","0","","","","","",""
"","","","","","single-stim-button","142","2980037","0.0-3.0-7.0-0.0","59f6a6ec07e3780001ccd4d0","D2","batch4","tol_practice","3227","","","","","","","","","tol_peg_2","3227","3227","0","[[1,2,0],[0,0],[0]]","4","[[1,0,0],[2,0],[3]]","practice","3227","","","","","","","","","","",""
"","","","","","single-stim-button","143","2981383","0.0-3.0-7.0-1.0","59f6a6ec07e3780001ccd4d0","D2","batch4","tol_practice","1345","","","","","","","","","tol_peg_3","1345","1345","0","[[1,2,0],[0,0],[3]]","4","[[1,0,0],[2,0],[3]]","practice","1345","","","","","","","","","","",""
"","","","","","single-stim-button","144","2982678","0.0-3.0-7.1-0.1","59f6a6ec07e3780001ccd4d0","D2","batch4","tol_practice","1295","","","","","","","","","tol_peg_1","1295","1295","0","[[1,0,0],[0,0],[3]]","5","[[1,0,0],[2,0],[3]]","practice","1295","","","","","","","","","","",""
"","","","","","single-stim-button","145","2983409","0.0-3.0-7.1-1.1","59f6a6ec07e3780001ccd4d0","D2","batch4","tol_practice","729","","","","","","","","","tol_peg_2","729","729","0","[[1,0,0],[2,0],[3]]","5","[[1,0,0],[2,0],[3]]","practice","729","","","","","","","","","","",""
"","","","","","poldrack-single-stim","146","2984421","0.0-3.0-8.0","59f6a6ec07e3780001ccd4d0","D2","batch4","tol_feedback","-1","","","","","true","","","","","1000","1000","500","","","","","","-1","none","true","","0","","","","","",""
"","","","","","html-button-response","147","2990061","0.0-3.0-9.0","59f6a6ec07e3780001ccd4d0","D2","batch4","tol_instruction","5638.399999976158","<div class = centerbox><p class = center-block-text>Great job! You are done with practice trials<br>You are about to start official trials.<br> <br> Problem <strong>1</strong> out of 25 problems</p></div>","0","","","","","","","","","","","","","","","","","","","","","","","","","",""
"","","","","","single-stim-button","148","3001575","0.0-3.0-10.0-0.0","59f6a6ec07e3780001ccd4d0","D2","batch4","tol_tohand","10511","","","","","","","","","tol_peg_1","10511","10511","0","[[1,0,0],[3,0],[0]]","1","[[1,3,0],[2,0],[0]]","0","0","","","","","","3","","","","",""
"","","","","","single-stim-button","149","3002420","0.0-3.0-10.0-1.0","59f6a6ec07e3780001ccd4d0","D2","batch4","tol_toboard","844","","","","","","","","","tol_peg_3","844","844","0","[[1,0,0],[3,0],[2]]","1","[[1,3,0],[2,0],[0]]","0","0","","","","","","3","","","","",""
"","","","","","single-stim-button","150","3002964","0.0-3.0-10.1-0.1","59f6a6ec07e3780001ccd4d0","D2","batch4","tol_tohand","543","","","","","","","","","tol_peg_2","543","543","0","[[1,0,0],[0,0],[2]]","2","[[1,3,0],[2,0],[0]]","0","0","","","","","","3","","","","",""
"","","","","","single-stim-button","151","3005407","0.0-3.0-10.1-1.1","59f6a6ec07e3780001ccd4d0","D2","batch4","tol_toboard","2442","","","","","","","","","tol_peg_1","2442","2442","0","[[1,3,0],[0,0],[2]]","2","[[1,3,0],[2,0],[0]]","0","0","","","","","","3","","","","",""
"","","","","","single-stim-button","152","3006485","0.0-3.0-10.2-0.2","59f6a6ec07e3780001ccd4d0","D2","batch4","tol_tohand","1078","","","","","","","","","tol_peg_3","1078","1078","0","[[1,3,0],[0,0],[0]]","3","[[1,3,0],[2,0],[0]]","0","0","","","","","","3","","","","",""
"","","","","","single-stim-button","153","3007123","0.0-3.0-10.2-1.2","59f6a6ec07e3780001ccd4d0","D2","batch4","tol_toboard","638","","","","","","","","","tol_peg_2","638","638","0","[[1,3,0],[2,0],[0]]","3","[[1,3,0],[2,0],[0]]","0","0","","","","","","3","","","","",""
"","","","","","poldrack-single-stim","154","3008132","0.0-3.0-11.0","59f6a6ec07e3780001ccd4d0","D2","batch4","tol_feedback","-1","","","","","true","","","","","1000","1000","500","","","","","","-1","none","true","10511","12132","","","","","",""
"","","","","","html-button-response","155","3009055","0.0-3.0-12.0","59f6a6ec07e3780001ccd4d0","D2","batch4","tol_trial_num","921.6999999880791","<div class = centerbox><p class = center-block-text>problem <strong>2</strong> out of 25 problems</p></div>","0","","","","","","","","","","","","","","","","","","","","","","","","","",""
"","","","","","single-stim-button","156","3017945","0.0-3.0-13.0-0.0","59f6a6ec07e3780001ccd4d0","D2","batch4","tol_tohand","8889","","","","","","","","","tol_peg_1","8889","8889","0","[[1,0,0],[3,0],[0]]","1","[[2,1,3],[0,0],[0]]","1","0","","","","","","5","","","","",""
"","","","","","single-stim-button","157","3018671","0.0-3.0-13.0-1.0","59f6a6ec07e3780001ccd4d0","D2","batch4","tol_toboard","725","","","","","","","","","tol_peg_3","725","725","0","[[1,0,0],[3,0],[2]]","1","[[2,1,3],[0,0],[0]]","1","0","","","","","","5","","","","",""
"","","","","","single-stim-button","158","3022849","0.0-3.0-13.1-0.1","59f6a6ec07e3780001ccd4d0","D2","batch4","tol_tohand","4177","","","","","","","","","tol_peg_1","4177","4177","0","[[0,0,0],[3,0],[2]]","2","[[2,1,3],[0,0],[0]]","1","0","","","","","","5","","","","",""
"","","","","","single-stim-button","159","3024559","0.0-3.0-13.1-1.1","59f6a6ec07e3780001ccd4d0","D2","batch4","tol_toboard","1710","","","","","","","","","tol_peg_2","1710","1710","0","[[0,0,0],[3,1],[2]]","2","[[2,1,3],[0,0],[0]]","1","0","","","","","","5","","","","",""
"","","","","","single-stim-button","160","3026229","0.0-3.0-13.2-0.2","59f6a6ec07e3780001ccd4d0","D2","batch4","tol_tohand","1668","","","","","","","","","tol_peg_3","1668","1668","0","[[0,0,0],[3,1],[0]]","3","[[2,1,3],[0,0],[0]]","1","0","","","","","","5","","","","",""
"","","","","","single-stim-button","161","3026908","0.0-3.0-13.2-1.2","59f6a6ec07e3780001ccd4d0","D2","batch4","tol_toboard","678","","","","","","","","","tol_peg_1","678","678","0","[[2,0,0],[3,1],[0]]","3","[[2,1,3],[0,0],[0]]","1","0","","","","","","5","","","","",""
"","","","","","single-stim-button","162","3027389","0.0-3.0-13.3-0.3","59f6a6ec07e3780001ccd4d0","D2","batch4","tol_tohand","481","","","","","","","","","tol_peg_2","481","481","0","[[2,0,0],[3,0],[0]]","4","[[2,1,3],[0,0],[0]]","1","0","","","","","","5","","","","",""
"","","","","","single-stim-button","163","3027837","0.0-3.0-13.3-1.3","59f6a6ec07e3780001ccd4d0","D2","batch4","tol_toboard","448","","","","","","","","","tol_peg_1","448","448","0","[[2,1,0],[3,0],[0]]","4","[[2,1,3],[0,0],[0]]","1","0","","","","","","5","","","","",""
"","","","","","single-stim-button","164","3028431","0.0-3.0-13.4-0.4","59f6a6ec07e3780001ccd4d0","D2","batch4","tol_tohand","593","","","","","","","","","tol_peg_2","593","593","0","[[2,1,0],[0,0],[0]]","5","[[2,1,3],[0,0],[0]]","1","0","","","","","","5","","","","",""
"","","","","","single-stim-button","165","3028839","0.0-3.0-13.4-1.4","59f6a6ec07e3780001ccd4d0","D2","batch4","tol_toboard","407","","","","","","","","","tol_peg_1","407","407","0","[[2,1,3],[0,0],[0]]","5","[[2,1,3],[0,0],[0]]","1","0","","","","","","5","","","","",""
"","","","","","poldrack-single-stim","166","3029840","0.0-3.0-14.0","59f6a6ec07e3780001ccd4d0","D2","batch4","tol_feedback","-1","","","","","true","","","","","1000","1000","500","","","","","","-1","none","true","8889","15808","","","","","",""
"","","","","","html-button-response","167","3030716","0.0-3.0-15.0","59f6a6ec07e3780001ccd4d0","D2","batch4","tol_trial_num","874.6000000238419","<div class = centerbox><p class = center-block-text>problem <strong>3</strong> out of 25 problems</p></div>","0","","","","","","","","","","","","","","","","","","","","","","","","","",""
"","","","","","single-stim-button","168","3037721","0.0-3.0-16.0-0.0","59f6a6ec07e3780001ccd4d0","D2","batch4","tol_tohand","7005","","","","","","","","","tol_peg_1","7005","7005","0","[[2,0,0],[0,0],[1]]","1","[[1,2,0],[3,0],[0]]","2","0","","","","","","4","","","","",""
"","","","","","single-stim-button","169","3038431","0.0-3.0-16.0-1.0","59f6a6ec07e3780001ccd4d0","D2","batch4","tol_toboard","708","","","","","","","","","tol_peg_2","708","708","0","[[2,0,0],[3,0],[1]]","1","[[1,2,0],[3,0],[0]]","2","0","","","","","","4","","","","",""
"","","","","","single-stim-button","170","3040637","0.0-3.0-16.1-0.1","59f6a6ec07e3780001ccd4d0","D2","batch4","tol_tohand","2206","","","","","","","","","tol_peg_1","2206","2206","0","[[0,0,0],[3,0],[1]]","2","[[1,2,0],[3,0],[0]]","2","0","","","","","","4","","","","",""
"","","","","","single-stim-button","171","3041348","0.0-3.0-16.1-1.1","59f6a6ec07e3780001ccd4d0","D2","batch4","tol_toboard","710","","","","","","","","","tol_peg_2","710","710","0","[[0,0,0],[3,2],[1]]","2","[[1,2,0],[3,0],[0]]","2","0","","","","","","4","","","","",""
"","","","","","single-stim-button","172","3043027","0.0-3.0-16.2-0.2","59f6a6ec07e3780001ccd4d0","D2","batch4","tol_tohand","1679","","","","","","","","","tol_peg_3","1679","1679","0","[[0,0,0],[3,2],[0]]","3","[[1,2,0],[3,0],[0]]","2","0","","","","","","4","","","","",""
"","","","","","single-stim-button","173","3043861","0.0-3.0-16.2-1.2","59f6a6ec07e3780001ccd4d0","D2","batch4","tol_toboard","832","","","","","","","","","tol_peg_1","832","832","0","[[1,0,0],[3,2],[0]]","3","[[1,2,0],[3,0],[0]]","2","0","","","","","","4","","","","",""
"","","","","","single-stim-button","174","3045108","0.0-3.0-16.3-0.3","59f6a6ec07e3780001ccd4d0","D2","batch4","tol_tohand","1247","","","","","","","","","tol_peg_2","1247","1247","0","[[1,0,0],[3,0],[0]]","4","[[1,2,0],[3,0],[0]]","2","0","","","","","","4","","","","",""
"","","","","","single-stim-button","175","3045691","0.0-3.0-16.3-1.3","59f6a6ec07e3780001ccd4d0","D2","batch4","tol_toboard","583","","","","","","","","","tol_peg_1","583","583","0","[[1,2,0],[3,0],[0]]","4","[[1,2,0],[3,0],[0]]","2","0","","","","","","4","","","","",""
"","","","","","poldrack-single-stim","176","3046692","0.0-3.0-17.0","59f6a6ec07e3780001ccd4d0","D2","batch4","tol_feedback","-1","","","","","true","","","","","1000","1000","500","","","","","","-1","none","true","7005","12137","","","","","",""
"","","","","","html-button-response","177","3047337","0.0-3.0-18.0","59f6a6ec07e3780001ccd4d0","D2","batch4","tol_trial_num","643.9000000059605","<div class = centerbox><p class = center-block-text>problem <strong>4</strong> out of 25 problems</p></div>","0","","","","","","","","","","","","","","","","","","","","","","","","","",""
"","","","","","single-stim-button","178","3051365","0.0-3.0-19.0-0.0","59f6a6ec07e3780001ccd4d0","D2","batch4","tol_tohand","4027","","","","","","","","","tol_peg_2","4027","4027","0","[[3,0,0],[2,0],[0]]","1","[[3,0,0],[1,0],[2]]","3","0","","","","","","3","","","","",""
"","","","","","single-stim-button","179","3051979","0.0-3.0-19.0-1.0","59f6a6ec07e3780001ccd4d0","D2","batch4","tol_toboard","612","","","","","","","","","tol_peg_1","612","612","0","[[3,1,0],[2,0],[0]]","1","[[3,0,0],[1,0],[2]]","3","0","","","","","","3","","","","",""
"","","","","","single-stim-button","180","3052617","0.0-3.0-19.1-0.1","59f6a6ec07e3780001ccd4d0","D2","batch4","tol_tohand","637","","","","","","","","","tol_peg_2","637","637","0","[[3,1,0],[0,0],[0]]","2","[[3,0,0],[1,0],[2]]","3","0","","","","","","3","","","","",""
"","","","","","single-stim-button","181","3053255","0.0-3.0-19.1-1.1","59f6a6ec07e3780001ccd4d0","D2","batch4","tol_toboard","637","","","","","","","","","tol_peg_3","637","637","0","[[3,1,0],[0,0],[2]]","2","[[3,0,0],[1,0],[2]]","3","0","","","","","","3","","","","",""
"","","","","","single-stim-button","182","3053989","0.0-3.0-19.2-0.2","59f6a6ec07e3780001ccd4d0","D2","batch4","tol_tohand","734","","","","","","","","","tol_peg_1","734","734","0","[[3,0,0],[0,0],[2]]","3","[[3,0,0],[1,0],[2]]","3","0","","","","","","3","","","","",""
"","","","","","single-stim-button","183","3054517","0.0-3.0-19.2-1.2","59f6a6ec07e3780001ccd4d0","D2","batch4","tol_toboard","527","","","","","","","","","tol_peg_2","527","527","0","[[3,0,0],[1,0],[2]]","3","[[3,0,0],[1,0],[2]]","3","0","","","","","","3","","","","",""
"","","","","","poldrack-single-stim","184","3055518","0.0-3.0-20.0","59f6a6ec07e3780001ccd4d0","D2","batch4","tol_feedback","-1","","","","","true","","","","","1000","1000","500","","","","","","-1","none","true","4027","5398","","","","","",""
"","","","","","html-button-response","185","3056385","0.0-3.0-21.0","59f6a6ec07e3780001ccd4d0","D2","batch4","tol_trial_num","865.9000000059605","<div class = centerbox><p class = center-block-text>problem <strong>5</strong> out of 25 problems</p></div>","0","","","","","","","","","","","","","","","","","","","","","","","","","",""
"","","","","","single-stim-button","186","3067756","0.0-3.0-22.0-0.0","59f6a6ec07e3780001ccd4d0","D2","batch4","tol_tohand","11370","","","","","","","","","tol_peg_1","11370","11370","0","[[0,0,0],[2,0],[3]]","1","[[0,0,0],[1,2],[3]]","4","0","","","","","","7","","","","",""
"","","","","","single-stim-button","187","3069261","0.0-3.0-22.0-1.0","59f6a6ec07e3780001ccd4d0","D2","batch4","tol_toboard","1504","","","","","","","","","tol_peg_2","1504","1504","0","[[0,0,0],[2,1],[3]]","1","[[0,0,0],[1,2],[3]]","4","0","","","","","","7","","","","",""
"","","","","","single-stim-button","188","3070679","0.0-3.0-22.1-0.1","59f6a6ec07e3780001ccd4d0","D2","batch4","tol_tohand","1417","","","","","","","","","tol_peg_3","1417","1417","0","[[0,0,0],[2,1],[0]]","2","[[0,0,0],[1,2],[3]]","4","0","","","","","","7","","","","",""
"","","","","","single-stim-button","189","3074666","0.0-3.0-22.1-1.1","59f6a6ec07e3780001ccd4d0","D2","batch4","tol_toboard","3987","","","","","","","","","tol_peg_1","3987","3987","0","[[3,0,0],[2,1],[0]]","2","[[0,0,0],[1,2],[3]]","4","0","","","","","","7","","","","",""
"","","","","","single-stim-button","190","3076306","0.0-3.0-22.2-0.2","59f6a6ec07e3780001ccd4d0","D2","batch4","tol_tohand","1639","","","","","","","","","tol_peg_2","1639","1639","0","[[3,0,0],[2,0],[0]]","3","[[0,0,0],[1,2],[3]]","4","0","","","","","","7","","","","",""
"","","","","","single-stim-button","191","3077245","0.0-3.0-22.2-1.2","59f6a6ec07e3780001ccd4d0","D2","batch4","tol_toboard","937","","","","","","","","","tol_peg_3","937","937","0","[[3,0,0],[2,0],[1]]","3","[[0,0,0],[1,2],[3]]","4","0","","","","","","7","","","","",""
"","","","","","single-stim-button","192","3078009","0.0-3.0-22.3-0.3","59f6a6ec07e3780001ccd4d0","D2","batch4","tol_tohand","764","","","","","","","","","tol_peg_3","764","764","0","[[3,0,0],[2,0],[0]]","4","[[0,0,0],[1,2],[3]]","4","0","","","","","","7","","","","",""
"","","","","","single-stim-button","193","3078710","0.0-3.0-22.3-1.3","59f6a6ec07e3780001ccd4d0","D2","batch4","tol_toboard","701","","","","","","","","","tol_peg_3","701","701","0","[[3,0,0],[2,0],[1]]","4","[[0,0,0],[1,2],[3]]","4","0","","","","","","7","","","","",""
"","","","","","single-stim-button","194","3081846","0.0-3.0-22.4-0.4","59f6a6ec07e3780001ccd4d0","D2","batch4","tol_tohand","3135","","","","","","","","","tol_peg_2","3135","3135","0","[[3,0,0],[0,0],[1]]","5","[[0,0,0],[1,2],[3]]","4","0","","","","","","7","","","","",""
"","","","","","single-stim-button","195","3082704","0.0-3.0-22.4-1.4","59f6a6ec07e3780001ccd4d0","D2","batch4","tol_toboard","857","","","","","","","","","tol_peg_1","857","857","0","[[3,2,0],[0,0],[1]]","5","[[0,0,0],[1,2],[3]]","4","0","","","","","","7","","","","",""
"","","","","","single-stim-button","196","3083550","0.0-3.0-22.5-0.5","59f6a6ec07e3780001ccd4d0","D2","batch4","tol_tohand","845","","","","","","","","","tol_peg_3","845","845","0","[[3,2,0],[0,0],[0]]","6","[[0,0,0],[1,2],[3]]","4","0","","","","","","7","","","","",""
"","","","","","single-stim-button","197","3083997","0.0-3.0-22.5-1.5","59f6a6ec07e3780001ccd4d0","D2","batch4","tol_toboard","446","","","","","","","","","tol_peg_2","446","446","0","[[3,2,0],[1,0],[0]]","6","[[0,0,0],[1,2],[3]]","4","0","","","","","","7","","","","",""
"","","","","","single-stim-button","198","3084471","0.0-3.0-22.6-0.6","59f6a6ec07e3780001ccd4d0","D2","batch4","tol_tohand","473","","","","","","","","","tol_peg_1","473","473","0","[[3,0,0],[1,0],[0]]","7","[[0,0,0],[1,2],[3]]","4","0","","","","","","7","","","","",""
"","","","","","single-stim-button","199","3084903","0.0-3.0-22.6-1.6","59f6a6ec07e3780001ccd4d0","D2","batch4","tol_toboard","432","","","","","","","","","tol_peg_2","432","432","0","[[3,0,0],[1,2],[0]]","7","[[0,0,0],[1,2],[3]]","4","0","","","","","","7","","","","",""
"","","","","","single-stim-button","200","3085503","0.0-3.0-22.7-0.7","59f6a6ec07e3780001ccd4d0","D2","batch4","tol_tohand","600","","","","","","","","","tol_peg_1","600","600","0","[[0,0,0],[1,2],[0]]","8","[[0,0,0],[1,2],[3]]","4","0","","","","","","7","","","","",""
"","","","","","single-stim-button","201","3086173","0.0-3.0-22.7-1.7","59f6a6ec07e3780001ccd4d0","D2","batch4","tol_toboard","669","","","","","","","","","tol_peg_3","669","669","0","[[0,0,0],[1,2],[3]]","8","[[0,0,0],[1,2],[3]]","4","0","","","","","","7","","","","",""
"","","","","","poldrack-single-stim","202","3087179","0.0-3.0-23.0","59f6a6ec07e3780001ccd4d0","D2","batch4","tol_feedback","-1","","","","","true","","","","","1000","1000","500","","","","","","-1","none","true","11370","20243","","","","","",""
"","","","","","html-button-response","203","3088086","0.0-3.0-24.0","59f6a6ec07e3780001ccd4d0","D2","batch4","tol_trial_num","905.5","<div class = centerbox><p class = center-block-text>problem <strong>6</strong> out of 25 problems</p></div>","0","","","","","","","","","","","","","","","","","","","","","","","","","",""
"","","","","","single-stim-button","204","3094557","0.0-3.0-25.0-0.0","59f6a6ec07e3780001ccd4d0","D2","batch4","tol_tohand","6469","","","","","","","","","tol_peg_2","6469","6469","0","[[0,0,0],[1,0],[3]]","1","[[1,0,0],[2,3],[0]]","5","0","","","","","","6","","","","",""
"","","","","","single-stim-button","205","3095211","0.0-3.0-25.0-1.0","59f6a6ec07e3780001ccd4d0","D2","batch4","tol_toboard","654","","","","","","","","","tol_peg_1","654","654","0","[[2,0,0],[1,0],[3]]","1","[[1,0,0],[2,3],[0]]","5","0","","","","","","6","","","","",""
"","","","","","single-stim-button","206","3100562","0.0-3.0-25.1-0.1","59f6a6ec07e3780001ccd4d0","D2","batch4","tol_tohand","5350","","","","","","","","","tol_peg_3","5350","5350","0","[[2,0,0],[1,0],[0]]","2","[[1,0,0],[2,3],[0]]","5","0","","","","","","6","","","","",""
"","","","","","single-stim-button","207","3103784","0.0-3.0-25.1-1.1","59f6a6ec07e3780001ccd4d0","D2","batch4","tol_toboard","3222","","","","","","","","","tol_peg_1","3222","3222","0","[[2,3,0],[1,0],[0]]","2","[[1,0,0],[2,3],[0]]","5","0","","","","","","6","","","","",""
"","","","","","single-stim-button","208","3105174","0.0-3.0-25.2-0.2","59f6a6ec07e3780001ccd4d0","D2","batch4","tol_tohand","1389","","","","","","","","","tol_peg_2","1389","1389","0","[[2,3,0],[0,0],[0]]","3","[[1,0,0],[2,3],[0]]","5","0","","","","","","6","","","","",""
"","","","","","single-stim-button","209","3105770","0.0-3.0-25.2-1.2","59f6a6ec07e3780001ccd4d0","D2","batch4","tol_toboard","596","","","","","","","","","tol_peg_3","596","596","0","[[2,3,0],[0,0],[1]]","3","[[1,0,0],[2,3],[0]]","5","0","","","","","","6","","","","",""
"","","","","","single-stim-button","210","3107362","0.0-3.0-25.3-0.3","59f6a6ec07e3780001ccd4d0","D2","batch4","tol_tohand","1591","","","","","","","","","tol_peg_1","1591","1591","0","[[2,0,0],[0,0],[1]]","4","[[1,0,0],[2,3],[0]]","5","0","","","","","","6","","","","",""
"","","","","","single-stim-button","211","3108812","0.0-3.0-25.3-1.3","59f6a6ec07e3780001ccd4d0","D2","batch4","tol_toboard","1449","","","","","","","","","tol_peg_2","1449","1449","0","[[2,0,0],[3,0],[1]]","4","[[1,0,0],[2,3],[0]]","5","0","","","","","","6","","","","",""
"","","","","","single-stim-button","212","3109789","0.0-3.0-25.4-0.4","59f6a6ec07e3780001ccd4d0","D2","batch4","tol_tohand","976","","","","","","","","","tol_peg_1","976","976","0","[[0,0,0],[3,0],[1]]","5","[[1,0,0],[2,3],[0]]","5","0","","","","","","6","","","","",""
"","","","","","single-stim-button","213","3110648","0.0-3.0-25.4-1.4","59f6a6ec07e3780001ccd4d0","D2","batch4","tol_toboard","858","","","","","","","","","tol_peg_2","858","858","0","[[0,0,0],[3,2],[1]]","5","[[1,0,0],[2,3],[0]]","5","0","","","","","","6","","","","",""
"","","","","","single-stim-button","214","3111759","0.0-3.0-25.5-0.5","59f6a6ec07e3780001ccd4d0","D2","batch4","tol_tohand","1110","","","","","","","","","tol_peg_3","1110","1110","0","[[0,0,0],[3,2],[0]]","6","[[1,0,0],[2,3],[0]]","5","0","","","","","","6","","","","",""
"","","","","","single-stim-button","215","3112713","0.0-3.0-25.5-1.5","59f6a6ec07e3780001ccd4d0","D2","batch4","tol_toboard","954","","","","","","","","","tol_peg_1","954","954","0","[[1,0,0],[3,2],[0]]","6","[[1,0,0],[2,3],[0]]","5","0","","","","","","6","","","","",""
"","","","","","single-stim-button","216","3113920","0.0-3.0-25.6-0.6","59f6a6ec07e3780001ccd4d0","D2","batch4","tol_tohand","1206","","","","","","","","","tol_peg_2","1206","1206","0","[[1,0,0],[3,0],[0]]","7","[[1,0,0],[2,3],[0]]","5","0","","","","","","6","","","","",""
"","","","","","single-stim-button","217","3114627","0.0-3.0-25.6-1.6","59f6a6ec07e3780001ccd4d0","D2","batch4","tol_toboard","707","","","","","","","","","tol_peg_3","707","707","0","[[1,0,0],[3,0],[2]]","7","[[1,0,0],[2,3],[0]]","5","0","","","","","","6","","","","",""
"","","","","","single-stim-button","218","3115186","0.0-3.0-25.7-0.7","59f6a6ec07e3780001ccd4d0","D2","batch4","tol_tohand","558","","","","","","","","","tol_peg_2","558","558","0","[[1,0,0],[0,0],[2]]","8","[[1,0,0],[2,3],[0]]","5","0","","","","","","6","","","","",""
"","","","","","single-stim-button","219","3116022","0.0-3.0-25.7-1.7","59f6a6ec07e3780001ccd4d0","D2","batch4","tol_toboard","835","","","","","","","","","tol_peg_1","835","835","0","[[1,3,0],[0,0],[2]]","8","[[1,0,0],[2,3],[0]]","5","0","","","","","","6","","","","",""
"","","","","","single-stim-button","220","3117409","0.0-3.0-25.8-0.8","59f6a6ec07e3780001ccd4d0","D2","batch4","tol_tohand","1386","","","","","","","","","tol_peg_3","1386","1386","0","[[1,3,0],[0,0],[0]]","9","[[1,0,0],[2,3],[0]]","5","0","","","","","","6","","","","",""
"","","","","","single-stim-button","221","3117992","0.0-3.0-25.8-1.8","59f6a6ec07e3780001ccd4d0","D2","batch4","tol_toboard","583","","","","","","","","","tol_peg_2","583","583","0","[[1,3,0],[2,0],[0]]","9","[[1,0,0],[2,3],[0]]","5","0","","","","","","6","","","","",""
"","","","","","single-stim-button","222","3118465","0.0-3.0-25.9-0.9","59f6a6ec07e3780001ccd4d0","D2","batch4","tol_tohand","473","","","","","","","","","tol_peg_1","473","473","0","[[1,0,0],[2,0],[0]]","10","[[1,0,0],[2,3],[0]]","5","0","","","","","","6","","","","",""
"","","","","","single-stim-button","223","3119064","0.0-3.0-25.9-1.9","59f6a6ec07e3780001ccd4d0","D2","batch4","tol_toboard","599","","","","","","","","","tol_peg_2","599","599","0","[[1,0,0],[2,3],[0]]","10","[[1,0,0],[2,3],[0]]","5","0","","","","","","6","","","","",""
"","","","","","poldrack-single-stim","224","3120066","0.0-3.0-26.0","59f6a6ec07e3780001ccd4d0","D2","batch4","tol_feedback","-1","","","","","true","","","","","1000","1000","500","","","","","","-1","none","true","6469","20508","","","","","",""
"","","","","","html-button-response","225","3120986","0.0-3.0-27.0","59f6a6ec07e3780001ccd4d0","D2","batch4","tol_trial_num","919.8000000119209","<div class = centerbox><p class = center-block-text>problem <strong>7</strong> out of 25 problems</p></div>","0","","","","","","","","","","","","","","","","","","","","","","","","","",""
"","","","","","single-stim-button","226","3129916","0.0-3.0-28.0-0.0","59f6a6ec07e3780001ccd4d0","D2","batch4","tol_tohand","8929","","","","","","","","","tol_peg_1","8929","8929","0","[[2,0,0],[0,0],[3]]","1","[[1,2,0],[3,0],[0]]","6","0","","","","","","5","","","","",""
"","","","","","single-stim-button","227","3130569","0.0-3.0-28.0-1.0","59f6a6ec07e3780001ccd4d0","D2","batch4","tol_toboard","652","","","","","","","","","tol_peg_2","652","652","0","[[2,0,0],[1,0],[3]]","1","[[1,2,0],[3,0],[0]]","6","0","","","","","","5","","","","",""
"","","","","","single-stim-button","228","3132649","0.0-3.0-28.1-0.1","59f6a6ec07e3780001ccd4d0","D2","batch4","tol_tohand","2080","","","","","","","","","tol_peg_1","2080","2080","0","[[0,0,0],[1,0],[3]]","2","[[1,2,0],[3,0],[0]]","6","0","","","","","","5","","","","",""
"","","","","","single-stim-button","229","3133318","0.0-3.0-28.1-1.1","59f6a6ec07e3780001ccd4d0","D2","batch4","tol_toboard","669","","","","","","","","","tol_peg_2","669","669","0","[[0,0,0],[1,2],[3]]","2","[[1,2,0],[3,0],[0]]","6","0","","","","","","5","","","","",""
"","","","","","single-stim-button","230","3136429","0.0-3.0-28.2-0.2","59f6a6ec07e3780001ccd4d0","D2","batch4","tol_tohand","3109","","","","","","","","","tol_peg_3","3109","3109","0","[[0,0,0],[1,2],[0]]","3","[[1,2,0],[3,0],[0]]","6","0","","","","","","5","","","","",""
"","","","","","single-stim-button","231","3137147","0.0-3.0-28.2-1.2","59f6a6ec07e3780001ccd4d0","D2","batch4","tol_toboard","718","","","","","","","","","tol_peg_1","718","718","0","[[3,0,0],[1,2],[0]]","3","[[1,2,0],[3,0],[0]]","6","0","","","","","","5","","","","",""
"","","","","","single-stim-button","232","3137738","0.0-3.0-28.3-0.3","59f6a6ec07e3780001ccd4d0","D2","batch4","tol_tohand","590","","","","","","","","","tol_peg_2","590","590","0","[[3,0,0],[1,0],[0]]","4","[[1,2,0],[3,0],[0]]","6","0","","","","","","5","","","","",""
"","","","","","single-stim-button","233","3138354","0.0-3.0-28.3-1.3","59f6a6ec07e3780001ccd4d0","D2","batch4","tol_toboard","614","","","","","","","","","tol_peg_3","614","614","0","[[3,0,0],[1,0],[2]]","4","[[1,2,0],[3,0],[0]]","6","0","","","","","","5","","","","",""
"","","","","","single-stim-button","234","3141852","0.0-3.0-28.4-0.4","59f6a6ec07e3780001ccd4d0","D2","batch4","tol_tohand","3498","","","","","","","","","tol_peg_2","3498","3498","0","[[3,0,0],[0,0],[2]]","5","[[1,2,0],[3,0],[0]]","6","0","","","","","","5","","","","",""
"","","","","","single-stim-button","235","3142277","0.0-3.0-28.4-1.4","59f6a6ec07e3780001ccd4d0","D2","batch4","tol_toboard","424","","","","","","","","","tol_peg_1","424","424","0","[[3,1,0],[0,0],[2]]","5","[[1,2,0],[3,0],[0]]","6","0","","","","","","5","","","","",""
"","","","","","single-stim-button","236","3143119","0.0-3.0-28.5-0.5","59f6a6ec07e3780001ccd4d0","D2","batch4","tol_tohand","841","","","","","","","","","tol_peg_1","841","841","0","[[3,0,0],[0,0],[2]]","6","[[1,2,0],[3,0],[0]]","6","0","","","","","","5","","","","",""
"","","","","","single-stim-button","237","3143663","0.0-3.0-28.5-1.5","59f6a6ec07e3780001ccd4d0","D2","batch4","tol_toboard","544","","","","","","","","","tol_peg_2","544","544","0","[[3,0,0],[1,0],[2]]","6","[[1,2,0],[3,0],[0]]","6","0","","","","","","5","","","","",""
"","","","","","single-stim-button","238","3144135","0.0-3.0-28.6-0.6","59f6a6ec07e3780001ccd4d0","D2","batch4","tol_tohand","471","","","","","","","","","tol_peg_1","471","471","0","[[0,0,0],[1,0],[2]]","7","[[1,2,0],[3,0],[0]]","6","0","","","","","","5","","","","",""
"","","","","","single-stim-button","239","3144609","0.0-3.0-28.6-1.6","59f6a6ec07e3780001ccd4d0","D2","batch4","tol_toboard","473","","","","","","","","","tol_peg_2","473","473","0","[[0,0,0],[1,3],[2]]","7","[[1,2,0],[3,0],[0]]","6","0","","","","","","5","","","","",""
"","","","","","single-stim-button","240","3145151","0.0-3.0-28.7-0.7","59f6a6ec07e3780001ccd4d0","D2","batch4","tol_tohand","541","","","","","","","","","tol_peg_3","541","541","0","[[0,0,0],[1,3],[0]]","8","[[1,2,0],[3,0],[0]]","6","0","","","","","","5","","","","",""
"","","","","","single-stim-button","241","3145877","0.0-3.0-28.7-1.7","59f6a6ec07e3780001ccd4d0","D2","batch4","tol_toboard","726","","","","","","","","","tol_peg_1","726","726","0","[[2,0,0],[1,3],[0]]","8","[[1,2,0],[3,0],[0]]","6","0","","","","","","5","","","","",""
"","","","","","single-stim-button","242","3146799","0.0-3.0-28.8-0.8","59f6a6ec07e3780001ccd4d0","D2","batch4","tol_tohand","921","","","","","","","","","tol_peg_2","921","921","0","[[2,0,0],[1,0],[0]]","9","[[1,2,0],[3,0],[0]]","6","0","","","","","","5","","","","",""
"","","","","","single-stim-button","243","3147807","0.0-3.0-28.8-1.8","59f6a6ec07e3780001ccd4d0","D2","batch4","tol_toboard","1008","","","","","","","","","tol_peg_3","1008","1008","0","[[2,0,0],[1,0],[3]]","9","[[1,2,0],[3,0],[0]]","6","0","","","","","","5","","","","",""
"","","","","","single-stim-button","244","3149595","0.0-3.0-28.9-0.9","59f6a6ec07e3780001ccd4d0","D2","batch4","tol_tohand","1788","","","","","","","","","tol_peg_2","1788","1788","0","[[2,0,0],[0,0],[3]]","10","[[1,2,0],[3,0],[0]]","6","0","","","","","","5","","","","",""
"","","","","","single-stim-button","245","3150265","0.0-3.0-28.9-1.9","59f6a6ec07e3780001ccd4d0","D2","batch4","tol_toboard","668","","","","","","","","","tol_peg_1","668","668","0","[[2,1,0],[0,0],[3]]","10","[[1,2,0],[3,0],[0]]","6","0","","","","","","5","","","","",""
"","","","","","single-stim-button","246","3152322","0.0-3.0-28.10-0.10","59f6a6ec07e3780001ccd4d0","D2","batch4","tol_tohand","2056","","","","","","","","","tol_peg_3","2056","2056","0","[[2,1,0],[0,0],[0]]","11","[[1,2,0],[3,0],[0]]","6","0","","","","","","5","","","","",""
"","","","","","single-stim-button","247","3152913","0.0-3.0-28.10-1.10","59f6a6ec07e3780001ccd4d0","D2","batch4","tol_toboard","591","","","","","","","","","tol_peg_2","591","591","0","[[2,1,0],[3,0],[0]]","11","[[1,2,0],[3,0],[0]]","6","0","","","","","","5","","","","",""
"","","","","","single-stim-button","248","3157791","0.0-3.0-28.11-0.11","59f6a6ec07e3780001ccd4d0","D2","batch4","tol_tohand","4877","","","","","","","","","tol_peg_1","4877","4877","0","[[2,0,0],[3,0],[0]]","12","[[1,2,0],[3,0],[0]]","6","0","","","","","","5","","","","",""
"","","","","","single-stim-button","249","3158580","0.0-3.0-28.11-1.11","59f6a6ec07e3780001ccd4d0","D2","batch4","tol_toboard","788","","","","","","","","","tol_peg_3","788","788","0","[[2,0,0],[3,0],[1]]","12","[[1,2,0],[3,0],[0]]","6","0","","","","","","5","","","","",""
"","","","","","single-stim-button","250","3159295","0.0-3.0-28.12-0.12","59f6a6ec07e3780001ccd4d0","D2","batch4","tol_tohand","714","","","","","","","","","tol_peg_1","714","714","0","[[0,0,0],[3,0],[1]]","13","[[1,2,0],[3,0],[0]]","6","0","","","","","","5","","","","",""
"","","","","","single-stim-button","251","3160082","0.0-3.0-28.12-1.12","59f6a6ec07e3780001ccd4d0","D2","batch4","tol_toboard","787","","","","","","","","","tol_peg_2","787","787","0","[[0,0,0],[3,2],[1]]","13","[[1,2,0],[3,0],[0]]","6","0","","","","","","5","","","","",""
"","","","","","single-stim-button","252","3161069","0.0-3.0-28.13-0.13","59f6a6ec07e3780001ccd4d0","D2","batch4","tol_tohand","985","","","","","","","","","tol_peg_3","985","985","0","[[0,0,0],[3,2],[0]]","14","[[1,2,0],[3,0],[0]]","6","0","","","","","","5","","","","",""
"","","","","","single-stim-button","253","3161887","0.0-3.0-28.13-1.13","59f6a6ec07e3780001ccd4d0","D2","batch4","tol_toboard","818","","","","","","","","","tol_peg_1","818","818","0","[[1,0,0],[3,2],[0]]","14","[[1,2,0],[3,0],[0]]","6","0","","","","","","5","","","","",""
"","","","","","single-stim-button","254","3162722","0.0-3.0-28.14-0.14","59f6a6ec07e3780001ccd4d0","D2","batch4","tol_tohand","834","","","","","","","","","tol_peg_2","834","834","0","[[1,0,0],[3,0],[0]]","15","[[1,2,0],[3,0],[0]]","6","0","","","","","","5","","","","",""
"","","","","","single-stim-button","255","3163731","0.0-3.0-28.14-1.14","59f6a6ec07e3780001ccd4d0","D2","batch4","tol_toboard","1008","","","","","","","","","tol_peg_1","1008","1008","0","[[1,2,0],[3,0],[0]]","15","[[1,2,0],[3,0],[0]]","6","0","","","","","","5","","","","",""
"","","","","","poldrack-single-stim","256","3164733","0.0-3.0-29.0","59f6a6ec07e3780001ccd4d0","D2","batch4","tol_feedback","-1","","","","","true","","","","","1000","1000","500","","","","","","-1","none","true","8929","32234","","","","","",""
"","","","","","html-button-response","257","3165371","0.0-3.0-30.0","59f6a6ec07e3780001ccd4d0","D2","batch4","tol_trial_num","637.5999999940395","<div class = centerbox><p class = center-block-text>problem <strong>8</strong> out of 25 problems</p></div>","0","","","","","","","","","","","","","","","","","","","","","","","","","",""
"","","","","","single-stim-button","258","3168411","0.0-3.0-31.0-0.0","59f6a6ec07e3780001ccd4d0","D2","batch4","tol_tohand","3039","","","","","","","","","tol_peg_3","3039","3039","0","[[0,0,0],[2,3],[0]]","1","[[1,2,0],[3,0],[0]]","7","0","","","","","","4","","","","",""
"","","","","","single-stim-button","259","3169003","0.0-3.0-31.0-1.0","59f6a6ec07e3780001ccd4d0","D2","batch4","tol_toboard","591","","","","","","","","","tol_peg_1","591","591","0","[[1,0,0],[2,3],[0]]","1","[[1,2,0],[3,0],[0]]","7","0","","","","","","4","","","","",""
"","","","","","single-stim-button","260","3170193","0.0-3.0-31.1-0.1","59f6a6ec07e3780001ccd4d0","D2","batch4","tol_tohand","1190","","","","","","","","","tol_peg_2","1190","1190","0","[[1,0,0],[2,0],[0]]","2","[[1,2,0],[3,0],[0]]","7","0","","","","","","4","","","","",""
"","","","","","single-stim-button","261","3170727","0.0-3.0-31.1-1.1","59f6a6ec07e3780001ccd4d0","D2","batch4","tol_toboard","533","","","","","","","","","tol_peg_3","533","533","0","[[1,0,0],[2,0],[3]]","2","[[1,2,0],[3,0],[0]]","7","0","","","","","","4","","","","",""
"","","","","","single-stim-button","262","3171185","0.0-3.0-31.2-0.2","59f6a6ec07e3780001ccd4d0","D2","batch4","tol_tohand","456","","","","","","","","","tol_peg_2","456","456","0","[[1,0,0],[0,0],[3]]","3","[[1,2,0],[3,0],[0]]","7","0","","","","","","4","","","","",""
"","","","","","single-stim-button","263","3171721","0.0-3.0-31.2-1.2","59f6a6ec07e3780001ccd4d0","D2","batch4","tol_toboard","536","","","","","","","","","tol_peg_1","536","536","0","[[1,2,0],[0,0],[3]]","3","[[1,2,0],[3,0],[0]]","7","0","","","","","","4","","","","",""
"","","","","","single-stim-button","264","3172359","0.0-3.0-31.3-0.3","59f6a6ec07e3780001ccd4d0","D2","batch4","tol_tohand","638","","","","","","","","","tol_peg_3","638","638","0","[[1,2,0],[0,0],[0]]","4","[[1,2,0],[3,0],[0]]","7","0","","","","","","4","","","","",""
"","","","","","single-stim-button","265","3174359","0.0-3.0-31.3-1.3","59f6a6ec07e3780001ccd4d0","D2","batch4","tol_toboard","1999","","","","","","","","","tol_peg_2","1999","1999","0","[[1,2,0],[3,0],[0]]","4","[[1,2,0],[3,0],[0]]","7","0","","","","","","4","","","","",""
"","","","","","poldrack-single-stim","266","3175361","0.0-3.0-32.0","59f6a6ec07e3780001ccd4d0","D2","batch4","tol_feedback","-1","","","","","true","","","","","1000","1000","500","","","","","","-1","none","true","3039","5323","","","","","",""
"","","","","","html-button-response","267","3176077","0.0-3.0-33.0","59f6a6ec07e3780001ccd4d0","D2","batch4","tol_trial_num","715.1999999880791","<div class = centerbox><p class = center-block-text>problem <strong>9</strong> out of 25 problems</p></div>","0","","","","","","","","","","","","","","","","","","","","","","","","","",""
"","","","","","single-stim-button","268","3183532","0.0-3.0-34.0-0.0","59f6a6ec07e3780001ccd4d0","D2","batch4","tol_tohand","7453","","","","","","","","","tol_peg_3","7453","7453","0","[[3,2,0],[0,0],[0]]","1","[[2,1,0],[3,0],[0]]","8","0","","","","","","6","","","","",""
"","","","","","single-stim-button","269","3184027","0.0-3.0-34.0-1.0","59f6a6ec07e3780001ccd4d0","D2","batch4","tol_toboard","495","","","","","","","","","tol_peg_2","495","495","0","[[3,2,0],[1,0],[0]]","1","[[2,1,0],[3,0],[0]]","8","0","","","","","","6","","","","",""
"","","","","","single-stim-button","270","3185297","0.0-3.0-34.1-0.1","59f6a6ec07e3780001ccd4d0","D2","batch4","tol_tohand","1270","","","","","","","","","tol_peg_1","1270","1270","0","[[3,0,0],[1,0],[0]]","2","[[2,1,0],[3,0],[0]]","8","0","","","","","","6","","","","",""
"","","","","","single-stim-button","271","3186037","0.0-3.0-34.1-1.1","59f6a6ec07e3780001ccd4d0","D2","batch4","tol_toboard","738","","","","","","","","","tol_peg_3","738","738","0","[[3,0,0],[1,0],[2]]","2","[[2,1,0],[3,0],[0]]","8","0","","","","","","6","","","","",""
"","","","","","single-stim-button","272","3188913","0.0-3.0-34.2-0.2","59f6a6ec07e3780001ccd4d0","D2","batch4","tol_tohand","2876","","","","","","","","","tol_peg_1","2876","2876","0","[[0,0,0],[1,0],[2]]","3","[[2,1,0],[3,0],[0]]","8","0","","","","","","6","","","","",""
"","","","","","single-stim-button","273","3189490","0.0-3.0-34.2-1.2","59f6a6ec07e3780001ccd4d0","D2","batch4","tol_toboard","576","","","","","","","","","tol_peg_2","576","576","0","[[0,0,0],[1,3],[2]]","3","[[2,1,0],[3,0],[0]]","8","0","","","","","","6","","","","",""
"","","","","","single-stim-button","274","3191017","0.0-3.0-34.3-0.3","59f6a6ec07e3780001ccd4d0","D2","batch4","tol_tohand","1526","","","","","","","","","tol_peg_3","1526","1526","0","[[0,0,0],[1,3],[0]]","4","[[2,1,0],[3,0],[0]]","8","0","","","","","","6","","","","",""
"","","","","","single-stim-button","275","3191711","0.0-3.0-34.3-1.3","59f6a6ec07e3780001ccd4d0","D2","batch4","tol_toboard","692","","","","","","","","","tol_peg_1","692","692","0","[[2,0,0],[1,3],[0]]","4","[[2,1,0],[3,0],[0]]","8","0","","","","","","6","","","","",""
"","","","","","single-stim-button","276","3192499","0.0-3.0-34.4-0.4","59f6a6ec07e3780001ccd4d0","D2","batch4","tol_tohand","787","","","","","","","","","tol_peg_2","787","787","0","[[2,0,0],[1,0],[0]]","5","[[2,1,0],[3,0],[0]]","8","0","","","","","","6","","","","",""
"","","","","","single-stim-button","277","3192971","0.0-3.0-34.4-1.4","59f6a6ec07e3780001ccd4d0","D2","batch4","tol_toboard","472","","","","","","","","","tol_peg_3","472","472","0","[[2,0,0],[1,0],[3]]","5","[[2,1,0],[3,0],[0]]","8","0","","","","","","6","","","","",""
"","","","","","single-stim-button","278","3193492","0.0-3.0-34.5-0.5","59f6a6ec07e3780001ccd4d0","D2","batch4","tol_tohand","520","","","","","","","","","tol_peg_2","520","520","0","[[2,0,0],[0,0],[3]]","6","[[2,1,0],[3,0],[0]]","8","0","","","","","","6","","","","",""
"","","","","","single-stim-button","279","3194065","0.0-3.0-34.5-1.5","59f6a6ec07e3780001ccd4d0","D2","batch4","tol_toboard","572","","","","","","","","","tol_peg_1","572","572","0","[[2,1,0],[0,0],[3]]","6","[[2,1,0],[3,0],[0]]","8","0","","","","","","6","","","","",""
"","","","","","single-stim-button","280","3194601","0.0-3.0-34.6-0.6","59f6a6ec07e3780001ccd4d0","D2","batch4","tol_tohand","536","","","","","","","","","tol_peg_3","536","536","0","[[2,1,0],[0,0],[0]]","7","[[2,1,0],[3,0],[0]]","8","0","","","","","","6","","","","",""
"","","","","","single-stim-button","281","3195168","0.0-3.0-34.6-1.6","59f6a6ec07e3780001ccd4d0","D2","batch4","tol_toboard","566","","","","","","","","","tol_peg_2","566","566","0","[[2,1,0],[3,0],[0]]","7","[[2,1,0],[3,0],[0]]","8","0","","","","","","6","","","","",""
"","","","","","poldrack-single-stim","282","3196171","0.0-3.0-35.0","59f6a6ec07e3780001ccd4d0","D2","batch4","tol_feedback","-1","","","","","true","","","","","1000","1000","500","","","","","","-1","none","true","7453","14968","","","","","",""
"","","","","","html-button-response","283","3200140","0.0-3.0-36.0","59f6a6ec07e3780001ccd4d0","D2","batch4","tol_trial_num","3967.5999999940395","<div class = centerbox><p class = center-block-text>problem <strong>10</strong> out of 25 problems</p></div>","0","","","","","","","","","","","","","","","","","","","","","","","","","",""
"","","","","","single-stim-button","284","3205121","0.0-3.0-37.0-0.0","59f6a6ec07e3780001ccd4d0","D2","batch4","tol_tohand","4979","","","","","","","","","tol_peg_2","4979","4979","0","[[3,0,0],[0,0],[2]]","1","[[3,0,0],[2,1],[0]]","9","0","","","","","","3","","","","",""
"","","","","","single-stim-button","285","3205718","0.0-3.0-37.0-1.0","59f6a6ec07e3780001ccd4d0","D2","batch4","tol_toboard","597","","","","","","","","","tol_peg_1","597","597","0","[[3,1,0],[0,0],[2]]","1","[[3,0,0],[2,1],[0]]","9","0","","","","","","3","","","","",""
"","","","","","single-stim-button","286","3206239","0.0-3.0-37.1-0.1","59f6a6ec07e3780001ccd4d0","D2","batch4","tol_tohand","519","","","","","","","","","tol_peg_3","519","519","0","[[3,1,0],[0,0],[0]]","2","[[3,0,0],[2,1],[0]]","9","0","","","","","","3","","","","",""
"","","","","","single-stim-button","287","3206766","0.0-3.0-37.1-1.1","59f6a6ec07e3780001ccd4d0","D2","batch4","tol_toboard","527","","","","","","","","","tol_peg_2","527","527","0","[[3,1,0],[2,0],[0]]","2","[[3,0,0],[2,1],[0]]","9","0","","","","","","3","","","","",""
"","","","","","single-stim-button","288","3207587","0.0-3.0-37.2-0.2","59f6a6ec07e3780001ccd4d0","D2","batch4","tol_tohand","820","","","","","","","","","tol_peg_1","820","820","0","[[3,0,0],[2,0],[0]]","3","[[3,0,0],[2,1],[0]]","9","0","","","","","","3","","","","",""
"","","","","","single-stim-button","289","3208059","0.0-3.0-37.2-1.2","59f6a6ec07e3780001ccd4d0","D2","batch4","tol_toboard","470","","","","","","","","","tol_peg_2","470","470","0","[[3,0,0],[2,1],[0]]","3","[[3,0,0],[2,1],[0]]","9","0","","","","","","3","","","","",""
"","","","","","poldrack-single-stim","290","3209062","0.0-3.0-38.0","59f6a6ec07e3780001ccd4d0","D2","batch4","tol_feedback","-1","","","","","true","","","","","1000","1000","500","","","","","","-1","none","true","4979","6318","","","","","",""
"","","","","","html-button-response","291","3210084","0.0-3.0-39.0","59f6a6ec07e3780001ccd4d0","D2","batch4","tol_trial_num","1020.9000000059605","<div class = centerbox><p class = center-block-text>problem <strong>11</strong> out of 25 problems</p></div>","0","","","","","","","","","","","","","","","","","","","","","","","","","",""
"","","","","","single-stim-button","292","3217349","0.0-3.0-40.0-0.0","59f6a6ec07e3780001ccd4d0","D2","batch4","tol_tohand","7264","","","","","","","","","tol_peg_1","7264","7264","0","[[1,0,0],[3,0],[0]]","1","[[2,0,0],[1,3],[0]]","10","0","","","","","","6","","","","",""
"","","","","","single-stim-button","293","3218033","0.0-3.0-40.0-1.0","59f6a6ec07e3780001ccd4d0","D2","batch4","tol_toboard","682","","","","","","","","","tol_peg_3","682","682","0","[[1,0,0],[3,0],[2]]","1","[[2,0,0],[1,3],[0]]","10","0","","","","","","6","","","","",""
"","","","","","single-stim-button","294","3222729","0.0-3.0-40.1-0.1","59f6a6ec07e3780001ccd4d0","D2","batch4","tol_tohand","4695","","","","","","","","","tol_peg_1","4695","4695","0","[[0,0,0],[3,0],[2]]","2","[[2,0,0],[1,3],[0]]","10","0","","","","","","6","","","","",""
"","","","","","single-stim-button","295","3223256","0.0-3.0-40.1-1.1","59f6a6ec07e3780001ccd4d0","D2","batch4","tol_toboard","527","","","","","","","","","tol_peg_2","527","527","0","[[0,0,0],[3,1],[2]]","2","[[2,0,0],[1,3],[0]]","10","0","","","","","","6","","","","",""
"","","","","","single-stim-button","296","3223809","0.0-3.0-40.2-0.2","59f6a6ec07e3780001ccd4d0","D2","batch4","tol_tohand","552","","","","","","","","","tol_peg_3","552","552","0","[[0,0,0],[3,1],[0]]","3","[[2,0,0],[1,3],[0]]","10","0","","","","","","6","","","","",""
"","","","","","single-stim-button","297","3224369","0.0-3.0-40.2-1.2","59f6a6ec07e3780001ccd4d0","D2","batch4","tol_toboard","560","","","","","","","","","tol_peg_1","560","560","0","[[2,0,0],[3,1],[0]]","3","[[2,0,0],[1,3],[0]]","10","0","","","","","","6","","","","",""
"","","","","","single-stim-button","298","3226133","0.0-3.0-40.3-0.3","59f6a6ec07e3780001ccd4d0","D2","batch4","tol_tohand","1764","","","","","","","","","tol_peg_2","1764","1764","0","[[2,0,0],[3,0],[0]]","4","[[2,0,0],[1,3],[0]]","10","0","","","","","","6","","","","",""
"","","","","","single-stim-button","299","3226741","0.0-3.0-40.3-1.3","59f6a6ec07e3780001ccd4d0","D2","batch4","tol_toboard","608","","","","","","","","","tol_peg_3","608","608","0","[[2,0,0],[3,0],[1]]","4","[[2,0,0],[1,3],[0]]","10","0","","","","","","6","","","","",""
"","","","","","single-stim-button","300","3227804","0.0-3.0-40.4-0.4","59f6a6ec07e3780001ccd4d0","D2","batch4","tol_tohand","1062","","","","","","","","","tol_peg_2","1062","1062","0","[[2,0,0],[0,0],[1]]","5","[[2,0,0],[1,3],[0]]","10","0","","","","","","6","","","","",""
"","","","","","single-stim-button","301","3228442","0.0-3.0-40.4-1.4","59f6a6ec07e3780001ccd4d0","D2","batch4","tol_toboard","638","","","","","","","","","tol_peg_1","638","638","0","[[2,3,0],[0,0],[1]]","5","[[2,0,0],[1,3],[0]]","10","0","","","","","","6","","","","",""
"","","","","","single-stim-button","302","3229065","0.0-3.0-40.5-0.5","59f6a6ec07e3780001ccd4d0","D2","batch4","tol_tohand","622","","","","","","","","","tol_peg_3","622","622","0","[[2,3,0],[0,0],[0]]","6","[[2,0,0],[1,3],[0]]","10","0","","","","","","6","","","","",""
"","","","","","single-stim-button","303","3229577","0.0-3.0-40.5-1.5","59f6a6ec07e3780001ccd4d0","D2","batch4","tol_toboard","511","","","","","","","","","tol_peg_2","511","511","0","[[2,3,0],[1,0],[0]]","6","[[2,0,0],[1,3],[0]]","10","0","","","","","","6","","","","",""
"","","","","","single-stim-button","304","3229987","0.0-3.0-40.6-0.6","59f6a6ec07e3780001ccd4d0","D2","batch4","tol_tohand","410","","","","","","","","","tol_peg_1","410","410","0","[[2,0,0],[1,0],[0]]","7","[[2,0,0],[1,3],[0]]","10","0","","","","","","6","","","","",""
"","","","","","single-stim-button","305","3230395","0.0-3.0-40.6-1.6","59f6a6ec07e3780001ccd4d0","D2","batch4","tol_toboard","408","","","","","","","","","tol_peg_2","408","408","0","[[2,0,0],[1,3],[0]]","7","[[2,0,0],[1,3],[0]]","10","0","","","","","","6","","","","",""
"","","","","","poldrack-single-stim","306","3231396","0.0-3.0-41.0","59f6a6ec07e3780001ccd4d0","D2","batch4","tol_feedback","-1","","","","","true","","","","","1000","1000","500","","","","","","-1","none","true","7264","16369","","","","","",""
"","","","","","html-button-response","307","3234296","0.0-3.0-42.0","59f6a6ec07e3780001ccd4d0","D2","batch4","tol_trial_num","2899","<div class = centerbox><p class = center-block-text>problem <strong>12</strong> out of 25 problems</p></div>","0","","","","","","","","","","","","","","","","","","","","","","","","","",""
"","","","","","single-stim-button","308","3242955","0.0-3.0-43.0-0.0","59f6a6ec07e3780001ccd4d0","D2","batch4","tol_tohand","8658","","","","","","","","","tol_peg_1","8658","8658","0","[[1,0,0],[3,0],[0]]","1","[[2,3,0],[0,0],[1]]","11","0","","","","","","4","","","","",""
"","","","","","single-stim-button","309","3243516","0.0-3.0-43.0-1.0","59f6a6ec07e3780001ccd4d0","D2","batch4","tol_toboard","559","","","","","","","","","tol_peg_2","559","559","0","[[1,0,0],[3,2],[0]]","1","[[2,3,0],[0,0],[1]]","11","0","","","","","","4","","","","",""
"","","","","","single-stim-button","310","3244255","0.0-3.0-43.1-0.1","59f6a6ec07e3780001ccd4d0","D2","batch4","tol_tohand","739","","","","","","","","","tol_peg_1","739","739","0","[[0,0,0],[3,2],[0]]","2","[[2,3,0],[0,0],[1]]","11","0","","","","","","4","","","","",""
"","","","","","single-stim-button","311","3244861","0.0-3.0-43.1-1.1","59f6a6ec07e3780001ccd4d0","D2","batch4","tol_toboard","605","","","","","","","","","tol_peg_3","605","605","0","[[0,0,0],[3,2],[1]]","2","[[2,3,0],[0,0],[1]]","11","0","","","","","","4","","","","",""
"","","","","","single-stim-button","312","3245317","0.0-3.0-43.2-0.2","59f6a6ec07e3780001ccd4d0","D2","batch4","tol_tohand","454","","","","","","","","","tol_peg_2","454","454","0","[[0,0,0],[3,0],[1]]","3","[[2,3,0],[0,0],[1]]","11","0","","","","","","4","","","","",""
"","","","","","single-stim-button","313","3245901","0.0-3.0-43.2-1.2","59f6a6ec07e3780001ccd4d0","D2","batch4","tol_toboard","583","","","","","","","","","tol_peg_1","583","583","0","[[2,0,0],[3,0],[1]]","3","[[2,3,0],[0,0],[1]]","11","0","","","","","","4","","","","",""
"","","","","","single-stim-button","314","3246328","0.0-3.0-43.3-0.3","59f6a6ec07e3780001ccd4d0","D2","batch4","tol_tohand","426","","","","","","","","","tol_peg_2","426","426","0","[[2,0,0],[0,0],[1]]","4","[[2,3,0],[0,0],[1]]","11","0","","","","","","4","","","","",""
"","","","","","single-stim-button","315","3246965","0.0-3.0-43.3-1.3","59f6a6ec07e3780001ccd4d0","D2","batch4","tol_toboard","636","","","","","","","","","tol_peg_1","636","636","0","[[2,3,0],[0,0],[1]]","4","[[2,3,0],[0,0],[1]]","11","0","","","","","","4","","","","",""
"","","","","","poldrack-single-stim","316","3247966","0.0-3.0-44.0","59f6a6ec07e3780001ccd4d0","D2","batch4","tol_feedback","-1","","","","","true","","","","","1000","1000","500","","","","","","-1","none","true","8658","10277","","","","","",""
"","","","","","html-button-response","317","3248721","0.0-3.0-45.0","59f6a6ec07e3780001ccd4d0","D2","batch4","tol_trial_num","753.8000000119209","<div class = centerbox><p class = center-block-text>problem <strong>13</strong> out of 25 problems</p></div>","0","","","","","","","","","","","","","","","","","","","","","","","","","",""
"","","","","","single-stim-button","318","3251313","0.0-3.0-46.0-0.0","59f6a6ec07e3780001ccd4d0","D2","batch4","tol_tohand","2592","","","","","","","","","tol_peg_1","2592","2592","0","[[1,0,0],[3,0],[0]]","1","[[0,0,0],[2,3],[1]]","12","0","","","","","","4","","","","",""
"","","","","","single-stim-button","319","3251849","0.0-3.0-46.0-1.0","59f6a6ec07e3780001ccd4d0","D2","batch4","tol_toboard","535","","","","","","","","","tol_peg_2","535","535","0","[[1,0,0],[3,2],[0]]","1","[[0,0,0],[2,3],[1]]","12","0","","","","","","4","","","","",""
"","","","","","single-stim-button","320","3252353","0.0-3.0-46.1-0.1","59f6a6ec07e3780001ccd4d0","D2","batch4","tol_tohand","502","","","","","","","","","tol_peg_1","502","502","0","[[0,0,0],[3,2],[0]]","2","[[0,0,0],[2,3],[1]]","12","0","","","","","","4","","","","",""
"","","","","","single-stim-button","321","3252938","0.0-3.0-46.1-1.1","59f6a6ec07e3780001ccd4d0","D2","batch4","tol_toboard","584","","","","","","","","","tol_peg_3","584","584","0","[[0,0,0],[3,2],[1]]","2","[[0,0,0],[2,3],[1]]","12","0","","","","","","4","","","","",""
"","","","","","single-stim-button","322","3253685","0.0-3.0-46.2-0.2","59f6a6ec07e3780001ccd4d0","D2","batch4","tol_tohand","746","","","","","","","","","tol_peg_2","746","746","0","[[0,0,0],[3,0],[1]]","3","[[0,0,0],[2,3],[1]]","12","0","","","","","","4","","","","",""
"","","","","","single-stim-button","323","3255166","0.0-3.0-46.2-1.2","59f6a6ec07e3780001ccd4d0","D2","batch4","tol_toboard","1481","","","","","","","","","tol_peg_1","1481","1481","0","[[2,0,0],[3,0],[1]]","3","[[0,0,0],[2,3],[1]]","12","0","","","","","","4","","","","",""
"","","","","","single-stim-button","324","3256033","0.0-3.0-46.3-0.3","59f6a6ec07e3780001ccd4d0","D2","batch4","tol_tohand","867","","","","","","","","","tol_peg_2","867","867","0","[[2,0,0],[0,0],[1]]","4","[[0,0,0],[2,3],[1]]","12","0","","","","","","4","","","","",""
"","","","","","single-stim-button","325","3256481","0.0-3.0-46.3-1.3","59f6a6ec07e3780001ccd4d0","D2","batch4","tol_toboard","447","","","","","","","","","tol_peg_1","447","447","0","[[2,3,0],[0,0],[1]]","4","[[0,0,0],[2,3],[1]]","12","0","","","","","","4","","","","",""
"","","","","","single-stim-button","326","3257837","0.0-3.0-46.4-0.4","59f6a6ec07e3780001ccd4d0","D2","batch4","tol_tohand","1355","","","","","","","","","tol_peg_3","1355","1355","0","[[2,3,0],[0,0],[0]]","5","[[0,0,0],[2,3],[1]]","12","0","","","","","","4","","","","",""
"","","","","","single-stim-button","327","3259783","0.0-3.0-46.4-1.4","59f6a6ec07e3780001ccd4d0","D2","batch4","tol_toboard","1945","","","","","","","","","tol_peg_2","1945","1945","0","[[2,3,0],[1,0],[0]]","5","[[0,0,0],[2,3],[1]]","12","0","","","","","","4","","","","",""
"","","","","","single-stim-button","328","3260682","0.0-3.0-46.5-0.5","59f6a6ec07e3780001ccd4d0","D2","batch4","tol_tohand","898","","","","","","","","","tol_peg_1","898","898","0","[[2,0,0],[1,0],[0]]","6","[[0,0,0],[2,3],[1]]","12","0","","","","","","4","","","","",""
"","","","","","single-stim-button","329","3261343","0.0-3.0-46.5-1.5","59f6a6ec07e3780001ccd4d0","D2","batch4","tol_toboard","661","","","","","","","","","tol_peg_3","661","661","0","[[2,0,0],[1,0],[3]]","6","[[0,0,0],[2,3],[1]]","12","0","","","","","","4","","","","",""
"","","","","","single-stim-button","330","3265826","0.0-3.0-46.6-0.6","59f6a6ec07e3780001ccd4d0","D2","batch4","tol_tohand","4481","","","","","","","","","tol_peg_1","4481","4481","0","[[0,0,0],[1,0],[3]]","7","[[0,0,0],[2,3],[1]]","12","0","","","","","","4","","","","",""
"","","","","","single-stim-button","331","3266369","0.0-3.0-46.6-1.6","59f6a6ec07e3780001ccd4d0","D2","batch4","tol_toboard","542","","","","","","","","","tol_peg_2","542","542","0","[[0,0,0],[1,2],[3]]","7","[[0,0,0],[2,3],[1]]","12","0","","","","","","4","","","","",""
"","","","","","single-stim-button","332","3266780","0.0-3.0-46.7-0.7","59f6a6ec07e3780001ccd4d0","D2","batch4","tol_tohand","411","","","","","","","","","tol_peg_3","411","411","0","[[0,0,0],[1,2],[0]]","8","[[0,0,0],[2,3],[1]]","12","0","","","","","","4","","","","",""
"","","","","","single-stim-button","333","3267291","0.0-3.0-46.7-1.7","59f6a6ec07e3780001ccd4d0","D2","batch4","tol_toboard","510","","","","","","","","","tol_peg_1","510","510","0","[[3,0,0],[1,2],[0]]","8","[[0,0,0],[2,3],[1]]","12","0","","","","","","4","","","","",""
"","","","","","single-stim-button","334","3268259","0.0-3.0-46.8-0.8","59f6a6ec07e3780001ccd4d0","D2","batch4","tol_tohand","967","","","","","","","","","tol_peg_2","967","967","0","[[3,0,0],[1,0],[0]]","9","[[0,0,0],[2,3],[1]]","12","0","","","","","","4","","","","",""
"","","","","","single-stim-button","335","3270331","0.0-3.0-46.8-1.8","59f6a6ec07e3780001ccd4d0","D2","batch4","tol_toboard","2071","","","","","","","","","tol_peg_1","2071","2071","0","[[3,2,0],[1,0],[0]]","9","[[0,0,0],[2,3],[1]]","12","0","","","","","","4","","","","",""
"","","","","","single-stim-button","336","3270955","0.0-3.0-46.9-0.9","59f6a6ec07e3780001ccd4d0","D2","batch4","tol_tohand","623","","","","","","","","","tol_peg_2","623","623","0","[[3,2,0],[0,0],[0]]","10","[[0,0,0],[2,3],[1]]","12","0","","","","","","4","","","","",""
"","","","","","single-stim-button","337","3271333","0.0-3.0-46.9-1.9","59f6a6ec07e3780001ccd4d0","D2","batch4","tol_toboard","377","","","","","","","","","tol_peg_3","377","377","0","[[3,2,0],[0,0],[1]]","10","[[0,0,0],[2,3],[1]]","12","0","","","","","","4","","","","",""
"","","","","","single-stim-button","338","3272144","0.0-3.0-46.10-0.10","59f6a6ec07e3780001ccd4d0","D2","batch4","tol_tohand","810","","","","","","","","","tol_peg_1","810","810","0","[[3,0,0],[0,0],[1]]","11","[[0,0,0],[2,3],[1]]","12","0","","","","","","4","","","","",""
"","","","","","single-stim-button","339","3272773","0.0-3.0-46.10-1.10","59f6a6ec07e3780001ccd4d0","D2","batch4","tol_toboard","629","","","","","","","","","tol_peg_2","629","629","0","[[3,0,0],[2,0],[1]]","11","[[0,0,0],[2,3],[1]]","12","0","","","","","","4","","","","",""
"","","","","","single-stim-button","340","3273350","0.0-3.0-46.11-0.11","59f6a6ec07e3780001ccd4d0","D2","batch4","tol_tohand","575","","","","","","","","","tol_peg_1","575","575","0","[[0,0,0],[2,0],[1]]","12","[[0,0,0],[2,3],[1]]","12","0","","","","","","4","","","","",""
"","","","","","single-stim-button","341","3273703","0.0-3.0-46.11-1.11","59f6a6ec07e3780001ccd4d0","D2","batch4","tol_toboard","353","","","","","","","","","tol_peg_2","353","353","0","[[0,0,0],[2,3],[1]]","12","[[0,0,0],[2,3],[1]]","12","0","","","","","","4","","","","",""
"","","","","","poldrack-single-stim","342","3274705","0.0-3.0-47.0","59f6a6ec07e3780001ccd4d0","D2","batch4","tol_feedback","-1","","","","","true","","","","","1000","1000","500","","","","","","-1","none","true","2592","14827","","","","","",""
"","","","","","html-button-response","343","3286143","0.0-3.0-48.0","59f6a6ec07e3780001ccd4d0","D2","batch4","attention_check","11437.200000017881","<p class = block-text>How many balls are in your board<br></p>","1","","","true","","","","","","","","","","","","","","","","","","","","","","",""
"","","","","","html-button-response","344","3287655","0.0-3.0-49.0","59f6a6ec07e3780001ccd4d0","D2","batch4","tol_trial_num","1511","<div class = centerbox><p class = center-block-text>problem <strong>14</strong> out of 25 problems</p></div>","0","","","","","","","","","","","","","","","","","","","","","","","","","",""
"","","","","","single-stim-button","345","3299191","0.0-3.0-50.0-0.0","59f6a6ec07e3780001ccd4d0","D2","batch4","tol_tohand","11536","","","","","","","","","tol_peg_1","11536","11536","0","[[2,0,0],[3,0],[0]]","1","[[1,2,0],[3,0],[0]]","13","0","","","","","","4","","","","",""
"","","","","","single-stim-button","346","3299733","0.0-3.0-50.0-1.0","59f6a6ec07e3780001ccd4d0","D2","batch4","tol_toboard","541","","","","","","","","","tol_peg_2","541","541","0","[[2,0,0],[3,1],[0]]","1","[[1,2,0],[3,0],[0]]","13","0","","","","","","4","","","","",""
"","","","","","single-stim-button","347","3300333","0.0-3.0-50.1-0.1","59f6a6ec07e3780001ccd4d0","D2","batch4","tol_tohand","599","","","","","","","","","tol_peg_1","599","599","0","[[0,0,0],[3,1],[0]]","2","[[1,2,0],[3,0],[0]]","13","0","","","","","","4","","","","",""
"","","","","","single-stim-button","348","3301539","0.0-3.0-50.1-1.1","59f6a6ec07e3780001ccd4d0","D2","batch4","tol_toboard","1206","","","","","","","","","tol_peg_3","1206","1206","0","[[0,0,0],[3,1],[2]]","2","[[1,2,0],[3,0],[0]]","13","0","","","","","","4","","","","",""
"","","","","","single-stim-button","349","3302051","0.0-3.0-50.2-0.2","59f6a6ec07e3780001ccd4d0","D2","batch4","tol_tohand","511","","","","","","","","","tol_peg_2","511","511","0","[[0,0,0],[3,0],[2]]","3","[[1,2,0],[3,0],[0]]","13","0","","","","","","4","","","","",""
"","","","","","single-stim-button","350","3302689","0.0-3.0-50.2-1.2","59f6a6ec07e3780001ccd4d0","D2","batch4","tol_toboard","637","","","","","","","","","tol_peg_1","637","637","0","[[1,0,0],[3,0],[2]]","3","[[1,2,0],[3,0],[0]]","13","0","","","","","","4","","","","",""
"","","","","","single-stim-button","351","3303153","0.0-3.0-50.3-0.3","59f6a6ec07e3780001ccd4d0","D2","batch4","tol_tohand","464","","","","","","","","","tol_peg_3","464","464","0","[[1,0,0],[3,0],[0]]","4","[[1,2,0],[3,0],[0]]","13","0","","","","","","4","","","","",""
"","","","","","single-stim-button","352","3303753","0.0-3.0-50.3-1.3","59f6a6ec07e3780001ccd4d0","D2","batch4","tol_toboard","598","","","","","","","","","tol_peg_1","598","598","0","[[1,2,0],[3,0],[0]]","4","[[1,2,0],[3,0],[0]]","13","0","","","","","","4","","","","",""
"","","","","","poldrack-single-stim","353","3304754","0.0-3.0-51.0","59f6a6ec07e3780001ccd4d0","D2","batch4","tol_feedback","-1","","","","","true","","","","","1000","1000","500","","","","","","-1","none","true","11536","13110","","","","","",""
