"success","timeout","failed_images","failed_audio","failed_video","trial_type","trial_index","time_elapsed","internal_node_id","subject_id","study_id","session_id","view_history","rt","stimulus","response","task","correct","answer","item","fiar_detect_rt","fiar_detect_correct","total_correct_fiar_detect","post_trial_gap","choices","spm_correct","spm_rt","mouse_click","stim_duration","block_duration","timing_post_trial","current_position","tol_num_moves_made","tol_target","tol_problem_id","tol_rt","key_press","possible_responses","tol_correct","preplanning","tol_rt_per_trial","tol_min_moves"
"true","false","[]","[]","[]","preload","0","1115","0.0-0.0","5a08ddd0df3fa800015c36ac","A3","batch1","","","","","","","","","","","","","","","","","","","","","","","","","","","","","",""
"true","","","","","fullscreen","1","17606","0.0-1.0-0.0","5a08ddd0df3fa800015c36ac","A3","batch1","","","","","","","","","","","","","","","","","","","","","","","","","","","","","",""
"true","","","","","fullscreen","2","21264","0.0-2.0-0.0","5a08ddd0df3fa800015c36ac","A3","batch1","","","","","","","","","","","","","","","","","","","","","","","","","","","","","",""
"","","","","","instructions","3","40097","0.0-2.0-1.0-0.0","5a08ddd0df3fa800015c36ac","A3","batch1","[{""page_index"":0,""viewing_time"":14879.799999952316},{""page_index"":1,""viewing_time"":3952.300000190735}]","18832.200000047684","","","","","","","","","","","","","","","","","","","","","","","","","","","",""
"","","","","","html-button-response","4","41365","0.0-2.0-1.0-1.0-0.0","5a08ddd0df3fa800015c36ac","A3","batch1","","1267.5999999046326","<p class=block-text> Let's answer a few questions <br>","0","pattern_enter_quiz","","","","","","","","","","","","","","","","","","","","","","","","",""
"","","","","","html-button-response","5","43005","0.0-2.0-1.0-1.0-1.0","5a08ddd0df3fa800015c36ac","A3","batch1","","1639.2999999523163","<p class = block-text>True or False: You will have as much time as you want to make each choice. <br></p>","1","pattern_quiz","true","","","","","","","","","","","","","","","","","","","","","","","",""
"","","","","","html-button-response","6","44057","0.0-2.0-1.0-1.0-2.0","5a08ddd0df3fa800015c36ac","A3","batch1","","1051.5","<p class = block-text>Correct! You should make your choice <strong> as fast as you can</strong>.</p>","0","pattern_quiz_feedback","","","","","","","","","","","","","","","","","","","","","","","","",""
"","","","","","html-button-response","7","51990","0.0-2.0-1.0-1.0-3.0","5a08ddd0df3fa800015c36ac","A3","batch1","","7932.199999809265","<p class = block-text>True or False: You will look for 4 pieces in black or white color connected in a row either horizontally, vertically or diagonally. <br></p>","0","pattern_quiz","true","","","","","","","","","","","","","","","","","","","","","","","",""
"","","","","","html-button-response","8","53086","0.0-2.0-1.0-1.0-4.0","5a08ddd0df3fa800015c36ac","A3","batch1","","1095.5","<p class = block-text>Correct! </p>","0","pattern_quiz_feedback","","","","","","","","","","","","","","","","","","","","","","","","",""
"","","","","","html-button-response","9","56919","0.0-2.0-2.0","5a08ddd0df3fa800015c36ac","A3","batch1","","3831.5999999046326","<p class=block-text> Now that you've understood the game, let's do a few practice trials before we start!<br> <br>","0","pattern_enter_practice","","","","","","","","","","","","","","","","","","","","","","","","",""
"","","","","","image-keyboard-response","10","59179","0.0-2.0-3.0-0.0","5a08ddd0df3fa800015c36ac","A3","batch1","","2258.5","stim/prac_yes_18_hor_w1.png","f","pattern_practice","true","f","","","","","","","","","","","","","","","","","","","","","","",""
"","","","","","html-keyboard-response","11","60194","0.0-2.0-3.0-1.0","5a08ddd0df3fa800015c36ac","A3","batch1","","null","<p style=""font-size:30px;color:green;"">Correct!</p>","null","pattern_feedback","","","","","","","","","","","","","","","","","","","","","","","","",""
"","","","","","image-keyboard-response","12","61075","0.0-2.0-3.0-0.1","5a08ddd0df3fa800015c36ac","A3","batch1","","879.5999999046326","stim/prac_no_18_1.png","j","pattern_practice","true","j","","","","","","","","","","","","","","","","","","","","","","",""
"","","","","","html-keyboard-response","13","62097","0.0-2.0-3.0-1.1","5a08ddd0df3fa800015c36ac","A3","batch1","","null","<p style=""font-size:30px;color:green;"">Correct!</p>","null","pattern_feedback","","","","","","","","","","","","","","","","","","","","","","","","",""
"","","","","","image-keyboard-response","14","62891","0.0-2.0-3.0-0.2","5a08ddd0df3fa800015c36ac","A3","batch1","","793","stim/prac_yes_16_ver_w1.png","f","pattern_practice","true","f","","","","","","","","","","","","","","","","","","","","","","",""
"","","","","","html-keyboard-response","15","63912","0.0-2.0-3.0-1.2","5a08ddd0df3fa800015c36ac","A3","batch1","","null","<p style=""font-size:30px;color:green;"">Correct!</p>","null","pattern_feedback","","","","","","","","","","","","","","","","","","","","","","","","",""
"","","","","","image-keyboard-response","16","64771","0.0-2.0-3.0-0.3","5a08ddd0df3fa800015c36ac","A3","batch1","","859.0999999046326","stim/prac_yes_20_dia_b1.png","j","pattern_practice","false","f","","","","","","","","","","","","","","","","","","","","","","",""
"","","","","","html-keyboard-response","17","65786","0.0-2.0-3.0-1.3","5a08ddd0df3fa800015c36ac","A3","batch1","","null","<p style=""font-size:30px;color:red;"">Wrong.</p>","null","pattern_feedback","","","","","","","","","","","","","","","","","","","","","","","","",""
"","","","","","image-keyboard-response","18","67179","0.0-2.0-3.0-0.4","5a08ddd0df3fa800015c36ac","A3","batch1","","1392.6000001430511","stim/prac_no_16_1.png","j","pattern_practice","true","j","","","","","","","","","","","","","","","","","","","","","","",""
"","","","","","html-keyboard-response","19","68189","0.0-2.0-3.0-1.4","5a08ddd0df3fa800015c36ac","A3","batch1","","null","<p style=""font-size:30px;color:green;"">Correct!</p>","null","pattern_feedback","","","","","","","","","","","","","","","","","","","","","","","","",""
"","","","","","html-button-response","20","71840","0.0-2.0-4.0","5a08ddd0df3fa800015c36ac","A3","batch1","","3650.699999809265","<p class=block-text> Good job! You are done with practice trials!<br>
        You responded correctly on 80% of the trials.<br>
        Press the button below to start official trials. Now you won't see any feedback about your response</p>","0","pattern_enter_official_trials","","","","","","","","","","","","","","","","","","","","","","","","",""
"","","","","","html-keyboard-response","21","72647","0.0-2.0-5.0-0.0","5a08ddd0df3fa800015c36ac","A3","batch1","","null","<p class=block-text>Trial 1 out of 78</p>","null","pattern_show_trial_num","","","","","","","","","","","","","","","","","","","","","","","","",""
"","","","","","image-keyboard-response","22","73636","0.0-2.0-5.0-1.0","5a08ddd0df3fa800015c36ac","A3","batch1","","988.5","stim/yes_26_dia_w2_w.png","j","pattern_response","false","f","pattern_50","988.5","false","0","","","","","","","","","","","","","","","","","","",""
"","","","","","html-keyboard-response","23","74949","0.0-2.0-5.0-0.1","5a08ddd0df3fa800015c36ac","A3","batch1","","null","<p class=block-text>Trial 2 out of 78</p>","null","pattern_show_trial_num","","","","","","","","","","","","","","","","","","","","","","","","",""
"","","","","","image-keyboard-response","24","76949","0.0-2.0-5.0-1.1","5a08ddd0df3fa800015c36ac","A3","batch1","","1998.7000000476837","stim/no_43_2_b.png","j","pattern_response","true","j","pattern_23","1998.7000000476837","true","1","","","","","","","","","","","","","","","","","","",""
"","","","","","html-keyboard-response","25","78255","0.0-2.0-5.0-0.2","5a08ddd0df3fa800015c36ac","A3","batch1","","null","<p class=block-text>Trial 3 out of 78</p>","null","pattern_show_trial_num","","","","","","","","","","","","","","","","","","","","","","","","",""
"","","","","","image-keyboard-response","26","79421","0.0-2.0-5.0-1.2","5a08ddd0df3fa800015c36ac","A3","batch1","","1165.5999999046326","stim/yes_15_dia_b1u_b.png","f","pattern_response","true","f","pattern_44","1165.5999999046326","true","2","","","","","","","","","","","","","","","","","","",""
"","","","","","html-keyboard-response","27","80731","0.0-2.0-5.0-0.3","5a08ddd0df3fa800015c36ac","A3","batch1","","null","<p class=block-text>Trial 4 out of 78</p>","null","pattern_show_trial_num","","","","","","","","","","","","","","","","","","","","","","","","",""
"","","","","","image-keyboard-response","28","81349","0.0-2.0-5.0-1.3","5a08ddd0df3fa800015c36ac","A3","batch1","","617.4000000953674","stim/yes_12_hor_w1_w.png","f","pattern_response","true","f","pattern_42","617.4000000953674","true","3","","","","","","","","","","","","","","","","","","",""
"","","","","","html-keyboard-response","29","82677","0.0-2.0-5.0-0.4","5a08ddd0df3fa800015c36ac","A3","batch1","","null","<p class=block-text>Trial 5 out of 78</p>","null","pattern_show_trial_num","","","","","","","","","","","","","","","","","","","","","","","","",""
"","","","","","image-keyboard-response","30","84286","0.0-2.0-5.0-1.4","5a08ddd0df3fa800015c36ac","A3","batch1","","1608","stim/yes_42_dia_w1_w.png","j","pattern_response","false","f","pattern_64","1608","false","3","","","","","","","","","","","","","","","","","","",""
"","","","","","html-keyboard-response","31","85596","0.0-2.0-5.0-0.5","5a08ddd0df3fa800015c36ac","A3","batch1","","null","<p class=block-text>Trial 6 out of 78</p>","null","pattern_show_trial_num","","","","","","","","","","","","","","","","","","","","","","","","",""
"","","","","","image-keyboard-response","32","86766","0.0-2.0-5.0-1.5","5a08ddd0df3fa800015c36ac","A3","batch1","","1168.5","stim/no_39_1_w.png","j","pattern_response","true","j","pattern_21","1168.5","true","4","","","","","","","","","","","","","","","","","","",""
"","","","","","html-keyboard-response","33","88082","0.0-2.0-5.0-0.6","5a08ddd0df3fa800015c36ac","A3","batch1","","null","<p class=block-text>Trial 7 out of 78</p>","null","pattern_show_trial_num","","","","","","","","","","","","","","","","","","","","","","","","",""
"","","","","","image-keyboard-response","34","89918","0.0-2.0-5.0-1.6","5a08ddd0df3fa800015c36ac","A3","batch1","","1835.0999999046326","stim/yes_58_dia_w1_w.png","j","pattern_response","false","f","pattern_76","1835.0999999046326","false","4","","","","","","","","","","","","","","","","","","",""
"","","","","","html-keyboard-response","35","91242","0.0-2.0-5.0-0.7","5a08ddd0df3fa800015c36ac","A3","batch1","","null","<p class=block-text>Trial 8 out of 78</p>","null","pattern_show_trial_num","","","","","","","","","","","","","","","","","","","","","","","","",""
"","","","","","image-keyboard-response","36","92022","0.0-2.0-5.0-1.7","5a08ddd0df3fa800015c36ac","A3","batch1","","778.9000000953674","stim/yes_39_hor_w1_w.png","f","pattern_response","true","f","pattern_62","778.9000000953674","true","5","","","","","","","","","","","","","","","","","","",""
"","","","","","html-keyboard-response","37","93349","0.0-2.0-5.0-0.8","5a08ddd0df3fa800015c36ac","A3","batch1","","null","<p class=block-text>Trial 9 out of 78</p>","null","pattern_show_trial_num","","","","","","","","","","","","","","","","","","","","","","","","",""
"","","","","","image-keyboard-response","38","94959","0.0-2.0-5.0-1.8","5a08ddd0df3fa800015c36ac","A3","batch1","","1608.7000000476837","stim/yes_30_ver_b1_b.png","f","pattern_response","true","f","pattern_54","1608.7000000476837","true","6","","","","","","","","","","","","","","","","","","",""
"","","","","","html-keyboard-response","39","96262","0.0-2.0-5.0-0.9","5a08ddd0df3fa800015c36ac","A3","batch1","","null","<p class=block-text>Trial 10 out of 78</p>","null","pattern_show_trial_num","","","","","","","","","","","","","","","","","","","","","","","","",""
"","","","","","image-keyboard-response","40","97311","0.0-2.0-5.0-1.9","5a08ddd0df3fa800015c36ac","A3","batch1","","1048","stim/yes_44_ver_w1_w.png","f","pattern_response","true","f","pattern_66","1048","true","7","","","","","","","","","","","","","","","","","","",""
"","","","","","html-keyboard-response","41","98621","0.0-2.0-5.0-0.10","5a08ddd0df3fa800015c36ac","A3","batch1","","null","<p class=block-text>Trial 11 out of 78</p>","null","pattern_show_trial_num","","","","","","","","","","","","","","","","","","","","","","","","",""
"","","","","","image-keyboard-response","42","100175","0.0-2.0-5.0-1.10","5a08ddd0df3fa800015c36ac","A3","batch1","","1553.7000000476837","stim/no_37_2_w.png","j","pattern_response","true","j","pattern_19","1553.7000000476837","true","8","","","","","","","","","","","","","","","","","","",""
"","","","","","html-keyboard-response","43","101496","0.0-2.0-5.0-0.11","5a08ddd0df3fa800015c36ac","A3","batch1","","null","<p class=block-text>Trial 12 out of 78</p>","null","pattern_show_trial_num","","","","","","","","","","","","","","","","","","","","","","","","",""
"","","","","","image-keyboard-response","44","102527","0.0-2.0-5.0-1.11","5a08ddd0df3fa800015c36ac","A3","batch1","","1029.7000000476837","stim/no_45_1_w.png","j","pattern_response","true","j","pattern_25","1029.7000000476837","true","9","","","","","","","","","","","","","","","","","","",""
"","","","","","html-keyboard-response","45","103834","0.0-2.0-5.0-0.12","5a08ddd0df3fa800015c36ac","A3","batch1","","null","<p class=block-text>Trial 13 out of 78</p>","null","pattern_show_trial_num","","","","","","","","","","","","","","","","","","","","","","","","",""
"","","","","","image-keyboard-response","46","104855","0.0-2.0-5.0-1.12","5a08ddd0df3fa800015c36ac","A3","batch1","","1020.6000001430511","stim/no_12_1.png","j","pattern_response","true","j","pattern_01","1020.6000001430511","true","10","","","","","","","","","","","","","","","","","","",""
"","","","","","html-keyboard-response","47","106160","0.0-2.0-5.0-0.13","5a08ddd0df3fa800015c36ac","A3","batch1","","null","<p class=block-text>Trial 14 out of 78</p>","null","pattern_show_trial_num","","","","","","","","","","","","","","","","","","","","","","","","",""
"","","","","","image-keyboard-response","48","107344","0.0-2.0-5.0-1.13","5a08ddd0df3fa800015c36ac","A3","batch1","","1183.5999999046326","stim/yes_53_ver_b1_b.png","f","pattern_response","true","f","pattern_74","1183.5999999046326","true","11","","","","","","","","","","","","","","","","","","",""
"","","","","","html-keyboard-response","49","108652","0.0-2.0-5.0-0.14","5a08ddd0df3fa800015c36ac","A3","batch1","","null","<p class=block-text>Trial 15 out of 78</p>","null","pattern_show_trial_num","","","","","","","","","","","","","","","","","","","","","","","","",""
"","","","","","image-keyboard-response","50","110080","0.0-2.0-5.0-1.14","5a08ddd0df3fa800015c36ac","A3","batch1","","1427","stim/no_49_2_b.png","j","pattern_response","true","j","pattern_29","1427","true","12","","","","","","","","","","","","","","","","","","",""
"","","","","","html-keyboard-response","51","111402","0.0-2.0-5.0-0.15","5a08ddd0df3fa800015c36ac","A3","batch1","","null","<p class=block-text>Trial 16 out of 78</p>","null","pattern_show_trial_num","","","","","","","","","","","","","","","","","","","","","","","","",""
"","","","","","image-keyboard-response","52","112496","0.0-2.0-5.0-1.15","5a08ddd0df3fa800015c36ac","A3","batch1","","1093.6000001430511","stim/no_53_1_b.png","j","pattern_response","true","j","pattern_33","1093.6000001430511","true","13","","","","","","","","","","","","","","","","","","",""
"","","","","","html-keyboard-response","53","113799","0.0-2.0-5.0-0.16","5a08ddd0df3fa800015c36ac","A3","batch1","","null","<p class=block-text>Trial 17 out of 78</p>","null","pattern_show_trial_num","","","","","","","","","","","","","","","","","","","","","","","","",""
"","","","","","image-keyboard-response","54","115016","0.0-2.0-5.0-1.16","5a08ddd0df3fa800015c36ac","A3","batch1","","1216.6000001430511","stim/no_28_2.png","j","pattern_response","true","j","pattern_11","1216.6000001430511","true","14","","","","","","","","","","","","","","","","","","",""
"","","","","","html-keyboard-response","55","116323","0.0-2.0-5.0-0.17","5a08ddd0df3fa800015c36ac","A3","batch1","","null","<p class=block-text>Trial 18 out of 78</p>","null","pattern_show_trial_num","","","","","","","","","","","","","","","","","","","","","","","","",""
"","","","","","image-keyboard-response","56","117705","0.0-2.0-5.0-1.17","5a08ddd0df3fa800015c36ac","A3","batch1","","1380.9000000953674","stim/yes_33_dia_w1_w.png","j","pattern_response","false","f","pattern_56","1380.9000000953674","false","14","","","","","","","","","","","","","","","","","","",""
"","","","","","html-keyboard-response","57","119022","0.0-2.0-5.0-0.18","5a08ddd0df3fa800015c36ac","A3","batch1","","null","<p class=block-text>Trial 19 out of 78</p>","null","pattern_show_trial_num","","","","","","","","","","","","","","","","","","","","","","","","",""
"","","","","","image-keyboard-response","58","119745","0.0-2.0-5.0-1.18","5a08ddd0df3fa800015c36ac","A3","batch1","","722.4000000953674","stim/yes_17_ver_b1_b.png","f","pattern_response","true","f","pattern_46","722.4000000953674","true","15","","","","","","","","","","","","","","","","","","",""
"","","","","","html-keyboard-response","59","121066","0.0-2.0-5.0-0.19","5a08ddd0df3fa800015c36ac","A3","batch1","","null","<p class=block-text>Trial 20 out of 78</p>","null","pattern_show_trial_num","","","","","","","","","","","","","","","","","","","","","","","","",""
"","","","","","image-keyboard-response","60","122817","0.0-2.0-5.0-1.19","5a08ddd0df3fa800015c36ac","A3","batch1","","1750.2999999523163","stim/no_51_1.png","j","pattern_response","true","j","pattern_31","1750.2999999523163","true","16","","","","","","","","","","","","","","","","","","",""
"","","","","","html-keyboard-response","61","124144","0.0-2.0-5.0-0.20","5a08ddd0df3fa800015c36ac","A3","batch1","","null","<p class=block-text>Trial 21 out of 78</p>","null","pattern_show_trial_num","","","","","","","","","","","","","","","","","","","","","","","","",""
"","","","","","image-keyboard-response","62","124882","0.0-2.0-5.0-1.20","5a08ddd0df3fa800015c36ac","A3","batch1","","736.6000001430511","stim/yes_70_ver_b1.png","f","pattern_response","true","f","pattern_80","736.6000001430511","true","17","","","","","","","","","","","","","","","","","","",""
"","","","","","html-keyboard-response","63","126206","0.0-2.0-5.0-0.21","5a08ddd0df3fa800015c36ac","A3","batch1","","null","<p class=block-text>Trial 22 out of 78</p>","null","pattern_show_trial_num","","","","","","","","","","","","","","","","","","","","","","","","",""
"","","","","","image-keyboard-response","64","127514","0.0-2.0-5.0-1.21","5a08ddd0df3fa800015c36ac","A3","batch1","","1307.0999999046326","stim/no_22_1_b.png","j","pattern_response","true","j","pattern_07","1307.0999999046326","true","18","","","","","","","","","","","","","","","","","","",""
"","","","","","html-keyboard-response","65","128819","0.0-2.0-5.0-0.22","5a08ddd0df3fa800015c36ac","A3","batch1","","null","<p class=block-text>Trial 23 out of 78</p>","null","pattern_show_trial_num","","","","","","","","","","","","","","","","","","","","","","","","",""
"","","","","","image-keyboard-response","66","131282","0.0-2.0-5.0-1.22","5a08ddd0df3fa800015c36ac","A3","batch1","","2462.5999999046326","stim/no_58_1_w.png","j","pattern_response","true","j","pattern_35","2462.5999999046326","true","19","","","","","","","","","","","","","","","","","","",""
"","","","","","html-keyboard-response","67","132591","0.0-2.0-5.0-0.23","5a08ddd0df3fa800015c36ac","A3","batch1","","null","<p class=block-text>Trial 24 out of 78</p>","null","pattern_show_trial_num","","","","","","","","","","","","","","","","","","","","","","","","",""
"","","","","","image-keyboard-response","68","133410","0.0-2.0-5.0-1.23","5a08ddd0df3fa800015c36ac","A3","batch1","","818.5","stim/yes_37_hor_w1_w.png","f","pattern_response","true","f","pattern_60","818.5","true","20","","","","","","","","","","","","","","","","","","",""
"","","","","","html-keyboard-response","69","134725","0.0-2.0-5.0-0.24","5a08ddd0df3fa800015c36ac","A3","batch1","","null","<p class=block-text>Trial 25 out of 78</p>","null","pattern_show_trial_num","","","","","","","","","","","","","","","","","","","","","","","","",""
"","","","","","image-keyboard-response","70","135626","0.0-2.0-5.0-1.24","5a08ddd0df3fa800015c36ac","A3","batch1","","900.5","stim/yes_46_ver_b1_b.png","f","pattern_response","true","f","pattern_68","900.5","true","21","","","","","","","","","","","","","","","","","","",""
"","","","","","html-keyboard-response","71","136944","0.0-2.0-5.0-0.25","5a08ddd0df3fa800015c36ac","A3","batch1","","null","<p class=block-text>Trial 26 out of 78</p>","null","pattern_show_trial_num","","","","","","","","","","","","","","","","","","","","","","","","",""
"","","","","","image-keyboard-response","72","137627","0.0-2.0-5.0-1.25","5a08ddd0df3fa800015c36ac","A3","batch1","","681.8999998569489","stim/yes_23_ver_b1.png","f","pattern_response","true","f","pattern_48","681.8999998569489","true","22","","","","","","","","","","","","","","","","","","",""
"","","","","","html-keyboard-response","73","138933","0.0-2.0-5.0-0.26","5a08ddd0df3fa800015c36ac","A3","batch1","","null","<p class=block-text>Trial 27 out of 78</p>","null","pattern_show_trial_num","","","","","","","","","","","","","","","","","","","","","","","","",""
"","","","","","image-keyboard-response","74","139595","0.0-2.0-5.0-1.26","5a08ddd0df3fa800015c36ac","A3","batch1","","661.7000000476837","stim/yes_29_hor_b1_b.png","f","pattern_response","true","f","pattern_52","661.7000000476837","true","23","","","","","","","","","","","","","","","","","","",""
"","","","","","html-keyboard-response","75","140916","0.0-2.0-5.0-0.27","5a08ddd0df3fa800015c36ac","A3","batch1","","null","<p class=block-text>Trial 28 out of 78</p>","null","pattern_show_trial_num","","","","","","","","","","","","","","","","","","","","","","","","",""
"","","","","","image-keyboard-response","76","141547","0.0-2.0-5.0-1.27","5a08ddd0df3fa800015c36ac","A3","batch1","","630.1000001430511","stim/no_15_1_w.png","j","pattern_response","true","j","pattern_03","630.1000001430511","true","24","","","","","","","","","","","","","","","","","","",""
"","","","","","html-keyboard-response","77","142871","0.0-2.0-5.0-0.28","5a08ddd0df3fa800015c36ac","A3","batch1","","null","<p class=block-text>Trial 29 out of 78</p>","null","pattern_show_trial_num","","","","","","","","","","","","","","","","","","","","","","","","",""
"","","","","","image-keyboard-response","78","145212","0.0-2.0-5.0-1.28","5a08ddd0df3fa800015c36ac","A3","batch1","","2339.699999809265","stim/no_36_1_b.png","j","pattern_response","true","j","pattern_17","2339.699999809265","true","25","","","","","","","","","","","","","","","","","","",""
"","","","","","html-keyboard-response","79","146517","0.0-2.0-5.0-0.29","5a08ddd0df3fa800015c36ac","A3","batch1","","null","<p class=block-text>Trial 30 out of 78</p>","null","pattern_show_trial_num","","","","","","","","","","","","","","","","","","","","","","","","",""
"","","","","","image-keyboard-response","80","147900","0.0-2.0-5.0-1.29","5a08ddd0df3fa800015c36ac","A3","batch1","","1381.7000000476837","stim/no_30_1_b.png","j","pattern_response","true","j","pattern_13","1381.7000000476837","true","26","","","","","","","","","","","","","","","","","","",""
"","","","","","html-keyboard-response","81","149209","0.0-2.0-5.0-0.30","5a08ddd0df3fa800015c36ac","A3","batch1","","null","<p class=block-text>Trial 31 out of 78</p>","null","pattern_show_trial_num","","","","","","","","","","","","","","","","","","","","","","","","",""
"","","","","","image-keyboard-response","82","151108","0.0-2.0-5.0-1.30","5a08ddd0df3fa800015c36ac","A3","batch1","","1897.5999999046326","stim/yes_51_dia_b1.png","j","pattern_response","false","f","pattern_72","1897.5999999046326","false","26","","","","","","","","","","","","","","","","","","",""
"","","","","","html-keyboard-response","83","152409","0.0-2.0-5.0-0.31","5a08ddd0df3fa800015c36ac","A3","batch1","","null","<p class=block-text>Trial 32 out of 78</p>","null","pattern_show_trial_num","","","","","","","","","","","","","","","","","","","","","","","","",""
"","","","","","image-keyboard-response","84","154533","0.0-2.0-5.0-1.31","5a08ddd0df3fa800015c36ac","A3","batch1","","2122.5999999046326","stim/no_67_1.png","j","pattern_response","true","j","pattern_39","2122.5999999046326","true","27","","","","","","","","","","","","","","","","","","",""
"","","","","","html-keyboard-response","85","155864","0.0-2.0-5.0-0.32","5a08ddd0df3fa800015c36ac","A3","batch1","","null","<p class=block-text>Trial 33 out of 78</p>","null","pattern_show_trial_num","","","","","","","","","","","","","","","","","","","","","","","","",""
"","","","","","image-keyboard-response","86","157341","0.0-2.0-5.0-1.32","5a08ddd0df3fa800015c36ac","A3","batch1","","1476.2999999523163","stim/no_33_1_b.png","j","pattern_response","true","j","pattern_15","1476.2999999523163","true","28","","","","","","","","","","","","","","","","","","",""
"","","","","","html-keyboard-response","87","158646","0.0-2.0-5.0-0.33","5a08ddd0df3fa800015c36ac","A3","batch1","","null","<p class=block-text>Trial 34 out of 78</p>","null","pattern_show_trial_num","","","","","","","","","","","","","","","","","","","","","","","","",""
"","","","","","image-keyboard-response","88","159477","0.0-2.0-5.0-1.33","5a08ddd0df3fa800015c36ac","A3","batch1","","830.0999999046326","stim/yes_36_ver_w1_w.png","f","pattern_response","true","f","pattern_58","830.0999999046326","true","29","","","","","","","","","","","","","","","","","","",""
"","","","","","html-keyboard-response","89","160780","0.0-2.0-5.0-0.34","5a08ddd0df3fa800015c36ac","A3","batch1","","null","<p class=block-text>Trial 35 out of 78</p>","null","pattern_show_trial_num","","","","","","","","","","","","","","","","","","","","","","","","",""
"","","","","","image-keyboard-response","90","162637","0.0-2.0-5.0-1.34","5a08ddd0df3fa800015c36ac","A3","batch1","","1856.4000000953674","stim/yes_63_dia_b1.png","f","pattern_response","true","f","pattern_78","1856.4000000953674","true","30","","","","","","","","","","","","","","","","","","",""
"","","","","","html-keyboard-response","91","163946","0.0-2.0-5.0-0.35","5a08ddd0df3fa800015c36ac","A3","batch1","","null","<p class=block-text>Trial 36 out of 78</p>","null","pattern_show_trial_num","","","","","","","","","","","","","","","","","","","","","","","","",""
"","","","","","image-keyboard-response","92","165318","0.0-2.0-5.0-1.35","5a08ddd0df3fa800015c36ac","A3","batch1","","1370.5","stim/no_25_1_b.png","j","pattern_response","true","j","pattern_09","1370.5","true","31","","","","","","","","","","","","","","","","","","",""
"","","","","","html-keyboard-response","93","166635","0.0-2.0-5.0-0.36","5a08ddd0df3fa800015c36ac","A3","batch1","","null","<p class=block-text>Trial 37 out of 78</p>","null","pattern_show_trial_num","","","","","","","","","","","","","","","","","","","","","","","","",""
"","","","","","image-keyboard-response","94","167926","0.0-2.0-5.0-1.36","5a08ddd0df3fa800015c36ac","A3","batch1","","1290.6000001430511","stim/no_47_1_b.png","j","pattern_response","true","j","pattern_27","1290.6000001430511","true","32","","","","","","","","","","","","","","","","","","",""
"","","","","","html-keyboard-response","95","169247","0.0-2.0-5.0-0.37","5a08ddd0df3fa800015c36ac","A3","batch1","","null","<p class=block-text>Trial 38 out of 78</p>","null","pattern_show_trial_num","","","","","","","","","","","","","","","","","","","","","","","","",""
"","","","","","image-keyboard-response","96","170294","0.0-2.0-5.0-1.37","5a08ddd0df3fa800015c36ac","A3","batch1","","1046.0999999046326","stim/yes_49_hor_w1_b.png","f","pattern_response","true","f","pattern_70","1046.0999999046326","true","33","","","","","","","","","","","","","","","","","","",""
"","","","","","html-keyboard-response","97","171613","0.0-2.0-5.0-0.38","5a08ddd0df3fa800015c36ac","A3","batch1","","null","<p class=block-text>Trial 39 out of 78</p>","null","pattern_show_trial_num","","","","","","","","","","","","","","","","","","","","","","","","",""
"","","","","","image-keyboard-response","98","172398","0.0-2.0-5.0-1.38","5a08ddd0df3fa800015c36ac","A3","batch1","","784.2000000476837","stim/no_18_1_b.png","j","pattern_response","true","j","pattern_05","784.2000000476837","true","34","","","","","","","","","","","","","","","","","","",""
"","","","","","image-keyboard-response","99","174767","0.0-2.0-6.0","5a08ddd0df3fa800015c36ac","A3","batch1","","1856.9000000953674","stim/empty_board.png","j","attention_check","true","j","","","","","500","[""f"",""j""]","","","","","","","","","","","","","","","","",""
"","","","","","html-keyboard-response","100","175577","0.0-2.0-7.0-0.0","5a08ddd0df3fa800015c36ac","A3","batch1","","null","<p class=block-text>Trial 40 out of 78</p>","null","pattern_show_trial_num","","","","","","","","","","","","","","","","","","","","","","","","",""
"","","","","","image-keyboard-response","101","177879","0.0-2.0-7.0-1.0","5a08ddd0df3fa800015c36ac","A3","batch1","","2298.2000000476837","stim/no_52_1.png","j","pattern_response","true","j","pattern_32","2298.2000000476837","true","35","","","","","","","","","","","","","","","","","","",""
"","","","","","html-keyboard-response","102","179191","0.0-2.0-7.0-0.1","5a08ddd0df3fa800015c36ac","A3","batch1","","null","<p class=block-text>Trial 41 out of 78</p>","null","pattern_show_trial_num","","","","","","","","","","","","","","","","","","","","","","","","",""
"","","","","","image-keyboard-response","103","179983","0.0-2.0-7.0-1.1","5a08ddd0df3fa800015c36ac","A3","batch1","","791.5999999046326","stim/yes_22_ver_w1.png","f","pattern_response","true","f","pattern_47","791.5999999046326","true","36","","","","","","","","","","","","","","","","","","",""
"","","","","","html-keyboard-response","104","181309","0.0-2.0-7.0-0.2","5a08ddd0df3fa800015c36ac","A3","batch1","","null","<p class=block-text>Trial 42 out of 78</p>","null","pattern_show_trial_num","","","","","","","","","","","","","","","","","","","","","","","","",""
"","","","","","image-keyboard-response","105","181967","0.0-2.0-7.0-1.2","5a08ddd0df3fa800015c36ac","A3","batch1","","657.4000000953674","stim/yes_17_dia_w1.png","f","pattern_response","true","f","pattern_45","657.4000000953674","true","37","","","","","","","","","","","","","","","","","","",""
"","","","","","html-keyboard-response","106","183276","0.0-2.0-7.0-0.3","5a08ddd0df3fa800015c36ac","A3","batch1","","null","<p class=block-text>Trial 43 out of 78</p>","null","pattern_show_trial_num","","","","","","","","","","","","","","","","","","","","","","","","",""
"","","","","","image-keyboard-response","107","184671","0.0-2.0-7.0-1.3","5a08ddd0df3fa800015c36ac","A3","batch1","","1394","stim/no_29_1_b.png","j","pattern_response","true","j","pattern_12","1394","true","38","","","","","","","","","","","","","","","","","","",""
"","","","","","html-keyboard-response","108","185996","0.0-2.0-7.0-0.4","5a08ddd0df3fa800015c36ac","A3","batch1","","null","<p class=block-text>Trial 44 out of 78</p>","null","pattern_show_trial_num","","","","","","","","","","","","","","","","","","","","","","","","",""
"","","","","","image-keyboard-response","109","187184","0.0-2.0-7.0-1.4","5a08ddd0df3fa800015c36ac","A3","batch1","","1186.5","stim/yes_35_dia_b1.png","j","pattern_response","false","f","pattern_57","1186.5","false","38","","","","","","","","","","","","","","","","","","",""
"","","","","","html-keyboard-response","110","188495","0.0-2.0-7.0-0.5","5a08ddd0df3fa800015c36ac","A3","batch1","","null","<p class=block-text>Trial 45 out of 78</p>","null","pattern_show_trial_num","","","","","","","","","","","","","","","","","","","","","","","","",""
"","","","","","image-keyboard-response","111","190432","0.0-2.0-7.0-1.5","5a08ddd0df3fa800015c36ac","A3","batch1","","1935.7000000476837","stim/no_65_1_b.png","f","pattern_response","false","j","pattern_38","1935.7000000476837","false","38","","","","","","","","","","","","","","","","","","",""
"","","","","","html-keyboard-response","112","191757","0.0-2.0-7.0-0.6","5a08ddd0df3fa800015c36ac","A3","batch1","","null","<p class=block-text>Trial 46 out of 78</p>","null","pattern_show_trial_num","","","","","","","","","","","","","","","","","","","","","","","","",""
"","","","","","image-keyboard-response","113","192568","0.0-2.0-7.0-1.6","5a08ddd0df3fa800015c36ac","A3","batch1","","810.2000000476837","stim/no_23_1.png","j","pattern_response","true","j","pattern_08","810.2000000476837","true","39","","","","","","","","","","","","","","","","","","",""
"","","","","","html-keyboard-response","114","193882","0.0-2.0-7.0-0.7","5a08ddd0df3fa800015c36ac","A3","batch1","","null","<p class=block-text>Trial 47 out of 78</p>","null","pattern_show_trial_num","","","","","","","","","","","","","","","","","","","","","","","","",""
"","","","","","image-keyboard-response","115","195160","0.0-2.0-7.0-1.7","5a08ddd0df3fa800015c36ac","A3","batch1","","1278.0999999046326","stim/yes_40_dia_b1_b.png","j","pattern_response","false","f","pattern_63","1278.0999999046326","false","39","","","","","","","","","","","","","","","","","","",""
"","","","","","html-keyboard-response","116","196469","0.0-2.0-7.0-0.8","5a08ddd0df3fa800015c36ac","A3","batch1","","null","<p class=block-text>Trial 48 out of 78</p>","null","pattern_show_trial_num","","","","","","","","","","","","","","","","","","","","","","","","",""
"","","","","","image-keyboard-response","117","197265","0.0-2.0-7.0-1.8","5a08ddd0df3fa800015c36ac","A3","batch1","","794.4000000953674","stim/no_13_2_b.png","j","pattern_response","true","j","pattern_02","794.4000000953674","true","40","","","","","","","","","","","","","","","","","","",""
"","","","","","html-keyboard-response","118","198581","0.0-2.0-7.0-0.9","5a08ddd0df3fa800015c36ac","A3","batch1","","null","<p class=block-text>Trial 49 out of 78</p>","null","pattern_show_trial_num","","","","","","","","","","","","","","","","","","","","","","","","",""
"","","","","","image-keyboard-response","119","199377","0.0-2.0-7.0-1.9","5a08ddd0df3fa800015c36ac","A3","batch1","","794.6000001430511","stim/yes_43_ver_w1_w.png","f","pattern_response","true","f","pattern_65","794.6000001430511","true","41","","","","","","","","","","","","","","","","","","",""
"","","","","","html-keyboard-response","120","200686","0.0-2.0-7.0-0.10","5a08ddd0df3fa800015c36ac","A3","batch1","","null","<p class=block-text>Trial 50 out of 78</p>","null","pattern_show_trial_num","","","","","","","","","","","","","","","","","","","","","","","","",""
"","","","","","image-keyboard-response","121","202833","0.0-2.0-7.0-1.10","5a08ddd0df3fa800015c36ac","A3","batch1","","2146.2999999523163","stim/no_62_1_w.png","j","pattern_response","true","j","pattern_36","2146.2999999523163","true","42","","","","","","","","","","","","","","","","","","",""
"","","","","","html-keyboard-response","122","204148","0.0-2.0-7.0-0.11","5a08ddd0df3fa800015c36ac","A3","batch1","","null","<p class=block-text>Trial 51 out of 78</p>","null","pattern_show_trial_num","","","","","","","","","","","","","","","","","","","","","","","","",""
"","","","","","image-keyboard-response","123","205594","0.0-2.0-7.0-1.11","5a08ddd0df3fa800015c36ac","A3","batch1","","1444.7999999523163","stim/yes_45_hor_b2_b.png","j","pattern_response","false","f","pattern_67","1444.7999999523163","false","42","","","","","","","","","","","","","","","","","","",""
"","","","","","html-keyboard-response","124","206897","0.0-2.0-7.0-0.12","5a08ddd0df3fa800015c36ac","A3","batch1","","null","<p class=block-text>Trial 52 out of 78</p>","null","pattern_show_trial_num","","","","","","","","","","","","","","","","","","","","","","","","",""
"","","","","","image-keyboard-response","125","207650","0.0-2.0-7.0-1.12","5a08ddd0df3fa800015c36ac","A3","batch1","","751.7000000476837","stim/yes_14_hor_b1_w.png","f","pattern_response","true","f","pattern_43","751.7000000476837","true","43","","","","","","","","","","","","","","","","","","",""
"","","","","","html-keyboard-response","126","208958","0.0-2.0-7.0-0.13","5a08ddd0df3fa800015c36ac","A3","batch1","","null","<p class=block-text>Trial 53 out of 78</p>","null","pattern_show_trial_num","","","","","","","","","","","","","","","","","","","","","","","","",""
"","","","","","image-keyboard-response","127","210722","0.0-2.0-7.0-1.13","5a08ddd0df3fa800015c36ac","A3","batch1","","1763.2000000476837","stim/yes_50_dia_w1.png","j","pattern_response","false","f","pattern_71","1763.2000000476837","false","43","","","","","","","","","","","","","","","","","","",""
"","","","","","html-keyboard-response","128","212045","0.0-2.0-7.0-0.14","5a08ddd0df3fa800015c36ac","A3","batch1","","null","<p class=block-text>Trial 54 out of 78</p>","null","pattern_show_trial_num","","","","","","","","","","","","","","","","","","","","","","","","",""
"","","","","","image-keyboard-response","129","213226","0.0-2.0-7.0-1.14","5a08ddd0df3fa800015c36ac","A3","batch1","","1180.9000000953674","stim/no_48_1_w.png","j","pattern_response","true","j","pattern_28","1180.9000000953674","true","44","","","","","","","","","","","","","","","","","","",""
"","","","","","html-keyboard-response","130","214535","0.0-2.0-7.0-0.15","5a08ddd0df3fa800015c36ac","A3","batch1","","null","<p class=block-text>Trial 55 out of 78</p>","null","pattern_show_trial_num","","","","","","","","","","","","","","","","","","","","","","","","",""
"","","","","","image-keyboard-response","131","215602","0.0-2.0-7.0-1.15","5a08ddd0df3fa800015c36ac","A3","batch1","","1067.1000001430511","stim/yes_55_hor_w1_w.png","f","pattern_response","true","f","pattern_75","1067.1000001430511","true","45","","","","","","","","","","","","","","","","","","",""
"","","","","","html-keyboard-response","132","216909","0.0-2.0-7.0-0.16","5a08ddd0df3fa800015c36ac","A3","batch1","","null","<p class=block-text>Trial 56 out of 78</p>","null","pattern_show_trial_num","","","","","","","","","","","","","","","","","","","","","","","","",""
"","","","","","image-keyboard-response","133","218563","0.0-2.0-7.0-1.16","5a08ddd0df3fa800015c36ac","A3","batch1","","1652.6000001430511","stim/yes_60_ver_b1_b.png","f","pattern_response","true","f","pattern_77","1652.6000001430511","true","46","","","","","","","","","","","","","","","","","","",""
"","","","","","html-keyboard-response","134","219868","0.0-2.0-7.0-0.17","5a08ddd0df3fa800015c36ac","A3","batch1","","null","<p class=block-text>Trial 57 out of 78</p>","null","pattern_show_trial_num","","","","","","","","","","","","","","","","","","","","","","","","",""
"","","","","","image-keyboard-response","135","220627","0.0-2.0-7.0-1.17","5a08ddd0df3fa800015c36ac","A3","batch1","","757.8000001907349","stim/yes_28_ver_b1.png","f","pattern_response","true","f","pattern_51","757.8000001907349","true","47","","","","","","","","","","","","","","","","","","",""
"","","","","","html-keyboard-response","136","221935","0.0-2.0-7.0-0.18","5a08ddd0df3fa800015c36ac","A3","batch1","","null","<p class=block-text>Trial 58 out of 78</p>","null","pattern_show_trial_num","","","","","","","","","","","","","","","","","","","","","","","","",""
"","","","","","image-keyboard-response","137","223756","0.0-2.0-7.0-1.18","5a08ddd0df3fa800015c36ac","A3","batch1","","1820.2999999523163","stim/no_46_1_b.png","j","pattern_response","true","j","pattern_26","1820.2999999523163","true","48","","","","","","","","","","","","","","","","","","",""
"","","","","","html-keyboard-response","138","225071","0.0-2.0-7.0-0.19","5a08ddd0df3fa800015c36ac","A3","batch1","","null","<p class=block-text>Trial 59 out of 78</p>","null","pattern_show_trial_num","","","","","","","","","","","","","","","","","","","","","","","","",""
"","","","","","image-keyboard-response","139","226108","0.0-2.0-7.0-1.19","5a08ddd0df3fa800015c36ac","A3","batch1","","1036","stim/yes_52_ver_w1.png","f","pattern_response","true","f","pattern_73","1036","true","49","","","","","","","","","","","","","","","","","","",""
"","","","","","html-keyboard-response","140","227422","0.0-2.0-7.0-0.20","5a08ddd0df3fa800015c36ac","A3","batch1","","null","<p class=block-text>Trial 60 out of 78</p>","null","pattern_show_trial_num","","","","","","","","","","","","","","","","","","","","","","","","",""
"","","","","","image-keyboard-response","141","228220","0.0-2.0-7.0-1.20","5a08ddd0df3fa800015c36ac","A3","batch1","","797.2000000476837","stim/no_20_1_w.png","j","pattern_response","true","j","pattern_06","797.2000000476837","true","50","","","","","","","","","","","","","","","","","","",""
"","","","","","html-keyboard-response","142","229543","0.0-2.0-7.0-0.21","5a08ddd0df3fa800015c36ac","A3","batch1","","null","<p class=block-text>Trial 61 out of 78</p>","null","pattern_show_trial_num","","","","","","","","","","","","","","","","","","","","","","","","",""
"","","","","","image-keyboard-response","143","231164","0.0-2.0-7.0-1.21","5a08ddd0df3fa800015c36ac","A3","batch1","","1619.9000000953674","stim/no_44_1.png","j","pattern_response","true","j","pattern_24","1619.9000000953674","true","51","","","","","","","","","","","","","","","","","","",""
"","","","","","html-keyboard-response","144","232468","0.0-2.0-7.0-0.22","5a08ddd0df3fa800015c36ac","A3","batch1","","null","<p class=block-text>Trial 62 out of 78</p>","null","pattern_show_trial_num","","","","","","","","","","","","","","","","","","","","","","","","",""
"","","","","","image-keyboard-response","145","233452","0.0-2.0-7.0-1.22","5a08ddd0df3fa800015c36ac","A3","batch1","","983.3999998569489","stim/yes_31_hor_b1.png","j","pattern_response","false","f","pattern_55","983.3999998569489","false","51","","","","","","","","","","","","","","","","","","",""
"","","","","","html-keyboard-response","146","234763","0.0-2.0-7.0-0.23","5a08ddd0df3fa800015c36ac","A3","batch1","","null","<p class=block-text>Trial 63 out of 78</p>","null","pattern_show_trial_num","","","","","","","","","","","","","","","","","","","","","","","","",""
"","","","","","image-keyboard-response","147","236813","0.0-2.0-7.0-1.23","5a08ddd0df3fa800015c36ac","A3","batch1","","2048.7000000476837","stim/no_55_1_w.png","j","pattern_response","true","j","pattern_34","2048.7000000476837","true","52","","","","","","","","","","","","","","","","","","",""
"","","","","","html-keyboard-response","148","238142","0.0-2.0-7.0-0.24","5a08ddd0df3fa800015c36ac","A3","batch1","","null","<p class=block-text>Trial 64 out of 78</p>","null","pattern_show_trial_num","","","","","","","","","","","","","","","","","","","","","","","","",""
"","","","","","image-keyboard-response","149","238821","0.0-2.0-7.0-1.24","5a08ddd0df3fa800015c36ac","A3","batch1","","678.0999999046326","stim/yes_25_hor_b1_b.png","f","pattern_response","true","f","pattern_49","678.0999999046326","true","53","","","","","","","","","","","","","","","","","","",""
"","","","","","html-keyboard-response","150","240140","0.0-2.0-7.0-0.25","5a08ddd0df3fa800015c36ac","A3","batch1","","null","<p class=block-text>Trial 65 out of 78</p>","null","pattern_show_trial_num","","","","","","","","","","","","","","","","","","","","","","","","",""
"","","","","","image-keyboard-response","151","241598","0.0-2.0-7.0-1.25","5a08ddd0df3fa800015c36ac","A3","batch1","","1454.7999999523163","stim/yes_37_dia_w1.png","j","pattern_response","false","f","pattern_59","1454.7999999523163","false","53","","","","","","","","","","","","","","","","","","",""
"","","","","","html-keyboard-response","152","242911","0.0-2.0-7.0-0.26","5a08ddd0df3fa800015c36ac","A3","batch1","","null","<p class=block-text>Trial 66 out of 78</p>","null","pattern_show_trial_num","","","","","","","","","","","","","","","","","","","","","","","","",""
"","","","","","image-keyboard-response","153","245222","0.0-2.0-7.0-1.26","5a08ddd0df3fa800015c36ac","A3","batch1","","2310.7000000476837","stim/no_70_2.png","j","pattern_response","true","j","pattern_40","2310.7000000476837","true","54","","","","","","","","","","","","","","","","","","",""
"","","","","","html-keyboard-response","154","246526","0.0-2.0-7.0-0.27","5a08ddd0df3fa800015c36ac","A3","batch1","","null","<p class=block-text>Trial 67 out of 78</p>","null","pattern_show_trial_num","","","","","","","","","","","","","","","","","","","","","","","","",""
"","","","","","image-keyboard-response","155","248327","0.0-2.0-7.0-1.27","5a08ddd0df3fa800015c36ac","A3","batch1","","1799.5999999046326","stim/no_50_1.png","j","pattern_response","true","j","pattern_30","1799.5999999046326","true","55","","","","","","","","","","","","","","","","","","",""
"","","","","","html-keyboard-response","156","249656","0.0-2.0-7.0-0.28","5a08ddd0df3fa800015c36ac","A3","batch1","","null","<p class=block-text>Trial 68 out of 78</p>","null","pattern_show_trial_num","","","","","","","","","","","","","","","","","","","","","","","","",""
"","","","","","image-keyboard-response","157","251175","0.0-2.0-7.0-1.28","5a08ddd0df3fa800015c36ac","A3","batch1","","1518","stim/no_36_2_w.png","j","pattern_response","true","j","pattern_18","1518","true","56","","","","","","","","","","","","","","","","","","",""
"","","","","","html-keyboard-response","158","252503","0.0-2.0-7.0-0.29","5a08ddd0df3fa800015c36ac","A3","batch1","","null","<p class=block-text>Trial 69 out of 78</p>","null","pattern_show_trial_num","","","","","","","","","","","","","","","","","","","","","","","","",""
"","","","","","image-keyboard-response","159","253975","0.0-2.0-7.0-1.29","5a08ddd0df3fa800015c36ac","A3","batch1","","1471.2000000476837","stim/no_42_1_w.png","j","pattern_response","true","j","pattern_22","1471.2000000476837","true","57","","","","","","","","","","","","","","","","","","",""
"","","","","","html-keyboard-response","160","255289","0.0-2.0-7.0-0.30","5a08ddd0df3fa800015c36ac","A3","batch1","","null","<p class=block-text>Trial 70 out of 78</p>","null","pattern_show_trial_num","","","","","","","","","","","","","","","","","","","","","","","","",""
"","","","","","image-keyboard-response","161","256904","0.0-2.0-7.0-1.30","5a08ddd0df3fa800015c36ac","A3","batch1","","1613.5999999046326","stim/no_34_1_b.png","j","pattern_response","true","j","pattern_16","1613.5999999046326","true","58","","","","","","","","","","","","","","","","","","",""
"","","","","","html-keyboard-response","162","258225","0.0-2.0-7.0-0.31","5a08ddd0df3fa800015c36ac","A3","batch1","","null","<p class=block-text>Trial 71 out of 78</p>","null","pattern_show_trial_num","","","","","","","","","","","","","","","","","","","","","","","","",""
"","","","","","image-keyboard-response","163","259192","0.0-2.0-7.0-1.31","5a08ddd0df3fa800015c36ac","A3","batch1","","966.2000000476837","stim/no_26_1_w.png","j","pattern_response","true","j","pattern_10","966.2000000476837","true","59","","","","","","","","","","","","","","","","","","",""
"","","","","","html-keyboard-response","164","260508","0.0-2.0-7.0-0.32","5a08ddd0df3fa800015c36ac","A3","batch1","","null","<p class=block-text>Trial 72 out of 78</p>","null","pattern_show_trial_num","","","","","","","","","","","","","","","","","","","","","","","","",""
"","","","","","image-keyboard-response","165","261520","0.0-2.0-7.0-1.32","5a08ddd0df3fa800015c36ac","A3","batch1","","1011.6000001430511","stim/yes_29_ver_w1.png","f","pattern_response","true","f","pattern_53","1011.6000001430511","true","60","","","","","","","","","","","","","","","","","","",""
"","","","","","html-keyboard-response","166","262833","0.0-2.0-7.0-0.33","5a08ddd0df3fa800015c36ac","A3","batch1","","null","<p class=block-text>Trial 73 out of 78</p>","null","pattern_show_trial_num","","","","","","","","","","","","","","","","","","","","","","","","",""
"","","","","","image-keyboard-response","167","264768","0.0-2.0-7.0-1.33","5a08ddd0df3fa800015c36ac","A3","batch1","","1934.9000000953674","stim/no_38_1_b.png","j","pattern_response","true","j","pattern_20","1934.9000000953674","true","61","","","","","","","","","","","","","","","","","","",""
"","","","","","html-keyboard-response","168","266095","0.0-2.0-7.0-0.34","5a08ddd0df3fa800015c36ac","A3","batch1","","null","<p class=block-text>Trial 74 out of 78</p>","null","pattern_show_trial_num","","","","","","","","","","","","","","","","","","","","","","","","",""
"","","","","","image-keyboard-response","169","266936","0.0-2.0-7.0-1.34","5a08ddd0df3fa800015c36ac","A3","batch1","","839.8999998569489","stim/no_17_1_w.png","j","pattern_response","true","j","pattern_04","839.8999998569489","true","62","","","","","","","","","","","","","","","","","","",""
"","","","","","html-keyboard-response","170","268252","0.0-2.0-7.0-0.35","5a08ddd0df3fa800015c36ac","A3","batch1","","null","<p class=block-text>Trial 75 out of 78</p>","null","pattern_show_trial_num","","","","","","","","","","","","","","","","","","","","","","","","",""
"","","","","","image-keyboard-response","171","269177","0.0-2.0-7.0-1.35","5a08ddd0df3fa800015c36ac","A3","batch1","","923.7000000476837","stim/yes_38_hor_b1_b.png","f","pattern_response","true","f","pattern_61","923.7000000476837","true","63","","","","","","","","","","","","","","","","","","",""
"","","","","","html-keyboard-response","172","270478","0.0-2.0-7.0-0.36","5a08ddd0df3fa800015c36ac","A3","batch1","","null","<p class=block-text>Trial 76 out of 78</p>","null","pattern_show_trial_num","","","","","","","","","","","","","","","","","","","","","","","","",""
"","","","","","image-keyboard-response","173","272625","0.0-2.0-7.0-1.36","5a08ddd0df3fa800015c36ac","A3","batch1","","2146.2999999523163","stim/yes_48_dia_w1_w.png","f","pattern_response","true","f","pattern_69","2146.2999999523163","true","64","","","","","","","","","","","","","","","","","","",""
"","","","","","html-keyboard-response","174","273942","0.0-2.0-7.0-0.37","5a08ddd0df3fa800015c36ac","A3","batch1","","null","<p class=block-text>Trial 77 out of 78</p>","null","pattern_show_trial_num","","","","","","","","","","","","","","","","","","","","","","","","",""
"","","","","","image-keyboard-response","175","274809","0.0-2.0-7.0-1.37","5a08ddd0df3fa800015c36ac","A3","batch1","","866.5","stim/yes_67_hor_b1.png","f","pattern_response","true","f","pattern_79","866.5","true","65","","","","","","","","","","","","","","","","","","",""
"","","","","","html-keyboard-response","176","276134","0.0-2.0-7.0-0.38","5a08ddd0df3fa800015c36ac","A3","batch1","","null","<p class=block-text>Trial 78 out of 78</p>","null","pattern_show_trial_num","","","","","","","","","","","","","","","","","","","","","","","","",""
"","","","","","image-keyboard-response","177","277274","0.0-2.0-7.0-1.38","5a08ddd0df3fa800015c36ac","A3","batch1","","1139","stim/no_32_1_w.png","j","pattern_response","true","j","pattern_14","1139","true","66","","","","","","","","","","","","","","","","","","",""
"","","","","","html-button-response","178","280626","0.0-2.0-8.0","5a08ddd0df3fa800015c36ac","A3","batch1","","2841.7999999523163","<p class = block-text>This concludes the 4-in-a-row detection game.Thank you for your responses!<br>
            You responded correctly on 85% of the trials.<br>
            When you are ready, press ""Continue"" button to continue </p>","0","","","","","","","","","","","","","","","","","","","","","","","","","",""
"true","","","","","fullscreen","179","331702","0.0-3.0-0.0","5a08ddd0df3fa800015c36ac","A3","batch1","","","","","spm_fullscreen","","","","","","","","","","","","","","","","","","","","","","","","",""
"","","","","","html-button-response","180","348185","0.0-3.0-1.0","5a08ddd0df3fa800015c36ac","A3","batch1","","16482.400000095367","<p class = block-text><b>Instructions</b> <br>This is a widely used intelligence test in research. <br>In this test, a figure with a missing piece will be presented.<br>Below the figure are alternative pieces to complete the figure, only one of which is correct.<br> Different figures might involve different principles for obtaining the missing piece<br>Your job is to select the most logical piece to complete the figure.</p>","0","","","","","","","","","","","","","","","","","","","","","","","","","",""
"","","","","","html-keyboard-response","181","349000","0.0-3.0-2.0-0.0","5a08ddd0df3fa800015c36ac","A3","batch1","","null","<p class=block-text>Trial 1 out of 60</p>","null","spm_show_trial_num","","","","","","","","","","","","","","","","","","","","","","","","",""
"","","","","","image-button-response","182","361970","0.0-3.0-2.0-1.0","5a08ddd0df3fa800015c36ac","A3","batch1","","12969","img/question_1_1.jpeg","3","spm_respsonse","1","4","mat_01","","","","","","1","12969","","","","","","","","","","","","","","",""
"","","","","","html-keyboard-response","183","363035","0.0-3.0-2.0-0.1","5a08ddd0df3fa800015c36ac","A3","batch1","","null","<p class=block-text>Trial 2 out of 60</p>","null","spm_show_trial_num","","","","","","","","","","","","","","","","","","","","","","","","",""
"","","","","","image-button-response","184","365222","0.0-3.0-2.0-1.1","5a08ddd0df3fa800015c36ac","A3","batch1","","2185.899999856949","img/question_1_2.jpeg","4","spm_respsonse","1","5","mat_02","","","","","","1","2185.899999856949","","","","","","","","","","","","","","",""
"","","","","","html-keyboard-response","185","366274","0.0-3.0-2.0-0.2","5a08ddd0df3fa800015c36ac","A3","batch1","","null","<p class=block-text>Trial 3 out of 60</p>","null","spm_show_trial_num","","","","","","","","","","","","","","","","","","","","","","","","",""
"","","","","","image-button-response","186","368347","0.0-3.0-2.0-1.2","5a08ddd0df3fa800015c36ac","A3","batch1","","2071.9000000953674","img/question_1_3.jpeg","0","spm_respsonse","1","1","mat_03","","","","","","1","2071.9000000953674","","","","","","","","","","","","","","",""
"","","","","","html-keyboard-response","187","369399","0.0-3.0-2.0-0.3","5a08ddd0df3fa800015c36ac","A3","batch1","","null","<p class=block-text>Trial 4 out of 60</p>","null","spm_show_trial_num","","","","","","","","","","","","","","","","","","","","","","","","",""
"","","","","","image-button-response","188","372291","0.0-3.0-2.0-1.3","5a08ddd0df3fa800015c36ac","A3","batch1","","2891.5","img/question_1_4.jpeg","1","spm_respsonse","1","2","mat_04","","","","","","1","2891.5","","","","","","","","","","","","","","",""
"","","","","","html-keyboard-response","189","373345","0.0-3.0-2.0-0.4","5a08ddd0df3fa800015c36ac","A3","batch1","","null","<p class=block-text>Trial 5 out of 60</p>","null","spm_show_trial_num","","","","","","","","","","","","","","","","","","","","","","","","",""
"","","","","","image-button-response","190","378468","0.0-3.0-2.0-1.4","5a08ddd0df3fa800015c36ac","A3","batch1","","5121.599999904633","img/question_1_5.jpeg","5","spm_respsonse","1","6","mat_05","","","","","","1","5121.599999904633","","","","","","","","","","","","","","",""
"","","","","","html-keyboard-response","191","379539","0.0-3.0-2.0-0.5","5a08ddd0df3fa800015c36ac","A3","batch1","","null","<p class=block-text>Trial 6 out of 60</p>","null","spm_show_trial_num","","","","","","","","","","","","","","","","","","","","","","","","",""
"","","","","","image-button-response","192","383764","0.0-3.0-2.0-1.5","5a08ddd0df3fa800015c36ac","A3","batch1","","4224","img/question_1_6.jpeg","2","spm_respsonse","1","3","mat_06","","","","","","1","4224","","","","","","","","","","","","","","",""
"","","","","","html-keyboard-response","193","384816","0.0-3.0-2.0-0.6","5a08ddd0df3fa800015c36ac","A3","batch1","","null","<p class=block-text>Trial 7 out of 60</p>","null","spm_show_trial_num","","","","","","","","","","","","","","","","","","","","","","","","",""
"","","","","","image-button-response","194","388581","0.0-3.0-2.0-1.6","5a08ddd0df3fa800015c36ac","A3","batch1","","3763.7000000476837","img/question_1_7.jpeg","5","spm_respsonse","1","6","mat_07","","","","","","1","3763.7000000476837","","","","","","","","","","","","","","",""
"","","","","","html-keyboard-response","195","389635","0.0-3.0-2.0-0.7","5a08ddd0df3fa800015c36ac","A3","batch1","","null","<p class=block-text>Trial 8 out of 60</p>","null","spm_show_trial_num","","","","","","","","","","","","","","","","","","","","","","","","",""
"","","","","","image-button-response","196","393878","0.0-3.0-2.0-1.7","5a08ddd0df3fa800015c36ac","A3","batch1","","4241.299999952316","img/question_1_8.jpeg","1","spm_respsonse","1","2","mat_08","","","","","","1","4241.299999952316","","","","","","","","","","","","","","",""
"","","","","","html-keyboard-response","197","394930","0.0-3.0-2.0-0.8","5a08ddd0df3fa800015c36ac","A3","batch1","","null","<p class=block-text>Trial 9 out of 60</p>","null","spm_show_trial_num","","","","","","","","","","","","","","","","","","","","","","","","",""
"","","","","","image-button-response","198","397886","0.0-3.0-2.0-1.8","5a08ddd0df3fa800015c36ac","A3","batch1","","2954.899999856949","img/question_1_9.jpeg","0","spm_respsonse","1","1","mat_09","","","","","","1","2954.899999856949","","","","","","","","","","","","","","",""
"","","","","","html-keyboard-response","199","398938","0.0-3.0-2.0-0.9","5a08ddd0df3fa800015c36ac","A3","batch1","","null","<p class=block-text>Trial 10 out of 60</p>","null","spm_show_trial_num","","","","","","","","","","","","","","","","","","","","","","","","",""
"","","","","","image-button-response","200","405267","0.0-3.0-2.0-1.9","5a08ddd0df3fa800015c36ac","A3","batch1","","6327.900000095367","img/question_1_10.jpeg","2","spm_respsonse","1","3","mat_10","","","","","","1","6327.900000095367","","","","","","","","","","","","","","",""
"","","","","","html-keyboard-response","201","406318","0.0-3.0-2.0-0.10","5a08ddd0df3fa800015c36ac","A3","batch1","","null","<p class=block-text>Trial 11 out of 60</p>","null","spm_show_trial_num","","","","","","","","","","","","","","","","","","","","","","","","",""
"","","","","","image-button-response","202","414924","0.0-3.0-2.0-1.10","5a08ddd0df3fa800015c36ac","A3","batch1","","8605","img/question_1_11.jpeg","0","spm_respsonse","0","4","mat_11","","","","","","0","8605","","","","","","","","","","","","","","",""
"","","","","","html-keyboard-response","203","415991","0.0-3.0-2.0-0.11","5a08ddd0df3fa800015c36ac","A3","batch1","","null","<p class=block-text>Trial 12 out of 60</p>","null","spm_show_trial_num","","","","","","","","","","","","","","","","","","","","","","","","",""
"","","","","","image-button-response","204","431562","0.0-3.0-2.0-1.11","5a08ddd0df3fa800015c36ac","A3","batch1","","15569.299999952316","img/question_1_12.jpeg","4","spm_respsonse","1","5","mat_12","","","","","","1","15569.299999952316","","","","","","","","","","","","","","",""
"","","","","","html-keyboard-response","205","432634","0.0-3.0-2.0-0.12","5a08ddd0df3fa800015c36ac","A3","batch1","","null","<p class=block-text>Trial 13 out of 60</p>","null","spm_show_trial_num","","","","","","","","","","","","","","","","","","","","","","","","",""
"","","","","","image-button-response","206","436891","0.0-3.0-2.0-1.12","5a08ddd0df3fa800015c36ac","A3","batch1","","4255.599999904633","img/question_2_1.jpeg","1","spm_respsonse","1","2","mat_13","","","","","","1","4255.599999904633","","","","","","","","","","","","","","",""
"","","","","","html-keyboard-response","207","437951","0.0-3.0-2.0-0.13","5a08ddd0df3fa800015c36ac","A3","batch1","","null","<p class=block-text>Trial 14 out of 60</p>","null","spm_show_trial_num","","","","","","","","","","","","","","","","","","","","","","","","",""
"","","","","","image-button-response","208","441047","0.0-3.0-2.0-1.13","5a08ddd0df3fa800015c36ac","A3","batch1","","3095.0999999046326","img/question_2_2.jpeg","5","spm_respsonse","1","6","mat_14","","","","","","1","3095.0999999046326","","","","","","","","","","","","","","",""
"","","","","","html-keyboard-response","209","442099","0.0-3.0-2.0-0.14","5a08ddd0df3fa800015c36ac","A3","batch1","","null","<p class=block-text>Trial 15 out of 60</p>","null","spm_show_trial_num","","","","","","","","","","","","","","","","","","","","","","","","",""
"","","","","","image-button-response","210","445808","0.0-3.0-2.0-1.14","5a08ddd0df3fa800015c36ac","A3","batch1","","3707.9000000953674","img/question_2_3.jpeg","0","spm_respsonse","1","1","mat_15","","","","","","1","3707.9000000953674","","","","","","","","","","","","","","",""
"","","","","","html-keyboard-response","211","446868","0.0-3.0-2.0-0.15","5a08ddd0df3fa800015c36ac","A3","batch1","","null","<p class=block-text>Trial 16 out of 60</p>","null","spm_show_trial_num","","","","","","","","","","","","","","","","","","","","","","","","",""
"","","","","","image-button-response","212","448920","0.0-3.0-2.0-1.15","5a08ddd0df3fa800015c36ac","A3","batch1","","2050.5999999046326","img/question_2_4.jpeg","1","spm_respsonse","1","2","mat_16","","","","","","1","2050.5999999046326","","","","","","","","","","","","","","",""
"","","","","","html-keyboard-response","213","449972","0.0-3.0-2.0-0.16","5a08ddd0df3fa800015c36ac","A3","batch1","","null","<p class=block-text>Trial 17 out of 60</p>","null","spm_show_trial_num","","","","","","","","","","","","","","","","","","","","","","","","",""
"","","","","","image-button-response","214","454616","0.0-3.0-2.0-1.16","5a08ddd0df3fa800015c36ac","A3","batch1","","4643","img/question_2_5.jpeg","0","spm_respsonse","1","1","mat_17","","","","","","1","4643","","","","","","","","","","","","","","",""
"","","","","","html-keyboard-response","215","455678","0.0-3.0-2.0-0.17","5a08ddd0df3fa800015c36ac","A3","batch1","","null","<p class=block-text>Trial 18 out of 60</p>","null","spm_show_trial_num","","","","","","","","","","","","","","","","","","","","","","","","",""
"","","","","","image-button-response","216","462241","0.0-3.0-2.0-1.17","5a08ddd0df3fa800015c36ac","A3","batch1","","6562.299999952316","img/question_2_6.jpeg","2","spm_respsonse","1","3","mat_18","","","","","","1","6562.299999952316","","","","","","","","","","","","","","",""
"","","","","","html-keyboard-response","217","463293","0.0-3.0-2.0-0.18","5a08ddd0df3fa800015c36ac","A3","batch1","","null","<p class=block-text>Trial 19 out of 60</p>","null","spm_show_trial_num","","","","","","","","","","","","","","","","","","","","","","","","",""
"","","","","","image-button-response","218","470586","0.0-3.0-2.0-1.18","5a08ddd0df3fa800015c36ac","A3","batch1","","7292.200000047684","img/question_2_7.jpeg","4","spm_respsonse","1","5","mat_19","","","","","","1","7292.200000047684","","","","","","","","","","","","","","",""
"","","","","","html-keyboard-response","219","471645","0.0-3.0-2.0-0.19","5a08ddd0df3fa800015c36ac","A3","batch1","","null","<p class=block-text>Trial 20 out of 60</p>","null","spm_show_trial_num","","","","","","","","","","","","","","","","","","","","","","","","",""
"","","","","","image-button-response","220","481791","0.0-3.0-2.0-1.19","5a08ddd0df3fa800015c36ac","A3","batch1","","10145","img/question_2_8.jpeg","4","spm_respsonse","0","6","mat_20","","","","","","0","10145","","","","","","","","","","","","","","",""
"","","","","","html-keyboard-response","221","482868","0.0-3.0-2.0-0.20","5a08ddd0df3fa800015c36ac","A3","batch1","","null","<p class=block-text>Trial 21 out of 60</p>","null","spm_show_trial_num","","","","","","","","","","","","","","","","","","","","","","","","",""
"","","","","","image-button-response","222","488788","0.0-3.0-2.0-1.20","5a08ddd0df3fa800015c36ac","A3","batch1","","5919.100000143051","img/question_2_9.jpeg","3","spm_respsonse","1","4","mat_21","","","","","","1","5919.100000143051","","","","","","","","","","","","","","",""
"","","","","","html-keyboard-response","223","489848","0.0-3.0-2.0-0.21","5a08ddd0df3fa800015c36ac","A3","batch1","","null","<p class=block-text>Trial 22 out of 60</p>","null","spm_show_trial_num","","","","","","","","","","","","","","","","","","","","","","","","",""
"","","","","","image-button-response","224","496081","0.0-3.0-2.0-1.21","5a08ddd0df3fa800015c36ac","A3","batch1","","6231.200000047684","img/question_2_10.jpeg","2","spm_respsonse","1","3","mat_22","","","","","","1","6231.200000047684","","","","","","","","","","","","","","",""
"","","","","","html-keyboard-response","225","497132","0.0-3.0-2.0-0.22","5a08ddd0df3fa800015c36ac","A3","batch1","","null","<p class=block-text>Trial 23 out of 60</p>","null","spm_show_trial_num","","","","","","","","","","","","","","","","","","","","","","","","",""
"","","","","","image-button-response","226","504930","0.0-3.0-2.0-1.22","5a08ddd0df3fa800015c36ac","A3","batch1","","7796.5","img/question_2_11.jpeg","3","spm_respsonse","1","4","mat_23","","","","","","1","7796.5","","","","","","","","","","","","","","",""
"","","","","","html-keyboard-response","227","505991","0.0-3.0-2.0-0.23","5a08ddd0df3fa800015c36ac","A3","batch1","","null","<p class=block-text>Trial 24 out of 60</p>","null","spm_show_trial_num","","","","","","","","","","","","","","","","","","","","","","","","",""
"","","","","","image-button-response","228","529916","0.0-3.0-2.0-1.23","5a08ddd0df3fa800015c36ac","A3","batch1","","23924.10000014305","img/question_2_12.jpeg","4","spm_respsonse","1","5","mat_24","","","","","","1","23924.10000014305","","","","","","","","","","","","","","",""
"","","","","","html-button-response","229","532144","0.0-3.0-3.0","5a08ddd0df3fa800015c36ac","A3","batch1","","1976.7999999523163","<p class = block-text>Attention check: Please choose 1<br></p>","0","attention_check","true","","","","","","","","","","","","","","","","","","","","","","","",""
"","","","","","html-keyboard-response","230","532953","0.0-3.0-4.0-0.0","5a08ddd0df3fa800015c36ac","A3","batch1","","null","<p class=block-text>Trial 25 out of 60</p>","null","spm_show_trial_num","","","","","","","","","","","","","","","","","","","","","","","","",""
"","","","","","image-button-response","231","545546","0.0-3.0-4.0-1.0","5a08ddd0df3fa800015c36ac","A3","batch1","","12591.799999952316","img/question_3_1.jpeg","7","spm_respsonse","1","8","mat_25","","","","","","1","12591.799999952316","","","","","","","","","","","","","","",""
"","","","","","html-keyboard-response","232","546615","0.0-3.0-4.0-0.1","5a08ddd0df3fa800015c36ac","A3","batch1","","null","<p class=block-text>Trial 26 out of 60</p>","null","spm_show_trial_num","","","","","","","","","","","","","","","","","","","","","","","","",""
"","","","","","image-button-response","233","554131","0.0-3.0-4.0-1.1","5a08ddd0df3fa800015c36ac","A3","batch1","","7514.299999952316","img/question_3_2.jpeg","1","spm_respsonse","1","2","mat_26","","","","","","1","7514.299999952316","","","","","","","","","","","","","","",""
"","","","","","html-keyboard-response","234","555197","0.0-3.0-4.0-0.2","5a08ddd0df3fa800015c36ac","A3","batch1","","null","<p class=block-text>Trial 27 out of 60</p>","null","spm_show_trial_num","","","","","","","","","","","","","","","","","","","","","","","","",""
"","","","","","image-button-response","235","560123","0.0-3.0-4.0-1.2","5a08ddd0df3fa800015c36ac","A3","batch1","","4925.400000095367","img/question_3_3.jpeg","2","spm_respsonse","1","3","mat_27","","","","","","1","4925.400000095367","","","","","","","","","","","","","","",""
"","","","","","html-keyboard-response","236","561174","0.0-3.0-4.0-0.3","5a08ddd0df3fa800015c36ac","A3","batch1","","null","<p class=block-text>Trial 28 out of 60</p>","null","spm_show_trial_num","","","","","","","","","","","","","","","","","","","","","","","","",""
"","","","","","image-button-response","237","578153","0.0-3.0-4.0-1.3","5a08ddd0df3fa800015c36ac","A3","batch1","","16977.799999952316","img/question_3_4.jpeg","7","spm_respsonse","1","8","mat_28","","","","","","1","16977.799999952316","","","","","","","","","","","","","","",""
"","","","","","html-keyboard-response","238","579214","0.0-3.0-4.0-0.4","5a08ddd0df3fa800015c36ac","A3","batch1","","null","<p class=block-text>Trial 29 out of 60</p>","null","spm_show_trial_num","","","","","","","","","","","","","","","","","","","","","","","","",""
"","","","","","image-button-response","239","591815","0.0-3.0-4.0-1.4","5a08ddd0df3fa800015c36ac","A3","batch1","","12599.099999904633","img/question_3_5.jpeg","6","spm_respsonse","1","7","mat_29","","","","","","1","12599.099999904633","","","","","","","","","","","","","","",""
"","","","","","html-keyboard-response","240","592871","0.0-3.0-4.0-0.5","5a08ddd0df3fa800015c36ac","A3","batch1","","null","<p class=block-text>Trial 30 out of 60</p>","null","spm_show_trial_num","","","","","","","","","","","","","","","","","","","","","","","","",""
"","","","","","image-button-response","241","602872","0.0-3.0-4.0-1.5","5a08ddd0df3fa800015c36ac","A3","batch1","","10000.200000047684","img/question_3_6.jpeg","3","spm_respsonse","1","4","mat_30","","","","","","1","10000.200000047684","","","","","","","","","","","","","","",""
"","","","","","html-keyboard-response","242","603931","0.0-3.0-4.0-0.6","5a08ddd0df3fa800015c36ac","A3","batch1","","null","<p class=block-text>Trial 31 out of 60</p>","null","spm_show_trial_num","","","","","","","","","","","","","","","","","","","","","","","","",""
"","","","","","image-button-response","243","610677","0.0-3.0-4.0-1.6","5a08ddd0df3fa800015c36ac","A3","batch1","","6745.100000143051","img/question_3_7.jpeg","4","spm_respsonse","1","5","mat_31","","","","","","1","6745.100000143051","","","","","","","","","","","","","","",""
"","","","","","html-keyboard-response","244","611744","0.0-3.0-4.0-0.7","5a08ddd0df3fa800015c36ac","A3","batch1","","null","<p class=block-text>Trial 32 out of 60</p>","null","spm_show_trial_num","","","","","","","","","","","","","","","","","","","","","","","","",""
"","","","","","image-button-response","245","633384","0.0-3.0-4.0-1.7","5a08ddd0df3fa800015c36ac","A3","batch1","","21637.799999952316","img/question_3_8.jpeg","0","spm_respsonse","1","1","mat_32","","","","","","1","21637.799999952316","","","","","","","","","","","","","","",""
"","","","","","html-keyboard-response","246","634445","0.0-3.0-4.0-0.8","5a08ddd0df3fa800015c36ac","A3","batch1","","null","<p class=block-text>Trial 33 out of 60</p>","null","spm_show_trial_num","","","","","","","","","","","","","","","","","","","","","","","","",""
"","","","","","image-button-response","247","644669","0.0-3.0-4.0-1.8","5a08ddd0df3fa800015c36ac","A3","batch1","","10221.900000095367","img/question_3_9.jpeg","6","spm_respsonse","1","7","mat_33","","","","","","1","10221.900000095367","","","","","","","","","","","","","","",""
"","","","","","html-keyboard-response","248","645734","0.0-3.0-4.0-0.9","5a08ddd0df3fa800015c36ac","A3","batch1","","null","<p class=block-text>Trial 34 out of 60</p>","null","spm_show_trial_num","","","","","","","","","","","","","","","","","","","","","","","","",""
"","","","","","image-button-response","249","655625","0.0-3.0-4.0-1.9","5a08ddd0df3fa800015c36ac","A3","batch1","","9889.900000095367","img/question_3_10.jpeg","5","spm_respsonse","1","6","mat_34","","","","","","1","9889.900000095367","","","","","","","","","","","","","","",""
"","","","","","html-keyboard-response","250","656688","0.0-3.0-4.0-0.10","5a08ddd0df3fa800015c36ac","A3","batch1","","null","<p class=block-text>Trial 35 out of 60</p>","null","spm_show_trial_num","","","","","","","","","","","","","","","","","","","","","","","","",""
"","","","","","image-button-response","251","674503","0.0-3.0-4.0-1.10","5a08ddd0df3fa800015c36ac","A3","batch1","","17813.599999904633","img/question_3_11.jpeg","0","spm_respsonse","1","1","mat_35","","","","","","1","17813.599999904633","","","","","","","","","","","","","","",""
"","","","","","html-keyboard-response","252","675557","0.0-3.0-4.0-0.11","5a08ddd0df3fa800015c36ac","A3","batch1","","null","<p class=block-text>Trial 36 out of 60</p>","null","spm_show_trial_num","","","","","","","","","","","","","","","","","","","","","","","","",""
"","","","","","image-button-response","253","711503","0.0-3.0-4.0-1.11","5a08ddd0df3fa800015c36ac","A3","batch1","","35944.5","img/question_3_12.jpeg","1","spm_respsonse","1","2","mat_36","","","","","","1","35944.5","","","","","","","","","","","","","","",""
"","","","","","html-keyboard-response","254","712573","0.0-3.0-4.0-0.12","5a08ddd0df3fa800015c36ac","A3","batch1","","null","<p class=block-text>Trial 37 out of 60</p>","null","spm_show_trial_num","","","","","","","","","","","","","","","","","","","","","","","","",""
"","","","","","image-button-response","255","717788","0.0-3.0-4.0-1.12","5a08ddd0df3fa800015c36ac","A3","batch1","","5213.799999952316","img/question_4_1.jpeg","2","spm_respsonse","1","3","mat_37","","","","","","1","5213.799999952316","","","","","","","","","","","","","","",""
"","","","","","html-keyboard-response","256","718840","0.0-3.0-4.0-0.13","5a08ddd0df3fa800015c36ac","A3","batch1","","null","<p class=block-text>Trial 38 out of 60</p>","null","spm_show_trial_num","","","","","","","","","","","","","","","","","","","","","","","","",""
"","","","","","image-button-response","257","733133","0.0-3.0-4.0-1.13","5a08ddd0df3fa800015c36ac","A3","batch1","","14292.200000047684","img/question_4_2.jpeg","3","spm_respsonse","1","4","mat_38","","","","","","1","14292.200000047684","","","","","","","","","","","","","","",""
"","","","","","html-keyboard-response","258","734198","0.0-3.0-4.0-0.14","5a08ddd0df3fa800015c36ac","A3","batch1","","null","<p class=block-text>Trial 39 out of 60</p>","null","spm_show_trial_num","","","","","","","","","","","","","","","","","","","","","","","","",""
"","","","","","image-button-response","259","756192","0.0-3.0-4.0-1.14","5a08ddd0df3fa800015c36ac","A3","batch1","","21993.400000095367","img/question_4_3.jpeg","2","spm_respsonse","1","3","mat_39","","","","","","1","21993.400000095367","","","","","","","","","","","","","","",""
"","","","","","html-keyboard-response","260","757270","0.0-3.0-4.0-0.15","5a08ddd0df3fa800015c36ac","A3","batch1","","null","<p class=block-text>Trial 40 out of 60</p>","null","spm_show_trial_num","","","","","","","","","","","","","","","","","","","","","","","","",""
"","","","","","image-button-response","261","770526","0.0-3.0-4.0-1.15","5a08ddd0df3fa800015c36ac","A3","batch1","","13254.200000047684","img/question_4_4.jpeg","6","spm_respsonse","1","7","mat_40","","","","","","1","13254.200000047684","","","","","","","","","","","","","","",""
"","","","","","html-keyboard-response","262","771589","0.0-3.0-4.0-0.16","5a08ddd0df3fa800015c36ac","A3","batch1","","null","<p class=block-text>Trial 41 out of 60</p>","null","spm_show_trial_num","","","","","","","","","","","","","","","","","","","","","","","","",""
"","","","","","image-button-response","263","785411","0.0-3.0-4.0-1.16","5a08ddd0df3fa800015c36ac","A3","batch1","","13821.599999904633","img/question_4_5.jpeg","7","spm_respsonse","1","8","mat_41","","","","","","1","13821.599999904633","","","","","","","","","","","","","","",""
"","","","","","html-keyboard-response","264","786463","0.0-3.0-4.0-0.17","5a08ddd0df3fa800015c36ac","A3","batch1","","null","<p class=block-text>Trial 42 out of 60</p>","null","spm_show_trial_num","","","","","","","","","","","","","","","","","","","","","","","","",""
"","","","","","image-button-response","265","801365","0.0-3.0-4.0-1.17","5a08ddd0df3fa800015c36ac","A3","batch1","","14901","img/question_4_6.jpeg","5","spm_respsonse","1","6","mat_42","","","","","","1","14901","","","","","","","","","","","","","","",""
"","","","","","html-keyboard-response","266","802422","0.0-3.0-4.0-0.18","5a08ddd0df3fa800015c36ac","A3","batch1","","null","<p class=block-text>Trial 43 out of 60</p>","null","spm_show_trial_num","","","","","","","","","","","","","","","","","","","","","","","","",""
"","","","","","image-button-response","267","825831","0.0-3.0-4.0-1.18","5a08ddd0df3fa800015c36ac","A3","batch1","","23408.39999985695","img/question_4_7.jpeg","4","spm_respsonse","1","5","mat_43","","","","","","1","23408.39999985695","","","","","","","","","","","","","","",""
"","","","","","html-keyboard-response","268","826898","0.0-3.0-4.0-0.19","5a08ddd0df3fa800015c36ac","A3","batch1","","null","<p class=block-text>Trial 44 out of 60</p>","null","spm_show_trial_num","","","","","","","","","","","","","","","","","","","","","","","","",""
"","","","","","image-button-response","269","836429","0.0-3.0-4.0-1.19","5a08ddd0df3fa800015c36ac","A3","batch1","","9529.700000047684","img/question_4_8.jpeg","3","spm_respsonse","1","4","mat_44","","","","","","1","9529.700000047684","","","","","","","","","","","","","","",""
"","","","","","html-keyboard-response","270","837489","0.0-3.0-4.0-0.20","5a08ddd0df3fa800015c36ac","A3","batch1","","null","<p class=block-text>Trial 45 out of 60</p>","null","spm_show_trial_num","","","","","","","","","","","","","","","","","","","","","","","","",""
"","","","","","image-button-response","271","863376","0.0-3.0-4.0-1.20","5a08ddd0df3fa800015c36ac","A3","batch1","","25885","img/question_4_9.jpeg","0","spm_respsonse","1","1","mat_45","","","","","","1","25885","","","","","","","","","","","","","","",""
"","","","","","html-keyboard-response","272","864432","0.0-3.0-4.0-0.21","5a08ddd0df3fa800015c36ac","A3","batch1","","null","<p class=block-text>Trial 46 out of 60</p>","null","spm_show_trial_num","","","","","","","","","","","","","","","","","","","","","","","","",""
"","","","","","image-button-response","273","889398","0.0-3.0-4.0-1.21","5a08ddd0df3fa800015c36ac","A3","batch1","","24965","img/question_4_10.jpeg","1","spm_respsonse","1","2","mat_46","","","","","","1","24965","","","","","","","","","","","","","","",""
"","","","","","html-keyboard-response","274","890463","0.0-3.0-4.0-0.22","5a08ddd0df3fa800015c36ac","A3","batch1","","null","<p class=block-text>Trial 47 out of 60</p>","null","spm_show_trial_num","","","","","","","","","","","","","","","","","","","","","","","","",""
"","","","","","image-button-response","275","956469","0.0-3.0-4.0-1.22","5a08ddd0df3fa800015c36ac","A3","batch1","","66004.5","img/question_4_11.jpeg","4","spm_respsonse","1","5","mat_47","","","","","","1","66004.5","","","","","","","","","","","","","","",""
"","","","","","html-keyboard-response","276","957532","0.0-3.0-4.0-0.23","5a08ddd0df3fa800015c36ac","A3","batch1","","null","<p class=block-text>Trial 48 out of 60</p>","null","spm_show_trial_num","","","","","","","","","","","","","","","","","","","","","","","","",""
"","","","","","image-button-response","277","1238039","0.0-3.0-4.0-1.23","5a08ddd0df3fa800015c36ac","A3","batch1","","280504.89999985695","img/question_4_12.jpeg","5","spm_respsonse","1","6","mat_48","","","","","","1","280504.89999985695","","","","","","","","","","","","","","",""
"","","","","","html-keyboard-response","278","1239096","0.0-3.0-4.0-0.24","5a08ddd0df3fa800015c36ac","A3","batch1","","null","<p class=block-text>Trial 49 out of 60</p>","null","spm_show_trial_num","","","","","","","","","","","","","","","","","","","","","","","","",""
"","","","","","image-button-response","279","1247740","0.0-3.0-4.0-1.24","5a08ddd0df3fa800015c36ac","A3","batch1","","8642.200000047684","img/question_5_1.jpeg","6","spm_respsonse","1","7","mat_49","","","","","","1","8642.200000047684","","","","","","","","","","","","","","",""
"","","","","","html-keyboard-response","280","1248797","0.0-3.0-4.0-0.25","5a08ddd0df3fa800015c36ac","A3","batch1","","null","<p class=block-text>Trial 50 out of 60</p>","null","spm_show_trial_num","","","","","","","","","","","","","","","","","","","","","","","","",""
"","","","","","image-button-response","281","1284320","0.0-3.0-4.0-1.25","5a08ddd0df3fa800015c36ac","A3","batch1","","35520.90000009537","img/question_5_2.jpeg","5","spm_respsonse","1","6","mat_50","","","","","","1","35520.90000009537","","","","","","","","","","","","","","",""
"","","","","","html-keyboard-response","282","1285398","0.0-3.0-4.0-0.26","5a08ddd0df3fa800015c36ac","A3","batch1","","null","<p class=block-text>Trial 51 out of 60</p>","null","spm_show_trial_num","","","","","","","","","","","","","","","","","","","","","","","","",""
"","","","","","image-button-response","283","1306322","0.0-3.0-4.0-1.26","5a08ddd0df3fa800015c36ac","A3","batch1","","20923.099999904633","img/question_5_3.jpeg","7","spm_respsonse","1","8","mat_51","","","","","","1","20923.099999904633","","","","","","","","","","","","","","",""
"","","","","","html-keyboard-response","284","1307396","0.0-3.0-4.0-0.27","5a08ddd0df3fa800015c36ac","A3","batch1","","null","<p class=block-text>Trial 52 out of 60</p>","null","spm_show_trial_num","","","","","","","","","","","","","","","","","","","","","","","","",""
"","","","","","image-button-response","285","1341410","0.0-3.0-4.0-1.27","5a08ddd0df3fa800015c36ac","A3","batch1","","34013.200000047684","img/question_5_4.jpeg","1","spm_respsonse","1","2","mat_52","","","","","","1","34013.200000047684","","","","","","","","","","","","","","",""
"","","","","","html-keyboard-response","286","1342470","0.0-3.0-4.0-0.28","5a08ddd0df3fa800015c36ac","A3","batch1","","null","<p class=block-text>Trial 53 out of 60</p>","null","spm_show_trial_num","","","","","","","","","","","","","","","","","","","","","","","","",""
"","","","","","image-button-response","287","1358980","0.0-3.0-4.0-1.28","5a08ddd0df3fa800015c36ac","A3","batch1","","16507.700000047684","img/question_5_5.jpeg","0","spm_respsonse","1","1","mat_53","","","","","","1","16507.700000047684","","","","","","","","","","","","","","",""
"","","","","","html-keyboard-response","288","1360037","0.0-3.0-4.0-0.29","5a08ddd0df3fa800015c36ac","A3","batch1","","null","<p class=block-text>Trial 54 out of 60</p>","null","spm_show_trial_num","","","","","","","","","","","","","","","","","","","","","","","","",""
"","","","","","image-button-response","289","1405889","0.0-3.0-4.0-1.29","5a08ddd0df3fa800015c36ac","A3","batch1","","45850.199999809265","img/question_5_6.jpeg","4","spm_respsonse","1","5","mat_54","","","","","","1","45850.199999809265","","","","","","","","","","","","","","",""
"","","","","","html-keyboard-response","290","1406949","0.0-3.0-4.0-0.30","5a08ddd0df3fa800015c36ac","A3","batch1","","null","<p class=block-text>Trial 55 out of 60</p>","null","spm_show_trial_num","","","","","","","","","","","","","","","","","","","","","","","","",""
"","","","","","image-button-response","291","1439240","0.0-3.0-4.0-1.30","5a08ddd0df3fa800015c36ac","A3","batch1","","32289.799999952316","img/question_5_7.jpeg","0","spm_respsonse","1","1","mat_55","","","","","","1","32289.799999952316","","","","","","","","","","","","","","",""
"","","","","","html-keyboard-response","292","1440296","0.0-3.0-4.0-0.31","5a08ddd0df3fa800015c36ac","A3","batch1","","null","<p class=block-text>Trial 56 out of 60</p>","null","spm_show_trial_num","","","","","","","","","","","","","","","","","","","","","","","","",""
"","","","","","image-button-response","293","1472939","0.0-3.0-4.0-1.31","5a08ddd0df3fa800015c36ac","A3","batch1","","32642.5","img/question_5_8.jpeg","5","spm_respsonse","1","6","mat_56","","","","","","1","32642.5","","","","","","","","","","","","","","",""
"","","","","","html-keyboard-response","294","1474000","0.0-3.0-4.0-0.32","5a08ddd0df3fa800015c36ac","A3","batch1","","null","<p class=block-text>Trial 57 out of 60</p>","null","spm_show_trial_num","","","","","","","","","","","","","","","","","","","","","","","","",""
"","","","","","image-button-response","295","1502687","0.0-3.0-4.0-1.32","5a08ddd0df3fa800015c36ac","A3","batch1","","28685.400000095367","img/question_5_9.jpeg","2","spm_respsonse","1","3","mat_57","","","","","","1","28685.400000095367","","","","","","","","","","","","","","",""
"","","","","","html-keyboard-response","296","1503752","0.0-3.0-4.0-0.33","5a08ddd0df3fa800015c36ac","A3","batch1","","null","<p class=block-text>Trial 58 out of 60</p>","null","spm_show_trial_num","","","","","","","","","","","","","","","","","","","","","","","","",""
"","","","","","image-button-response","297","1555369","0.0-3.0-4.0-1.33","5a08ddd0df3fa800015c36ac","A3","batch1","","51615.299999952316","img/question_5_10.jpeg","1","spm_respsonse","1","2","mat_58","","","","","","1","51615.299999952316","","","","","","","","","","","","","","",""
"","","","","","html-keyboard-response","298","1556421","0.0-3.0-4.0-0.34","5a08ddd0df3fa800015c36ac","A3","batch1","","null","<p class=block-text>Trial 59 out of 60</p>","null","spm_show_trial_num","","","","","","","","","","","","","","","","","","","","","","","","",""
"","","","","","image-button-response","299","1797419","0.0-3.0-4.0-1.34","5a08ddd0df3fa800015c36ac","A3","batch1","","240996","img/question_5_11.jpeg","2","spm_respsonse","0","4","mat_59","","","","","","0","240996","","","","","","","","","","","","","","",""
"","","","","","html-keyboard-response","300","1798481","0.0-3.0-4.0-0.35","5a08ddd0df3fa800015c36ac","A3","batch1","","null","<p class=block-text>Trial 60 out of 60</p>","null","spm_show_trial_num","","","","","","","","","","","","","","","","","","","","","","","","",""
"","","","","","image-button-response","301","1888139","0.0-3.0-4.0-1.35","5a08ddd0df3fa800015c36ac","A3","batch1","","89657","img/question_5_12.jpeg","4","spm_respsonse","1","5","mat_60","","","","","","1","89657","","","","","","","","","","","","","","",""
"","","","","","html-button-response","302","1890496","0.0-3.0-5.0","5a08ddd0df3fa800015c36ac","A3","batch1","","2104.5","<p class= block-text>This concludes the Standard Progressive Matrix game. Thank you for your responses!<br> When you are ready, click the button continue</p>","0","spm_goodbye","","","","","","","","","","","","","","","","","","","","","","","","",""
"true","","","","","fullscreen","303","1919483","0.0-4.0-0.0","5a08ddd0df3fa800015c36ac","A3","batch1","","","","","","","","","","","","","","","","","","","","","","","","","","","","","",""
"","","","","","instructions","304","1980842","0.0-4.0-1.0-0.0-0.0","5a08ddd0df3fa800015c36ac","A3","batch1","[{""page_index"":0,""viewing_time"":21321.200000047684},{""page_index"":1,""viewing_time"":7864.5},{""page_index"":2,""viewing_time"":3140.5},{""page_index"":3,""viewing_time"":8437},{""page_index"":4,""viewing_time"":2996.0999999046326},{""page_index"":5,""viewing_time"":13905.5},{""page_index"":6,""viewing_time"":3692.5}]","61357.5","","","tol-instructions","","","","","","","","","","","","","","","","","","","","","","","","",""
"","","","","","html-button-response","305","1981966","0.0-4.0-1.0-1.0-0.0","5a08ddd0df3fa800015c36ac","A3","batch1","","1123.3999998569489","<p class=block-text> Let's answer a few questions <br>","0","tol_enter_quiz","","","","","","","","","","","","","","","","","","","","","","","","",""
"","","","","","html-button-response","306","1985411","0.0-4.0-1.0-1.0-1.0","5a08ddd0df3fa800015c36ac","A3","batch1","","3443.7999999523163","<p class = block-text>True or False: You can only move the ball on top of a peg. <br></p>","0","tol_quiz","true","","","","","","","","","","","","","","","","","","","","","","","",""
"","","","","","html-button-response","307","1986290","0.0-4.0-1.0-1.0-2.0","5a08ddd0df3fa800015c36ac","A3","batch1","","879.0999999046326","<p class = block-text>Correct! You can only move the ball on top of a peg.</p>","0","tol_quiz_feedback","","","","","","","","","","","","","","","","","","","","","","","","",""
"","","","","","html-button-response","308","1989247","0.0-4.0-1.0-1.0-3.0","5a08ddd0df3fa800015c36ac","A3","batch1","","2955.9000000953674","<p class = block-text>True or False: You should try to match your board with the target board with fewest moves possible. <br></p>","0","tol_quiz","true","","","","","","","","","","","","","","","","","","","","","","","",""
"","","","","","html-button-response","309","1990015","0.0-4.0-1.0-1.0-4.0","5a08ddd0df3fa800015c36ac","A3","batch1","","767.3999998569489","<p class = block-text>Correct! </p>","0","tol_quiz_feedback","","","","","","","","","","","","","","","","","","","","","","","","",""
"","","","","","html-button-response","310","1992411","0.0-4.0-2.0","5a08ddd0df3fa800015c36ac","A3","batch1","","2394.899999856949","<p class=block-text> Now that you've understood the game, let's practice a few easier examples before we start!<br> <br>","0","","","","","","","","","","","","","","","","","","","","","","","","","",""
"","","","","","single-stim-button","311","1994456","0.0-4.0-3.0-0.0","5a08ddd0df3fa800015c36ac","A3","batch1","","2044","","","tol_practice","","","","","","","","","","","tol_peg_2","2044","2044","0","[[1,2,0],[0,0],[0]]","1","[[1,2,0],[0,0],[3]]","practice","2044","","","","","",""
"","","","","","single-stim-button","312","1995944","0.0-4.0-3.0-1.0","5a08ddd0df3fa800015c36ac","A3","batch1","","1486","","","tol_practice","","","","","","","","","","","tol_peg_3","1486","1486","0","[[1,2,0],[0,0],[3]]","1","[[1,2,0],[0,0],[3]]","practice","1486","","","","","",""
"","","","","","poldrack-single-stim","313","1996954","0.0-4.0-4.0","5a08ddd0df3fa800015c36ac","A3","batch1","","-1","","","tol_feedback","true","","","","","","","","","","","1000","1000","500","","","","","","-1","none","true","","0",""
"","","","","","single-stim-button","314","2000232","0.0-4.0-5.0-0.0","5a08ddd0df3fa800015c36ac","A3","batch1","","3278","","","tol_practice","","","","","","","","","","","tol_peg_1","3278","3278","0","[[1,0,0],[3,0],[0]]","2","[[0,0,0],[3,1],[2]]","practice","3278","","","","","",""
"","","","","","single-stim-button","315","2001032","0.0-4.0-5.0-1.0","5a08ddd0df3fa800015c36ac","A3","batch1","","800","","","tol_practice","","","","","","","","","","","tol_peg_3","800","800","0","[[1,0,0],[3,0],[2]]","2","[[0,0,0],[3,1],[2]]","practice","800","","","","","",""
"","","","","","single-stim-button","316","2001592","0.0-4.0-5.1-0.1","5a08ddd0df3fa800015c36ac","A3","batch1","","559","","","tol_practice","","","","","","","","","","","tol_peg_1","559","559","0","[[0,0,0],[3,0],[2]]","3","[[0,0,0],[3,1],[2]]","practice","559","","","","","",""
"","","","","","single-stim-button","317","2002040","0.0-4.0-5.1-1.1","5a08ddd0df3fa800015c36ac","A3","batch1","","447","","","tol_practice","","","","","","","","","","","tol_peg_2","447","447","0","[[0,0,0],[3,1],[2]]","3","[[0,0,0],[3,1],[2]]","practice","447","","","","","",""
"","","","","","poldrack-single-stim","318","2003041","0.0-4.0-6.0","5a08ddd0df3fa800015c36ac","A3","batch1","","-1","","","tol_feedback","true","","","","","","","","","","","1000","1000","500","","","","","","-1","none","true","","0",""
"","","","","","single-stim-button","319","2006449","0.0-4.0-7.0-0.0","5a08ddd0df3fa800015c36ac","A3","batch1","","3408","","","tol_practice","","","","","","","","","","","tol_peg_2","3408","3408","0","[[1,2,0],[0,0],[0]]","4","[[1,0,0],[2,0],[3]]","practice","3408","","","","","",""
"","","","","","single-stim-button","320","2006976","0.0-4.0-7.0-1.0","5a08ddd0df3fa800015c36ac","A3","batch1","","527","","","tol_practice","","","","","","","","","","","tol_peg_3","527","527","0","[[1,2,0],[0,0],[3]]","4","[[1,0,0],[2,0],[3]]","practice","527","","","","","",""
"","","","","","single-stim-button","321","2007489","0.0-4.0-7.1-0.1","5a08ddd0df3fa800015c36ac","A3","batch1","","511","","","tol_practice","","","","","","","","","","","tol_peg_1","511","511","0","[[1,0,0],[0,0],[3]]","5","[[1,0,0],[2,0],[3]]","practice","511","","","","","",""
"","","","","","single-stim-button","322","2008145","0.0-4.0-7.1-1.1","5a08ddd0df3fa800015c36ac","A3","batch1","","655","","","tol_practice","","","","","","","","","","","tol_peg_2","655","655","0","[[1,0,0],[2,0],[3]]","5","[[1,0,0],[2,0],[3]]","practice","655","","","","","",""
"","","","","","poldrack-single-stim","323","2009158","0.0-4.0-8.0","5a08ddd0df3fa800015c36ac","A3","batch1","","-1","","","tol_feedback","true","","","","","","","","","","","1000","1000","500","","","","","","-1","none","true","","0",""
"","","","","","html-button-response","324","2012313","0.0-4.0-9.0","5a08ddd0df3fa800015c36ac","A3","batch1","","3153.9000000953674","<div class = centerbox><p class = center-block-text>Great job! You are done with practice trials<br>You are about to start official trials.<br> <br> Problem <strong>1</strong> out of 25 problems</p></div>","0","tol_instruction","","","","","","","","","","","","","","","","","","","","","","","","",""
"","","","","","single-stim-button","325","2027599","0.0-4.0-10.0-0.0","5a08ddd0df3fa800015c36ac","A3","batch1","","14273","","","tol_tohand","","","","","","","","","","","tol_peg_2","14273","14273","0","[[1,2,0],[0,0],[0]]","1","[[1,3,0],[2,0],[0]]","0","0","","","","","","3"
"","","","","","single-stim-button","326","2028259","0.0-4.0-10.0-1.0","5a08ddd0df3fa800015c36ac","A3","batch1","","660","","","tol_toboard","","","","","","","","","","","tol_peg_3","660","660","0","[[1,2,0],[0,0],[3]]","1","[[1,3,0],[2,0],[0]]","0","0","","","","","","3"
"","","","","","single-stim-button","327","2028867","0.0-4.0-10.1-0.1","5a08ddd0df3fa800015c36ac","A3","batch1","","608","","","tol_tohand","","","","","","","","","","","tol_peg_1","608","608","0","[[1,0,0],[0,0],[3]]","2","[[1,3,0],[2,0],[0]]","0","0","","","","","","3"
"","","","","","single-stim-button","328","2029507","0.0-4.0-10.1-1.1","5a08ddd0df3fa800015c36ac","A3","batch1","","640","","","tol_toboard","","","","","","","","","","","tol_peg_2","640","640","0","[[1,0,0],[2,0],[3]]","2","[[1,3,0],[2,0],[0]]","0","0","","","","","","3"
"","","","","","single-stim-button","329","2030035","0.0-4.0-10.2-0.2","5a08ddd0df3fa800015c36ac","A3","batch1","","528","","","tol_tohand","","","","","","","","","","","tol_peg_3","528","528","0","[[1,0,0],[2,0],[0]]","3","[[1,3,0],[2,0],[0]]","0","0","","","","","","3"
"","","","","","single-stim-button","330","2030691","0.0-4.0-10.2-1.2","5a08ddd0df3fa800015c36ac","A3","batch1","","656","","","tol_toboard","","","","","","","","","","","tol_peg_1","656","656","0","[[1,3,0],[2,0],[0]]","3","[[1,3,0],[2,0],[0]]","0","0","","","","","","3"
"","","","","","poldrack-single-stim","331","2031698","0.0-4.0-11.0","5a08ddd0df3fa800015c36ac","A3","batch1","","-1","","","tol_feedback","true","","","","","","","","","","","1000","1000","500","","","","","","-1","none","true","14273","15409",""
"","","","","","html-button-response","332","2034363","0.0-4.0-12.0","5a08ddd0df3fa800015c36ac","A3","batch1","","2664.7000000476837","<div class = centerbox><p class = center-block-text>problem <strong>2</strong> out of 25 problems</p></div>","0","tol_trial_num","","","","","","","","","","","","","","","","","","","","","","","","",""
"","","","","","single-stim-button","333","2041328","0.0-4.0-13.0-0.0","5a08ddd0df3fa800015c36ac","A3","batch1","","6964","","","tol_tohand","","","","","","","","","","","tol_peg_1","6964","6964","0","[[1,0,0],[3,0],[0]]","1","[[2,1,3],[0,0],[0]]","1","0","","","","","","5"
"","","","","","single-stim-button","334","2041920","0.0-4.0-13.0-1.0","5a08ddd0df3fa800015c36ac","A3","batch1","","592","","","tol_toboard","","","","","","","","","","","tol_peg_3","592","592","0","[[1,0,0],[3,0],[2]]","1","[[2,1,3],[0,0],[0]]","1","0","","","","","","5"
"","","","","","single-stim-button","335","2042448","0.0-4.0-13.1-0.1","5a08ddd0df3fa800015c36ac","A3","batch1","","528","","","tol_tohand","","","","","","","","","","","tol_peg_1","528","528","0","[[0,0,0],[3,0],[2]]","2","[[2,1,3],[0,0],[0]]","1","0","","","","","","5"
"","","","","","single-stim-button","336","2042992","0.0-4.0-13.1-1.1","5a08ddd0df3fa800015c36ac","A3","batch1","","544","","","tol_toboard","","","","","","","","","","","tol_peg_2","544","544","0","[[0,0,0],[3,1],[2]]","2","[[2,1,3],[0,0],[0]]","1","0","","","","","","5"
"","","","","","single-stim-button","337","2043536","0.0-4.0-13.2-0.2","5a08ddd0df3fa800015c36ac","A3","batch1","","544","","","tol_tohand","","","","","","","","","","","tol_peg_3","544","544","0","[[0,0,0],[3,1],[0]]","3","[[2,1,3],[0,0],[0]]","1","0","","","","","","5"
"","","","","","single-stim-button","338","2044260","0.0-4.0-13.2-1.2","5a08ddd0df3fa800015c36ac","A3","batch1","","723","","","tol_toboard","","","","","","","","","","","tol_peg_1","723","723","0","[[2,0,0],[3,1],[0]]","3","[[2,1,3],[0,0],[0]]","1","0","","","","","","5"
"","","","","","single-stim-button","339","2044789","0.0-4.0-13.3-0.3","5a08ddd0df3fa800015c36ac","A3","batch1","","528","","","tol_tohand","","","","","","","","","","","tol_peg_2","528","528","0","[[2,0,0],[3,0],[0]]","4","[[2,1,3],[0,0],[0]]","1","0","","","","","","5"
"","","","","","single-stim-button","340","2045380","0.0-4.0-13.3-1.3","5a08ddd0df3fa800015c36ac","A3","batch1","","591","","","tol_toboard","","","","","","","","","","","tol_peg_1","591","591","0","[[2,1,0],[3,0],[0]]","4","[[2,1,3],[0,0],[0]]","1","0","","","","","","5"
"","","","","","single-stim-button","341","2045892","0.0-4.0-13.4-0.4","5a08ddd0df3fa800015c36ac","A3","batch1","","511","","","tol_tohand","","","","","","","","","","","tol_peg_2","511","511","0","[[2,1,0],[0,0],[0]]","5","[[2,1,3],[0,0],[0]]","1","0","","","","","","5"
"","","","","","single-stim-button","342","2046468","0.0-4.0-13.4-1.4","5a08ddd0df3fa800015c36ac","A3","batch1","","575","","","tol_toboard","","","","","","","","","","","tol_peg_1","575","575","0","[[2,1,3],[0,0],[0]]","5","[[2,1,3],[0,0],[0]]","1","0","","","","","","5"
"","","","","","poldrack-single-stim","343","2047474","0.0-4.0-14.0","5a08ddd0df3fa800015c36ac","A3","batch1","","-1","","","tol_feedback","true","","","","","","","","","","","1000","1000","500","","","","","","-1","none","true","6964","9075",""
"","","","","","html-button-response","344","2048337","0.0-4.0-15.0","5a08ddd0df3fa800015c36ac","A3","batch1","","861.6999998092651","<div class = centerbox><p class = center-block-text>problem <strong>3</strong> out of 25 problems</p></div>","0","tol_trial_num","","","","","","","","","","","","","","","","","","","","","","","","",""
"","","","","","single-stim-button","345","2062530","0.0-4.0-16.0-0.0","5a08ddd0df3fa800015c36ac","A3","batch1","","14193","","","tol_tohand","","","","","","","","","","","tol_peg_1","14193","14193","0","[[2,0,0],[0,0],[1]]","1","[[1,2,0],[3,0],[0]]","2","0","","","","","","4"
"","","","","","single-stim-button","346","2063010","0.0-4.0-16.0-1.0","5a08ddd0df3fa800015c36ac","A3","batch1","","479","","","tol_toboard","","","","","","","","","","","tol_peg_2","479","479","0","[[2,0,0],[3,0],[1]]","1","[[1,2,0],[3,0],[0]]","2","0","","","","","","4"
"","","","","","single-stim-button","347","2063458","0.0-4.0-16.1-0.1","5a08ddd0df3fa800015c36ac","A3","batch1","","447","","","tol_tohand","","","","","","","","","","","tol_peg_1","447","447","0","[[0,0,0],[3,0],[1]]","2","[[1,2,0],[3,0],[0]]","2","0","","","","","","4"
