"success","timeout","failed_images","failed_audio","failed_video","trial_type","trial_index","time_elapsed","internal_node_id","subject_id","study_id","session_id","view_history","rt","task","stimulus","response","correct","mouse_click","stim_duration","block_duration","timing_post_trial","current_position","tol_num_moves_made","tol_target","tol_problem_id","tol_rt","key_press","possible_responses","tol_correct","preplanning","tol_rt_per_trial","tol_min_moves","answer","item","fiar_detect_rt","fiar_detect_correct","total_correct_fiar_detect","post_trial_gap","choices","spm_correct","spm_rt"
"true","false","[]","[]","[]","preload","0","1212","0.0-0.0","5a585be8e0cf3d00012657b8","E1","batch5","","","","","","","","","","","","","","","","","","","","","","","","","","","","","",""
"true","","","","","fullscreen","1","8317","0.0-1.0-0.0","5a585be8e0cf3d00012657b8","E1","batch5","","","","","","","","","","","","","","","","","","","","","","","","","","","","","",""
"true","","","","","fullscreen","2","10558","0.0-2.0-0.0","5a585be8e0cf3d00012657b8","E1","batch5","","","","","","","","","","","","","","","","","","","","","","","","","","","","","",""
"","","","","","instructions","3","59751","0.0-2.0-1.0-0.0-0.0","5a585be8e0cf3d00012657b8","E1","batch5","[{""page_index"":0,""viewing_time"":9211},{""page_index"":1,""viewing_time"":6534},{""page_index"":2,""viewing_time"":3078},{""page_index"":3,""viewing_time"":8287},{""page_index"":4,""viewing_time"":4664},{""page_index"":5,""viewing_time"":14489.799999952316},{""page_index"":6,""viewing_time"":2927.899999976158}]","49191.89999997616","tol-instructions","","","","","","","","","","","","","","","","","","","","","","","","","","",""
"","","","","","html-button-response","4","60825","0.0-2.0-1.0-1.0-0.0","5a585be8e0cf3d00012657b8","E1","batch5","","1073.6000000238419","tol_enter_quiz","<p class=block-text> Let's answer a few questions <br>","0","","","","","","","","","","","","","","","","","","","","","","","","",""
"","","","","","html-button-response","5","66681","0.0-2.0-1.0-1.0-1.0","5a585be8e0cf3d00012657b8","E1","batch5","","5855.299999952316","tol_quiz","<p class = block-text>True or False: You can only move the ball on top of a peg. <br></p>","0","true","","","","","","","","","","","","","","","","","","","","","","","",""
"","","","","","html-button-response","6","67792","0.0-2.0-1.0-1.0-2.0","5a585be8e0cf3d00012657b8","E1","batch5","","1111.1000000238419","tol_quiz_feedback","<p class = block-text>Correct! You can only move the ball on top of a peg.</p>","0","","","","","","","","","","","","","","","","","","","","","","","","",""
"","","","","","html-button-response","7","70578","0.0-2.0-1.0-1.0-3.0","5a585be8e0cf3d00012657b8","E1","batch5","","2785.5","tol_quiz","<p class = block-text>True or False: You should try to match your board with the target board with fewest moves possible. <br></p>","0","true","","","","","","","","","","","","","","","","","","","","","","","",""
"","","","","","html-button-response","8","71344","0.0-2.0-1.0-1.0-4.0","5a585be8e0cf3d00012657b8","E1","batch5","","765.6000000238419","tol_quiz_feedback","<p class = block-text>Correct! </p>","0","","","","","","","","","","","","","","","","","","","","","","","","",""
"","","","","","html-button-response","9","73056","0.0-2.0-2.0","5a585be8e0cf3d00012657b8","E1","batch5","","1711.0999999046326","","<p class=block-text> Now that you've understood the game, let's practice a few easier examples before we start!<br> <br>","0","","","","","","","","","","","","","","","","","","","","","","","","",""
"","","","","","single-stim-button","10","74817","0.0-2.0-3.0-0.0","5a585be8e0cf3d00012657b8","E1","batch5","","1760","tol_practice","","","","tol_peg_2","1760","1760","0","[[1,2,0],[0,0],[0]]","1","[[1,2,0],[0,0],[3]]","practice","1760","","","","","","","","","","","","","","",""
"","","","","","single-stim-button","11","76245","0.0-2.0-3.0-1.0","5a585be8e0cf3d00012657b8","E1","batch5","","1428","tol_practice","","","","tol_peg_3","1428","1428","0","[[1,2,0],[0,0],[3]]","1","[[1,2,0],[0,0],[3]]","practice","1428","","","","","","","","","","","","","","",""
"","","","","","poldrack-single-stim","12","77247","0.0-2.0-4.0","5a585be8e0cf3d00012657b8","E1","batch5","","-1","tol_feedback","","","true","","1000","1000","500","","","","","","-1","none","true","","0","","","","","","","","","",""
"","","","","","single-stim-button","13","83402","0.0-2.0-5.0-0.0","5a585be8e0cf3d00012657b8","E1","batch5","","6155","tol_practice","","","","tol_peg_1","6155","6155","0","[[1,0,0],[3,0],[0]]","2","[[0,0,0],[3,1],[2]]","practice","6155","","","","","","","","","","","","","","",""
"","","","","","single-stim-button","14","85596","0.0-2.0-5.0-1.0","5a585be8e0cf3d00012657b8","E1","batch5","","2193","tol_practice","","","","tol_peg_3","2193","2193","0","[[1,0,0],[3,0],[2]]","2","[[0,0,0],[3,1],[2]]","practice","2193","","","","","","","","","","","","","","",""
"","","","","","single-stim-button","15","86369","0.0-2.0-5.1-0.1","5a585be8e0cf3d00012657b8","E1","batch5","","772","tol_practice","","","","tol_peg_1","772","772","0","[[0,0,0],[3,0],[2]]","3","[[0,0,0],[3,1],[2]]","practice","772","","","","","","","","","","","","","","",""
"","","","","","single-stim-button","16","87079","0.0-2.0-5.1-1.1","5a585be8e0cf3d00012657b8","E1","batch5","","709","tol_practice","","","","tol_peg_2","709","709","0","[[0,0,0],[3,1],[2]]","3","[[0,0,0],[3,1],[2]]","practice","709","","","","","","","","","","","","","","",""
"","","","","","poldrack-single-stim","17","88081","0.0-2.0-6.0","5a585be8e0cf3d00012657b8","E1","batch5","","-1","tol_feedback","","","true","","1000","1000","500","","","","","","-1","none","true","","0","","","","","","","","","",""
"","","","","","single-stim-button","18","91570","0.0-2.0-7.0-0.0","5a585be8e0cf3d00012657b8","E1","batch5","","3489","tol_practice","","","","tol_peg_2","3489","3489","0","[[1,2,0],[0,0],[0]]","4","[[1,0,0],[2,0],[3]]","practice","3489","","","","","","","","","","","","","","",""
"","","","","","single-stim-button","19","92367","0.0-2.0-7.0-1.0","5a585be8e0cf3d00012657b8","E1","batch5","","796","tol_practice","","","","tol_peg_3","796","796","0","[[1,2,0],[0,0],[3]]","4","[[1,0,0],[2,0],[3]]","practice","796","","","","","","","","","","","","","","",""
"","","","","","single-stim-button","20","93069","0.0-2.0-7.1-0.1","5a585be8e0cf3d00012657b8","E1","batch5","","701","tol_practice","","","","tol_peg_1","701","701","0","[[1,0,0],[0,0],[3]]","5","[[1,0,0],[2,0],[3]]","practice","701","","","","","","","","","","","","","","",""
"","","","","","single-stim-button","21","93819","0.0-2.0-7.1-1.1","5a585be8e0cf3d00012657b8","E1","batch5","","750","tol_practice","","","","tol_peg_2","750","750","0","[[1,0,0],[2,0],[3]]","5","[[1,0,0],[2,0],[3]]","practice","750","","","","","","","","","","","","","","",""
"","","","","","poldrack-single-stim","22","94820","0.0-2.0-8.0","5a585be8e0cf3d00012657b8","E1","batch5","","-1","tol_feedback","","","true","","1000","1000","500","","","","","","-1","none","true","","0","","","","","","","","","",""
"","","","","","html-button-response","23","97639","0.0-2.0-9.0","5a585be8e0cf3d00012657b8","E1","batch5","","2819","tol_instruction","<div class = centerbox><p class = center-block-text>Great job! You are done with practice trials<br>You are about to start official trials.<br> <br> Problem <strong>1</strong> out of 25 problems</p></div>","0","","","","","","","","","","","","","","","","","","","","","","","","",""
"","","","","","single-stim-button","24","103802","0.0-2.0-10.0-0.0","5a585be8e0cf3d00012657b8","E1","batch5","","5162","tol_tohand","","","","tol_peg_1","5162","5162","0","[[1,0,0],[3,0],[0]]","1","[[1,3,0],[2,0],[0]]","0","0","","","","","","3","","","","","","","","",""
"","","","","","single-stim-button","25","105104","0.0-2.0-10.0-1.0","5a585be8e0cf3d00012657b8","E1","batch5","","1301","tol_toboard","","","","tol_peg_3","1301","1301","0","[[1,0,0],[3,0],[2]]","1","[[1,3,0],[2,0],[0]]","0","0","","","","","","3","","","","","","","","",""
"","","","","","single-stim-button","26","105743","0.0-2.0-10.1-0.1","5a585be8e0cf3d00012657b8","E1","batch5","","638","tol_tohand","","","","tol_peg_2","638","638","0","[[1,0,0],[0,0],[2]]","2","[[1,3,0],[2,0],[0]]","0","0","","","","","","3","","","","","","","","",""
"","","","","","single-stim-button","27","106682","0.0-2.0-10.1-1.1","5a585be8e0cf3d00012657b8","E1","batch5","","939","tol_toboard","","","","tol_peg_1","939","939","0","[[1,3,0],[0,0],[2]]","2","[[1,3,0],[2,0],[0]]","0","0","","","","","","3","","","","","","","","",""
"","","","","","single-stim-button","28","107432","0.0-2.0-10.2-0.2","5a585be8e0cf3d00012657b8","E1","batch5","","750","tol_tohand","","","","tol_peg_3","750","750","0","[[1,3,0],[0,0],[0]]","3","[[1,3,0],[2,0],[0]]","0","0","","","","","","3","","","","","","","","",""
"","","","","","single-stim-button","29","108016","0.0-2.0-10.2-1.2","5a585be8e0cf3d00012657b8","E1","batch5","","583","tol_toboard","","","","tol_peg_2","583","583","0","[[1,3,0],[2,0],[0]]","3","[[1,3,0],[2,0],[0]]","0","0","","","","","","3","","","","","","","","",""
"","","","","","poldrack-single-stim","30","109017","0.0-2.0-11.0","5a585be8e0cf3d00012657b8","E1","batch5","","-1","tol_feedback","","","true","","1000","1000","500","","","","","","-1","none","true","5162","6550","","","","","","","","","",""
"","","","","","html-button-response","31","109981","0.0-2.0-12.0","5a585be8e0cf3d00012657b8","E1","batch5","","963.8999999761581","tol_trial_num","<div class = centerbox><p class = center-block-text>problem <strong>2</strong> out of 25 problems</p></div>","0","","","","","","","","","","","","","","","","","","","","","","","","",""
"","","","","","single-stim-button","32","118694","0.0-2.0-13.0-0.0","5a585be8e0cf3d00012657b8","E1","batch5","","8713","tol_tohand","","","","tol_peg_1","8713","8713","0","[[1,0,0],[3,0],[0]]","1","[[2,1,3],[0,0],[0]]","1","0","","","","","","5","","","","","","","","",""
"","","","","","single-stim-button","33","123136","0.0-2.0-13.0-1.0","5a585be8e0cf3d00012657b8","E1","batch5","","4441","tol_toboard","","","","tol_peg_2","4441","4441","0","[[1,0,0],[3,2],[0]]","1","[[2,1,3],[0,0],[0]]","1","0","","","","","","5","","","","","","","","",""
"","","","","","single-stim-button","34","124723","0.0-2.0-13.1-0.1","5a585be8e0cf3d00012657b8","E1","batch5","","1587","tol_tohand","","","","tol_peg_1","1587","1587","0","[[0,0,0],[3,2],[0]]","2","[[2,1,3],[0,0],[0]]","1","0","","","","","","5","","","","","","","","",""
"","","","","","single-stim-button","35","125622","0.0-2.0-13.1-1.1","5a585be8e0cf3d00012657b8","E1","batch5","","899","tol_toboard","","","","tol_peg_3","899","899","0","[[0,0,0],[3,2],[1]]","2","[[2,1,3],[0,0],[0]]","1","0","","","","","","5","","","","","","","","",""
"","","","","","single-stim-button","36","126483","0.0-2.0-13.2-0.2","5a585be8e0cf3d00012657b8","E1","batch5","","861","tol_tohand","","","","tol_peg_2","861","861","0","[[0,0,0],[3,0],[1]]","3","[[2,1,3],[0,0],[0]]","1","0","","","","","","5","","","","","","","","",""
"","","","","","single-stim-button","37","127201","0.0-2.0-13.2-1.2","5a585be8e0cf3d00012657b8","E1","batch5","","718","tol_toboard","","","","tol_peg_1","718","718","0","[[2,0,0],[3,0],[1]]","3","[[2,1,3],[0,0],[0]]","1","0","","","","","","5","","","","","","","","",""
"","","","","","single-stim-button","38","128061","0.0-2.0-13.3-0.3","5a585be8e0cf3d00012657b8","E1","batch5","","860","tol_tohand","","","","tol_peg_3","860","860","0","[[2,0,0],[3,0],[0]]","4","[[2,1,3],[0,0],[0]]","1","0","","","","","","5","","","","","","","","",""
"","","","","","single-stim-button","39","128771","0.0-2.0-13.3-1.3","5a585be8e0cf3d00012657b8","E1","batch5","","710","tol_toboard","","","","tol_peg_1","710","710","0","[[2,1,0],[3,0],[0]]","4","[[2,1,3],[0,0],[0]]","1","0","","","","","","5","","","","","","","","",""
"","","","","","single-stim-button","40","129245","0.0-2.0-13.4-0.4","5a585be8e0cf3d00012657b8","E1","batch5","","474","tol_tohand","","","","tol_peg_2","474","474","0","[[2,1,0],[0,0],[0]]","5","[[2,1,3],[0,0],[0]]","1","0","","","","","","5","","","","","","","","",""
"","","","","","single-stim-button","41","129995","0.0-2.0-13.4-1.4","5a585be8e0cf3d00012657b8","E1","batch5","","750","tol_toboard","","","","tol_peg_1","750","750","0","[[2,1,3],[0,0],[0]]","5","[[2,1,3],[0,0],[0]]","1","0","","","","","","5","","","","","","","","",""
"","","","","","poldrack-single-stim","42","130996","0.0-2.0-14.0","5a585be8e0cf3d00012657b8","E1","batch5","","-1","tol_feedback","","","true","","1000","1000","500","","","","","","-1","none","true","8713","12495","","","","","","","","","",""
"","","","","","html-button-response","43","131747","0.0-2.0-15.0","5a585be8e0cf3d00012657b8","E1","batch5","","750.3999999761581","tol_trial_num","<div class = centerbox><p class = center-block-text>problem <strong>3</strong> out of 25 problems</p></div>","0","","","","","","","","","","","","","","","","","","","","","","","","",""
"","","","","","single-stim-button","44","136822","0.0-2.0-16.0-0.0","5a585be8e0cf3d00012657b8","E1","batch5","","5075","tol_tohand","","","","tol_peg_1","5075","5075","0","[[2,0,0],[0,0],[1]]","1","[[1,2,0],[3,0],[0]]","2","0","","","","","","4","","","","","","","","",""
"","","","","","single-stim-button","45","141439","0.0-2.0-16.0-1.0","5a585be8e0cf3d00012657b8","E1","batch5","","4617","tol_toboard","","","","tol_peg_2","4617","4617","0","[[2,0,0],[3,0],[1]]","1","[[1,2,0],[3,0],[0]]","2","0","","","","","","4","","","","","","","","",""
"","","","","","single-stim-button","46","143128","0.0-2.0-16.1-0.1","5a585be8e0cf3d00012657b8","E1","batch5","","1688","tol_tohand","","","","tol_peg_3","1688","1688","0","[[2,0,0],[3,0],[0]]","2","[[1,2,0],[3,0],[0]]","2","0","","","","","","4","","","","","","","","",""
"","","","","","single-stim-button","47","143870","0.0-2.0-16.1-1.1","5a585be8e0cf3d00012657b8","E1","batch5","","742","tol_toboard","","","","tol_peg_2","742","742","0","[[2,0,0],[3,1],[0]]","2","[[1,2,0],[3,0],[0]]","2","0","","","","","","4","","","","","","","","",""
"","","","","","single-stim-button","48","145607","0.0-2.0-16.2-0.2","5a585be8e0cf3d00012657b8","E1","batch5","","1737","tol_tohand","","","","tol_peg_1","1737","1737","0","[[0,0,0],[3,1],[0]]","3","[[1,2,0],[3,0],[0]]","2","0","","","","","","4","","","","","","","","",""
"","","","","","single-stim-button","49","147059","0.0-2.0-16.2-1.2","5a585be8e0cf3d00012657b8","E1","batch5","","1452","tol_toboard","","","","tol_peg_3","1452","1452","0","[[0,0,0],[3,1],[2]]","3","[[1,2,0],[3,0],[0]]","2","0","","","","","","4","","","","","","","","",""
"","","","","","single-stim-button","50","147643","0.0-2.0-16.3-0.3","5a585be8e0cf3d00012657b8","E1","batch5","","584","tol_tohand","","","","tol_peg_2","584","584","0","[[0,0,0],[3,0],[2]]","4","[[1,2,0],[3,0],[0]]","2","0","","","","","","4","","","","","","","","",""
"","","","","","single-stim-button","51","148401","0.0-2.0-16.3-1.3","5a585be8e0cf3d00012657b8","E1","batch5","","758","tol_toboard","","","","tol_peg_1","758","758","0","[[1,0,0],[3,0],[2]]","4","[[1,2,0],[3,0],[0]]","2","0","","","","","","4","","","","","","","","",""
"","","","","","single-stim-button","52","149616","0.0-2.0-16.4-0.4","5a585be8e0cf3d00012657b8","E1","batch5","","1215","tol_tohand","","","","tol_peg_3","1215","1215","0","[[1,0,0],[3,0],[0]]","5","[[1,2,0],[3,0],[0]]","2","0","","","","","","4","","","","","","","","",""
"","","","","","single-stim-button","53","150216","0.0-2.0-16.4-1.4","5a585be8e0cf3d00012657b8","E1","batch5","","600","tol_toboard","","","","tol_peg_1","600","600","0","[[1,2,0],[3,0],[0]]","5","[[1,2,0],[3,0],[0]]","2","0","","","","","","4","","","","","","","","",""
"","","","","","poldrack-single-stim","54","151217","0.0-2.0-17.0","5a585be8e0cf3d00012657b8","E1","batch5","","-1","tol_feedback","","","true","","1000","1000","500","","","","","","-1","none","true","5075","10299","","","","","","","","","",""
"","","","","","html-button-response","55","152213","0.0-2.0-18.0","5a585be8e0cf3d00012657b8","E1","batch5","","995.3999999761581","tol_trial_num","<div class = centerbox><p class = center-block-text>problem <strong>4</strong> out of 25 problems</p></div>","0","","","","","","","","","","","","","","","","","","","","","","","","",""
"","","","","","single-stim-button","56","156475","0.0-2.0-19.0-0.0","5a585be8e0cf3d00012657b8","E1","batch5","","4262","tol_tohand","","","","tol_peg_2","4262","4262","0","[[3,0,0],[2,0],[0]]","1","[[3,0,0],[1,0],[2]]","3","0","","","","","","3","","","","","","","","",""
"","","","","","single-stim-button","57","157122","0.0-2.0-19.0-1.0","5a585be8e0cf3d00012657b8","E1","batch5","","647","tol_toboard","","","","tol_peg_1","647","647","0","[[3,1,0],[2,0],[0]]","1","[[3,0,0],[1,0],[2]]","3","0","","","","","","3","","","","","","","","",""
"","","","","","single-stim-button","58","157714","0.0-2.0-19.1-0.1","5a585be8e0cf3d00012657b8","E1","batch5","","592","tol_tohand","","","","tol_peg_2","592","592","0","[[3,1,0],[0,0],[0]]","2","[[3,0,0],[1,0],[2]]","3","0","","","","","","3","","","","","","","","",""
"","","","","","single-stim-button","59","158416","0.0-2.0-19.1-1.1","5a585be8e0cf3d00012657b8","E1","batch5","","702","tol_toboard","","","","tol_peg_3","702","702","0","[[3,1,0],[0,0],[2]]","2","[[3,0,0],[1,0],[2]]","3","0","","","","","","3","","","","","","","","",""
"","","","","","single-stim-button","60","158930","0.0-2.0-19.2-0.2","5a585be8e0cf3d00012657b8","E1","batch5","","514","tol_tohand","","","","tol_peg_1","514","514","0","[[3,0,0],[0,0],[2]]","3","[[3,0,0],[1,0],[2]]","3","0","","","","","","3","","","","","","","","",""
"","","","","","single-stim-button","61","159371","0.0-2.0-19.2-1.2","5a585be8e0cf3d00012657b8","E1","batch5","","441","tol_toboard","","","","tol_peg_2","441","441","0","[[3,0,0],[1,0],[2]]","3","[[3,0,0],[1,0],[2]]","3","0","","","","","","3","","","","","","","","",""
"","","","","","poldrack-single-stim","62","160372","0.0-2.0-20.0","5a585be8e0cf3d00012657b8","E1","batch5","","-1","tol_feedback","","","true","","1000","1000","500","","","","","","-1","none","true","4262","5368","","","","","","","","","",""
"","","","","","html-button-response","63","161084","0.0-2.0-21.0","5a585be8e0cf3d00012657b8","E1","batch5","","711.3999999761581","tol_trial_num","<div class = centerbox><p class = center-block-text>problem <strong>5</strong> out of 25 problems</p></div>","0","","","","","","","","","","","","","","","","","","","","","","","","",""
"","","","","","single-stim-button","64","172267","0.0-2.0-22.0-0.0","5a585be8e0cf3d00012657b8","E1","batch5","","11183","tol_tohand","","","","tol_peg_3","11183","11183","0","[[1,0,0],[2,0],[0]]","1","[[0,0,0],[1,2],[3]]","4","0","","","","","","7","","","","","","","","",""
"","","","","","single-stim-button","65","182409","0.0-2.0-22.0-1.0","5a585be8e0cf3d00012657b8","E1","batch5","","10142","tol_toboard","","","","tol_peg_2","10142","10142","0","[[1,0,0],[2,3],[0]]","1","[[0,0,0],[1,2],[3]]","4","0","","","","","","7","","","","","","","","",""
"","","","","","single-stim-button","66","183200","0.0-2.0-22.1-0.1","5a585be8e0cf3d00012657b8","E1","batch5","","791","tol_tohand","","","","tol_peg_1","791","791","0","[[0,0,0],[2,3],[0]]","2","[[0,0,0],[1,2],[3]]","4","0","","","","","","7","","","","","","","","",""
"","","","","","single-stim-button","67","184178","0.0-2.0-22.1-1.1","5a585be8e0cf3d00012657b8","E1","batch5","","978","tol_toboard","","","","tol_peg_3","978","978","0","[[0,0,0],[2,3],[1]]","2","[[0,0,0],[1,2],[3]]","4","0","","","","","","7","","","","","","","","",""
"","","","","","single-stim-button","68","185243","0.0-2.0-22.2-0.2","5a585be8e0cf3d00012657b8","E1","batch5","","1064","tol_tohand","","","","tol_peg_2","1064","1064","0","[[0,0,0],[2,0],[1]]","3","[[0,0,0],[1,2],[3]]","4","0","","","","","","7","","","","","","","","",""
"","","","","","single-stim-button","69","187130","0.0-2.0-22.2-1.2","5a585be8e0cf3d00012657b8","E1","batch5","","1887","tol_toboard","","","","tol_peg_1","1887","1887","0","[[3,0,0],[2,0],[1]]","3","[[0,0,0],[1,2],[3]]","4","0","","","","","","7","","","","","","","","",""
"","","","","","single-stim-button","70","187666","0.0-2.0-22.3-0.3","5a585be8e0cf3d00012657b8","E1","batch5","","536","tol_tohand","","","","tol_peg_2","536","536","0","[[3,0,0],[0,0],[1]]","4","[[0,0,0],[1,2],[3]]","4","0","","","","","","7","","","","","","","","",""
"","","","","","single-stim-button","71","188077","0.0-2.0-22.3-1.3","5a585be8e0cf3d00012657b8","E1","batch5","","410","tol_toboard","","","","tol_peg_1","410","410","0","[[3,2,0],[0,0],[1]]","4","[[0,0,0],[1,2],[3]]","4","0","","","","","","7","","","","","","","","",""
"","","","","","single-stim-button","72","188629","0.0-2.0-22.4-0.4","5a585be8e0cf3d00012657b8","E1","batch5","","552","tol_tohand","","","","tol_peg_3","552","552","0","[[3,2,0],[0,0],[0]]","5","[[0,0,0],[1,2],[3]]","4","0","","","","","","7","","","","","","","","",""
"","","","","","single-stim-button","73","189237","0.0-2.0-22.4-1.4","5a585be8e0cf3d00012657b8","E1","batch5","","608","tol_toboard","","","","tol_peg_2","608","608","0","[[3,2,0],[1,0],[0]]","5","[[0,0,0],[1,2],[3]]","4","0","","","","","","7","","","","","","","","",""
"","","","","","single-stim-button","74","190895","0.0-2.0-22.5-0.5","5a585be8e0cf3d00012657b8","E1","batch5","","1658","tol_tohand","","","","tol_peg_1","1658","1658","0","[[3,0,0],[1,0],[0]]","6","[[0,0,0],[1,2],[3]]","4","0","","","","","","7","","","","","","","","",""
"","","","","","single-stim-button","75","191447","0.0-2.0-22.5-1.5","5a585be8e0cf3d00012657b8","E1","batch5","","551","tol_toboard","","","","tol_peg_2","551","551","0","[[3,0,0],[1,2],[0]]","6","[[0,0,0],[1,2],[3]]","4","0","","","","","","7","","","","","","","","",""
"","","","","","single-stim-button","76","191882","0.0-2.0-22.6-0.6","5a585be8e0cf3d00012657b8","E1","batch5","","435","tol_tohand","","","","tol_peg_1","435","435","0","[[0,0,0],[1,2],[0]]","7","[[0,0,0],[1,2],[3]]","4","0","","","","","","7","","","","","","","","",""
"","","","","","single-stim-button","77","192442","0.0-2.0-22.6-1.6","5a585be8e0cf3d00012657b8","E1","batch5","","560","tol_toboard","","","","tol_peg_3","560","560","0","[[0,0,0],[1,2],[3]]","7","[[0,0,0],[1,2],[3]]","4","0","","","","","","7","","","","","","","","",""
"","","","","","poldrack-single-stim","78","193443","0.0-2.0-23.0","5a585be8e0cf3d00012657b8","E1","batch5","","-1","tol_feedback","","","true","","1000","1000","500","","","","","","-1","none","true","11183","16219","","","","","","","","","",""
"","","","","","html-button-response","79","194083","0.0-2.0-24.0","5a585be8e0cf3d00012657b8","E1","batch5","","639.1000000238419","tol_trial_num","<div class = centerbox><p class = center-block-text>problem <strong>6</strong> out of 25 problems</p></div>","0","","","","","","","","","","","","","","","","","","","","","","","","",""
"","","","","","single-stim-button","80","205433","0.0-2.0-25.0-0.0","5a585be8e0cf3d00012657b8","E1","batch5","","11350","tol_tohand","","","","tol_peg_3","11350","11350","0","[[0,0,0],[1,2],[0]]","1","[[1,0,0],[2,3],[0]]","5","0","","","","","","6","","","","","","","","",""
"","","","","","single-stim-button","81","205986","0.0-2.0-25.0-1.0","5a585be8e0cf3d00012657b8","E1","batch5","","553","tol_toboard","","","","tol_peg_1","553","553","0","[[3,0,0],[1,2],[0]]","1","[[1,0,0],[2,3],[0]]","5","0","","","","","","6","","","","","","","","",""
"","","","","","single-stim-button","82","206483","0.0-2.0-25.1-0.1","5a585be8e0cf3d00012657b8","E1","batch5","","497","tol_tohand","","","","tol_peg_2","497","497","0","[[3,0,0],[1,0],[0]]","2","[[1,0,0],[2,3],[0]]","5","0","","","","","","6","","","","","","","","",""
"","","","","","single-stim-button","83","208180","0.0-2.0-25.1-1.1","5a585be8e0cf3d00012657b8","E1","batch5","","1696","tol_toboard","","","","tol_peg_3","1696","1696","0","[[3,0,0],[1,0],[2]]","2","[[1,0,0],[2,3],[0]]","5","0","","","","","","6","","","","","","","","",""
"","","","","","single-stim-button","84","208969","0.0-2.0-25.2-0.2","5a585be8e0cf3d00012657b8","E1","batch5","","789","tol_tohand","","","","tol_peg_2","789","789","0","[[3,0,0],[0,0],[2]]","3","[[1,0,0],[2,3],[0]]","5","0","","","","","","6","","","","","","","","",""
"","","","","","single-stim-button","85","210287","0.0-2.0-25.2-1.2","5a585be8e0cf3d00012657b8","E1","batch5","","1317","tol_toboard","","","","tol_peg_1","1317","1317","0","[[3,1,0],[0,0],[2]]","3","[[1,0,0],[2,3],[0]]","5","0","","","","","","6","","","","","","","","",""
"","","","","","single-stim-button","86","210934","0.0-2.0-25.3-0.3","5a585be8e0cf3d00012657b8","E1","batch5","","647","tol_tohand","","","","tol_peg_3","647","647","0","[[3,1,0],[0,0],[0]]","4","[[1,0,0],[2,3],[0]]","5","0","","","","","","6","","","","","","","","",""
"","","","","","single-stim-button","87","211470","0.0-2.0-25.3-1.3","5a585be8e0cf3d00012657b8","E1","batch5","","535","tol_toboard","","","","tol_peg_2","535","535","0","[[3,1,0],[2,0],[0]]","4","[[1,0,0],[2,3],[0]]","5","0","","","","","","6","","","","","","","","",""
"","","","","","single-stim-button","88","212402","0.0-2.0-25.4-0.4","5a585be8e0cf3d00012657b8","E1","batch5","","932","tol_tohand","","","","tol_peg_1","932","932","0","[[3,0,0],[2,0],[0]]","5","[[1,0,0],[2,3],[0]]","5","0","","","","","","6","","","","","","","","",""
"","","","","","single-stim-button","89","213759","0.0-2.0-25.4-1.4","5a585be8e0cf3d00012657b8","E1","batch5","","1356","tol_toboard","","","","tol_peg_3","1356","1356","0","[[3,0,0],[2,0],[1]]","5","[[1,0,0],[2,3],[0]]","5","0","","","","","","6","","","","","","","","",""
"","","","","","single-stim-button","90","214335","0.0-2.0-25.5-0.5","5a585be8e0cf3d00012657b8","E1","batch5","","576","tol_tohand","","","","tol_peg_1","576","576","0","[[0,0,0],[2,0],[1]]","6","[[1,0,0],[2,3],[0]]","5","0","","","","","","6","","","","","","","","",""
"","","","","","single-stim-button","91","214690","0.0-2.0-25.5-1.5","5a585be8e0cf3d00012657b8","E1","batch5","","354","tol_toboard","","","","tol_peg_2","354","354","0","[[0,0,0],[2,3],[1]]","6","[[1,0,0],[2,3],[0]]","5","0","","","","","","6","","","","","","","","",""
"","","","","","single-stim-button","92","215037","0.0-2.0-25.6-0.6","5a585be8e0cf3d00012657b8","E1","batch5","","346","tol_tohand","","","","tol_peg_3","346","346","0","[[0,0,0],[2,3],[0]]","7","[[1,0,0],[2,3],[0]]","5","0","","","","","","6","","","","","","","","",""
"","","","","","single-stim-button","93","215620","0.0-2.0-25.6-1.6","5a585be8e0cf3d00012657b8","E1","batch5","","583","tol_toboard","","","","tol_peg_1","583","583","0","[[1,0,0],[2,3],[0]]","7","[[1,0,0],[2,3],[0]]","5","0","","","","","","6","","","","","","","","",""
"","","","","","poldrack-single-stim","94","216621","0.0-2.0-26.0","5a585be8e0cf3d00012657b8","E1","batch5","","-1","tol_feedback","","","true","","1000","1000","500","","","","","","-1","none","true","11350","15137","","","","","","","","","",""
"","","","","","html-button-response","95","217263","0.0-2.0-27.0","5a585be8e0cf3d00012657b8","E1","batch5","","640.8000000715256","tol_trial_num","<div class = centerbox><p class = center-block-text>problem <strong>7</strong> out of 25 problems</p></div>","0","","","","","","","","","","","","","","","","","","","","","","","","",""
"","","","","","single-stim-button","96","226399","0.0-2.0-28.0-0.0","5a585be8e0cf3d00012657b8","E1","batch5","","9136","tol_tohand","","","","tol_peg_3","9136","9136","0","[[2,1,0],[0,0],[0]]","1","[[1,2,0],[3,0],[0]]","6","0","","","","","","5","","","","","","","","",""
"","","","","","single-stim-button","97","227086","0.0-2.0-28.0-1.0","5a585be8e0cf3d00012657b8","E1","batch5","","686","tol_toboard","","","","tol_peg_2","686","686","0","[[2,1,0],[3,0],[0]]","1","[[1,2,0],[3,0],[0]]","6","0","","","","","","5","","","","","","","","",""
"","","","","","single-stim-button","98","227757","0.0-2.0-28.1-0.1","5a585be8e0cf3d00012657b8","E1","batch5","","669","tol_tohand","","","","tol_peg_1","669","669","0","[[2,0,0],[3,0],[0]]","2","[[1,2,0],[3,0],[0]]","6","0","","","","","","5","","","","","","","","",""
"","","","","","single-stim-button","99","228254","0.0-2.0-28.1-1.1","5a585be8e0cf3d00012657b8","E1","batch5","","497","tol_toboard","","","","tol_peg_2","497","497","0","[[2,0,0],[3,1],[0]]","2","[[1,2,0],[3,0],[0]]","6","0","","","","","","5","","","","","","","","",""
"","","","","","single-stim-button","100","228640","0.0-2.0-28.2-0.2","5a585be8e0cf3d00012657b8","E1","batch5","","385","tol_tohand","","","","tol_peg_1","385","385","0","[[0,0,0],[3,1],[0]]","3","[[1,2,0],[3,0],[0]]","6","0","","","","","","5","","","","","","","","",""
"","","","","","single-stim-button","101","229280","0.0-2.0-28.2-1.2","5a585be8e0cf3d00012657b8","E1","batch5","","639","tol_toboard","","","","tol_peg_3","639","639","0","[[0,0,0],[3,1],[2]]","3","[[1,2,0],[3,0],[0]]","6","0","","","","","","5","","","","","","","","",""
"","","","","","single-stim-button","102","230416","0.0-2.0-28.3-0.3","5a585be8e0cf3d00012657b8","E1","batch5","","1135","tol_tohand","","","","tol_peg_2","1135","1135","0","[[0,0,0],[3,0],[2]]","4","[[1,2,0],[3,0],[0]]","6","0","","","","","","5","","","","","","","","",""
"","","","","","single-stim-button","103","230882","0.0-2.0-28.3-1.3","5a585be8e0cf3d00012657b8","E1","batch5","","464","tol_toboard","","","","tol_peg_1","464","464","0","[[1,0,0],[3,0],[2]]","4","[[1,2,0],[3,0],[0]]","6","0","","","","","","5","","","","","","","","",""
"","","","","","single-stim-button","104","231679","0.0-2.0-28.4-0.4","5a585be8e0cf3d00012657b8","E1","batch5","","796","tol_tohand","","","","tol_peg_3","796","796","0","[[1,0,0],[3,0],[0]]","5","[[1,2,0],[3,0],[0]]","6","0","","","","","","5","","","","","","","","",""
"","","","","","single-stim-button","105","232264","0.0-2.0-28.4-1.4","5a585be8e0cf3d00012657b8","E1","batch5","","584","tol_toboard","","","","tol_peg_1","584","584","0","[[1,2,0],[3,0],[0]]","5","[[1,2,0],[3,0],[0]]","6","0","","","","","","5","","","","","","","","",""
"","","","","","poldrack-single-stim","106","233264","0.0-2.0-29.0","5a585be8e0cf3d00012657b8","E1","batch5","","-1","tol_feedback","","","true","","1000","1000","500","","","","","","-1","none","true","9136","12121","","","","","","","","","",""
"","","","","","html-button-response","107","233912","0.0-2.0-30.0","5a585be8e0cf3d00012657b8","E1","batch5","","647.9000000953674","tol_trial_num","<div class = centerbox><p class = center-block-text>problem <strong>8</strong> out of 25 problems</p></div>","0","","","","","","","","","","","","","","","","","","","","","","","","",""
"","","","","","single-stim-button","108","236909","0.0-2.0-31.0-0.0","5a585be8e0cf3d00012657b8","E1","batch5","","2996","tol_tohand","","","","tol_peg_3","2996","2996","0","[[0,0,0],[2,3],[0]]","1","[[1,2,0],[3,0],[0]]","7","0","","","","","","4","","","","","","","","",""
"","","","","","single-stim-button","109","237565","0.0-2.0-31.0-1.0","5a585be8e0cf3d00012657b8","E1","batch5","","654","tol_toboard","","","","tol_peg_1","654","654","0","[[1,0,0],[2,3],[0]]","1","[[1,2,0],[3,0],[0]]","7","0","","","","","","4","","","","","","","","",""
"","","","","","single-stim-button","110","238496","0.0-2.0-31.1-0.1","5a585be8e0cf3d00012657b8","E1","batch5","","931","tol_tohand","","","","tol_peg_2","931","931","0","[[1,0,0],[2,0],[0]]","2","[[1,2,0],[3,0],[0]]","7","0","","","","","","4","","","","","","","","",""
"","","","","","single-stim-button","111","239292","0.0-2.0-31.1-1.1","5a585be8e0cf3d00012657b8","E1","batch5","","795","tol_toboard","","","","tol_peg_3","795","795","0","[[1,0,0],[2,0],[3]]","2","[[1,2,0],[3,0],[0]]","7","0","","","","","","4","","","","","","","","",""
"","","","","","single-stim-button","112","239663","0.0-2.0-31.2-0.2","5a585be8e0cf3d00012657b8","E1","batch5","","370","tol_tohand","","","","tol_peg_2","370","370","0","[[1,0,0],[0,0],[3]]","3","[[1,2,0],[3,0],[0]]","7","0","","","","","","4","","","","","","","","",""
"","","","","","single-stim-button","113","240011","0.0-2.0-31.2-1.2","5a585be8e0cf3d00012657b8","E1","batch5","","347","tol_toboard","","","","tol_peg_1","347","347","0","[[1,2,0],[0,0],[3]]","3","[[1,2,0],[3,0],[0]]","7","0","","","","","","4","","","","","","","","",""
"","","","","","single-stim-button","114","240398","0.0-2.0-31.3-0.3","5a585be8e0cf3d00012657b8","E1","batch5","","386","tol_tohand","","","","tol_peg_3","386","386","0","[[1,2,0],[0,0],[0]]","4","[[1,2,0],[3,0],[0]]","7","0","","","","","","4","","","","","","","","",""
"","","","","","single-stim-button","115","240760","0.0-2.0-31.3-1.3","5a585be8e0cf3d00012657b8","E1","batch5","","362","tol_toboard","","","","tol_peg_2","362","362","0","[[1,2,0],[3,0],[0]]","4","[[1,2,0],[3,0],[0]]","7","0","","","","","","4","","","","","","","","",""
"","","","","","poldrack-single-stim","116","241761","0.0-2.0-32.0","5a585be8e0cf3d00012657b8","E1","batch5","","-1","tol_feedback","","","true","","1000","1000","500","","","","","","-1","none","true","2996","4683","","","","","","","","","",""
"","","","","","html-button-response","117","242449","0.0-2.0-33.0","5a585be8e0cf3d00012657b8","E1","batch5","","688","tol_trial_num","<div class = centerbox><p class = center-block-text>problem <strong>9</strong> out of 25 problems</p></div>","0","","","","","","","","","","","","","","","","","","","","","","","","",""
"","","","","","single-stim-button","118","249954","0.0-2.0-34.0-0.0","5a585be8e0cf3d00012657b8","E1","batch5","","7504","tol_tohand","","","","tol_peg_3","7504","7504","0","[[3,2,0],[0,0],[0]]","1","[[2,1,0],[3,0],[0]]","8","0","","","","","","6","","","","","","","","",""
"","","","","","single-stim-button","119","250537","0.0-2.0-34.0-1.0","5a585be8e0cf3d00012657b8","E1","batch5","","582","tol_toboard","","","","tol_peg_2","582","582","0","[[3,2,0],[1,0],[0]]","1","[[2,1,0],[3,0],[0]]","8","0","","","","","","6","","","","","","","","",""
"","","","","","single-stim-button","120","251579","0.0-2.0-34.1-0.1","5a585be8e0cf3d00012657b8","E1","batch5","","1041","tol_tohand","","","","tol_peg_1","1041","1041","0","[[3,0,0],[1,0],[0]]","2","[[2,1,0],[3,0],[0]]","8","0","","","","","","6","","","","","","","","",""
"","","","","","single-stim-button","121","252163","0.0-2.0-34.1-1.1","5a585be8e0cf3d00012657b8","E1","batch5","","584","tol_toboard","","","","tol_peg_2","584","584","0","[[3,0,0],[1,2],[0]]","2","[[2,1,0],[3,0],[0]]","8","0","","","","","","6","","","","","","","","",""
"","","","","","single-stim-button","122","252731","0.0-2.0-34.2-0.2","5a585be8e0cf3d00012657b8","E1","batch5","","568","tol_tohand","","","","tol_peg_1","568","568","0","[[0,0,0],[1,2],[0]]","3","[[2,1,0],[3,0],[0]]","8","0","","","","","","6","","","","","","","","",""
"","","","","","single-stim-button","123","253228","0.0-2.0-34.2-1.2","5a585be8e0cf3d00012657b8","E1","batch5","","496","tol_toboard","","","","tol_peg_3","496","496","0","[[0,0,0],[1,2],[3]]","3","[[2,1,0],[3,0],[0]]","8","0","","","","","","6","","","","","","","","",""
"","","","","","single-stim-button","124","253718","0.0-2.0-34.3-0.3","5a585be8e0cf3d00012657b8","E1","batch5","","490","tol_tohand","","","","tol_peg_2","490","490","0","[[0,0,0],[1,0],[3]]","4","[[2,1,0],[3,0],[0]]","8","0","","","","","","6","","","","","","","","",""
"","","","","","single-stim-button","125","254104","0.0-2.0-34.3-1.3","5a585be8e0cf3d00012657b8","E1","batch5","","386","tol_toboard","","","","tol_peg_1","386","386","0","[[2,0,0],[1,0],[3]]","4","[[2,1,0],[3,0],[0]]","8","0","","","","","","6","","","","","","","","",""
"","","","","","single-stim-button","126","254461","0.0-2.0-34.4-0.4","5a585be8e0cf3d00012657b8","E1","batch5","","355","tol_tohand","","","","tol_peg_2","355","355","0","[[2,0,0],[0,0],[3]]","5","[[2,1,0],[3,0],[0]]","8","0","","","","","","6","","","","","","","","",""
"","","","","","single-stim-button","127","254815","0.0-2.0-34.4-1.4","5a585be8e0cf3d00012657b8","E1","batch5","","354","tol_toboard","","","","tol_peg_1","354","354","0","[[2,1,0],[0,0],[3]]","5","[[2,1,0],[3,0],[0]]","8","0","","","","","","6","","","","","","","","",""
"","","","","","single-stim-button","128","255249","0.0-2.0-34.5-0.5","5a585be8e0cf3d00012657b8","E1","batch5","","433","tol_tohand","","","","tol_peg_3","433","433","0","[[2,1,0],[0,0],[0]]","6","[[2,1,0],[3,0],[0]]","8","0","","","","","","6","","","","","","","","",""
"","","","","","single-stim-button","129","255580","0.0-2.0-34.5-1.5","5a585be8e0cf3d00012657b8","E1","batch5","","330","tol_toboard","","","","tol_peg_2","330","330","0","[[2,1,0],[3,0],[0]]","6","[[2,1,0],[3,0],[0]]","8","0","","","","","","6","","","","","","","","",""
"","","","","","poldrack-single-stim","130","256581","0.0-2.0-35.0","5a585be8e0cf3d00012657b8","E1","batch5","","-1","tol_feedback","","","true","","1000","1000","500","","","","","","-1","none","true","7504","10391","","","","","","","","","",""
"","","","","","html-button-response","131","257119","0.0-2.0-36.0","5a585be8e0cf3d00012657b8","E1","batch5","","537.3999999761581","tol_trial_num","<div class = centerbox><p class = center-block-text>problem <strong>10</strong> out of 25 problems</p></div>","0","","","","","","","","","","","","","","","","","","","","","","","","",""
"","","","","","single-stim-button","132","260632","0.0-2.0-37.0-0.0","5a585be8e0cf3d00012657b8","E1","batch5","","3513","tol_tohand","","","","tol_peg_2","3513","3513","0","[[3,0,0],[0,0],[2]]","1","[[3,0,0],[2,1],[0]]","9","0","","","","","","3","","","","","","","","",""
"","","","","","single-stim-button","133","260979","0.0-2.0-37.0-1.0","5a585be8e0cf3d00012657b8","E1","batch5","","346","tol_toboard","","","","tol_peg_1","346","346","0","[[3,1,0],[0,0],[2]]","1","[[3,0,0],[2,1],[0]]","9","0","","","","","","3","","","","","","","","",""
"","","","","","single-stim-button","134","261382","0.0-2.0-37.1-0.1","5a585be8e0cf3d00012657b8","E1","batch5","","402","tol_tohand","","","","tol_peg_3","402","402","0","[[3,1,0],[0,0],[0]]","2","[[3,0,0],[2,1],[0]]","9","0","","","","","","3","","","","","","","","",""
"","","","","","single-stim-button","135","261729","0.0-2.0-37.1-1.1","5a585be8e0cf3d00012657b8","E1","batch5","","346","tol_toboard","","","","tol_peg_2","346","346","0","[[3,1,0],[2,0],[0]]","2","[[3,0,0],[2,1],[0]]","9","0","","","","","","3","","","","","","","","",""
"","","","","","single-stim-button","136","262108","0.0-2.0-37.2-0.2","5a585be8e0cf3d00012657b8","E1","batch5","","379","tol_tohand","","","","tol_peg_1","379","379","0","[[3,0,0],[2,0],[0]]","3","[[3,0,0],[2,1],[0]]","9","0","","","","","","3","","","","","","","","",""
"","","","","","single-stim-button","137","262471","0.0-2.0-37.2-1.2","5a585be8e0cf3d00012657b8","E1","batch5","","363","tol_toboard","","","","tol_peg_2","363","363","0","[[3,0,0],[2,1],[0]]","3","[[3,0,0],[2,1],[0]]","9","0","","","","","","3","","","","","","","","",""
"","","","","","poldrack-single-stim","138","263473","0.0-2.0-38.0","5a585be8e0cf3d00012657b8","E1","batch5","","-1","tol_feedback","","","true","","1000","1000","500","","","","","","-1","none","true","3513","4294","","","","","","","","","",""
"","","","","","html-button-response","139","264018","0.0-2.0-39.0","5a585be8e0cf3d00012657b8","E1","batch5","","545","tol_trial_num","<div class = centerbox><p class = center-block-text>problem <strong>11</strong> out of 25 problems</p></div>","0","","","","","","","","","","","","","","","","","","","","","","","","",""
"","","","","","single-stim-button","140","269219","0.0-2.0-40.0-0.0","5a585be8e0cf3d00012657b8","E1","batch5","","5201","tol_tohand","","","","tol_peg_1","5201","5201","0","[[1,0,0],[3,0],[0]]","1","[[2,0,0],[1,3],[0]]","10","0","","","","","","6","","","","","","","","",""
"","","","","","single-stim-button","141","269834","0.0-2.0-40.0-1.0","5a585be8e0cf3d00012657b8","E1","batch5","","614","tol_toboard","","","","tol_peg_3","614","614","0","[[1,0,0],[3,0],[2]]","1","[[2,0,0],[1,3],[0]]","10","0","","","","","","6","","","","","","","","",""
"","","","","","single-stim-button","142","271303","0.0-2.0-40.1-0.1","5a585be8e0cf3d00012657b8","E1","batch5","","1469","tol_tohand","","","","tol_peg_1","1469","1469","0","[[0,0,0],[3,0],[2]]","2","[[2,0,0],[1,3],[0]]","10","0","","","","","","6","","","","","","","","",""
"","","","","","single-stim-button","143","271800","0.0-2.0-40.1-1.1","5a585be8e0cf3d00012657b8","E1","batch5","","496","tol_toboard","","","","tol_peg_2","496","496","0","[[0,0,0],[3,1],[2]]","2","[[2,0,0],[1,3],[0]]","10","0","","","","","","6","","","","","","","","",""
"","","","","","single-stim-button","144","272147","0.0-2.0-40.2-0.2","5a585be8e0cf3d00012657b8","E1","batch5","","347","tol_tohand","","","","tol_peg_3","347","347","0","[[0,0,0],[3,1],[0]]","3","[[2,0,0],[1,3],[0]]","10","0","","","","","","6","","","","","","","","",""
"","","","","","single-stim-button","145","272621","0.0-2.0-40.2-1.2","5a585be8e0cf3d00012657b8","E1","batch5","","474","tol_toboard","","","","tol_peg_1","474","474","0","[[2,0,0],[3,1],[0]]","3","[[2,0,0],[1,3],[0]]","10","0","","","","","","6","","","","","","","","",""
"","","","","","single-stim-button","146","274247","0.0-2.0-40.3-0.3","5a585be8e0cf3d00012657b8","E1","batch5","","1626","tol_tohand","","","","tol_peg_2","1626","1626","0","[[2,0,0],[3,0],[0]]","4","[[2,0,0],[1,3],[0]]","10","0","","","","","","6","","","","","","","","",""
"","","","","","single-stim-button","147","275131","0.0-2.0-40.3-1.3","5a585be8e0cf3d00012657b8","E1","batch5","","884","tol_toboard","","","","tol_peg_1","884","884","0","[[2,1,0],[3,0],[0]]","4","[[2,0,0],[1,3],[0]]","10","0","","","","","","6","","","","","","","","",""
"","","","","","single-stim-button","148","276883","0.0-2.0-40.4-0.4","5a585be8e0cf3d00012657b8","E1","batch5","","1752","tol_tohand","","","","tol_peg_2","1752","1752","0","[[2,1,0],[0,0],[0]]","5","[[2,0,0],[1,3],[0]]","10","0","","","","","","6","","","","","","","","",""
"","","","","","single-stim-button","149","277412","0.0-2.0-40.4-1.4","5a585be8e0cf3d00012657b8","E1","batch5","","529","tol_toboard","","","","tol_peg_3","529","529","0","[[2,1,0],[0,0],[3]]","5","[[2,0,0],[1,3],[0]]","10","0","","","","","","6","","","","","","","","",""
"","","","","","single-stim-button","150","277839","0.0-2.0-40.5-0.5","5a585be8e0cf3d00012657b8","E1","batch5","","426","tol_tohand","","","","tol_peg_1","426","426","0","[[2,0,0],[0,0],[3]]","6","[[2,0,0],[1,3],[0]]","10","0","","","","","","6","","","","","","","","",""
"","","","","","single-stim-button","151","278225","0.0-2.0-40.5-1.5","5a585be8e0cf3d00012657b8","E1","batch5","","386","tol_toboard","","","","tol_peg_2","386","386","0","[[2,0,0],[1,0],[3]]","6","[[2,0,0],[1,3],[0]]","10","0","","","","","","6","","","","","","","","",""
"","","","","","single-stim-button","152","278588","0.0-2.0-40.6-0.6","5a585be8e0cf3d00012657b8","E1","batch5","","363","tol_tohand","","","","tol_peg_3","363","363","0","[[2,0,0],[1,0],[0]]","7","[[2,0,0],[1,3],[0]]","10","0","","","","","","6","","","","","","","","",""
"","","","","","single-stim-button","153","278951","0.0-2.0-40.6-1.6","5a585be8e0cf3d00012657b8","E1","batch5","","363","tol_toboard","","","","tol_peg_2","363","363","0","[[2,0,0],[1,3],[0]]","7","[[2,0,0],[1,3],[0]]","10","0","","","","","","6","","","","","","","","",""
"","","","","","poldrack-single-stim","154","279952","0.0-2.0-41.0","5a585be8e0cf3d00012657b8","E1","batch5","","-1","tol_feedback","","","true","","1000","1000","500","","","","","","-1","none","true","5201","11184","","","","","","","","","",""
"","","","","","html-button-response","155","280498","0.0-2.0-42.0","5a585be8e0cf3d00012657b8","E1","batch5","","545.2999999523163","tol_trial_num","<div class = centerbox><p class = center-block-text>problem <strong>12</strong> out of 25 problems</p></div>","0","","","","","","","","","","","","","","","","","","","","","","","","",""
"","","","","","single-stim-button","156","286473","0.0-2.0-43.0-0.0","5a585be8e0cf3d00012657b8","E1","batch5","","5975","tol_tohand","","","","tol_peg_1","5975","5975","0","[[1,0,0],[3,0],[0]]","1","[[2,3,0],[0,0],[1]]","11","0","","","","","","4","","","","","","","","",""
"","","","","","single-stim-button","157","286931","0.0-2.0-43.0-1.0","5a585be8e0cf3d00012657b8","E1","batch5","","458","tol_toboard","","","","tol_peg_2","458","458","0","[[1,0,0],[3,2],[0]]","1","[[2,3,0],[0,0],[1]]","11","0","","","","","","4","","","","","","","","",""
"","","","","","single-stim-button","158","287302","0.0-2.0-43.1-0.1","5a585be8e0cf3d00012657b8","E1","batch5","","371","tol_tohand","","","","tol_peg_1","371","371","0","[[0,0,0],[3,2],[0]]","2","[[2,3,0],[0,0],[1]]","11","0","","","","","","4","","","","","","","","",""
"","","","","","single-stim-button","159","287760","0.0-2.0-43.1-1.1","5a585be8e0cf3d00012657b8","E1","batch5","","458","tol_toboard","","","","tol_peg_3","458","458","0","[[0,0,0],[3,2],[1]]","2","[[2,3,0],[0,0],[1]]","11","0","","","","","","4","","","","","","","","",""
"","","","","","single-stim-button","160","288139","0.0-2.0-43.2-0.2","5a585be8e0cf3d00012657b8","E1","batch5","","378","tol_tohand","","","","tol_peg_2","378","378","0","[[0,0,0],[3,0],[1]]","3","[[2,3,0],[0,0],[1]]","11","0","","","","","","4","","","","","","","","",""
"","","","","","single-stim-button","161","288518","0.0-2.0-43.2-1.2","5a585be8e0cf3d00012657b8","E1","batch5","","379","tol_toboard","","","","tol_peg_1","379","379","0","[[2,0,0],[3,0],[1]]","3","[[2,3,0],[0,0],[1]]","11","0","","","","","","4","","","","","","","","",""
"","","","","","single-stim-button","162","288865","0.0-2.0-43.3-0.3","5a585be8e0cf3d00012657b8","E1","batch5","","347","tol_tohand","","","","tol_peg_2","347","347","0","[[2,0,0],[0,0],[1]]","4","[[2,3,0],[0,0],[1]]","11","0","","","","","","4","","","","","","","","",""
"","","","","","single-stim-button","163","289141","0.0-2.0-43.3-1.3","5a585be8e0cf3d00012657b8","E1","batch5","","276","tol_toboard","","","","tol_peg_1","276","276","0","[[2,3,0],[0,0],[1]]","4","[[2,3,0],[0,0],[1]]","11","0","","","","","","4","","","","","","","","",""
"","","","","","poldrack-single-stim","164","290142","0.0-2.0-44.0","5a585be8e0cf3d00012657b8","E1","batch5","","-1","tol_feedback","","","true","","1000","1000","500","","","","","","-1","none","true","5975","7071","","","","","","","","","",""
"","","","","","html-button-response","165","290720","0.0-2.0-45.0","5a585be8e0cf3d00012657b8","E1","batch5","","577.6999999284744","tol_trial_num","<div class = centerbox><p class = center-block-text>problem <strong>13</strong> out of 25 problems</p></div>","0","","","","","","","","","","","","","","","","","","","","","","","","",""
"","","","","","single-stim-button","166","293450","0.0-2.0-46.0-0.0","5a585be8e0cf3d00012657b8","E1","batch5","","2730","tol_tohand","","","","tol_peg_1","2730","2730","0","[[1,0,0],[3,0],[0]]","1","[[0,0,0],[2,3],[1]]","12","0","","","","","","4","","","","","","","","",""
"","","","","","single-stim-button","167","294358","0.0-2.0-46.0-1.0","5a585be8e0cf3d00012657b8","E1","batch5","","908","tol_toboard","","","","tol_peg_2","908","908","0","[[1,0,0],[3,2],[0]]","1","[[0,0,0],[2,3],[1]]","12","0","","","","","","4","","","","","","","","",""
"","","","","","single-stim-button","168","294721","0.0-2.0-46.1-0.1","5a585be8e0cf3d00012657b8","E1","batch5","","363","tol_tohand","","","","tol_peg_1","363","363","0","[[0,0,0],[3,2],[0]]","2","[[0,0,0],[2,3],[1]]","12","0","","","","","","4","","","","","","","","",""
"","","","","","single-stim-button","169","295147","0.0-2.0-46.1-1.1","5a585be8e0cf3d00012657b8","E1","batch5","","426","tol_toboard","","","","tol_peg_3","426","426","0","[[0,0,0],[3,2],[1]]","2","[[0,0,0],[2,3],[1]]","12","0","","","","","","4","","","","","","","","",""
"","","","","","single-stim-button","170","296276","0.0-2.0-46.2-0.2","5a585be8e0cf3d00012657b8","E1","batch5","","1129","tol_tohand","","","","tol_peg_2","1129","1129","0","[[0,0,0],[3,0],[1]]","3","[[0,0,0],[2,3],[1]]","12","0","","","","","","4","","","","","","","","",""
"","","","","","single-stim-button","171","297941","0.0-2.0-46.2-1.2","5a585be8e0cf3d00012657b8","E1","batch5","","1665","tol_toboard","","","","tol_peg_1","1665","1665","0","[[2,0,0],[3,0],[1]]","3","[[0,0,0],[2,3],[1]]","12","0","","","","","","4","","","","","","","","",""
"","","","","","single-stim-button","172","303293","0.0-2.0-46.3-0.3","5a585be8e0cf3d00012657b8","E1","batch5","","5352","tol_tohand","","","","tol_peg_3","5352","5352","0","[[2,0,0],[3,0],[0]]","4","[[0,0,0],[2,3],[1]]","12","0","","","","","","4","","","","","","","","",""
"","","","","","single-stim-button","173","304990","0.0-2.0-46.3-1.3","5a585be8e0cf3d00012657b8","E1","batch5","","1697","tol_toboard","","","","tol_peg_1","1697","1697","0","[[2,1,0],[3,0],[0]]","4","[[0,0,0],[2,3],[1]]","12","0","","","","","","4","","","","","","","","",""
"","","","","","single-stim-button","174","305447","0.0-2.0-46.4-0.4","5a585be8e0cf3d00012657b8","E1","batch5","","457","tol_tohand","","","","tol_peg_2","457","457","0","[[2,1,0],[0,0],[0]]","5","[[0,0,0],[2,3],[1]]","12","0","","","","","","4","","","","","","","","",""
"","","","","","single-stim-button","175","305952","0.0-2.0-46.4-1.4","5a585be8e0cf3d00012657b8","E1","batch5","","505","tol_toboard","","","","tol_peg_3","505","505","0","[[2,1,0],[0,0],[3]]","5","[[0,0,0],[2,3],[1]]","12","0","","","","","","4","","","","","","","","",""
"","","","","","single-stim-button","176","306947","0.0-2.0-46.5-0.5","5a585be8e0cf3d00012657b8","E1","batch5","","995","tol_tohand","","","","tol_peg_1","995","995","0","[[2,0,0],[0,0],[3]]","6","[[0,0,0],[2,3],[1]]","12","0","","","","","","4","","","","","","","","",""
"","","","","","single-stim-button","177","310515","0.0-2.0-46.5-1.5","5a585be8e0cf3d00012657b8","E1","batch5","","3568","tol_toboard","","","","tol_peg_2","3568","3568","0","[[2,0,0],[1,0],[3]]","6","[[0,0,0],[2,3],[1]]","12","0","","","","","","4","","","","","","","","",""
"","","","","","single-stim-button","178","310917","0.0-2.0-46.6-0.6","5a585be8e0cf3d00012657b8","E1","batch5","","402","tol_tohand","","","","tol_peg_1","402","402","0","[[0,0,0],[1,0],[3]]","7","[[0,0,0],[2,3],[1]]","12","0","","","","","","4","","","","","","","","",""
"","","","","","single-stim-button","179","311517","0.0-2.0-46.6-1.6","5a585be8e0cf3d00012657b8","E1","batch5","","600","tol_toboard","","","","tol_peg_2","600","600","0","[[0,0,0],[1,2],[3]]","7","[[0,0,0],[2,3],[1]]","12","0","","","","","","4","","","","","","","","",""
"","","","","","single-stim-button","180","312512","0.0-2.0-46.7-0.7","5a585be8e0cf3d00012657b8","E1","batch5","","995","tol_tohand","","","","tol_peg_3","995","995","0","[[0,0,0],[1,2],[0]]","8","[[0,0,0],[2,3],[1]]","12","0","","","","","","4","","","","","","","","",""
"","","","","","single-stim-button","181","314612","0.0-2.0-46.7-1.7","5a585be8e0cf3d00012657b8","E1","batch5","","2100","tol_toboard","","","","tol_peg_1","2100","2100","0","[[3,0,0],[1,2],[0]]","8","[[0,0,0],[2,3],[1]]","12","0","","","","","","4","","","","","","","","",""
"","","","","","single-stim-button","182","316735","0.0-2.0-46.8-0.8","5a585be8e0cf3d00012657b8","E1","batch5","","2123","tol_tohand","","","","tol_peg_2","2123","2123","0","[[3,0,0],[1,0],[0]]","9","[[0,0,0],[2,3],[1]]","12","0","","","","","","4","","","","","","","","",""
"","","","","","single-stim-button","183","318030","0.0-2.0-46.8-1.8","5a585be8e0cf3d00012657b8","E1","batch5","","1295","tol_toboard","","","","tol_peg_3","1295","1295","0","[[3,0,0],[1,0],[2]]","9","[[0,0,0],[2,3],[1]]","12","0","","","","","","4","","","","","","","","",""
"","","","","","single-stim-button","184","318426","0.0-2.0-46.9-0.9","5a585be8e0cf3d00012657b8","E1","batch5","","396","tol_tohand","","","","tol_peg_2","396","396","0","[[3,0,0],[0,0],[2]]","10","[[0,0,0],[2,3],[1]]","12","0","","","","","","4","","","","","","","","",""
"","","","","","single-stim-button","185","318764","0.0-2.0-46.9-1.9","5a585be8e0cf3d00012657b8","E1","batch5","","338","tol_toboard","","","","tol_peg_1","338","338","0","[[3,1,0],[0,0],[2]]","10","[[0,0,0],[2,3],[1]]","12","0","","","","","","4","","","","","","","","",""
"","","","","","single-stim-button","186","319167","0.0-2.0-46.10-0.10","5a585be8e0cf3d00012657b8","E1","batch5","","403","tol_tohand","","","","tol_peg_3","403","403","0","[[3,1,0],[0,0],[0]]","11","[[0,0,0],[2,3],[1]]","12","0","","","","","","4","","","","","","","","",""
"","","","","","single-stim-button","187","319569","0.0-2.0-46.10-1.10","5a585be8e0cf3d00012657b8","E1","batch5","","402","tol_toboard","","","","tol_peg_2","402","402","0","[[3,1,0],[2,0],[0]]","11","[[0,0,0],[2,3],[1]]","12","0","","","","","","4","","","","","","","","",""
"","","","","","single-stim-button","188","320942","0.0-2.0-46.11-0.11","5a585be8e0cf3d00012657b8","E1","batch5","","1373","tol_tohand","","","","tol_peg_1","1373","1373","0","[[3,0,0],[2,0],[0]]","12","[[0,0,0],[2,3],[1]]","12","0","","","","","","4","","","","","","","","",""
"","","","","","single-stim-button","189","323879","0.0-2.0-46.11-1.11","5a585be8e0cf3d00012657b8","E1","batch5","","2937","tol_toboard","","","","tol_peg_3","2937","2937","0","[[3,0,0],[2,0],[1]]","12","[[0,0,0],[2,3],[1]]","12","0","","","","","","4","","","","","","","","",""
"","","","","","single-stim-button","190","324289","0.0-2.0-46.12-0.12","5a585be8e0cf3d00012657b8","E1","batch5","","410","tol_tohand","","","","tol_peg_1","410","410","0","[[0,0,0],[2,0],[1]]","13","[[0,0,0],[2,3],[1]]","12","0","","","","","","4","","","","","","","","",""
"","","","","","single-stim-button","191","324581","0.0-2.0-46.12-1.12","5a585be8e0cf3d00012657b8","E1","batch5","","292","tol_toboard","","","","tol_peg_2","292","292","0","[[0,0,0],[2,3],[1]]","13","[[0,0,0],[2,3],[1]]","12","0","","","","","","4","","","","","","","","",""
"","","","","","poldrack-single-stim","192","325582","0.0-2.0-47.0","5a585be8e0cf3d00012657b8","E1","batch5","","-1","tol_feedback","","","true","","1000","1000","500","","","","","","-1","none","true","2730","17128","","","","","","","","","",""
"","","","","","html-button-response","193","329239","0.0-2.0-48.0","5a585be8e0cf3d00012657b8","E1","batch5","","3656.5","attention_check","<p class = block-text>How many balls are in your board<br></p>","1","true","","","","","","","","","","","","","","","","","","","","","","","",""
"","","","","","html-button-response","194","330131","0.0-2.0-49.0","5a585be8e0cf3d00012657b8","E1","batch5","","891.2999999523163","tol_trial_num","<div class = centerbox><p class = center-block-text>problem <strong>14</strong> out of 25 problems</p></div>","0","","","","","","","","","","","","","","","","","","","","","","","","",""
"","","","","","single-stim-button","195","333327","0.0-2.0-50.0-0.0","5a585be8e0cf3d00012657b8","E1","batch5","","3196","tol_tohand","","","","tol_peg_1","3196","3196","0","[[2,0,0],[3,0],[0]]","1","[[1,2,0],[3,0],[0]]","13","0","","","","","","4","","","","","","","","",""
"","","","","","single-stim-button","196","334953","0.0-2.0-50.0-1.0","5a585be8e0cf3d00012657b8","E1","batch5","","1626","tol_toboard","","","","tol_peg_3","1626","1626","0","[[2,0,0],[3,0],[1]]","1","[[1,2,0],[3,0],[0]]","13","0","","","","","","4","","","","","","","","",""
"","","","","","single-stim-button","197","335529","0.0-2.0-50.1-0.1","5a585be8e0cf3d00012657b8","E1","batch5","","576","tol_tohand","","","","tol_peg_1","576","576","0","[[0,0,0],[3,0],[1]]","2","[[1,2,0],[3,0],[0]]","13","0","","","","","","4","","","","","","","","",""
"","","","","","single-stim-button","198","335861","0.0-2.0-50.1-1.1","5a585be8e0cf3d00012657b8","E1","batch5","","332","tol_toboard","","","","tol_peg_2","332","332","0","[[0,0,0],[3,2],[1]]","2","[[1,2,0],[3,0],[0]]","13","0","","","","","","4","","","","","","","","",""
"","","","","","single-stim-button","199","336184","0.0-2.0-50.2-0.2","5a585be8e0cf3d00012657b8","E1","batch5","","323","tol_tohand","","","","tol_peg_3","323","323","0","[[0,0,0],[3,2],[0]]","3","[[1,2,0],[3,0],[0]]","13","0","","","","","","4","","","","","","","","",""
"","","","","","single-stim-button","200","336595","0.0-2.0-50.2-1.2","5a585be8e0cf3d00012657b8","E1","batch5","","411","tol_toboard","","","","tol_peg_1","411","411","0","[[1,0,0],[3,2],[0]]","3","[[1,2,0],[3,0],[0]]","13","0","","","","","","4","","","","","","","","",""
"","","","","","single-stim-button","201","336926","0.0-2.0-50.3-0.3","5a585be8e0cf3d00012657b8","E1","batch5","","331","tol_tohand","","","","tol_peg_2","331","331","0","[[1,0,0],[3,0],[0]]","4","[[1,2,0],[3,0],[0]]","13","0","","","","","","4","","","","","","","","",""
"","","","","","single-stim-button","202","337210","0.0-2.0-50.3-1.3","5a585be8e0cf3d00012657b8","E1","batch5","","284","tol_toboard","","","","tol_peg_1","284","284","0","[[1,2,0],[3,0],[0]]","4","[[1,2,0],[3,0],[0]]","13","0","","","","","","4","","","","","","","","",""
"","","","","","poldrack-single-stim","203","338211","0.0-2.0-51.0","5a585be8e0cf3d00012657b8","E1","batch5","","-1","tol_feedback","","","true","","1000","1000","500","","","","","","-1","none","true","3196","4426","","","","","","","","","",""
"","","","","","html-button-response","204","338844","0.0-2.0-52.0","5a585be8e0cf3d00012657b8","E1","batch5","","632.8999999761581","tol_trial_num","<div class = centerbox><p class = center-block-text>problem <strong>15</strong> out of 25 problems</p></div>","0","","","","","","","","","","","","","","","","","","","","","","","","",""
"","","","","","single-stim-button","205","341481","0.0-2.0-53.0-0.0","5a585be8e0cf3d00012657b8","E1","batch5","","2637","tol_tohand","","","","tol_peg_1","2637","2637","0","[[1,0,0],[3,0],[0]]","1","[[2,0,0],[3,0],[1]]","14","0","","","","","","3","","","","","","","","",""
"","","","","","single-stim-button","206","342207","0.0-2.0-53.0-1.0","5a585be8e0cf3d00012657b8","E1","batch5","","726","tol_toboard","","","","tol_peg_2","726","726","0","[[1,0,0],[3,2],[0]]","1","[[2,0,0],[3,0],[1]]","14","0","","","","","","3","","","","","","","","",""
"","","","","","single-stim-button","207","342499","0.0-2.0-53.1-0.1","5a585be8e0cf3d00012657b8","E1","batch5","","292","tol_tohand","","","","tol_peg_1","292","292","0","[[0,0,0],[3,2],[0]]","2","[[2,0,0],[3,0],[1]]","14","0","","","","","","3","","","","","","","","",""
"","","","","","single-stim-button","208","342886","0.0-2.0-53.1-1.1","5a585be8e0cf3d00012657b8","E1","batch5","","387","tol_toboard","","","","tol_peg_3","387","387","0","[[0,0,0],[3,2],[1]]","2","[[2,0,0],[3,0],[1]]","14","0","","","","","","3","","","","","","","","",""
"","","","","","single-stim-button","209","343328","0.0-2.0-53.2-0.2","5a585be8e0cf3d00012657b8","E1","batch5","","442","tol_tohand","","","","tol_peg_2","442","442","0","[[0,0,0],[3,0],[1]]","3","[[2,0,0],[3,0],[1]]","14","0","","","","","","3","","","","","","","","",""
"","","","","","single-stim-button","210","343621","0.0-2.0-53.2-1.2","5a585be8e0cf3d00012657b8","E1","batch5","","293","tol_toboard","","","","tol_peg_1","293","293","0","[[2,0,0],[3,0],[1]]","3","[[2,0,0],[3,0],[1]]","14","0","","","","","","3","","","","","","","","",""
"","","","","","poldrack-single-stim","211","344622","0.0-2.0-54.0","5a585be8e0cf3d00012657b8","E1","batch5","","-1","tol_feedback","","","true","","1000","1000","500","","","","","","-1","none","true","2637","3371","","","","","","","","","",""
"","","","","","html-button-response","212","345106","0.0-2.0-55.0","5a585be8e0cf3d00012657b8","E1","batch5","","483.10000002384186","tol_trial_num","<div class = centerbox><p class = center-block-text>problem <strong>16</strong> out of 25 problems</p></div>","0","","","","","","","","","","","","","","","","","","","","","","","","",""
"","","","","","single-stim-button","213","351344","0.0-2.0-56.0-0.0","5a585be8e0cf3d00012657b8","E1","batch5","","6238","tol_tohand","","","","tol_peg_2","6238","6238","0","[[0,0,0],[2,0],[1]]","1","[[2,3,0],[1,0],[0]]","15","0","","","","","","7","","","","","","","","",""
"","","","","","single-stim-button","214","352701","0.0-2.0-56.0-1.0","5a585be8e0cf3d00012657b8","E1","batch5","","1357","tol_toboard","","","","tol_peg_1","1357","1357","0","[[3,0,0],[2,0],[1]]","1","[[2,3,0],[1,0],[0]]","15","0","","","","","","7","","","","","","","","",""
"","","","","","single-stim-button","215","353380","0.0-2.0-56.1-0.1","5a585be8e0cf3d00012657b8","E1","batch5","","679","tol_tohand","","","","tol_peg_3","679","679","0","[[3,0,0],[2,0],[0]]","2","[[2,3,0],[1,0],[0]]","15","0","","","","","","7","","","","","","","","",""
"","","","","","single-stim-button","216","355369","0.0-2.0-56.1-1.1","5a585be8e0cf3d00012657b8","E1","batch5","","1989","tol_toboard","","","","tol_peg_1","1989","1989","0","[[3,1,0],[2,0],[0]]","2","[[2,3,0],[1,0],[0]]","15","0","","","","","","7","","","","","","","","",""
"","","","","","single-stim-button","217","355859","0.0-2.0-56.2-0.2","5a585be8e0cf3d00012657b8","E1","batch5","","490","tol_tohand","","","","tol_peg_2","490","490","0","[[3,1,0],[0,0],[0]]","3","[[2,3,0],[1,0],[0]]","15","0","","","","","","7","","","","","","","","",""
"","","","","","single-stim-button","218","357272","0.0-2.0-56.2-1.2","5a585be8e0cf3d00012657b8","E1","batch5","","1413","tol_toboard","","","","tol_peg_3","1413","1413","0","[[3,1,0],[0,0],[2]]","3","[[2,3,0],[1,0],[0]]","15","0","","","","","","7","","","","","","","","",""
"","","","","","single-stim-button","219","357761","0.0-2.0-56.3-0.3","5a585be8e0cf3d00012657b8","E1","batch5","","489","tol_tohand","","","","tol_peg_1","489","489","0","[[3,0,0],[0,0],[2]]","4","[[2,3,0],[1,0],[0]]","15","0","","","","","","7","","","","","","","","",""
"","","","","","single-stim-button","220","358172","0.0-2.0-56.3-1.3","5a585be8e0cf3d00012657b8","E1","batch5","","411","tol_toboard","","","","tol_peg_2","411","411","0","[[3,0,0],[1,0],[2]]","4","[[2,3,0],[1,0],[0]]","15","0","","","","","","7","","","","","","","","",""
"","","","","","single-stim-button","221","358914","0.0-2.0-56.4-0.4","5a585be8e0cf3d00012657b8","E1","batch5","","742","tol_tohand","","","","tol_peg_1","742","742","0","[[0,0,0],[1,0],[2]]","5","[[2,3,0],[1,0],[0]]","15","0","","","","","","7","","","","","","","","",""
"","","","","","single-stim-button","222","359253","0.0-2.0-56.4-1.4","5a585be8e0cf3d00012657b8","E1","batch5","","339","tol_toboard","","","","tol_peg_2","339","339","0","[[0,0,0],[1,3],[2]]","5","[[2,3,0],[1,0],[0]]","15","0","","","","","","7","","","","","","","","",""
"","","","","","single-stim-button","223","359546","0.0-2.0-56.5-0.5","5a585be8e0cf3d00012657b8","E1","batch5","","293","tol_tohand","","","","tol_peg_3","293","293","0","[[0,0,0],[1,3],[0]]","6","[[2,3,0],[1,0],[0]]","15","0","","","","","","7","","","","","","","","",""
"","","","","","single-stim-button","224","359964","0.0-2.0-56.5-1.5","5a585be8e0cf3d00012657b8","E1","batch5","","418","tol_toboard","","","","tol_peg_1","418","418","0","[[2,0,0],[1,3],[0]]","6","[[2,3,0],[1,0],[0]]","15","0","","","","","","7","","","","","","","","",""
"","","","","","single-stim-button","225","360319","0.0-2.0-56.6-0.6","5a585be8e0cf3d00012657b8","E1","batch5","","355","tol_tohand","","","","tol_peg_2","355","355","0","[[2,0,0],[1,0],[0]]","7","[[2,3,0],[1,0],[0]]","15","0","","","","","","7","","","","","","","","",""
"","","","","","single-stim-button","226","360627","0.0-2.0-56.6-1.6","5a585be8e0cf3d00012657b8","E1","batch5","","308","tol_toboard","","","","tol_peg_1","308","308","0","[[2,3,0],[1,0],[0]]","7","[[2,3,0],[1,0],[0]]","15","0","","","","","","7","","","","","","","","",""
"","","","","","poldrack-single-stim","227","361628","0.0-2.0-57.0","5a585be8e0cf3d00012657b8","E1","batch5","","-1","tol_feedback","","","true","","1000","1000","500","","","","","","-1","none","true","6238","9286","","","","","","","","","",""
"","","","","","html-button-response","228","362095","0.0-2.0-58.0","5a585be8e0cf3d00012657b8","E1","batch5","","466","tol_trial_num","<div class = centerbox><p class = center-block-text>problem <strong>17</strong> out of 25 problems</p></div>","0","","","","","","","","","","","","","","","","","","","","","","","","",""
"","","","","","single-stim-button","229","364921","0.0-2.0-59.0-0.0","5a585be8e0cf3d00012657b8","E1","batch5","","2826","tol_tohand","","","","tol_peg_1","2826","2826","0","[[1,0,0],[3,0],[0]]","1","[[3,1,0],[2,0],[0]]","16","0","","","","","","5","","","","","","","","",""
"","","","","","single-stim-button","230","377607","0.0-2.0-59.0-1.0","5a585be8e0cf3d00012657b8","E1","batch5","","12686","tol_toboard","","","","tol_peg_3","12686","12686","0","[[1,0,0],[3,0],[2]]","1","[[3,1,0],[2,0],[0]]","16","0","","","","","","5","","","","","","","","",""
"","","","","","single-stim-button","231","378901","0.0-2.0-59.1-0.1","5a585be8e0cf3d00012657b8","E1","batch5","","1294","tol_tohand","","","","tol_peg_1","1294","1294","0","[[0,0,0],[3,0],[2]]","2","[[3,1,0],[2,0],[0]]","16","0","","","","","","5","","","","","","","","",""
"","","","","","single-stim-button","232","380764","0.0-2.0-59.1-1.1","5a585be8e0cf3d00012657b8","E1","batch5","","1863","tol_toboard","","","","tol_peg_2","1863","1863","0","[[0,0,0],[3,1],[2]]","2","[[3,1,0],[2,0],[0]]","16","0","","","","","","5","","","","","","","","",""
"","","","","","single-stim-button","233","384245","0.0-2.0-59.2-0.2","5a585be8e0cf3d00012657b8","E1","batch5","","3481","tol_tohand","","","","tol_peg_3","3481","3481","0","[[0,0,0],[3,1],[0]]","3","[[3,1,0],[2,0],[0]]","16","0","","","","","","5","","","","","","","","",""
"","","","","","single-stim-button","234","384845","0.0-2.0-59.2-1.2","5a585be8e0cf3d00012657b8","E1","batch5","","600","tol_toboard","","","","tol_peg_1","600","600","0","[[2,0,0],[3,1],[0]]","3","[[3,1,0],[2,0],[0]]","16","0","","","","","","5","","","","","","","","",""
"","","","","","single-stim-button","235","385768","0.0-2.0-59.3-0.3","5a585be8e0cf3d00012657b8","E1","batch5","","923","tol_tohand","","","","tol_peg_2","923","923","0","[[2,0,0],[3,0],[0]]","4","[[3,1,0],[2,0],[0]]","16","0","","","","","","5","","","","","","","","",""
"","","","","","single-stim-button","236","386226","0.0-2.0-59.3-1.3","5a585be8e0cf3d00012657b8","E1","batch5","","458","tol_toboard","","","","tol_peg_3","458","458","0","[[2,0,0],[3,0],[1]]","4","[[3,1,0],[2,0],[0]]","16","0","","","","","","5","","","","","","","","",""
"","","","","","single-stim-button","237","387387","0.0-2.0-59.4-0.4","5a585be8e0cf3d00012657b8","E1","batch5","","1161","tol_tohand","","","","tol_peg_1","1161","1161","0","[[0,0,0],[3,0],[1]]","5","[[3,1,0],[2,0],[0]]","16","0","","","","","","5","","","","","","","","",""
"","","","","","single-stim-button","238","390844","0.0-2.0-59.4-1.4","5a585be8e0cf3d00012657b8","E1","batch5","","3457","tol_toboard","","","","tol_peg_2","3457","3457","0","[[0,0,0],[3,2],[1]]","5","[[3,1,0],[2,0],[0]]","16","0","","","","","","5","","","","","","","","",""
"","","","","","single-stim-button","239","391475","0.0-2.0-59.5-0.5","5a585be8e0cf3d00012657b8","E1","batch5","","631","tol_tohand","","","","tol_peg_3","631","631","0","[[0,0,0],[3,2],[0]]","6","[[3,1,0],[2,0],[0]]","16","0","","","","","","5","","","","","","","","",""
"","","","","","single-stim-button","240","391941","0.0-2.0-59.5-1.5","5a585be8e0cf3d00012657b8","E1","batch5","","466","tol_toboard","","","","tol_peg_1","466","466","0","[[1,0,0],[3,2],[0]]","6","[[3,1,0],[2,0],[0]]","16","0","","","","","","5","","","","","","","","",""
"","","","","","single-stim-button","241","392888","0.0-2.0-59.6-0.6","5a585be8e0cf3d00012657b8","E1","batch5","","947","tol_tohand","","","","tol_peg_2","947","947","0","[[1,0,0],[3,0],[0]]","7","[[3,1,0],[2,0],[0]]","16","0","","","","","","5","","","","","","","","",""
"","","","","","single-stim-button","242","393323","0.0-2.0-59.6-1.6","5a585be8e0cf3d00012657b8","E1","batch5","","435","tol_toboard","","","","tol_peg_1","435","435","0","[[1,2,0],[3,0],[0]]","7","[[3,1,0],[2,0],[0]]","16","0","","","","","","5","","","","","","","","",""
"","","","","","single-stim-button","243","393781","0.0-2.0-59.7-0.7","5a585be8e0cf3d00012657b8","E1","batch5","","458","tol_tohand","","","","tol_peg_2","458","458","0","[[1,2,0],[0,0],[0]]","8","[[3,1,0],[2,0],[0]]","16","0","","","","","","5","","","","","","","","",""
"","","","","","single-stim-button","244","394262","0.0-2.0-59.7-1.7","5a585be8e0cf3d00012657b8","E1","batch5","","481","tol_toboard","","","","tol_peg_3","481","481","0","[[1,2,0],[0,0],[3]]","8","[[3,1,0],[2,0],[0]]","16","0","","","","","","5","","","","","","","","",""
"","","","","","single-stim-button","245","394846","0.0-2.0-59.8-0.8","5a585be8e0cf3d00012657b8","E1","batch5","","584","tol_tohand","","","","tol_peg_1","584","584","0","[[1,0,0],[0,0],[3]]","9","[[3,1,0],[2,0],[0]]","16","0","","","","","","5","","","","","","","","",""
"","","","","","single-stim-button","246","395936","0.0-2.0-59.8-1.8","5a585be8e0cf3d00012657b8","E1","batch5","","1090","tol_toboard","","","","tol_peg_2","1090","1090","0","[[1,0,0],[2,0],[3]]","9","[[3,1,0],[2,0],[0]]","16","0","","","","","","5","","","","","","","","",""
"","","","","","single-stim-button","247","396394","0.0-2.0-59.9-0.9","5a585be8e0cf3d00012657b8","E1","batch5","","458","tol_tohand","","","","tol_peg_1","458","458","0","[[0,0,0],[2,0],[3]]","10","[[3,1,0],[2,0],[0]]","16","0","","","","","","5","","","","","","","","",""
"","","","","","single-stim-button","248","396741","0.0-2.0-59.9-1.9","5a585be8e0cf3d00012657b8","E1","batch5","","347","tol_toboard","","","","tol_peg_2","347","347","0","[[0,0,0],[2,1],[3]]","10","[[3,1,0],[2,0],[0]]","16","0","","","","","","5","","","","","","","","",""
"","","","","","single-stim-button","249","397120","0.0-2.0-59.10-0.10","5a585be8e0cf3d00012657b8","E1","batch5","","379","tol_tohand","","","","tol_peg_3","379","379","0","[[0,0,0],[2,1],[0]]","11","[[3,1,0],[2,0],[0]]","16","0","","","","","","5","","","","","","","","",""
"","","","","","single-stim-button","250","397507","0.0-2.0-59.10-1.10","5a585be8e0cf3d00012657b8","E1","batch5","","387","tol_toboard","","","","tol_peg_1","387","387","0","[[3,0,0],[2,1],[0]]","11","[[3,1,0],[2,0],[0]]","16","0","","","","","","5","","","","","","","","",""
"","","","","","single-stim-button","251","397862","0.0-2.0-59.11-0.11","5a585be8e0cf3d00012657b8","E1","batch5","","355","tol_tohand","","","","tol_peg_2","355","355","0","[[3,0,0],[2,0],[0]]","12","[[3,1,0],[2,0],[0]]","16","0","","","","","","5","","","","","","","","",""
"","","","","","single-stim-button","252","398170","0.0-2.0-59.11-1.11","5a585be8e0cf3d00012657b8","E1","batch5","","308","tol_toboard","","","","tol_peg_1","308","308","0","[[3,1,0],[2,0],[0]]","12","[[3,1,0],[2,0],[0]]","16","0","","","","","","5","","","","","","","","",""
"","","","","","poldrack-single-stim","253","399170","0.0-2.0-60.0","5a585be8e0cf3d00012657b8","E1","batch5","","-1","tol_feedback","","","true","","1000","1000","500","","","","","","-1","none","true","2826","13497","","","","","","","","","",""
"","","","","","html-button-response","254","399583","0.0-2.0-61.0","5a585be8e0cf3d00012657b8","E1","batch5","","412","tol_trial_num","<div class = centerbox><p class = center-block-text>problem <strong>18</strong> out of 25 problems</p></div>","0","","","","","","","","","","","","","","","","","","","","","","","","",""
"","","","","","single-stim-button","255","401801","0.0-2.0-62.0-0.0","5a585be8e0cf3d00012657b8","E1","batch5","","2218","tol_tohand","","","","tol_peg_1","2218","2218","0","[[1,0,0],[3,0],[0]]","1","[[3,0,0],[2,0],[1]]","17","0","","","","","","5","","","","","","","","",""
"","","","","","single-stim-button","256","403775","0.0-2.0-62.0-1.0","5a585be8e0cf3d00012657b8","E1","batch5","","1974","tol_toboard","","","","tol_peg_3","1974","1974","0","[[1,0,0],[3,0],[2]]","1","[[3,0,0],[2,0],[1]]","17","0","","","","","","5","","","","","","","","",""
"","","","","","single-stim-button","257","404706","0.0-2.0-62.1-0.1","5a585be8e0cf3d00012657b8","E1","batch5","","931","tol_tohand","","","","tol_peg_1","931","931","0","[[0,0,0],[3,0],[2]]","2","[[3,0,0],[2,0],[1]]","17","0","","","","","","5","","","","","","","","",""
"","","","","","single-stim-button","258","406009","0.0-2.0-62.1-1.1","5a585be8e0cf3d00012657b8","E1","batch5","","1303","tol_toboard","","","","tol_peg_2","1303","1303","0","[[0,0,0],[3,1],[2]]","2","[[3,0,0],[2,0],[1]]","17","0","","","","","","5","","","","","","","","",""
"","","","","","single-stim-button","259","406419","0.0-2.0-62.2-0.2","5a585be8e0cf3d00012657b8","E1","batch5","","410","tol_tohand","","","","tol_peg_3","410","410","0","[[0,0,0],[3,1],[0]]","3","[[3,0,0],[2,0],[1]]","17","0","","","","","","5","","","","","","","","",""
"","","","","","single-stim-button","260","406916","0.0-2.0-62.2-1.2","5a585be8e0cf3d00012657b8","E1","batch5","","497","tol_toboard","","","","tol_peg_1","497","497","0","[[2,0,0],[3,1],[0]]","3","[[3,0,0],[2,0],[1]]","17","0","","","","","","5","","","","","","","","",""
"","","","","","single-stim-button","261","407485","0.0-2.0-62.3-0.3","5a585be8e0cf3d00012657b8","E1","batch5","","569","tol_tohand","","","","tol_peg_2","569","569","0","[[2,0,0],[3,0],[0]]","4","[[3,0,0],[2,0],[1]]","17","0","","","","","","5","","","","","","","","",""
"","","","","","single-stim-button","262","407982","0.0-2.0-62.3-1.3","5a585be8e0cf3d00012657b8","E1","batch5","","497","tol_toboard","","","","tol_peg_3","497","497","0","[[2,0,0],[3,0],[1]]","4","[[3,0,0],[2,0],[1]]","17","0","","","","","","5","","","","","","","","",""
"","","","","","single-stim-button","263","417156","0.0-2.0-62.4-0.4","5a585be8e0cf3d00012657b8","E1","batch5","","9174","tol_tohand","","","","tol_peg_1","9174","9174","0","[[0,0,0],[3,0],[1]]","5","[[3,0,0],[2,0],[1]]","17","0","","","","","","5","","","","","","","","",""
"","","","","","single-stim-button","264","417677","0.0-2.0-62.4-1.4","5a585be8e0cf3d00012657b8","E1","batch5","","521","tol_toboard","","","","tol_peg_2","521","521","0","[[0,0,0],[3,2],[1]]","5","[[3,0,0],[2,0],[1]]","17","0","","","","","","5","","","","","","","","",""
"","","","","","single-stim-button","265","418016","0.0-2.0-62.5-0.5","5a585be8e0cf3d00012657b8","E1","batch5","","339","tol_tohand","","","","tol_peg_3","339","339","0","[[0,0,0],[3,2],[0]]","6","[[3,0,0],[2,0],[1]]","17","0","","","","","","5","","","","","","","","",""
"","","","","","single-stim-button","266","418506","0.0-2.0-62.5-1.5","5a585be8e0cf3d00012657b8","E1","batch5","","490","tol_toboard","","","","tol_peg_1","490","490","0","[[1,0,0],[3,2],[0]]","6","[[3,0,0],[2,0],[1]]","17","0","","","","","","5","","","","","","","","",""
"","","","","","single-stim-button","267","419169","0.0-2.0-62.6-0.6","5a585be8e0cf3d00012657b8","E1","batch5","","663","tol_tohand","","","","tol_peg_2","663","663","0","[[1,0,0],[3,0],[0]]","7","[[3,0,0],[2,0],[1]]","17","0","","","","","","5","","","","","","","","",""
"","","","","","single-stim-button","268","419643","0.0-2.0-62.6-1.6","5a585be8e0cf3d00012657b8","E1","batch5","","474","tol_toboard","","","","tol_peg_3","474","474","0","[[1,0,0],[3,0],[2]]","7","[[3,0,0],[2,0],[1]]","17","0","","","","","","5","","","","","","","","",""
"","","","","","single-stim-button","269","422184","0.0-2.0-62.7-0.7","5a585be8e0cf3d00012657b8","E1","batch5","","2541","tol_tohand","","","","tol_peg_2","2541","2541","0","[[1,0,0],[0,0],[2]]","8","[[3,0,0],[2,0],[1]]","17","0","","","","","","5","","","","","","","","",""
"","","","","","single-stim-button","270","422682","0.0-2.0-62.7-1.7","5a585be8e0cf3d00012657b8","E1","batch5","","498","tol_toboard","","","","tol_peg_1","498","498","0","[[1,3,0],[0,0],[2]]","8","[[3,0,0],[2,0],[1]]","17","0","","","","","","5","","","","","","","","",""
"","","","","","single-stim-button","271","423298","0.0-2.0-62.8-0.8","5a585be8e0cf3d00012657b8","E1","batch5","","616","tol_tohand","","","","tol_peg_3","616","616","0","[[1,3,0],[0,0],[0]]","9","[[3,0,0],[2,0],[1]]","17","0","","","","","","5","","","","","","","","",""
"","","","","","single-stim-button","272","424079","0.0-2.0-62.8-1.8","5a585be8e0cf3d00012657b8","E1","batch5","","780","tol_toboard","","","","tol_peg_2","780","780","0","[[1,3,0],[2,0],[0]]","9","[[3,0,0],[2,0],[1]]","17","0","","","","","","5","","","","","","","","",""
"","","","","","single-stim-button","273","424498","0.0-2.0-62.9-0.9","5a585be8e0cf3d00012657b8","E1","batch5","","418","tol_tohand","","","","tol_peg_1","418","418","0","[[1,0,0],[2,0],[0]]","10","[[3,0,0],[2,0],[1]]","17","0","","","","","","5","","","","","","","","",""
"","","","","","single-stim-button","274","425027","0.0-2.0-62.9-1.9","5a585be8e0cf3d00012657b8","E1","batch5","","528","tol_toboard","","","","tol_peg_3","528","528","0","[[1,0,0],[2,0],[3]]","10","[[3,0,0],[2,0],[1]]","17","0","","","","","","5","","","","","","","","",""
"","","","","","single-stim-button","275","426606","0.0-2.0-62.10-0.10","5a585be8e0cf3d00012657b8","E1","batch5","","1579","tol_tohand","","","","tol_peg_1","1579","1579","0","[[0,0,0],[2,0],[3]]","11","[[3,0,0],[2,0],[1]]","17","0","","","","","","5","","","","","","","","",""
"","","","","","single-stim-button","276","427174","0.0-2.0-62.10-1.10","5a585be8e0cf3d00012657b8","E1","batch5","","567","tol_toboard","","","","tol_peg_2","567","567","0","[[0,0,0],[2,1],[3]]","11","[[3,0,0],[2,0],[1]]","17","0","","","","","","5","","","","","","","","",""
"","","","","","single-stim-button","277","427640","0.0-2.0-62.11-0.11","5a585be8e0cf3d00012657b8","E1","batch5","","466","tol_tohand","","","","tol_peg_3","466","466","0","[[0,0,0],[2,1],[0]]","12","[[3,0,0],[2,0],[1]]","17","0","","","","","","5","","","","","","","","",""
"","","","","","single-stim-button","278","428137","0.0-2.0-62.11-1.11","5a585be8e0cf3d00012657b8","E1","batch5","","496","tol_toboard","","","","tol_peg_1","496","496","0","[[3,0,0],[2,1],[0]]","12","[[3,0,0],[2,0],[1]]","17","0","","","","","","5","","","","","","","","",""
"","","","","","single-stim-button","279","428563","0.0-2.0-62.12-0.12","5a585be8e0cf3d00012657b8","E1","batch5","","426","tol_tohand","","","","tol_peg_2","426","426","0","[[3,0,0],[2,0],[0]]","13","[[3,0,0],[2,0],[1]]","17","0","","","","","","5","","","","","","","","",""
"","","","","","single-stim-button","280","428887","0.0-2.0-62.12-1.12","5a585be8e0cf3d00012657b8","E1","batch5","","324","tol_toboard","","","","tol_peg_3","324","324","0","[[3,0,0],[2,0],[1]]","13","[[3,0,0],[2,0],[1]]","17","0","","","","","","5","","","","","","","","",""
"","","","","","poldrack-single-stim","281","429888","0.0-2.0-63.0","5a585be8e0cf3d00012657b8","E1","batch5","","-1","tol_feedback","","","true","","1000","1000","500","","","","","","-1","none","true","2218","20350","","","","","","","","","",""
"","","","","","html-button-response","282","430411","0.0-2.0-64.0","5a585be8e0cf3d00012657b8","E1","batch5","","522","tol_trial_num","<div class = centerbox><p class = center-block-text>problem <strong>19</strong> out of 25 problems</p></div>","0","","","","","","","","","","","","","","","","","","","","","","","","",""
"","","","","","single-stim-button","283","433394","0.0-2.0-65.0-0.0","5a585be8e0cf3d00012657b8","E1","batch5","","2982","tol_tohand","","","","tol_peg_2","2982","2982","0","[[1,2,0],[0,0],[0]]","1","[[0,0,0],[1,2],[3]]","18","0","","","","","","7","","","","","","","","",""
"","","","","","single-stim-button","284","433970","0.0-2.0-65.0-1.0","5a585be8e0cf3d00012657b8","E1","batch5","","575","tol_toboard","","","","tol_peg_3","575","575","0","[[1,2,0],[0,0],[3]]","1","[[0,0,0],[1,2],[3]]","18","0","","","","","","7","","","","","","","","",""
"","","","","","single-stim-button","285","435083","0.0-2.0-65.1-0.1","5a585be8e0cf3d00012657b8","E1","batch5","","1112","tol_tohand","","","","tol_peg_1","1112","1112","0","[[1,0,0],[0,0],[3]]","2","[[0,0,0],[1,2],[3]]","18","0","","","","","","7","","","","","","","","",""
"","","","","","single-stim-button","286","437081","0.0-2.0-65.1-1.1","5a585be8e0cf3d00012657b8","E1","batch5","","1997","tol_toboard","","","","tol_peg_2","1997","1997","0","[[1,0,0],[2,0],[3]]","2","[[0,0,0],[1,2],[3]]","18","0","","","","","","7","","","","","","","","",""
"","","","","","single-stim-button","287","440641","0.0-2.0-65.2-0.2","5a585be8e0cf3d00012657b8","E1","batch5","","3559","tol_tohand","","","","tol_peg_3","3559","3559","0","[[1,0,0],[2,0],[0]]","3","[[0,0,0],[1,2],[3]]","18","0","","","","","","7","","","","","","","","",""
"","","","","","single-stim-button","288","441028","0.0-2.0-65.2-1.2","5a585be8e0cf3d00012657b8","E1","batch5","","387","tol_toboard","","","","tol_peg_2","387","387","0","[[1,0,0],[2,3],[0]]","3","[[0,0,0],[1,2],[3]]","18","0","","","","","","7","","","","","","","","",""
"","","","","","single-stim-button","289","441407","0.0-2.0-65.3-0.3","5a585be8e0cf3d00012657b8","E1","batch5","","379","tol_tohand","","","","tol_peg_1","379","379","0","[[0,0,0],[2,3],[0]]","4","[[0,0,0],[1,2],[3]]","18","0","","","","","","7","","","","","","","","",""
"","","","","","single-stim-button","290","441817","0.0-2.0-65.3-1.3","5a585be8e0cf3d00012657b8","E1","batch5","","409","tol_toboard","","","","tol_peg_3","409","409","0","[[0,0,0],[2,3],[1]]","4","[[0,0,0],[1,2],[3]]","18","0","","","","","","7","","","","","","","","",""
"","","","","","single-stim-button","291","442212","0.0-2.0-65.4-0.4","5a585be8e0cf3d00012657b8","E1","batch5","","394","tol_tohand","","","","tol_peg_2","394","394","0","[[0,0,0],[2,0],[1]]","5","[[0,0,0],[1,2],[3]]","18","0","","","","","","7","","","","","","","","",""
"","","","","","single-stim-button","292","442646","0.0-2.0-65.4-1.4","5a585be8e0cf3d00012657b8","E1","batch5","","433","tol_toboard","","","","tol_peg_1","433","433","0","[[3,0,0],[2,0],[1]]","5","[[0,0,0],[1,2],[3]]","18","0","","","","","","7","","","","","","","","",""
"","","","","","single-stim-button","293","443276","0.0-2.0-65.5-0.5","5a585be8e0cf3d00012657b8","E1","batch5","","630","tol_tohand","","","","tol_peg_2","630","630","0","[[3,0,0],[0,0],[1]]","6","[[0,0,0],[1,2],[3]]","18","0","","","","","","7","","","","","","","","",""
"","","","","","single-stim-button","294","443625","0.0-2.0-65.5-1.5","5a585be8e0cf3d00012657b8","E1","batch5","","348","tol_toboard","","","","tol_peg_1","348","348","0","[[3,2,0],[0,0],[1]]","6","[[0,0,0],[1,2],[3]]","18","0","","","","","","7","","","","","","","","",""
"","","","","","single-stim-button","295","444043","0.0-2.0-65.6-0.6","5a585be8e0cf3d00012657b8","E1","batch5","","417","tol_tohand","","","","tol_peg_3","417","417","0","[[3,2,0],[0,0],[0]]","7","[[0,0,0],[1,2],[3]]","18","0","","","","","","7","","","","","","","","",""
"","","","","","single-stim-button","296","444389","0.0-2.0-65.6-1.6","5a585be8e0cf3d00012657b8","E1","batch5","","346","tol_toboard","","","","tol_peg_2","346","346","0","[[3,2,0],[1,0],[0]]","7","[[0,0,0],[1,2],[3]]","18","0","","","","","","7","","","","","","","","",""
"","","","","","single-stim-button","297","444785","0.0-2.0-65.7-0.7","5a585be8e0cf3d00012657b8","E1","batch5","","394","tol_tohand","","","","tol_peg_1","394","394","0","[[3,0,0],[1,0],[0]]","8","[[0,0,0],[1,2],[3]]","18","0","","","","","","7","","","","","","","","",""
"","","","","","single-stim-button","298","445408","0.0-2.0-65.7-1.7","5a585be8e0cf3d00012657b8","E1","batch5","","623","tol_toboard","","","","tol_peg_2","623","623","0","[[3,0,0],[1,2],[0]]","8","[[0,0,0],[1,2],[3]]","18","0","","","","","","7","","","","","","","","",""
"","","","","","single-stim-button","299","445724","0.0-2.0-65.8-0.8","5a585be8e0cf3d00012657b8","E1","batch5","","315","tol_tohand","","","","tol_peg_1","315","315","0","[[0,0,0],[1,2],[0]]","9","[[0,0,0],[1,2],[3]]","18","0","","","","","","7","","","","","","","","",""
"","","","","","single-stim-button","300","446127","0.0-2.0-65.8-1.8","5a585be8e0cf3d00012657b8","E1","batch5","","402","tol_toboard","","","","tol_peg_3","402","402","0","[[0,0,0],[1,2],[3]]","9","[[0,0,0],[1,2],[3]]","18","0","","","","","","7","","","","","","","","",""
"","","","","","poldrack-single-stim","301","447128","0.0-2.0-66.0","5a585be8e0cf3d00012657b8","E1","batch5","","-1","tol_feedback","","","true","","1000","1000","500","","","","","","-1","none","true","2982","10182","","","","","","","","","",""
"","","","","","html-button-response","302","447643","0.0-2.0-67.0","5a585be8e0cf3d00012657b8","E1","batch5","","514","tol_trial_num","<div class = centerbox><p class = center-block-text>problem <strong>20</strong> out of 25 problems</p></div>","0","","","","","","","","","","","","","","","","","","","","","","","","",""
"","","","","","single-stim-button","303","452954","0.0-2.0-68.0-0.0","5a585be8e0cf3d00012657b8","E1","batch5","","5311","tol_tohand","","","","tol_peg_1","5311","5311","0","[[1,0,0],[3,0],[0]]","1","[[2,1,0],[0,0],[3]]","19","0","","","","","","5","","","","","","","","",""
"","","","","","single-stim-button","304","454589","0.0-2.0-68.0-1.0","5a585be8e0cf3d00012657b8","E1","batch5","","1633","tol_toboard","","","","tol_peg_3","1633","1633","0","[[1,0,0],[3,0],[2]]","1","[[2,1,0],[0,0],[3]]","19","0","","","","","","5","","","","","","","","",""
"","","","","","single-stim-button","305","455306","0.0-2.0-68.1-0.1","5a585be8e0cf3d00012657b8","E1","batch5","","717","tol_tohand","","","","tol_peg_1","717","717","0","[[0,0,0],[3,0],[2]]","2","[[2,1,0],[0,0],[3]]","19","0","","","","","","5","","","","","","","","",""
"","","","","","single-stim-button","306","455772","0.0-2.0-68.1-1.1","5a585be8e0cf3d00012657b8","E1","batch5","","465","tol_toboard","","","","tol_peg_2","465","465","0","[[0,0,0],[3,1],[2]]","2","[[2,1,0],[0,0],[3]]","19","0","","","","","","5","","","","","","","","",""
"","","","","","single-stim-button","307","456088","0.0-2.0-68.2-0.2","5a585be8e0cf3d00012657b8","E1","batch5","","315","tol_tohand","","","","tol_peg_3","315","315","0","[[0,0,0],[3,1],[0]]","3","[[2,1,0],[0,0],[3]]","19","0","","","","","","5","","","","","","","","",""
"","","","","","single-stim-button","308","456490","0.0-2.0-68.2-1.2","5a585be8e0cf3d00012657b8","E1","batch5","","402","tol_toboard","","","","tol_peg_1","402","402","0","[[2,0,0],[3,1],[0]]","3","[[2,1,0],[0,0],[3]]","19","0","","","","","","5","","","","","","","","",""
"","","","","","single-stim-button","309","457240","0.0-2.0-68.3-0.3","5a585be8e0cf3d00012657b8","E1","batch5","","749","tol_tohand","","","","tol_peg_2","749","749","0","[[2,0,0],[3,0],[0]]","4","[[2,1,0],[0,0],[3]]","19","0","","","","","","5","","","","","","","","",""
"","","","","","single-stim-button","310","457588","0.0-2.0-68.3-1.3","5a585be8e0cf3d00012657b8","E1","batch5","","347","tol_toboard","","","","tol_peg_1","347","347","0","[[2,1,0],[3,0],[0]]","4","[[2,1,0],[0,0],[3]]","19","0","","","","","","5","","","","","","","","",""
"","","","","","single-stim-button","311","457832","0.0-2.0-68.4-0.4","5a585be8e0cf3d00012657b8","E1","batch5","","244","tol_tohand","","","","tol_peg_2","244","244","0","[[2,1,0],[0,0],[0]]","5","[[2,1,0],[0,0],[3]]","19","0","","","","","","5","","","","","","","","",""
"","","","","","single-stim-button","312","458139","0.0-2.0-68.4-1.4","5a585be8e0cf3d00012657b8","E1","batch5","","306","tol_toboard","","","","tol_peg_3","306","306","0","[[2,1,0],[0,0],[3]]","5","[[2,1,0],[0,0],[3]]","19","0","","","","","","5","","","","","","","","",""
"","","","","","poldrack-single-stim","313","459140","0.0-2.0-69.0","5a585be8e0cf3d00012657b8","E1","batch5","","-1","tol_feedback","","","true","","1000","1000","500","","","","","","-1","none","true","5311","7336","","","","","","","","","",""
"","","","","","html-button-response","314","459702","0.0-2.0-70.0","5a585be8e0cf3d00012657b8","E1","batch5","","561.7999999523163","tol_trial_num","<div class = centerbox><p class = center-block-text>problem <strong>21</strong> out of 25 problems</p></div>","0","","","","","","","","","","","","","","","","","","","","","","","","",""
"","","","","","single-stim-button","315","462197","0.0-2.0-71.0-0.0","5a585be8e0cf3d00012657b8","E1","batch5","","2494","tol_tohand","","","","tol_peg_1","2494","2494","0","[[1,0,0],[3,0],[0]]","1","[[3,2,0],[0,0],[1]]","20","0","","","","","","6","","","","","","","","",""
"","","","","","single-stim-button","316","467272","0.0-2.0-71.0-1.0","5a585be8e0cf3d00012657b8","E1","batch5","","5073","tol_toboard","","","","tol_peg_2","5073","5073","0","[[1,0,0],[3,2],[0]]","1","[[3,2,0],[0,0],[1]]","20","0","","","","","","6","","","","","","","","",""
"","","","","","single-stim-button","317","467628","0.0-2.0-71.1-0.1","5a585be8e0cf3d00012657b8","E1","batch5","","355","tol_tohand","","","","tol_peg_1","355","355","0","[[0,0,0],[3,2],[0]]","2","[[3,2,0],[0,0],[1]]","20","0","","","","","","6","","","","","","","","",""
"","","","","","single-stim-button","318","468021","0.0-2.0-71.1-1.1","5a585be8e0cf3d00012657b8","E1","batch5","","393","tol_toboard","","","","tol_peg_3","393","393","0","[[0,0,0],[3,2],[1]]","2","[[3,2,0],[0,0],[1]]","20","0","","","","","","6","","","","","","","","",""
"","","","","","single-stim-button","319","468338","0.0-2.0-71.2-0.2","5a585be8e0cf3d00012657b8","E1","batch5","","315","tol_tohand","","","","tol_peg_2","315","315","0","[[0,0,0],[3,0],[1]]","3","[[3,2,0],[0,0],[1]]","20","0","","","","","","6","","","","","","","","",""
"","","","","","single-stim-button","320","468615","0.0-2.0-71.2-1.2","5a585be8e0cf3d00012657b8","E1","batch5","","276","tol_toboard","","","","tol_peg_1","276","276","0","[[2,0,0],[3,0],[1]]","3","[[3,2,0],[0,0],[1]]","20","0","","","","","","6","","","","","","","","",""
"","","","","","single-stim-button","321","469032","0.0-2.0-71.3-0.3","5a585be8e0cf3d00012657b8","E1","batch5","","417","tol_tohand","","","","tol_peg_2","417","417","0","[[2,0,0],[0,0],[1]]","4","[[3,2,0],[0,0],[1]]","20","0","","","","","","6","","","","","","","","",""
"","","","","","single-stim-button","322","474305","0.0-2.0-71.3-1.3","5a585be8e0cf3d00012657b8","E1","batch5","","5272","tol_toboard","","","","tol_peg_2","5272","5272","0","[[2,0,0],[3,0],[1]]","4","[[3,2,0],[0,0],[1]]","20","0","","","","","","6","","","","","","","","",""
"","","","","","single-stim-button","323","476050","0.0-2.0-71.4-0.4","5a585be8e0cf3d00012657b8","E1","batch5","","1743","tol_tohand","","","","tol_peg_1","1743","1743","0","[[0,0,0],[3,0],[1]]","5","[[3,2,0],[0,0],[1]]","20","0","","","","","","6","","","","","","","","",""
"","","","","","single-stim-button","324","476436","0.0-2.0-71.4-1.4","5a585be8e0cf3d00012657b8","E1","batch5","","386","tol_toboard","","","","tol_peg_2","386","386","0","[[0,0,0],[3,2],[1]]","5","[[3,2,0],[0,0],[1]]","20","0","","","","","","6","","","","","","","","",""
"","","","","","single-stim-button","325","476807","0.0-2.0-71.5-0.5","5a585be8e0cf3d00012657b8","E1","batch5","","370","tol_tohand","","","","tol_peg_3","370","370","0","[[0,0,0],[3,2],[0]]","6","[[3,2,0],[0,0],[1]]","20","0","","","","","","6","","","","","","","","",""
"","","","","","single-stim-button","326","477250","0.0-2.0-71.5-1.5","5a585be8e0cf3d00012657b8","E1","batch5","","441","tol_toboard","","","","tol_peg_1","441","441","0","[[1,0,0],[3,2],[0]]","6","[[3,2,0],[0,0],[1]]","20","0","","","","","","6","","","","","","","","",""
"","","","","","single-stim-button","327","477881","0.0-2.0-71.6-0.6","5a585be8e0cf3d00012657b8","E1","batch5","","631","tol_tohand","","","","tol_peg_2","631","631","0","[[1,0,0],[3,0],[0]]","7","[[3,2,0],[0,0],[1]]","20","0","","","","","","6","","","","","","","","",""
"","","","","","single-stim-button","328","482413","0.0-2.0-71.6-1.6","5a585be8e0cf3d00012657b8","E1","batch5","","4530","tol_toboard","","","","tol_peg_3","4530","4530","0","[[1,0,0],[3,0],[2]]","7","[[3,2,0],[0,0],[1]]","20","0","","","","","","6","","","","","","","","",""
"","","","","","single-stim-button","329","483304","0.0-2.0-71.7-0.7","5a585be8e0cf3d00012657b8","E1","batch5","","891","tol_tohand","","","","tol_peg_1","891","891","0","[[0,0,0],[3,0],[2]]","8","[[3,2,0],[0,0],[1]]","20","0","","","","","","6","","","","","","","","",""
"","","","","","single-stim-button","330","484244","0.0-2.0-71.7-1.7","5a585be8e0cf3d00012657b8","E1","batch5","","939","tol_toboard","","","","tol_peg_2","939","939","0","[[0,0,0],[3,1],[2]]","8","[[3,2,0],[0,0],[1]]","20","0","","","","","","6","","","","","","","","",""
"","","","","","single-stim-button","331","484600","0.0-2.0-71.8-0.8","5a585be8e0cf3d00012657b8","E1","batch5","","355","tol_tohand","","","","tol_peg_3","355","355","0","[[0,0,0],[3,1],[0]]","9","[[3,2,0],[0,0],[1]]","20","0","","","","","","6","","","","","","","","",""
"","","","","","single-stim-button","332","485018","0.0-2.0-71.8-1.8","5a585be8e0cf3d00012657b8","E1","batch5","","418","tol_toboard","","","","tol_peg_1","418","418","0","[[2,0,0],[3,1],[0]]","9","[[3,2,0],[0,0],[1]]","20","0","","","","","","6","","","","","","","","",""
"","","","","","single-stim-button","333","485681","0.0-2.0-71.9-0.9","5a585be8e0cf3d00012657b8","E1","batch5","","662","tol_tohand","","","","tol_peg_2","662","662","0","[[2,0,0],[3,0],[0]]","10","[[3,2,0],[0,0],[1]]","20","0","","","","","","6","","","","","","","","",""
"","","","","","single-stim-button","334","486486","0.0-2.0-71.9-1.9","5a585be8e0cf3d00012657b8","E1","batch5","","804","tol_toboard","","","","tol_peg_3","804","804","0","[[2,0,0],[3,0],[1]]","10","[[3,2,0],[0,0],[1]]","20","0","","","","","","6","","","","","","","","",""
"","","","","","single-stim-button","335","487591","0.0-2.0-71.10-0.10","5a585be8e0cf3d00012657b8","E1","batch5","","1104","tol_tohand","","","","tol_peg_2","1104","1104","0","[[2,0,0],[0,0],[1]]","11","[[3,2,0],[0,0],[1]]","20","0","","","","","","6","","","","","","","","",""
"","","","","","single-stim-button","336","488088","0.0-2.0-71.10-1.10","5a585be8e0cf3d00012657b8","E1","batch5","","496","tol_toboard","","","","tol_peg_1","496","496","0","[[2,3,0],[0,0],[1]]","11","[[3,2,0],[0,0],[1]]","20","0","","","","","","6","","","","","","","","",""
"","","","","","single-stim-button","337","488602","0.0-2.0-71.11-0.11","5a585be8e0cf3d00012657b8","E1","batch5","","513","tol_tohand","","","","tol_peg_3","513","513","0","[[2,3,0],[0,0],[0]]","12","[[3,2,0],[0,0],[1]]","20","0","","","","","","6","","","","","","","","",""
"","","","","","single-stim-button","338","488941","0.0-2.0-71.11-1.11","5a585be8e0cf3d00012657b8","E1","batch5","","339","tol_toboard","","","","tol_peg_2","339","339","0","[[2,3,0],[1,0],[0]]","12","[[3,2,0],[0,0],[1]]","20","0","","","","","","6","","","","","","","","",""
"","","","","","single-stim-button","339","491404","0.0-2.0-71.12-0.12","5a585be8e0cf3d00012657b8","E1","batch5","","2461","tol_tohand","","","","tol_peg_1","2461","2461","0","[[2,0,0],[1,0],[0]]","13","[[3,2,0],[0,0],[1]]","20","0","","","","","","6","","","","","","","","",""
"","","","","","single-stim-button","340","492153","0.0-2.0-71.12-1.12","5a585be8e0cf3d00012657b8","E1","batch5","","749","tol_toboard","","","","tol_peg_2","749","749","0","[[2,0,0],[1,3],[0]]","13","[[3,2,0],[0,0],[1]]","20","0","","","","","","6","","","","","","","","",""
"","","","","","single-stim-button","341","493164","0.0-2.0-71.13-0.13","5a585be8e0cf3d00012657b8","E1","batch5","","1009","tol_tohand","","","","tol_peg_1","1009","1009","0","[[0,0,0],[1,3],[0]]","14","[[3,2,0],[0,0],[1]]","20","0","","","","","","6","","","","","","","","",""
"","","","","","single-stim-button","342","493630","0.0-2.0-71.13-1.13","5a585be8e0cf3d00012657b8","E1","batch5","","465","tol_toboard","","","","tol_peg_3","465","465","0","[[0,0,0],[1,3],[2]]","14","[[3,2,0],[0,0],[1]]","20","0","","","","","","6","","","","","","","","",""
"","","","","","single-stim-button","343","493976","0.0-2.0-71.14-0.14","5a585be8e0cf3d00012657b8","E1","batch5","","346","tol_tohand","","","","tol_peg_2","346","346","0","[[0,0,0],[1,0],[2]]","15","[[3,2,0],[0,0],[1]]","20","0","","","","","","6","","","","","","","","",""
"","","","","","single-stim-button","344","494592","0.0-2.0-71.14-1.14","5a585be8e0cf3d00012657b8","E1","batch5","","615","tol_toboard","","","","tol_peg_1","615","615","0","[[3,0,0],[1,0],[2]]","15","[[3,2,0],[0,0],[1]]","20","0","","","","","","6","","","","","","","","",""
"","","","","","single-stim-button","345","495476","0.0-2.0-71.15-0.15","5a585be8e0cf3d00012657b8","E1","batch5","","883","tol_tohand","","","","tol_peg_3","883","883","0","[[3,0,0],[1,0],[0]]","16","[[3,2,0],[0,0],[1]]","20","0","","","","","","6","","","","","","","","",""
"","","","","","single-stim-button","346","495880","0.0-2.0-71.15-1.15","5a585be8e0cf3d00012657b8","E1","batch5","","402","tol_toboard","","","","tol_peg_1","402","402","0","[[3,2,0],[1,0],[0]]","16","[[3,2,0],[0,0],[1]]","20","0","","","","","","6","","","","","","","","",""
"","","","","","single-stim-button","347","496565","0.0-2.0-71.16-0.16","5a585be8e0cf3d00012657b8","E1","batch5","","685","tol_tohand","","","","tol_peg_2","685","685","0","[[3,2,0],[0,0],[0]]","17","[[3,2,0],[0,0],[1]]","20","0","","","","","","6","","","","","","","","",""
"","","","","","single-stim-button","348","496905","0.0-2.0-71.16-1.16","5a585be8e0cf3d00012657b8","E1","batch5","","339","tol_toboard","","","","tol_peg_3","339","339","0","[[3,2,0],[0,0],[1]]","17","[[3,2,0],[0,0],[1]]","20","0","","","","","","6","","","","","","","","",""
"","","","","","poldrack-single-stim","349","497906","0.0-2.0-72.0","5a585be8e0cf3d00012657b8","E1","batch5","","-1","tol_feedback","","","true","","1000","1000","500","","","","","","-1","none","true","2494","15234","","","","","","","","","",""
"","","","","","html-button-response","350","498405","0.0-2.0-73.0","5a585be8e0cf3d00012657b8","E1","batch5","","499","tol_trial_num","<div class = centerbox><p class = center-block-text>problem <strong>22</strong> out of 25 problems</p></div>","0","","","","","","","","","","","","","","","","","","","","","","","","",""
"","","","","","single-stim-button","351","504847","0.0-2.0-74.0-0.0","5a585be8e0cf3d00012657b8","E1","batch5","","6441","tol_tohand","","","","tol_peg_1","6441","6441","0","[[0,0,0],[2,3],[0]]","1","[[0,0,0],[1,2],[3]]","21","0","","","","","","6","","","","","","","","",""
"","","","","","single-stim-button","352","505359","0.0-2.0-74.0-1.0","5a585be8e0cf3d00012657b8","E1","batch5","","512","tol_toboard","","","","tol_peg_3","512","512","0","[[0,0,0],[2,3],[1]]","1","[[0,0,0],[1,2],[3]]","21","0","","","","","","6","","","","","","","","",""
"","","","","","single-stim-button","353","505738","0.0-2.0-74.1-0.1","5a585be8e0cf3d00012657b8","E1","batch5","","378","tol_tohand","","","","tol_peg_2","378","378","0","[[0,0,0],[2,0],[1]]","2","[[0,0,0],[1,2],[3]]","21","0","","","","","","6","","","","","","","","",""
"","","","","","single-stim-button","354","506069","0.0-2.0-74.1-1.1","5a585be8e0cf3d00012657b8","E1","batch5","","330","tol_toboard","","","","tol_peg_1","330","330","0","[[3,0,0],[2,0],[1]]","2","[[0,0,0],[1,2],[3]]","21","0","","","","","","6","","","","","","","","",""
"","","","","","single-stim-button","355","506385","0.0-2.0-74.2-0.2","5a585be8e0cf3d00012657b8","E1","batch5","","315","tol_tohand","","","","tol_peg_2","315","315","0","[[3,0,0],[0,0],[1]]","3","[[0,0,0],[1,2],[3]]","21","0","","","","","","6","","","","","","","","",""
"","","","","","single-stim-button","356","506716","0.0-2.0-74.2-1.2","5a585be8e0cf3d00012657b8","E1","batch5","","330","tol_toboard","","","","tol_peg_1","330","330","0","[[3,2,0],[0,0],[1]]","3","[[0,0,0],[1,2],[3]]","21","0","","","","","","6","","","","","","","","",""
