"success","timeout","failed_images","failed_audio","failed_video","trial_type","trial_index","time_elapsed","internal_node_id","subject_id","study_id","session_id","view_history","rt","task","stimulus","response","correct","mouse_click","stim_duration","block_duration","timing_post_trial","current_position","tol_num_moves_made","tol_target","tol_problem_id","tol_rt","key_press","possible_responses","tol_correct","preplanning","tol_rt_per_trial","tol_min_moves","answer","item","fiar_detect_rt","fiar_detect_correct","total_correct_fiar_detect","post_trial_gap","choices","spm_correct","spm_rt"
"true","false","[]","[]","[]","preload","0","2193","0.0-0.0","5a6b7f02e6cc4a0001b6a591","D2","batch4","","","","","","","","","","","","","","","","","","","","","","","","","","","","","",""
"true","","","","","fullscreen","1","15015","0.0-1.0-0.0","5a6b7f02e6cc4a0001b6a591","D2","batch4","","","","","","","","","","","","","","","","","","","","","","","","","","","","","",""
"true","","","","","fullscreen","2","17713","0.0-2.0-0.0","5a6b7f02e6cc4a0001b6a591","D2","batch4","","","","","","","","","","","","","","","","","","","","","","","","","","","","","",""
"","","","","","instructions","3","88396","0.0-2.0-1.0-0.0-0.0","5a6b7f02e6cc4a0001b6a591","D2","batch4","[{""page_index"":0,""viewing_time"":15086.899999976158},{""page_index"":1,""viewing_time"":10008.200000047684},{""page_index"":2,""viewing_time"":4119.600000023842},{""page_index"":3,""viewing_time"":11733.799999952316},{""page_index"":4,""viewing_time"":9120.200000047684},{""page_index"":5,""viewing_time"":13421.899999976158},{""page_index"":6,""viewing_time"":7190.200000047684}]","70681.20000004768","tol-instructions","","","","","","","","","","","","","","","","","","","","","","","","","","",""
"","","","","","html-button-response","4","89698","0.0-2.0-1.0-1.0-0.0","5a6b7f02e6cc4a0001b6a591","D2","batch4","","1300.6000000238419","tol_enter_quiz","<p class=block-text> Let's answer a few questions <br>","0","","","","","","","","","","","","","","","","","","","","","","","","",""
"","","","","","html-button-response","5","98660","0.0-2.0-1.0-1.0-1.0","5a6b7f02e6cc4a0001b6a591","D2","batch4","","8960.299999952316","tol_quiz","<p class = block-text>True or False: You can only move the ball on top of a peg. <br></p>","0","true","","","","","","","","","","","","","","","","","","","","","","","",""
"","","","","","html-button-response","6","100874","0.0-2.0-1.0-1.0-2.0","5a6b7f02e6cc4a0001b6a591","D2","batch4","","2212.2999999523163","tol_quiz_feedback","<p class = block-text>Correct! You can only move the ball on top of a peg.</p>","0","","","","","","","","","","","","","","","","","","","","","","","","",""
"","","","","","html-button-response","7","104050","0.0-2.0-1.0-1.0-3.0","5a6b7f02e6cc4a0001b6a591","D2","batch4","","3175.4000000953674","tol_quiz","<p class = block-text>True or False: You should try to match your board with the target board with fewest moves possible. <br></p>","0","true","","","","","","","","","","","","","","","","","","","","","","","",""
"","","","","","html-button-response","8","104852","0.0-2.0-1.0-1.0-4.0","5a6b7f02e6cc4a0001b6a591","D2","batch4","","800.1000000238419","tol_quiz_feedback","<p class = block-text>Correct! </p>","0","","","","","","","","","","","","","","","","","","","","","","","","",""
"","","","","","html-button-response","9","107769","0.0-2.0-2.0","5a6b7f02e6cc4a0001b6a591","D2","batch4","","2916.0999999046326","","<p class=block-text> Now that you've understood the game, let's practice a few easier examples before we start!<br> <br>","0","","","","","","","","","","","","","","","","","","","","","","","","",""
"","","","","","single-stim-button","10","110165","0.0-2.0-3.0-0.0","5a6b7f02e6cc4a0001b6a591","D2","batch4","","2394","tol_practice","","","","tol_peg_2","2394","2394","0","[[1,2,0],[0,0],[0]]","1","[[1,2,0],[0,0],[3]]","practice","2394","","","","","","","","","","","","","","",""
"","","","","","single-stim-button","11","113326","0.0-2.0-3.0-1.0","5a6b7f02e6cc4a0001b6a591","D2","batch4","","3159","tol_practice","","","","tol_peg_3","3159","3159","0","[[1,2,0],[0,0],[3]]","1","[[1,2,0],[0,0],[3]]","practice","3159","","","","","","","","","","","","","","",""
"","","","","","poldrack-single-stim","12","114330","0.0-2.0-4.0","5a6b7f02e6cc4a0001b6a591","D2","batch4","","-1","tol_feedback","","","true","","1000","1000","500","","","","","","-1","none","true","","0","","","","","","","","","",""
"","","","","","single-stim-button","13","118631","0.0-2.0-5.0-0.0","5a6b7f02e6cc4a0001b6a591","D2","batch4","","4300","tol_practice","","","","tol_peg_1","4300","4300","0","[[1,0,0],[3,0],[0]]","2","[[0,0,0],[3,1],[2]]","practice","4300","","","","","","","","","","","","","","",""
"","","","","","single-stim-button","14","120154","0.0-2.0-5.0-1.0","5a6b7f02e6cc4a0001b6a591","D2","batch4","","1521","tol_practice","","","","tol_peg_3","1521","1521","0","[[1,0,0],[3,0],[2]]","2","[[0,0,0],[3,1],[2]]","practice","1521","","","","","","","","","","","","","","",""
"","","","","","single-stim-button","15","121504","0.0-2.0-5.1-0.1","5a6b7f02e6cc4a0001b6a591","D2","batch4","","1348","tol_practice","","","","tol_peg_1","1348","1348","0","[[0,0,0],[3,0],[2]]","3","[[0,0,0],[3,1],[2]]","practice","1348","","","","","","","","","","","","","","",""
"","","","","","single-stim-button","16","122798","0.0-2.0-5.1-1.1","5a6b7f02e6cc4a0001b6a591","D2","batch4","","1293","tol_practice","","","","tol_peg_2","1293","1293","0","[[0,0,0],[3,1],[2]]","3","[[0,0,0],[3,1],[2]]","practice","1293","","","","","","","","","","","","","","",""
"","","","","","poldrack-single-stim","17","123806","0.0-2.0-6.0","5a6b7f02e6cc4a0001b6a591","D2","batch4","","-1","tol_feedback","","","true","","1000","1000","500","","","","","","-1","none","true","","0","","","","","","","","","",""
"","","","","","single-stim-button","18","127397","0.0-2.0-7.0-0.0","5a6b7f02e6cc4a0001b6a591","D2","batch4","","3591","tol_practice","","","","tol_peg_2","3591","3591","0","[[1,2,0],[0,0],[0]]","4","[[1,0,0],[2,0],[3]]","practice","3591","","","","","","","","","","","","","","",""
"","","","","","single-stim-button","19","128904","0.0-2.0-7.0-1.0","5a6b7f02e6cc4a0001b6a591","D2","batch4","","1506","tol_practice","","","","tol_peg_3","1506","1506","0","[[1,2,0],[0,0],[3]]","4","[[1,0,0],[2,0],[3]]","practice","1506","","","","","","","","","","","","","","",""
"","","","","","single-stim-button","20","129985","0.0-2.0-7.1-0.1","5a6b7f02e6cc4a0001b6a591","D2","batch4","","1081","tol_practice","","","","tol_peg_1","1081","1081","0","[[1,0,0],[0,0],[3]]","5","[[1,0,0],[2,0],[3]]","practice","1081","","","","","","","","","","","","","","",""
"","","","","","single-stim-button","21","131016","0.0-2.0-7.1-1.1","5a6b7f02e6cc4a0001b6a591","D2","batch4","","1029","tol_practice","","","","tol_peg_2","1029","1029","0","[[1,0,0],[2,0],[3]]","5","[[1,0,0],[2,0],[3]]","practice","1029","","","","","","","","","","","","","","",""
"","","","","","poldrack-single-stim","22","132033","0.0-2.0-8.0","5a6b7f02e6cc4a0001b6a591","D2","batch4","","-1","tol_feedback","","","true","","1000","1000","500","","","","","","-1","none","true","","0","","","","","","","","","",""
"","","","","","html-button-response","23","156259","0.0-2.0-9.0","5a6b7f02e6cc4a0001b6a591","D2","batch4","","24224.099999904633","tol_instruction","<div class = centerbox><p class = center-block-text>Great job! You are done with practice trials<br>You are about to start official trials.<br> <br> Problem <strong>1</strong> out of 25 problems</p></div>","0","","","","","","","","","","","","","","","","","","","","","","","","",""
"","","","","","single-stim-button","24","161596","0.0-2.0-10.0-0.0","5a6b7f02e6cc4a0001b6a591","D2","batch4","","4322","tol_tohand","","","","tol_peg_1","4322","4322","0","[[1,0,0],[3,0],[0]]","1","[[1,3,0],[2,0],[0]]","0","0","","","","","","3","","","","","","","","",""
"","","","","","single-stim-button","25","162696","0.0-2.0-10.0-1.0","5a6b7f02e6cc4a0001b6a591","D2","batch4","","1099","tol_toboard","","","","tol_peg_3","1099","1099","0","[[1,0,0],[3,0],[2]]","1","[[1,3,0],[2,0],[0]]","0","0","","","","","","3","","","","","","","","",""
"","","","","","single-stim-button","26","163737","0.0-2.0-10.1-0.1","5a6b7f02e6cc4a0001b6a591","D2","batch4","","1041","tol_tohand","","","","tol_peg_2","1041","1041","0","[[1,0,0],[0,0],[2]]","2","[[1,3,0],[2,0],[0]]","0","0","","","","","","3","","","","","","","","",""
"","","","","","single-stim-button","27","165120","0.0-2.0-10.1-1.1","5a6b7f02e6cc4a0001b6a591","D2","batch4","","1381","tol_toboard","","","","tol_peg_1","1381","1381","0","[[1,3,0],[0,0],[2]]","2","[[1,3,0],[2,0],[0]]","0","0","","","","","","3","","","","","","","","",""
"","","","","","single-stim-button","28","167763","0.0-2.0-10.2-0.2","5a6b7f02e6cc4a0001b6a591","D2","batch4","","2643","tol_tohand","","","","tol_peg_3","2643","2643","0","[[1,3,0],[0,0],[0]]","3","[[1,3,0],[2,0],[0]]","0","0","","","","","","3","","","","","","","","",""
"","","","","","single-stim-button","29","168939","0.0-2.0-10.2-1.2","5a6b7f02e6cc4a0001b6a591","D2","batch4","","1175","tol_toboard","","","","tol_peg_2","1175","1175","0","[[1,3,0],[2,0],[0]]","3","[[1,3,0],[2,0],[0]]","0","0","","","","","","3","","","","","","","","",""
"","","","","","poldrack-single-stim","30","169950","0.0-2.0-11.0","5a6b7f02e6cc4a0001b6a591","D2","batch4","","-1","tol_feedback","","","true","","1000","1000","500","","","","","","-1","none","true","4322","8006","","","","","","","","","",""
"","","","","","html-button-response","31","171075","0.0-2.0-12.0","5a6b7f02e6cc4a0001b6a591","D2","batch4","","1123","tol_trial_num","<div class = centerbox><p class = center-block-text>problem <strong>2</strong> out of 25 problems</p></div>","0","","","","","","","","","","","","","","","","","","","","","","","","",""
"","","","","","single-stim-button","32","180217","0.0-2.0-13.0-0.0","5a6b7f02e6cc4a0001b6a591","D2","batch4","","9141","tol_tohand","","","","tol_peg_1","9141","9141","0","[[1,0,0],[3,0],[0]]","1","[[2,1,3],[0,0],[0]]","1","0","","","","","","5","","","","","","","","",""
"","","","","","single-stim-button","33","184801","0.0-2.0-13.0-1.0","5a6b7f02e6cc4a0001b6a591","D2","batch4","","4583","tol_toboard","","","","tol_peg_2","4583","4583","0","[[1,0,0],[3,2],[0]]","1","[[2,1,3],[0,0],[0]]","1","0","","","","","","5","","","","","","","","",""
"","","","","","single-stim-button","34","186291","0.0-2.0-13.1-0.1","5a6b7f02e6cc4a0001b6a591","D2","batch4","","1489","tol_tohand","","","","tol_peg_1","1489","1489","0","[[0,0,0],[3,2],[0]]","2","[[2,1,3],[0,0],[0]]","1","0","","","","","","5","","","","","","","","",""
"","","","","","single-stim-button","35","188812","0.0-2.0-13.1-1.1","5a6b7f02e6cc4a0001b6a591","D2","batch4","","2519","tol_toboard","","","","tol_peg_3","2519","2519","0","[[0,0,0],[3,2],[1]]","2","[[2,1,3],[0,0],[0]]","1","0","","","","","","5","","","","","","","","",""
"","","","","","single-stim-button","36","189501","0.0-2.0-13.2-0.2","5a6b7f02e6cc4a0001b6a591","D2","batch4","","689","tol_tohand","","","","tol_peg_2","689","689","0","[[0,0,0],[3,0],[1]]","3","[[2,1,3],[0,0],[0]]","1","0","","","","","","5","","","","","","","","",""
"","","","","","single-stim-button","37","190733","0.0-2.0-13.2-1.2","5a6b7f02e6cc4a0001b6a591","D2","batch4","","1231","tol_toboard","","","","tol_peg_1","1231","1231","0","[[2,0,0],[3,0],[1]]","3","[[2,1,3],[0,0],[0]]","1","0","","","","","","5","","","","","","","","",""
"","","","","","single-stim-button","38","192271","0.0-2.0-13.3-0.3","5a6b7f02e6cc4a0001b6a591","D2","batch4","","1538","tol_tohand","","","","tol_peg_3","1538","1538","0","[[2,0,0],[3,0],[0]]","4","[[2,1,3],[0,0],[0]]","1","0","","","","","","5","","","","","","","","",""
"","","","","","single-stim-button","39","193299","0.0-2.0-13.3-1.3","5a6b7f02e6cc4a0001b6a591","D2","batch4","","1027","tol_toboard","","","","tol_peg_1","1027","1027","0","[[2,1,0],[3,0],[0]]","4","[[2,1,3],[0,0],[0]]","1","0","","","","","","5","","","","","","","","",""
"","","","","","single-stim-button","40","194241","0.0-2.0-13.4-0.4","5a6b7f02e6cc4a0001b6a591","D2","batch4","","941","tol_tohand","","","","tol_peg_2","941","941","0","[[2,1,0],[0,0],[0]]","5","[[2,1,3],[0,0],[0]]","1","0","","","","","","5","","","","","","","","",""
"","","","","","single-stim-button","41","195103","0.0-2.0-13.4-1.4","5a6b7f02e6cc4a0001b6a591","D2","batch4","","861","tol_toboard","","","","tol_peg_1","861","861","0","[[2,1,3],[0,0],[0]]","5","[[2,1,3],[0,0],[0]]","1","0","","","","","","5","","","","","","","","",""
"","","","","","poldrack-single-stim","42","196109","0.0-2.0-14.0","5a6b7f02e6cc4a0001b6a591","D2","batch4","","-1","tol_feedback","","","true","","1000","1000","500","","","","","","-1","none","true","9141","13798","","","","","","","","","",""
"","","","","","html-button-response","43","197041","0.0-2.0-15.0","5a6b7f02e6cc4a0001b6a591","D2","batch4","","930.6000000238419","tol_trial_num","<div class = centerbox><p class = center-block-text>problem <strong>3</strong> out of 25 problems</p></div>","0","","","","","","","","","","","","","","","","","","","","","","","","",""
"","","","","","single-stim-button","44","202284","0.0-2.0-16.0-0.0","5a6b7f02e6cc4a0001b6a591","D2","batch4","","5242","tol_tohand","","","","tol_peg_1","5242","5242","0","[[2,0,0],[0,0],[1]]","1","[[1,2,0],[3,0],[0]]","2","0","","","","","","4","","","","","","","","",""
"","","","","","single-stim-button","45","203147","0.0-2.0-16.0-1.0","5a6b7f02e6cc4a0001b6a591","D2","batch4","","862","tol_toboard","","","","tol_peg_2","862","862","0","[[2,0,0],[3,0],[1]]","1","[[1,2,0],[3,0],[0]]","2","0","","","","","","4","","","","","","","","",""
"","","","","","single-stim-button","46","207863","0.0-2.0-16.1-0.1","5a6b7f02e6cc4a0001b6a591","D2","batch4","","4715","tol_tohand","","","","tol_peg_1","4715","4715","0","[[0,0,0],[3,0],[1]]","2","[[1,2,0],[3,0],[0]]","2","0","","","","","","4","","","","","","","","",""
"","","","","","single-stim-button","47","208663","0.0-2.0-16.1-1.1","5a6b7f02e6cc4a0001b6a591","D2","batch4","","799","tol_toboard","","","","tol_peg_2","799","799","0","[[0,0,0],[3,2],[1]]","2","[[1,2,0],[3,0],[0]]","2","0","","","","","","4","","","","","","","","",""
"","","","","","single-stim-button","48","209447","0.0-2.0-16.2-0.2","5a6b7f02e6cc4a0001b6a591","D2","batch4","","783","tol_tohand","","","","tol_peg_3","783","783","0","[[0,0,0],[3,2],[0]]","3","[[1,2,0],[3,0],[0]]","2","0","","","","","","4","","","","","","","","",""
"","","","","","single-stim-button","49","210373","0.0-2.0-16.2-1.2","5a6b7f02e6cc4a0001b6a591","D2","batch4","","925","tol_toboard","","","","tol_peg_1","925","925","0","[[1,0,0],[3,2],[0]]","3","[[1,2,0],[3,0],[0]]","2","0","","","","","","4","","","","","","","","",""
"","","","","","single-stim-button","50","211079","0.0-2.0-16.3-0.3","5a6b7f02e6cc4a0001b6a591","D2","batch4","","705","tol_tohand","","","","tol_peg_2","705","705","0","[[1,0,0],[3,0],[0]]","4","[[1,2,0],[3,0],[0]]","2","0","","","","","","4","","","","","","","","",""
"","","","","","single-stim-button","51","211764","0.0-2.0-16.3-1.3","5a6b7f02e6cc4a0001b6a591","D2","batch4","","684","tol_toboard","","","","tol_peg_1","684","684","0","[[1,2,0],[3,0],[0]]","4","[[1,2,0],[3,0],[0]]","2","0","","","","","","4","","","","","","","","",""
"","","","","","poldrack-single-stim","52","212766","0.0-2.0-17.0","5a6b7f02e6cc4a0001b6a591","D2","batch4","","-1","tol_feedback","","","true","","1000","1000","500","","","","","","-1","none","true","5242","11445","","","","","","","","","",""
"","","","","","html-button-response","53","213607","0.0-2.0-18.0","5a6b7f02e6cc4a0001b6a591","D2","batch4","","838.8999999761581","tol_trial_num","<div class = centerbox><p class = center-block-text>problem <strong>4</strong> out of 25 problems</p></div>","0","","","","","","","","","","","","","","","","","","","","","","","","",""
"","","","","","single-stim-button","54","218630","0.0-2.0-19.0-0.0","5a6b7f02e6cc4a0001b6a591","D2","batch4","","5022","tol_tohand","","","","tol_peg_2","5022","5022","0","[[3,0,0],[2,0],[0]]","1","[[3,0,0],[1,0],[2]]","3","0","","","","","","3","","","","","","","","",""
"","","","","","single-stim-button","55","219711","0.0-2.0-19.0-1.0","5a6b7f02e6cc4a0001b6a591","D2","batch4","","1081","tol_toboard","","","","tol_peg_1","1081","1081","0","[[3,1,0],[2,0],[0]]","1","[[3,0,0],[1,0],[2]]","3","0","","","","","","3","","","","","","","","",""
"","","","","","single-stim-button","56","220527","0.0-2.0-19.1-0.1","5a6b7f02e6cc4a0001b6a591","D2","batch4","","815","tol_tohand","","","","tol_peg_2","815","815","0","[[3,1,0],[0,0],[0]]","2","[[3,0,0],[1,0],[2]]","3","0","","","","","","3","","","","","","","","",""
"","","","","","single-stim-button","57","221485","0.0-2.0-19.1-1.1","5a6b7f02e6cc4a0001b6a591","D2","batch4","","958","tol_toboard","","","","tol_peg_3","958","958","0","[[3,1,0],[0,0],[2]]","2","[[3,0,0],[1,0],[2]]","3","0","","","","","","3","","","","","","","","",""
"","","","","","single-stim-button","58","222105","0.0-2.0-19.2-0.2","5a6b7f02e6cc4a0001b6a591","D2","batch4","","619","tol_tohand","","","","tol_peg_1","619","619","0","[[3,0,0],[0,0],[2]]","3","[[3,0,0],[1,0],[2]]","3","0","","","","","","3","","","","","","","","",""
"","","","","","single-stim-button","59","222747","0.0-2.0-19.2-1.2","5a6b7f02e6cc4a0001b6a591","D2","batch4","","641","tol_toboard","","","","tol_peg_2","641","641","0","[[3,0,0],[1,0],[2]]","3","[[3,0,0],[1,0],[2]]","3","0","","","","","","3","","","","","","","","",""
"","","","","","poldrack-single-stim","60","223764","0.0-2.0-20.0","5a6b7f02e6cc4a0001b6a591","D2","batch4","","-1","tol_feedback","","","true","","1000","1000","500","","","","","","-1","none","true","5022","6456","","","","","","","","","",""
"","","","","","html-button-response","61","224717","0.0-2.0-21.0","5a6b7f02e6cc4a0001b6a591","D2","batch4","","951.8999999761581","tol_trial_num","<div class = centerbox><p class = center-block-text>problem <strong>5</strong> out of 25 problems</p></div>","0","","","","","","","","","","","","","","","","","","","","","","","","",""
"","","","","","single-stim-button","62","251576","0.0-2.0-22.0-0.0","5a6b7f02e6cc4a0001b6a591","D2","batch4","","26858","tol_tohand","","","","tol_peg_3","26858","26858","0","[[1,0,0],[2,0],[0]]","1","[[0,0,0],[1,2],[3]]","4","0","","","","","","7","","","","","","","","",""
"","","","","","single-stim-button","63","252523","0.0-2.0-22.0-1.0","5a6b7f02e6cc4a0001b6a591","D2","batch4","","947","tol_toboard","","","","tol_peg_1","947","947","0","[[1,3,0],[2,0],[0]]","1","[[0,0,0],[1,2],[3]]","4","0","","","","","","7","","","","","","","","",""
"","","","","","single-stim-button","64","253834","0.0-2.0-22.1-0.1","5a6b7f02e6cc4a0001b6a591","D2","batch4","","1310","tol_tohand","","","","tol_peg_2","1310","1310","0","[[1,3,0],[0,0],[0]]","2","[[0,0,0],[1,2],[3]]","4","0","","","","","","7","","","","","","","","",""
"","","","","","single-stim-button","65","255067","0.0-2.0-22.1-1.1","5a6b7f02e6cc4a0001b6a591","D2","batch4","","1232","tol_toboard","","","","tol_peg_3","1232","1232","0","[[1,3,0],[0,0],[2]]","2","[[0,0,0],[1,2],[3]]","4","0","","","","","","7","","","","","","","","",""
"","","","","","single-stim-button","66","257051","0.0-2.0-22.2-0.2","5a6b7f02e6cc4a0001b6a591","D2","batch4","","1983","tol_tohand","","","","tol_peg_1","1983","1983","0","[[1,0,0],[0,0],[2]]","3","[[0,0,0],[1,2],[3]]","4","0","","","","","","7","","","","","","","","",""
"","","","","","single-stim-button","67","258841","0.0-2.0-22.2-1.2","5a6b7f02e6cc4a0001b6a591","D2","batch4","","1789","tol_toboard","","","","tol_peg_2","1789","1789","0","[[1,0,0],[3,0],[2]]","3","[[0,0,0],[1,2],[3]]","4","0","","","","","","7","","","","","","","","",""
"","","","","","single-stim-button","68","260709","0.0-2.0-22.3-0.3","5a6b7f02e6cc4a0001b6a591","D2","batch4","","1868","tol_tohand","","","","tol_peg_1","1868","1868","0","[[0,0,0],[3,0],[2]]","4","[[0,0,0],[1,2],[3]]","4","0","","","","","","7","","","","","","","","",""
"","","","","","single-stim-button","69","262333","0.0-2.0-22.3-1.3","5a6b7f02e6cc4a0001b6a591","D2","batch4","","1623","tol_toboard","","","","tol_peg_2","1623","1623","0","[[0,0,0],[3,1],[2]]","4","[[0,0,0],[1,2],[3]]","4","0","","","","","","7","","","","","","","","",""
"","","","","","single-stim-button","70","263110","0.0-2.0-22.4-0.4","5a6b7f02e6cc4a0001b6a591","D2","batch4","","776","tol_tohand","","","","tol_peg_3","776","776","0","[[0,0,0],[3,1],[0]]","5","[[0,0,0],[1,2],[3]]","4","0","","","","","","7","","","","","","","","",""
"","","","","","single-stim-button","71","264019","0.0-2.0-22.4-1.4","5a6b7f02e6cc4a0001b6a591","D2","batch4","","909","tol_toboard","","","","tol_peg_1","909","909","0","[[2,0,0],[3,1],[0]]","5","[[0,0,0],[1,2],[3]]","4","0","","","","","","7","","","","","","","","",""
"","","","","","single-stim-button","72","264483","0.0-2.0-22.5-0.5","5a6b7f02e6cc4a0001b6a591","D2","batch4","","462","tol_tohand","","","","tol_peg_2","462","462","0","[[2,0,0],[3,0],[0]]","6","[[0,0,0],[1,2],[3]]","4","0","","","","","","7","","","","","","","","",""
"","","","","","single-stim-button","73","265659","0.0-2.0-22.5-1.5","5a6b7f02e6cc4a0001b6a591","D2","batch4","","1175","tol_toboard","","","","tol_peg_3","1175","1175","0","[[2,0,0],[3,0],[1]]","6","[[0,0,0],[1,2],[3]]","4","0","","","","","","7","","","","","","","","",""
"","","","","","single-stim-button","74","266169","0.0-2.0-22.6-0.6","5a6b7f02e6cc4a0001b6a591","D2","batch4","","509","tol_tohand","","","","tol_peg_2","509","509","0","[[2,0,0],[0,0],[1]]","7","[[0,0,0],[1,2],[3]]","4","0","","","","","","7","","","","","","","","",""
"","","","","","single-stim-button","75","267071","0.0-2.0-22.6-1.6","5a6b7f02e6cc4a0001b6a591","D2","batch4","","901","tol_toboard","","","","tol_peg_1","901","901","0","[[2,3,0],[0,0],[1]]","7","[[0,0,0],[1,2],[3]]","4","0","","","","","","7","","","","","","","","",""
"","","","","","single-stim-button","76","267895","0.0-2.0-22.7-0.7","5a6b7f02e6cc4a0001b6a591","D2","batch4","","823","tol_tohand","","","","tol_peg_3","823","823","0","[[2,3,0],[0,0],[0]]","8","[[0,0,0],[1,2],[3]]","4","0","","","","","","7","","","","","","","","",""
"","","","","","single-stim-button","77","268555","0.0-2.0-22.7-1.7","5a6b7f02e6cc4a0001b6a591","D2","batch4","","659","tol_toboard","","","","tol_peg_2","659","659","0","[[2,3,0],[1,0],[0]]","8","[[0,0,0],[1,2],[3]]","4","0","","","","","","7","","","","","","","","",""
"","","","","","single-stim-button","78","269363","0.0-2.0-22.8-0.8","5a6b7f02e6cc4a0001b6a591","D2","batch4","","807","tol_tohand","","","","tol_peg_1","807","807","0","[[2,0,0],[1,0],[0]]","9","[[0,0,0],[1,2],[3]]","4","0","","","","","","7","","","","","","","","",""
"","","","","","single-stim-button","79","270249","0.0-2.0-22.8-1.8","5a6b7f02e6cc4a0001b6a591","D2","batch4","","885","tol_toboard","","","","tol_peg_3","885","885","0","[[2,0,0],[1,0],[3]]","9","[[0,0,0],[1,2],[3]]","4","0","","","","","","7","","","","","","","","",""
"","","","","","single-stim-button","80","270838","0.0-2.0-22.9-0.9","5a6b7f02e6cc4a0001b6a591","D2","batch4","","588","tol_tohand","","","","tol_peg_1","588","588","0","[[0,0,0],[1,0],[3]]","10","[[0,0,0],[1,2],[3]]","4","0","","","","","","7","","","","","","","","",""
"","","","","","single-stim-button","81","272163","0.0-2.0-22.9-1.9","5a6b7f02e6cc4a0001b6a591","D2","batch4","","1324","tol_toboard","","","","tol_peg_2","1324","1324","0","[[0,0,0],[1,2],[3]]","10","[[0,0,0],[1,2],[3]]","4","0","","","","","","7","","","","","","","","",""
"","","","","","poldrack-single-stim","82","273179","0.0-2.0-23.0","5a6b7f02e6cc4a0001b6a591","D2","batch4","","-1","tol_feedback","","","true","","1000","1000","500","","","","","","-1","none","true","26858","35984","","","","","","","","","",""
"","","","","","html-button-response","83","294485","0.0-2.0-24.0","5a6b7f02e6cc4a0001b6a591","D2","batch4","","21304","tol_trial_num","<div class = centerbox><p class = center-block-text>problem <strong>6</strong> out of 25 problems</p></div>","0","","","","","","","","","","","","","","","","","","","","","","","","",""
"","","","","","single-stim-button","84","303267","0.0-2.0-25.0-0.0","5a6b7f02e6cc4a0001b6a591","D2","batch4","","8781","tol_tohand","","","","tol_peg_3","8781","8781","0","[[0,0,0],[1,2],[0]]","1","[[1,0,0],[2,3],[0]]","5","0","","","","","","6","","","","","","","","",""
"","","","","","single-stim-button","85","304136","0.0-2.0-25.0-1.0","5a6b7f02e6cc4a0001b6a591","D2","batch4","","869","tol_toboard","","","","tol_peg_1","869","869","0","[[3,0,0],[1,2],[0]]","1","[[1,0,0],[2,3],[0]]","5","0","","","","","","6","","","","","","","","",""
"","","","","","single-stim-button","86","307065","0.0-2.0-25.1-0.1","5a6b7f02e6cc4a0001b6a591","D2","batch4","","2927","tol_tohand","","","","tol_peg_2","2927","2927","0","[[3,0,0],[1,0],[0]]","2","[[1,0,0],[2,3],[0]]","5","0","","","","","","6","","","","","","","","",""
"","","","","","single-stim-button","87","308123","0.0-2.0-25.1-1.1","5a6b7f02e6cc4a0001b6a591","D2","batch4","","1057","tol_toboard","","","","tol_peg_3","1057","1057","0","[[3,0,0],[1,0],[2]]","2","[[1,0,0],[2,3],[0]]","5","0","","","","","","6","","","","","","","","",""
"","","","","","single-stim-button","88","310077","0.0-2.0-25.2-0.2","5a6b7f02e6cc4a0001b6a591","D2","batch4","","1954","tol_tohand","","","","tol_peg_2","1954","1954","0","[[3,0,0],[0,0],[2]]","3","[[1,0,0],[2,3],[0]]","5","0","","","","","","6","","","","","","","","",""
"","","","","","single-stim-button","89","310737","0.0-2.0-25.2-1.2","5a6b7f02e6cc4a0001b6a591","D2","batch4","","660","tol_toboard","","","","tol_peg_1","660","660","0","[[3,1,0],[0,0],[2]]","3","[[1,0,0],[2,3],[0]]","5","0","","","","","","6","","","","","","","","",""
"","","","","","single-stim-button","90","311308","0.0-2.0-25.3-0.3","5a6b7f02e6cc4a0001b6a591","D2","batch4","","571","tol_tohand","","","","tol_peg_3","571","571","0","[[3,1,0],[0,0],[0]]","4","[[1,0,0],[2,3],[0]]","5","0","","","","","","6","","","","","","","","",""
"","","","","","single-stim-button","91","311819","0.0-2.0-25.3-1.3","5a6b7f02e6cc4a0001b6a591","D2","batch4","","509","tol_toboard","","","","tol_peg_2","509","509","0","[[3,1,0],[2,0],[0]]","4","[[1,0,0],[2,3],[0]]","5","0","","","","","","6","","","","","","","","",""
"","","","","","single-stim-button","92","312509","0.0-2.0-25.4-0.4","5a6b7f02e6cc4a0001b6a591","D2","batch4","","689","tol_tohand","","","","tol_peg_1","689","689","0","[[3,0,0],[2,0],[0]]","5","[[1,0,0],[2,3],[0]]","5","0","","","","","","6","","","","","","","","",""
"","","","","","single-stim-button","93","313593","0.0-2.0-25.4-1.4","5a6b7f02e6cc4a0001b6a591","D2","batch4","","1083","tol_toboard","","","","tol_peg_3","1083","1083","0","[[3,0,0],[2,0],[1]]","5","[[1,0,0],[2,3],[0]]","5","0","","","","","","6","","","","","","","","",""
"","","","","","single-stim-button","94","314275","0.0-2.0-25.5-0.5","5a6b7f02e6cc4a0001b6a591","D2","batch4","","682","tol_tohand","","","","tol_peg_1","682","682","0","[[0,0,0],[2,0],[1]]","6","[[1,0,0],[2,3],[0]]","5","0","","","","","","6","","","","","","","","",""
"","","","","","single-stim-button","95","315192","0.0-2.0-25.5-1.5","5a6b7f02e6cc4a0001b6a591","D2","batch4","","916","tol_toboard","","","","tol_peg_2","916","916","0","[[0,0,0],[2,3],[1]]","6","[[1,0,0],[2,3],[0]]","5","0","","","","","","6","","","","","","","","",""
"","","","","","single-stim-button","96","315796","0.0-2.0-25.6-0.6","5a6b7f02e6cc4a0001b6a591","D2","batch4","","603","tol_tohand","","","","tol_peg_3","603","603","0","[[0,0,0],[2,3],[0]]","7","[[1,0,0],[2,3],[0]]","5","0","","","","","","6","","","","","","","","",""
"","","","","","single-stim-button","97","316580","0.0-2.0-25.6-1.6","5a6b7f02e6cc4a0001b6a591","D2","batch4","","783","tol_toboard","","","","tol_peg_1","783","783","0","[[1,0,0],[2,3],[0]]","7","[[1,0,0],[2,3],[0]]","5","0","","","","","","6","","","","","","","","",""
"","","","","","poldrack-single-stim","98","317583","0.0-2.0-26.0","5a6b7f02e6cc4a0001b6a591","D2","batch4","","-1","tol_feedback","","","true","","1000","1000","500","","","","","","-1","none","true","8781","16207","","","","","","","","","",""
"","","","","","html-button-response","99","318652","0.0-2.0-27.0","5a6b7f02e6cc4a0001b6a591","D2","batch4","","1067.7999999523163","tol_trial_num","<div class = centerbox><p class = center-block-text>problem <strong>7</strong> out of 25 problems</p></div>","0","","","","","","","","","","","","","","","","","","","","","","","","",""
"","","","","","single-stim-button","100","322263","0.0-2.0-28.0-0.0","5a6b7f02e6cc4a0001b6a591","D2","batch4","","3609","tol_tohand","","","","tol_peg_3","3609","3609","0","[[2,1,0],[0,0],[0]]","1","[[1,2,0],[3,0],[0]]","6","0","","","","","","5","","","","","","","","",""
"","","","","","single-stim-button","101","323542","0.0-2.0-28.0-1.0","5a6b7f02e6cc4a0001b6a591","D2","batch4","","1279","tol_toboard","","","","tol_peg_2","1279","1279","0","[[2,1,0],[3,0],[0]]","1","[[1,2,0],[3,0],[0]]","6","0","","","","","","5","","","","","","","","",""
"","","","","","single-stim-button","102","324947","0.0-2.0-28.1-0.1","5a6b7f02e6cc4a0001b6a591","D2","batch4","","1403","tol_tohand","","","","tol_peg_1","1403","1403","0","[[2,0,0],[3,0],[0]]","2","[[1,2,0],[3,0],[0]]","6","0","","","","","","5","","","","","","","","",""
"","","","","","single-stim-button","103","325990","0.0-2.0-28.1-1.1","5a6b7f02e6cc4a0001b6a591","D2","batch4","","1043","tol_toboard","","","","tol_peg_3","1043","1043","0","[[2,0,0],[3,0],[1]]","2","[[1,2,0],[3,0],[0]]","6","0","","","","","","5","","","","","","","","",""
"","","","","","single-stim-button","104","326611","0.0-2.0-28.2-0.2","5a6b7f02e6cc4a0001b6a591","D2","batch4","","620","tol_tohand","","","","tol_peg_1","620","620","0","[[0,0,0],[3,0],[1]]","3","[[1,2,0],[3,0],[0]]","6","0","","","","","","5","","","","","","","","",""
"","","","","","single-stim-button","105","327284","0.0-2.0-28.2-1.2","5a6b7f02e6cc4a0001b6a591","D2","batch4","","672","tol_toboard","","","","tol_peg_2","672","672","0","[[0,0,0],[3,2],[1]]","3","[[1,2,0],[3,0],[0]]","6","0","","","","","","5","","","","","","","","",""
"","","","","","single-stim-button","106","327818","0.0-2.0-28.3-0.3","5a6b7f02e6cc4a0001b6a591","D2","batch4","","533","tol_tohand","","","","tol_peg_3","533","533","0","[[0,0,0],[3,2],[0]]","4","[[1,2,0],[3,0],[0]]","6","0","","","","","","5","","","","","","","","",""
"","","","","","single-stim-button","107","328533","0.0-2.0-28.3-1.3","5a6b7f02e6cc4a0001b6a591","D2","batch4","","714","tol_toboard","","","","tol_peg_1","714","714","0","[[1,0,0],[3,2],[0]]","4","[[1,2,0],[3,0],[0]]","6","0","","","","","","5","","","","","","","","",""
"","","","","","single-stim-button","108","329027","0.0-2.0-28.4-0.4","5a6b7f02e6cc4a0001b6a591","D2","batch4","","493","tol_tohand","","","","tol_peg_2","493","493","0","[[1,0,0],[3,0],[0]]","5","[[1,2,0],[3,0],[0]]","6","0","","","","","","5","","","","","","","","",""
"","","","","","single-stim-button","109","329685","0.0-2.0-28.4-1.4","5a6b7f02e6cc4a0001b6a591","D2","batch4","","658","tol_toboard","","","","tol_peg_1","658","658","0","[[1,2,0],[3,0],[0]]","5","[[1,2,0],[3,0],[0]]","6","0","","","","","","5","","","","","","","","",""
"","","","","","poldrack-single-stim","110","330701","0.0-2.0-29.0","5a6b7f02e6cc4a0001b6a591","D2","batch4","","-1","tol_feedback","","","true","","1000","1000","500","","","","","","-1","none","true","3609","6658","","","","","","","","","",""
"","","","","","html-button-response","111","331732","0.0-2.0-30.0","5a6b7f02e6cc4a0001b6a591","D2","batch4","","1029.6999999284744","tol_trial_num","<div class = centerbox><p class = center-block-text>problem <strong>8</strong> out of 25 problems</p></div>","0","","","","","","","","","","","","","","","","","","","","","","","","",""
"","","","","","single-stim-button","112","335429","0.0-2.0-31.0-0.0","5a6b7f02e6cc4a0001b6a591","D2","batch4","","3695","tol_tohand","","","","tol_peg_3","3695","3695","0","[[0,0,0],[2,3],[0]]","1","[[1,2,0],[3,0],[0]]","7","0","","","","","","4","","","","","","","","",""
"","","","","","single-stim-button","113","336411","0.0-2.0-31.0-1.0","5a6b7f02e6cc4a0001b6a591","D2","batch4","","982","tol_toboard","","","","tol_peg_1","982","982","0","[[1,0,0],[2,3],[0]]","1","[[1,2,0],[3,0],[0]]","7","0","","","","","","4","","","","","","","","",""
"","","","","","single-stim-button","114","336960","0.0-2.0-31.1-0.1","5a6b7f02e6cc4a0001b6a591","D2","batch4","","548","tol_tohand","","","","tol_peg_2","548","548","0","[[1,0,0],[2,0],[0]]","2","[[1,2,0],[3,0],[0]]","7","0","","","","","","4","","","","","","","","",""
"","","","","","single-stim-button","115","337595","0.0-2.0-31.1-1.1","5a6b7f02e6cc4a0001b6a591","D2","batch4","","633","tol_toboard","","","","tol_peg_3","633","633","0","[[1,0,0],[2,0],[3]]","2","[[1,2,0],[3,0],[0]]","7","0","","","","","","4","","","","","","","","",""
"","","","","","single-stim-button","116","338130","0.0-2.0-31.2-0.2","5a6b7f02e6cc4a0001b6a591","D2","batch4","","534","tol_tohand","","","","tol_peg_2","534","534","0","[[1,0,0],[0,0],[3]]","3","[[1,2,0],[3,0],[0]]","7","0","","","","","","4","","","","","","","","",""
"","","","","","single-stim-button","117","338802","0.0-2.0-31.2-1.2","5a6b7f02e6cc4a0001b6a591","D2","batch4","","672","tol_toboard","","","","tol_peg_1","672","672","0","[[1,2,0],[0,0],[3]]","3","[[1,2,0],[3,0],[0]]","7","0","","","","","","4","","","","","","","","",""
"","","","","","single-stim-button","118","339463","0.0-2.0-31.3-0.3","5a6b7f02e6cc4a0001b6a591","D2","batch4","","659","tol_tohand","","","","tol_peg_3","659","659","0","[[1,2,0],[0,0],[0]]","4","[[1,2,0],[3,0],[0]]","7","0","","","","","","4","","","","","","","","",""
"","","","","","single-stim-button","119","340113","0.0-2.0-31.3-1.3","5a6b7f02e6cc4a0001b6a591","D2","batch4","","650","tol_toboard","","","","tol_peg_2","650","650","0","[[1,2,0],[3,0],[0]]","4","[[1,2,0],[3,0],[0]]","7","0","","","","","","4","","","","","","","","",""
"","","","","","poldrack-single-stim","120","341129","0.0-2.0-32.0","5a6b7f02e6cc4a0001b6a591","D2","batch4","","-1","tol_feedback","","","true","","1000","1000","500","","","","","","-1","none","true","3695","5436","","","","","","","","","",""
"","","","","","html-button-response","121","342160","0.0-2.0-33.0","5a6b7f02e6cc4a0001b6a591","D2","batch4","","1029.8999999761581","tol_trial_num","<div class = centerbox><p class = center-block-text>problem <strong>9</strong> out of 25 problems</p></div>","0","","","","","","","","","","","","","","","","","","","","","","","","",""
"","","","","","single-stim-button","122","348801","0.0-2.0-34.0-0.0","5a6b7f02e6cc4a0001b6a591","D2","batch4","","6639","tol_tohand","","","","tol_peg_1","6639","6639","0","[[3,0,0],[0,0],[1]]","1","[[2,1,0],[3,0],[0]]","8","0","","","","","","6","","","","","","","","",""
"","","","","","single-stim-button","123","349782","0.0-2.0-34.0-1.0","5a6b7f02e6cc4a0001b6a591","D2","batch4","","981","tol_toboard","","","","tol_peg_2","981","981","0","[[3,0,0],[2,0],[1]]","1","[[2,1,0],[3,0],[0]]","8","0","","","","","","6","","","","","","","","",""
"","","","","","single-stim-button","124","352207","0.0-2.0-34.1-0.1","5a6b7f02e6cc4a0001b6a591","D2","batch4","","2424","tol_tohand","","","","tol_peg_1","2424","2424","0","[[0,0,0],[2,0],[1]]","2","[[2,1,0],[3,0],[0]]","8","0","","","","","","6","","","","","","","","",""
"","","","","","single-stim-button","125","353202","0.0-2.0-34.1-1.1","5a6b7f02e6cc4a0001b6a591","D2","batch4","","995","tol_toboard","","","","tol_peg_2","995","995","0","[[0,0,0],[2,3],[1]]","2","[[2,1,0],[3,0],[0]]","8","0","","","","","","6","","","","","","","","",""
"","","","","","single-stim-button","126","354193","0.0-2.0-34.2-0.2","5a6b7f02e6cc4a0001b6a591","D2","batch4","","989","tol_tohand","","","","tol_peg_3","989","989","0","[[0,0,0],[2,3],[0]]","3","[[2,1,0],[3,0],[0]]","8","0","","","","","","6","","","","","","","","",""
"","","","","","single-stim-button","127","354923","0.0-2.0-34.2-1.2","5a6b7f02e6cc4a0001b6a591","D2","batch4","","729","tol_toboard","","","","tol_peg_1","729","729","0","[[1,0,0],[2,3],[0]]","3","[[2,1,0],[3,0],[0]]","8","0","","","","","","6","","","","","","","","",""
"","","","","","single-stim-button","128","355356","0.0-2.0-34.3-0.3","5a6b7f02e6cc4a0001b6a591","D2","batch4","","432","tol_tohand","","","","tol_peg_2","432","432","0","[[1,0,0],[2,0],[0]]","4","[[2,1,0],[3,0],[0]]","8","0","","","","","","6","","","","","","","","",""
"","","","","","single-stim-button","129","356052","0.0-2.0-34.3-1.3","5a6b7f02e6cc4a0001b6a591","D2","batch4","","696","tol_toboard","","","","tol_peg_3","696","696","0","[[1,0,0],[2,0],[3]]","4","[[2,1,0],[3,0],[0]]","8","0","","","","","","6","","","","","","","","",""
"","","","","","single-stim-button","130","357944","0.0-2.0-34.4-0.4","5a6b7f02e6cc4a0001b6a591","D2","batch4","","1891","tol_tohand","","","","tol_peg_2","1891","1891","0","[[1,0,0],[0,0],[3]]","5","[[2,1,0],[3,0],[0]]","8","0","","","","","","6","","","","","","","","",""
"","","","","","single-stim-button","131","358626","0.0-2.0-34.4-1.4","5a6b7f02e6cc4a0001b6a591","D2","batch4","","682","tol_toboard","","","","tol_peg_1","682","682","0","[[1,2,0],[0,0],[3]]","5","[[2,1,0],[3,0],[0]]","8","0","","","","","","6","","","","","","","","",""
"","","","","","single-stim-button","132","360517","0.0-2.0-34.5-0.5","5a6b7f02e6cc4a0001b6a591","D2","batch4","","1890","tol_tohand","","","","tol_peg_1","1890","1890","0","[[1,0,0],[0,0],[3]]","6","[[2,1,0],[3,0],[0]]","8","0","","","","","","6","","","","","","","","",""
"","","","","","single-stim-button","133","361537","0.0-2.0-34.5-1.5","5a6b7f02e6cc4a0001b6a591","D2","batch4","","1018","tol_toboard","","","","tol_peg_2","1018","1018","0","[[1,0,0],[2,0],[3]]","6","[[2,1,0],[3,0],[0]]","8","0","","","","","","6","","","","","","","","",""
"","","","","","single-stim-button","134","364167","0.0-2.0-34.6-0.6","5a6b7f02e6cc4a0001b6a591","D2","batch4","","2630","tol_tohand","","","","tol_peg_2","2630","2630","0","[[1,0,0],[0,0],[3]]","7","[[2,1,0],[3,0],[0]]","8","0","","","","","","6","","","","","","","","",""
"","","","","","single-stim-button","135","364912","0.0-2.0-34.6-1.6","5a6b7f02e6cc4a0001b6a591","D2","batch4","","744","tol_toboard","","","","tol_peg_1","744","744","0","[[1,2,0],[0,0],[3]]","7","[[2,1,0],[3,0],[0]]","8","0","","","","","","6","","","","","","","","",""
"","","","","","single-stim-button","136","365444","0.0-2.0-34.7-0.7","5a6b7f02e6cc4a0001b6a591","D2","batch4","","531","tol_tohand","","","","tol_peg_3","531","531","0","[[1,2,0],[0,0],[0]]","8","[[2,1,0],[3,0],[0]]","8","0","","","","","","6","","","","","","","","",""
"","","","","","single-stim-button","137","366190","0.0-2.0-34.7-1.7","5a6b7f02e6cc4a0001b6a591","D2","batch4","","745","tol_toboard","","","","tol_peg_2","745","745","0","[[1,2,0],[3,0],[0]]","8","[[2,1,0],[3,0],[0]]","8","0","","","","","","6","","","","","","","","",""
"","","","","","single-stim-button","138","366756","0.0-2.0-34.8-0.8","5a6b7f02e6cc4a0001b6a591","D2","batch4","","565","tol_tohand","","","","tol_peg_1","565","565","0","[[1,0,0],[3,0],[0]]","9","[[2,1,0],[3,0],[0]]","8","0","","","","","","6","","","","","","","","",""
"","","","","","single-stim-button","139","367390","0.0-2.0-34.8-1.8","5a6b7f02e6cc4a0001b6a591","D2","batch4","","633","tol_toboard","","","","tol_peg_2","633","633","0","[[1,0,0],[3,2],[0]]","9","[[2,1,0],[3,0],[0]]","8","0","","","","","","6","","","","","","","","",""
"","","","","","single-stim-button","140","369847","0.0-2.0-34.9-0.9","5a6b7f02e6cc4a0001b6a591","D2","batch4","","2455","tol_tohand","","","","tol_peg_1","2455","2455","0","[[0,0,0],[3,2],[0]]","10","[[2,1,0],[3,0],[0]]","8","0","","","","","","6","","","","","","","","",""
"","","","","","single-stim-button","141","370767","0.0-2.0-34.9-1.9","5a6b7f02e6cc4a0001b6a591","D2","batch4","","919","tol_toboard","","","","tol_peg_3","919","919","0","[[0,0,0],[3,2],[1]]","10","[[2,1,0],[3,0],[0]]","8","0","","","","","","6","","","","","","","","",""
"","","","","","single-stim-button","142","371339","0.0-2.0-34.10-0.10","5a6b7f02e6cc4a0001b6a591","D2","batch4","","572","tol_tohand","","","","tol_peg_2","572","572","0","[[0,0,0],[3,0],[1]]","11","[[2,1,0],[3,0],[0]]","8","0","","","","","","6","","","","","","","","",""
"","","","","","single-stim-button","143","372022","0.0-2.0-34.10-1.10","5a6b7f02e6cc4a0001b6a591","D2","batch4","","683","tol_toboard","","","","tol_peg_1","683","683","0","[[2,0,0],[3,0],[1]]","11","[[2,1,0],[3,0],[0]]","8","0","","","","","","6","","","","","","","","",""
"","","","","","single-stim-button","144","372640","0.0-2.0-34.11-0.11","5a6b7f02e6cc4a0001b6a591","D2","batch4","","618","tol_tohand","","","","tol_peg_3","618","618","0","[[2,0,0],[3,0],[0]]","12","[[2,1,0],[3,0],[0]]","8","0","","","","","","6","","","","","","","","",""
"","","","","","single-stim-button","145","373449","0.0-2.0-34.11-1.11","5a6b7f02e6cc4a0001b6a591","D2","batch4","","809","tol_toboard","","","","tol_peg_1","809","809","0","[[2,1,0],[3,0],[0]]","12","[[2,1,0],[3,0],[0]]","8","0","","","","","","6","","","","","","","","",""
"","","","","","poldrack-single-stim","146","374453","0.0-2.0-35.0","5a6b7f02e6cc4a0001b6a591","D2","batch4","","-1","tol_feedback","","","true","","1000","1000","500","","","","","","-1","none","true","6639","21636","","","","","","","","","",""
"","","","","","html-button-response","147","375537","0.0-2.0-36.0","5a6b7f02e6cc4a0001b6a591","D2","batch4","","1082.3999999761581","tol_trial_num","<div class = centerbox><p class = center-block-text>problem <strong>10</strong> out of 25 problems</p></div>","0","","","","","","","","","","","","","","","","","","","","","","","","",""
"","","","","","single-stim-button","148","378645","0.0-2.0-37.0-0.0","5a6b7f02e6cc4a0001b6a591","D2","batch4","","3108","tol_tohand","","","","tol_peg_2","3108","3108","0","[[3,0,0],[0,0],[2]]","1","[[3,0,0],[2,1],[0]]","9","0","","","","","","3","","","","","","","","",""
"","","","","","single-stim-button","149","379523","0.0-2.0-37.0-1.0","5a6b7f02e6cc4a0001b6a591","D2","batch4","","876","tol_toboard","","","","tol_peg_1","876","876","0","[[3,1,0],[0,0],[2]]","1","[[3,0,0],[2,1],[0]]","9","0","","","","","","3","","","","","","","","",""
"","","","","","single-stim-button","150","380183","0.0-2.0-37.1-0.1","5a6b7f02e6cc4a0001b6a591","D2","batch4","","660","tol_tohand","","","","tol_peg_3","660","660","0","[[3,1,0],[0,0],[0]]","2","[[3,0,0],[2,1],[0]]","9","0","","","","","","3","","","","","","","","",""
"","","","","","single-stim-button","151","380889","0.0-2.0-37.1-1.1","5a6b7f02e6cc4a0001b6a591","D2","batch4","","705","tol_toboard","","","","tol_peg_2","705","705","0","[[3,1,0],[2,0],[0]]","2","[[3,0,0],[2,1],[0]]","9","0","","","","","","3","","","","","","","","",""
"","","","","","single-stim-button","152","381335","0.0-2.0-37.2-0.2","5a6b7f02e6cc4a0001b6a591","D2","batch4","","446","tol_tohand","","","","tol_peg_1","446","446","0","[[3,0,0],[2,0],[0]]","3","[[3,0,0],[2,1],[0]]","9","0","","","","","","3","","","","","","","","",""
"","","","","","single-stim-button","153","382247","0.0-2.0-37.2-1.2","5a6b7f02e6cc4a0001b6a591","D2","batch4","","911","tol_toboard","","","","tol_peg_2","911","911","0","[[3,0,0],[2,1],[0]]","3","[[3,0,0],[2,1],[0]]","9","0","","","","","","3","","","","","","","","",""
"","","","","","poldrack-single-stim","154","383249","0.0-2.0-38.0","5a6b7f02e6cc4a0001b6a591","D2","batch4","","-1","tol_feedback","","","true","","1000","1000","500","","","","","","-1","none","true","3108","4214","","","","","","","","","",""
"","","","","","html-button-response","155","384113","0.0-2.0-39.0","5a6b7f02e6cc4a0001b6a591","D2","batch4","","862.3999999761581","tol_trial_num","<div class = centerbox><p class = center-block-text>problem <strong>11</strong> out of 25 problems</p></div>","0","","","","","","","","","","","","","","","","","","","","","","","","",""
"","","","","","single-stim-button","156","388517","0.0-2.0-40.0-0.0","5a6b7f02e6cc4a0001b6a591","D2","batch4","","4403","tol_tohand","","","","tol_peg_1","4403","4403","0","[[1,0,0],[3,0],[0]]","1","[[2,0,0],[1,3],[0]]","10","0","","","","","","6","","","","","","","","",""
"","","","","","single-stim-button","157","394998","0.0-2.0-40.0-1.0","5a6b7f02e6cc4a0001b6a591","D2","batch4","","6481","tol_toboard","","","","tol_peg_3","6481","6481","0","[[1,0,0],[3,0],[2]]","1","[[2,0,0],[1,3],[0]]","10","0","","","","","","6","","","","","","","","",""
"","","","","","single-stim-button","158","396021","0.0-2.0-40.1-0.1","5a6b7f02e6cc4a0001b6a591","D2","batch4","","1022","tol_tohand","","","","tol_peg_1","1022","1022","0","[[0,0,0],[3,0],[2]]","2","[[2,0,0],[1,3],[0]]","10","0","","","","","","6","","","","","","","","",""
"","","","","","single-stim-button","159","396789","0.0-2.0-40.1-1.1","5a6b7f02e6cc4a0001b6a591","D2","batch4","","767","tol_toboard","","","","tol_peg_2","767","767","0","[[0,0,0],[3,1],[2]]","2","[[2,0,0],[1,3],[0]]","10","0","","","","","","6","","","","","","","","",""
"","","","","","single-stim-button","160","397401","0.0-2.0-40.2-0.2","5a6b7f02e6cc4a0001b6a591","D2","batch4","","611","tol_tohand","","","","tol_peg_3","611","611","0","[[0,0,0],[3,1],[0]]","3","[[2,0,0],[1,3],[0]]","10","0","","","","","","6","","","","","","","","",""
"","","","","","single-stim-button","161","398396","0.0-2.0-40.2-1.2","5a6b7f02e6cc4a0001b6a591","D2","batch4","","995","tol_toboard","","","","tol_peg_1","995","995","0","[[2,0,0],[3,1],[0]]","3","[[2,0,0],[1,3],[0]]","10","0","","","","","","6","","","","","","","","",""
"","","","","","single-stim-button","162","400123","0.0-2.0-40.3-0.3","5a6b7f02e6cc4a0001b6a591","D2","batch4","","1726","tol_tohand","","","","tol_peg_2","1726","1726","0","[[2,0,0],[3,0],[0]]","4","[[2,0,0],[1,3],[0]]","10","0","","","","","","6","","","","","","","","",""
"","","","","","single-stim-button","163","401331","0.0-2.0-40.3-1.3","5a6b7f02e6cc4a0001b6a591","D2","batch4","","1207","tol_toboard","","","","tol_peg_3","1207","1207","0","[[2,0,0],[3,0],[1]]","4","[[2,0,0],[1,3],[0]]","10","0","","","","","","6","","","","","","","","",""
"","","","","","single-stim-button","164","401911","0.0-2.0-40.4-0.4","5a6b7f02e6cc4a0001b6a591","D2","batch4","","580","tol_tohand","","","","tol_peg_2","580","580","0","[[2,0,0],[0,0],[1]]","5","[[2,0,0],[1,3],[0]]","10","0","","","","","","6","","","","","","","","",""
"","","","","","single-stim-button","165","402657","0.0-2.0-40.4-1.4","5a6b7f02e6cc4a0001b6a591","D2","batch4","","745","tol_toboard","","","","tol_peg_1","745","745","0","[[2,3,0],[0,0],[1]]","5","[[2,0,0],[1,3],[0]]","10","0","","","","","","6","","","","","","","","",""
"","","","","","single-stim-button","166","403253","0.0-2.0-40.5-0.5","5a6b7f02e6cc4a0001b6a591","D2","batch4","","596","tol_tohand","","","","tol_peg_3","596","596","0","[[2,3,0],[0,0],[0]]","6","[[2,0,0],[1,3],[0]]","10","0","","","","","","6","","","","","","","","",""
"","","","","","single-stim-button","167","403889","0.0-2.0-40.5-1.5","5a6b7f02e6cc4a0001b6a591","D2","batch4","","635","tol_toboard","","","","tol_peg_2","635","635","0","[[2,3,0],[1,0],[0]]","6","[[2,0,0],[1,3],[0]]","10","0","","","","","","6","","","","","","","","",""
"","","","","","single-stim-button","168","404431","0.0-2.0-40.6-0.6","5a6b7f02e6cc4a0001b6a591","D2","batch4","","541","tol_tohand","","","","tol_peg_1","541","541","0","[[2,0,0],[1,0],[0]]","7","[[2,0,0],[1,3],[0]]","10","0","","","","","","6","","","","","","","","",""
"","","","","","single-stim-button","169","405168","0.0-2.0-40.6-1.6","5a6b7f02e6cc4a0001b6a591","D2","batch4","","736","tol_toboard","","","","tol_peg_2","736","736","0","[[2,0,0],[1,3],[0]]","7","[[2,0,0],[1,3],[0]]","10","0","","","","","","6","","","","","","","","",""
"","","","","","poldrack-single-stim","170","406170","0.0-2.0-41.0","5a6b7f02e6cc4a0001b6a591","D2","batch4","","-1","tol_feedback","","","true","","1000","1000","500","","","","","","-1","none","true","4403","9479","","","","","","","","","",""
"","","","","","html-button-response","171","407207","0.0-2.0-42.0","5a6b7f02e6cc4a0001b6a591","D2","batch4","","1034.8000000715256","tol_trial_num","<div class = centerbox><p class = center-block-text>problem <strong>12</strong> out of 25 problems</p></div>","0","","","","","","","","","","","","","","","","","","","","","","","","",""
"","","","","","single-stim-button","172","409430","0.0-2.0-43.0-0.0","5a6b7f02e6cc4a0001b6a591","D2","batch4","","2223","tol_tohand","","","","tol_peg_1","2223","2223","0","[[1,0,0],[3,0],[0]]","1","[[2,3,0],[0,0],[1]]","11","0","","","","","","4","","","","","","","","",""
"","","","","","single-stim-button","173","410189","0.0-2.0-43.0-1.0","5a6b7f02e6cc4a0001b6a591","D2","batch4","","757","tol_toboard","","","","tol_peg_2","757","757","0","[[1,0,0],[3,2],[0]]","1","[[2,3,0],[0,0],[1]]","11","0","","","","","","4","","","","","","","","",""
"","","","","","single-stim-button","174","410879","0.0-2.0-43.1-0.1","5a6b7f02e6cc4a0001b6a591","D2","batch4","","689","tol_tohand","","","","tol_peg_1","689","689","0","[[0,0,0],[3,2],[0]]","2","[[2,3,0],[0,0],[1]]","11","0","","","","","","4","","","","","","","","",""
"","","","","","single-stim-button","175","411954","0.0-2.0-43.1-1.1","5a6b7f02e6cc4a0001b6a591","D2","batch4","","1075","tol_toboard","","","","tol_peg_3","1075","1075","0","[[0,0,0],[3,2],[1]]","2","[[2,3,0],[0,0],[1]]","11","0","","","","","","4","","","","","","","","",""
"","","","","","single-stim-button","176","413996","0.0-2.0-43.2-0.2","5a6b7f02e6cc4a0001b6a591","D2","batch4","","2040","tol_tohand","","","","tol_peg_2","2040","2040","0","[[0,0,0],[3,0],[1]]","3","[[2,3,0],[0,0],[1]]","11","0","","","","","","4","","","","","","","","",""
"","","","","","single-stim-button","177","414835","0.0-2.0-43.2-1.2","5a6b7f02e6cc4a0001b6a591","D2","batch4","","839","tol_toboard","","","","tol_peg_1","839","839","0","[[2,0,0],[3,0],[1]]","3","[[2,3,0],[0,0],[1]]","11","0","","","","","","4","","","","","","","","",""
"","","","","","single-stim-button","178","415259","0.0-2.0-43.3-0.3","5a6b7f02e6cc4a0001b6a591","D2","batch4","","422","tol_tohand","","","","tol_peg_2","422","422","0","[[2,0,0],[0,0],[1]]","4","[[2,3,0],[0,0],[1]]","11","0","","","","","","4","","","","","","","","",""
"","","","","","single-stim-button","179","415932","0.0-2.0-43.3-1.3","5a6b7f02e6cc4a0001b6a591","D2","batch4","","673","tol_toboard","","","","tol_peg_1","673","673","0","[[2,3,0],[0,0],[1]]","4","[[2,3,0],[0,0],[1]]","11","0","","","","","","4","","","","","","","","",""
"","","","","","poldrack-single-stim","180","416934","0.0-2.0-44.0","5a6b7f02e6cc4a0001b6a591","D2","batch4","","-1","tol_feedback","","","true","","1000","1000","500","","","","","","-1","none","true","2223","5374","","","","","","","","","",""
"","","","","","html-button-response","181","417926","0.0-2.0-45.0","5a6b7f02e6cc4a0001b6a591","D2","batch4","","991.3999999761581","tol_trial_num","<div class = centerbox><p class = center-block-text>problem <strong>13</strong> out of 25 problems</p></div>","0","","","","","","","","","","","","","","","","","","","","","","","","",""
"","","","","","single-stim-button","182","420352","0.0-2.0-46.0-0.0","5a6b7f02e6cc4a0001b6a591","D2","batch4","","2425","tol_tohand","","","","tol_peg_1","2425","2425","0","[[1,0,0],[3,0],[0]]","1","[[0,0,0],[2,3],[1]]","12","0","","","","","","4","","","","","","","","",""
"","","","","","single-stim-button","183","421025","0.0-2.0-46.0-1.0","5a6b7f02e6cc4a0001b6a591","D2","batch4","","671","tol_toboard","","","","tol_peg_2","671","671","0","[[1,0,0],[3,2],[0]]","1","[[0,0,0],[2,3],[1]]","12","0","","","","","","4","","","","","","","","",""
"","","","","","single-stim-button","184","421450","0.0-2.0-46.1-0.1","5a6b7f02e6cc4a0001b6a591","D2","batch4","","424","tol_tohand","","","","tol_peg_1","424","424","0","[[0,0,0],[3,2],[0]]","2","[[0,0,0],[2,3],[1]]","12","0","","","","","","4","","","","","","","","",""
"","","","","","single-stim-button","185","422211","0.0-2.0-46.1-1.1","5a6b7f02e6cc4a0001b6a591","D2","batch4","","760","tol_toboard","","","","tol_peg_3","760","760","0","[[0,0,0],[3,2],[1]]","2","[[0,0,0],[2,3],[1]]","12","0","","","","","","4","","","","","","","","",""
"","","","","","single-stim-button","186","428811","0.0-2.0-46.2-0.2","5a6b7f02e6cc4a0001b6a591","D2","batch4","","6599","tol_tohand","","","","tol_peg_2","6599","6599","0","[[0,0,0],[3,0],[1]]","3","[[0,0,0],[2,3],[1]]","12","0","","","","","","4","","","","","","","","",""
"","","","","","single-stim-button","187","429375","0.0-2.0-46.2-1.2","5a6b7f02e6cc4a0001b6a591","D2","batch4","","564","tol_toboard","","","","tol_peg_1","564","564","0","[[2,0,0],[3,0],[1]]","3","[[0,0,0],[2,3],[1]]","12","0","","","","","","4","","","","","","","","",""
"","","","","","single-stim-button","188","429987","0.0-2.0-46.3-0.3","5a6b7f02e6cc4a0001b6a591","D2","batch4","","612","tol_tohand","","","","tol_peg_2","612","612","0","[[2,0,0],[0,0],[1]]","4","[[0,0,0],[2,3],[1]]","12","0","","","","","","4","","","","","","","","",""
"","","","","","single-stim-button","189","430749","0.0-2.0-46.3-1.3","5a6b7f02e6cc4a0001b6a591","D2","batch4","","762","tol_toboard","","","","tol_peg_1","762","762","0","[[2,3,0],[0,0],[1]]","4","[[0,0,0],[2,3],[1]]","12","0","","","","","","4","","","","","","","","",""
"","","","","","single-stim-button","190","433001","0.0-2.0-46.4-0.4","5a6b7f02e6cc4a0001b6a591","D2","batch4","","2252","tol_tohand","","","","tol_peg_3","2252","2252","0","[[2,3,0],[0,0],[0]]","5","[[0,0,0],[2,3],[1]]","12","0","","","","","","4","","","","","","","","",""
"","","","","","single-stim-button","191","433755","0.0-2.0-46.4-1.4","5a6b7f02e6cc4a0001b6a591","D2","batch4","","753","tol_toboard","","","","tol_peg_2","753","753","0","[[2,3,0],[1,0],[0]]","5","[[0,0,0],[2,3],[1]]","12","0","","","","","","4","","","","","","","","",""
"","","","","","single-stim-button","192","434453","0.0-2.0-46.5-0.5","5a6b7f02e6cc4a0001b6a591","D2","batch4","","697","tol_tohand","","","","tol_peg_1","697","697","0","[[2,0,0],[1,0],[0]]","6","[[0,0,0],[2,3],[1]]","12","0","","","","","","4","","","","","","","","",""
"","","","","","single-stim-button","193","435277","0.0-2.0-46.5-1.5","5a6b7f02e6cc4a0001b6a591","D2","batch4","","824","tol_toboard","","","","tol_peg_3","824","824","0","[[2,0,0],[1,0],[3]]","6","[[0,0,0],[2,3],[1]]","12","0","","","","","","4","","","","","","","","",""
"","","","","","single-stim-button","194","439435","0.0-2.0-46.6-0.6","5a6b7f02e6cc4a0001b6a591","D2","batch4","","4157","tol_tohand","","","","tol_peg_1","4157","4157","0","[[0,0,0],[1,0],[3]]","7","[[0,0,0],[2,3],[1]]","12","0","","","","","","4","","","","","","","","",""
"","","","","","single-stim-button","195","440079","0.0-2.0-46.6-1.6","5a6b7f02e6cc4a0001b6a591","D2","batch4","","643","tol_toboard","","","","tol_peg_2","643","643","0","[[0,0,0],[1,2],[3]]","7","[[0,0,0],[2,3],[1]]","12","0","","","","","","4","","","","","","","","",""
"","","","","","single-stim-button","196","441123","0.0-2.0-46.7-0.7","5a6b7f02e6cc4a0001b6a591","D2","batch4","","1043","tol_tohand","","","","tol_peg_3","1043","1043","0","[[0,0,0],[1,2],[0]]","8","[[0,0,0],[2,3],[1]]","12","0","","","","","","4","","","","","","","","",""
"","","","","","single-stim-button","197","441993","0.0-2.0-46.7-1.7","5a6b7f02e6cc4a0001b6a591","D2","batch4","","870","tol_toboard","","","","tol_peg_1","870","870","0","[[3,0,0],[1,2],[0]]","8","[[0,0,0],[2,3],[1]]","12","0","","","","","","4","","","","","","","","",""
"","","","","","single-stim-button","198","442536","0.0-2.0-46.8-0.8","5a6b7f02e6cc4a0001b6a591","D2","batch4","","541","tol_tohand","","","","tol_peg_2","541","541","0","[[3,0,0],[1,0],[0]]","9","[[0,0,0],[2,3],[1]]","12","0","","","","","","4","","","","","","","","",""
"","","","","","single-stim-button","199","443195","0.0-2.0-46.8-1.8","5a6b7f02e6cc4a0001b6a591","D2","batch4","","659","tol_toboard","","","","tol_peg_3","659","659","0","[[3,0,0],[1,0],[2]]","9","[[0,0,0],[2,3],[1]]","12","0","","","","","","4","","","","","","","","",""
"","","","","","single-stim-button","200","443588","0.0-2.0-46.9-0.9","5a6b7f02e6cc4a0001b6a591","D2","batch4","","393","tol_tohand","","","","tol_peg_2","393","393","0","[[3,0,0],[0,0],[2]]","10","[[0,0,0],[2,3],[1]]","12","0","","","","","","4","","","","","","","","",""
"","","","","","single-stim-button","201","444049","0.0-2.0-46.9-1.9","5a6b7f02e6cc4a0001b6a591","D2","batch4","","461","tol_toboard","","","","tol_peg_1","461","461","0","[[3,1,0],[0,0],[2]]","10","[[0,0,0],[2,3],[1]]","12","0","","","","","","4","","","","","","","","",""
"","","","","","single-stim-button","202","444583","0.0-2.0-46.10-0.10","5a6b7f02e6cc4a0001b6a591","D2","batch4","","533","tol_tohand","","","","tol_peg_3","533","533","0","[[3,1,0],[0,0],[0]]","11","[[0,0,0],[2,3],[1]]","12","0","","","","","","4","","","","","","","","",""
"","","","","","single-stim-button","203","445579","0.0-2.0-46.10-1.10","5a6b7f02e6cc4a0001b6a591","D2","batch4","","996","tol_toboard","","","","tol_peg_2","996","996","0","[[3,1,0],[2,0],[0]]","11","[[0,0,0],[2,3],[1]]","12","0","","","","","","4","","","","","","","","",""
"","","","","","single-stim-button","204","446301","0.0-2.0-46.11-0.11","5a6b7f02e6cc4a0001b6a591","D2","batch4","","722","tol_tohand","","","","tol_peg_1","722","722","0","[[3,0,0],[2,0],[0]]","12","[[0,0,0],[2,3],[1]]","12","0","","","","","","4","","","","","","","","",""
"","","","","","single-stim-button","205","446875","0.0-2.0-46.11-1.11","5a6b7f02e6cc4a0001b6a591","D2","batch4","","573","tol_toboard","","","","tol_peg_3","573","573","0","[[3,0,0],[2,0],[1]]","12","[[0,0,0],[2,3],[1]]","12","0","","","","","","4","","","","","","","","",""
"","","","","","single-stim-button","206","447386","0.0-2.0-46.12-0.12","5a6b7f02e6cc4a0001b6a591","D2","batch4","","509","tol_tohand","","","","tol_peg_1","509","509","0","[[0,0,0],[2,0],[1]]","13","[[0,0,0],[2,3],[1]]","12","0","","","","","","4","","","","","","","","",""
"","","","","","single-stim-button","207","447981","0.0-2.0-46.12-1.12","5a6b7f02e6cc4a0001b6a591","D2","batch4","","594","tol_toboard","","","","tol_peg_2","594","594","0","[[0,0,0],[2,3],[1]]","13","[[0,0,0],[2,3],[1]]","12","0","","","","","","4","","","","","","","","",""
"","","","","","poldrack-single-stim","208","448983","0.0-2.0-47.0","5a6b7f02e6cc4a0001b6a591","D2","batch4","","-1","tol_feedback","","","true","","1000","1000","500","","","","","","-1","none","true","2425","20907","","","","","","","","","",""
"","","","","","html-button-response","209","453810","0.0-2.0-48.0","5a6b7f02e6cc4a0001b6a591","D2","batch4","","4826.299999952316","attention_check","<p class = block-text>How many balls are in your board<br></p>","1","true","","","","","","","","","","","","","","","","","","","","","","","",""
"","","","","","html-button-response","210","454893","0.0-2.0-49.0","5a6b7f02e6cc4a0001b6a591","D2","batch4","","1082.1000000238419","tol_trial_num","<div class = centerbox><p class = center-block-text>problem <strong>14</strong> out of 25 problems</p></div>","0","","","","","","","","","","","","","","","","","","","","","","","","",""
"","","","","","single-stim-button","211","457797","0.0-2.0-50.0-0.0","5a6b7f02e6cc4a0001b6a591","D2","batch4","","2902","tol_tohand","","","","tol_peg_1","2902","2902","0","[[2,0,0],[3,0],[0]]","1","[[1,2,0],[3,0],[0]]","13","0","","","","","","4","","","","","","","","",""
"","","","","","single-stim-button","212","459491","0.0-2.0-50.0-1.0","5a6b7f02e6cc4a0001b6a591","D2","batch4","","1693","tol_toboard","","","","tol_peg_3","1693","1693","0","[[2,0,0],[3,0],[1]]","1","[[1,2,0],[3,0],[0]]","13","0","","","","","","4","","","","","","","","",""
"","","","","","single-stim-button","213","460553","0.0-2.0-50.1-0.1","5a6b7f02e6cc4a0001b6a591","D2","batch4","","1062","tol_tohand","","","","tol_peg_1","1062","1062","0","[[0,0,0],[3,0],[1]]","2","[[1,2,0],[3,0],[0]]","13","0","","","","","","4","","","","","","","","",""
"","","","","","single-stim-button","214","461170","0.0-2.0-50.1-1.1","5a6b7f02e6cc4a0001b6a591","D2","batch4","","616","tol_toboard","","","","tol_peg_2","616","616","0","[[0,0,0],[3,2],[1]]","2","[[1,2,0],[3,0],[0]]","13","0","","","","","","4","","","","","","","","",""
"","","","","","single-stim-button","215","461616","0.0-2.0-50.2-0.2","5a6b7f02e6cc4a0001b6a591","D2","batch4","","446","tol_tohand","","","","tol_peg_3","446","446","0","[[0,0,0],[3,2],[0]]","3","[[1,2,0],[3,0],[0]]","13","0","","","","","","4","","","","","","","","",""
"","","","","","single-stim-button","216","462388","0.0-2.0-50.2-1.2","5a6b7f02e6cc4a0001b6a591","D2","batch4","","771","tol_toboard","","","","tol_peg_1","771","771","0","[[1,0,0],[3,2],[0]]","3","[[1,2,0],[3,0],[0]]","13","0","","","","","","4","","","","","","","","",""
"","","","","","single-stim-button","217","462856","0.0-2.0-50.3-0.3","5a6b7f02e6cc4a0001b6a591","D2","batch4","","468","tol_tohand","","","","tol_peg_2","468","468","0","[[1,0,0],[3,0],[0]]","4","[[1,2,0],[3,0],[0]]","13","0","","","","","","4","","","","","","","","",""
"","","","","","single-stim-button","218","463548","0.0-2.0-50.3-1.3","5a6b7f02e6cc4a0001b6a591","D2","batch4","","692","tol_toboard","","","","tol_peg_1","692","692","0","[[1,2,0],[3,0],[0]]","4","[[1,2,0],[3,0],[0]]","13","0","","","","","","4","","","","","","","","",""
"","","","","","poldrack-single-stim","219","464553","0.0-2.0-51.0","5a6b7f02e6cc4a0001b6a591","D2","batch4","","-1","tol_feedback","","","true","","1000","1000","500","","","","","","-1","none","true","2902","4878","","","","","","","","","",""
"","","","","","html-button-response","220","465517","0.0-2.0-52.0","5a6b7f02e6cc4a0001b6a591","D2","batch4","","962.5","tol_trial_num","<div class = centerbox><p class = center-block-text>problem <strong>15</strong> out of 25 problems</p></div>","0","","","","","","","","","","","","","","","","","","","","","","","","",""
"","","","","","single-stim-button","221","468312","0.0-2.0-53.0-0.0","5a6b7f02e6cc4a0001b6a591","D2","batch4","","2795","tol_tohand","","","","tol_peg_1","2795","2795","0","[[1,0,0],[3,0],[0]]","1","[[2,0,0],[3,0],[1]]","14","0","","","","","","3","","","","","","","","",""
"","","","","","single-stim-button","222","469078","0.0-2.0-53.0-1.0","5a6b7f02e6cc4a0001b6a591","D2","batch4","","766","tol_toboard","","","","tol_peg_2","766","766","0","[[1,0,0],[3,2],[0]]","1","[[2,0,0],[3,0],[1]]","14","0","","","","","","3","","","","","","","","",""
"","","","","","single-stim-button","223","469544","0.0-2.0-53.1-0.1","5a6b7f02e6cc4a0001b6a591","D2","batch4","","465","tol_tohand","","","","tol_peg_1","465","465","0","[[0,0,0],[3,2],[0]]","2","[[2,0,0],[3,0],[1]]","14","0","","","","","","3","","","","","","","","",""
"","","","","","single-stim-button","224","470397","0.0-2.0-53.1-1.1","5a6b7f02e6cc4a0001b6a591","D2","batch4","","852","tol_toboard","","","","tol_peg_3","852","852","0","[[0,0,0],[3,2],[1]]","2","[[2,0,0],[3,0],[1]]","14","0","","","","","","3","","","","","","","","",""
"","","","","","single-stim-button","225","470947","0.0-2.0-53.2-0.2","5a6b7f02e6cc4a0001b6a591","D2","batch4","","549","tol_tohand","","","","tol_peg_2","549","549","0","[[0,0,0],[3,0],[1]]","3","[[2,0,0],[3,0],[1]]","14","0","","","","","","3","","","","","","","","",""
"","","","","","single-stim-button","226","471473","0.0-2.0-53.2-1.2","5a6b7f02e6cc4a0001b6a591","D2","batch4","","525","tol_toboard","","","","tol_peg_1","525","525","0","[[2,0,0],[3,0],[1]]","3","[[2,0,0],[3,0],[1]]","14","0","","","","","","3","","","","","","","","",""
"","","","","","poldrack-single-stim","227","472480","0.0-2.0-54.0","5a6b7f02e6cc4a0001b6a591","D2","batch4","","-1","tol_feedback","","","true","","1000","1000","500","","","","","","-1","none","true","2795","3809","","","","","","","","","",""
"","","","","","html-button-response","228","473607","0.0-2.0-55.0","5a6b7f02e6cc4a0001b6a591","D2","batch4","","1124.2000000476837","tol_trial_num","<div class = centerbox><p class = center-block-text>problem <strong>16</strong> out of 25 problems</p></div>","0","","","","","","","","","","","","","","","","","","","","","","","","",""
"","","","","","single-stim-button","229","478795","0.0-2.0-56.0-0.0","5a6b7f02e6cc4a0001b6a591","D2","batch4","","5187","tol_tohand","","","","tol_peg_2","5187","5187","0","[[0,0,0],[2,0],[1]]","1","[[2,3,0],[1,0],[0]]","15","0","","","","","","7","","","","","","","","",""
"","","","","","single-stim-button","230","479604","0.0-2.0-56.0-1.0","5a6b7f02e6cc4a0001b6a591","D2","batch4","","809","tol_toboard","","","","tol_peg_1","809","809","0","[[3,0,0],[2,0],[1]]","1","[[2,3,0],[1,0],[0]]","15","0","","","","","","7","","","","","","","","",""
"","","","","","single-stim-button","231","480067","0.0-2.0-56.1-0.1","5a6b7f02e6cc4a0001b6a591","D2","batch4","","462","tol_tohand","","","","tol_peg_2","462","462","0","[[3,0,0],[0,0],[1]]","2","[[2,3,0],[1,0],[0]]","15","0","","","","","","7","","","","","","","","",""
"","","","","","single-stim-button","232","480513","0.0-2.0-56.1-1.1","5a6b7f02e6cc4a0001b6a591","D2","batch4","","446","tol_toboard","","","","tol_peg_1","446","446","0","[[3,2,0],[0,0],[1]]","2","[[2,3,0],[1,0],[0]]","15","0","","","","","","7","","","","","","","","",""
"","","","","","single-stim-button","233","480982","0.0-2.0-56.2-0.2","5a6b7f02e6cc4a0001b6a591","D2","batch4","","468","tol_tohand","","","","tol_peg_3","468","468","0","[[3,2,0],[0,0],[0]]","3","[[2,3,0],[1,0],[0]]","15","0","","","","","","7","","","","","","","","",""
"","","","","","single-stim-button","234","482405","0.0-2.0-56.2-1.2","5a6b7f02e6cc4a0001b6a591","D2","batch4","","1423","tol_toboard","","","","tol_peg_2","1423","1423","0","[[3,2,0],[1,0],[0]]","3","[[2,3,0],[1,0],[0]]","15","0","","","","","","7","","","","","","","","",""
"","","","","","single-stim-button","235","483511","0.0-2.0-56.3-0.3","5a6b7f02e6cc4a0001b6a591","D2","batch4","","1105","tol_tohand","","","","tol_peg_1","1105","1105","0","[[3,0,0],[1,0],[0]]","4","[[2,3,0],[1,0],[0]]","15","0","","","","","","7","","","","","","","","",""
"","","","","","single-stim-button","236","483967","0.0-2.0-56.3-1.3","5a6b7f02e6cc4a0001b6a591","D2","batch4","","455","tol_toboard","","","","tol_peg_2","455","455","0","[[3,0,0],[1,2],[0]]","4","[[2,3,0],[1,0],[0]]","15","0","","","","","","7","","","","","","","","",""
"","","","","","single-stim-button","237","484453","0.0-2.0-56.4-0.4","5a6b7f02e6cc4a0001b6a591","D2","batch4","","485","tol_tohand","","","","tol_peg_1","485","485","0","[[0,0,0],[1,2],[0]]","5","[[2,3,0],[1,0],[0]]","15","0","","","","","","7","","","","","","","","",""
"","","","","","single-stim-button","238","485229","0.0-2.0-56.4-1.4","5a6b7f02e6cc4a0001b6a591","D2","batch4","","776","tol_toboard","","","","tol_peg_3","776","776","0","[[0,0,0],[1,2],[3]]","5","[[2,3,0],[1,0],[0]]","15","0","","","","","","7","","","","","","","","",""
"","","","","","single-stim-button","239","485732","0.0-2.0-56.5-0.5","5a6b7f02e6cc4a0001b6a591","D2","batch4","","502","tol_tohand","","","","tol_peg_2","502","502","0","[[0,0,0],[1,0],[3]]","6","[[2,3,0],[1,0],[0]]","15","0","","","","","","7","","","","","","","","",""
"","","","","","single-stim-button","240","486407","0.0-2.0-56.5-1.5","5a6b7f02e6cc4a0001b6a591","D2","batch4","","674","tol_toboard","","","","tol_peg_1","674","674","0","[[2,0,0],[1,0],[3]]","6","[[2,3,0],[1,0],[0]]","15","0","","","","","","7","","","","","","","","",""
"","","","","","single-stim-button","241","487049","0.0-2.0-56.6-0.6","5a6b7f02e6cc4a0001b6a591","D2","batch4","","641","tol_tohand","","","","tol_peg_3","641","641","0","[[2,0,0],[1,0],[0]]","7","[[2,3,0],[1,0],[0]]","15","0","","","","","","7","","","","","","","","",""
"","","","","","single-stim-button","242","487544","0.0-2.0-56.6-1.6","5a6b7f02e6cc4a0001b6a591","D2","batch4","","494","tol_toboard","","","","tol_peg_1","494","494","0","[[2,3,0],[1,0],[0]]","7","[[2,3,0],[1,0],[0]]","15","0","","","","","","7","","","","","","","","",""
"","","","","","poldrack-single-stim","243","488546","0.0-2.0-57.0","5a6b7f02e6cc4a0001b6a591","D2","batch4","","-1","tol_feedback","","","true","","1000","1000","500","","","","","","-1","none","true","5187","8850","","","","","","","","","",""
"","","","","","html-button-response","244","489654","0.0-2.0-58.0","5a6b7f02e6cc4a0001b6a591","D2","batch4","","1106.8999999761581","tol_trial_num","<div class = centerbox><p class = center-block-text>problem <strong>17</strong> out of 25 problems</p></div>","0","","","","","","","","","","","","","","","","","","","","","","","","",""
"","","","","","single-stim-button","245","492652","0.0-2.0-59.0-0.0","5a6b7f02e6cc4a0001b6a591","D2","batch4","","2998","tol_tohand","","","","tol_peg_2","2998","2998","0","[[1,2,0],[0,0],[0]]","1","[[3,1,0],[2,0],[0]]","16","0","","","","","","5","","","","","","","","",""
"","","","","","single-stim-button","246","493382","0.0-2.0-59.0-1.0","5a6b7f02e6cc4a0001b6a591","D2","batch4","","729","tol_toboard","","","","tol_peg_3","729","729","0","[[1,2,0],[0,0],[3]]","1","[[3,1,0],[2,0],[0]]","16","0","","","","","","5","","","","","","","","",""
"","","","","","single-stim-button","247","493845","0.0-2.0-59.1-0.1","5a6b7f02e6cc4a0001b6a591","D2","batch4","","463","tol_tohand","","","","tol_peg_1","463","463","0","[[1,0,0],[0,0],[3]]","2","[[3,1,0],[2,0],[0]]","16","0","","","","","","5","","","","","","","","",""
"","","","","","single-stim-button","248","495006","0.0-2.0-59.1-1.1","5a6b7f02e6cc4a0001b6a591","D2","batch4","","1161","tol_toboard","","","","tol_peg_2","1161","1161","0","[[1,0,0],[2,0],[3]]","2","[[3,1,0],[2,0],[0]]","16","0","","","","","","5","","","","","","","","",""
"","","","","","single-stim-button","249","495518","0.0-2.0-59.2-0.2","5a6b7f02e6cc4a0001b6a591","D2","batch4","","510","tol_tohand","","","","tol_peg_1","510","510","0","[[0,0,0],[2,0],[3]]","3","[[3,1,0],[2,0],[0]]","16","0","","","","","","5","","","","","","","","",""
"","","","","","single-stim-button","250","496153","0.0-2.0-59.2-1.2","5a6b7f02e6cc4a0001b6a591","D2","batch4","","634","tol_toboard","","","","tol_peg_2","634","634","0","[[0,0,0],[2,1],[3]]","3","[[3,1,0],[2,0],[0]]","16","0","","","","","","5","","","","","","","","",""
"","","","","","single-stim-button","251","496646","0.0-2.0-59.3-0.3","5a6b7f02e6cc4a0001b6a591","D2","batch4","","492","tol_tohand","","","","tol_peg_3","492","492","0","[[0,0,0],[2,1],[0]]","4","[[3,1,0],[2,0],[0]]","16","0","","","","","","5","","","","","","","","",""
"","","","","","single-stim-button","252","497478","0.0-2.0-59.3-1.3","5a6b7f02e6cc4a0001b6a591","D2","batch4","","831","tol_toboard","","","","tol_peg_1","831","831","0","[[3,0,0],[2,1],[0]]","4","[[3,1,0],[2,0],[0]]","16","0","","","","","","5","","","","","","","","",""
"","","","","","single-stim-button","253","498004","0.0-2.0-59.4-0.4","5a6b7f02e6cc4a0001b6a591","D2","batch4","","525","tol_tohand","","","","tol_peg_2","525","525","0","[[3,0,0],[2,0],[0]]","5","[[3,1,0],[2,0],[0]]","16","0","","","","","","5","","","","","","","","",""
"","","","","","single-stim-button","254","498633","0.0-2.0-59.4-1.4","5a6b7f02e6cc4a0001b6a591","D2","batch4","","628","tol_toboard","","","","tol_peg_1","628","628","0","[[3,1,0],[2,0],[0]]","5","[[3,1,0],[2,0],[0]]","16","0","","","","","","5","","","","","","","","",""
"","","","","","poldrack-single-stim","255","499649","0.0-2.0-60.0","5a6b7f02e6cc4a0001b6a591","D2","batch4","","-1","tol_feedback","","","true","","1000","1000","500","","","","","","-1","none","true","2998","4988","","","","","","","","","",""
"","","","","","html-button-response","256","500624","0.0-2.0-61.0","5a6b7f02e6cc4a0001b6a591","D2","batch4","","973.5","tol_trial_num","<div class = centerbox><p class = center-block-text>problem <strong>18</strong> out of 25 problems</p></div>","0","","","","","","","","","","","","","","","","","","","","","","","","",""
"","","","","","single-stim-button","257","503770","0.0-2.0-62.0-0.0","5a6b7f02e6cc4a0001b6a591","D2","batch4","","3146","tol_tohand","","","","tol_peg_1","3146","3146","0","[[1,0,0],[3,0],[0]]","1","[[3,0,0],[2,0],[1]]","17","0","","","","","","5","","","","","","","","",""
"","","","","","single-stim-button","258","504186","0.0-2.0-62.0-1.0","5a6b7f02e6cc4a0001b6a591","D2","batch4","","416","tol_toboard","","","","tol_peg_2","416","416","0","[[1,0,0],[3,2],[0]]","1","[[3,0,0],[2,0],[1]]","17","0","","","","","","5","","","","","","","","",""
"","","","","","single-stim-button","259","504675","0.0-2.0-62.1-0.1","5a6b7f02e6cc4a0001b6a591","D2","batch4","","488","tol_tohand","","","","tol_peg_1","488","488","0","[[0,0,0],[3,2],[0]]","2","[[3,0,0],[2,0],[1]]","17","0","","","","","","5","","","","","","","","",""
"","","","","","single-stim-button","260","505834","0.0-2.0-62.1-1.1","5a6b7f02e6cc4a0001b6a591","D2","batch4","","1157","tol_toboard","","","","tol_peg_3","1157","1157","0","[[0,0,0],[3,2],[1]]","2","[[3,0,0],[2,0],[1]]","17","0","","","","","","5","","","","","","","","",""
"","","","","","single-stim-button","261","512404","0.0-2.0-62.2-0.2","5a6b7f02e6cc4a0001b6a591","D2","batch4","","6569","tol_tohand","","","","tol_peg_2","6569","6569","0","[[0,0,0],[3,0],[1]]","3","[[3,0,0],[2,0],[1]]","17","0","","","","","","5","","","","","","","","",""
"","","","","","single-stim-button","262","513086","0.0-2.0-62.2-1.2","5a6b7f02e6cc4a0001b6a591","D2","batch4","","681","tol_toboard","","","","tol_peg_1","681","681","0","[[2,0,0],[3,0],[1]]","3","[[3,0,0],[2,0],[1]]","17","0","","","","","","5","","","","","","","","",""
"","","","","","single-stim-button","263","538544","0.0-2.0-62.3-0.3","5a6b7f02e6cc4a0001b6a591","D2","batch4","","25456","tol_tohand","","","","tol_peg_3","25456","25456","0","[[2,0,0],[3,0],[0]]","4","[[3,0,0],[2,0],[1]]","17","0","","","","","","5","","","","","","","","",""
"","","","","","single-stim-button","264","541046","0.0-2.0-62.3-1.3","5a6b7f02e6cc4a0001b6a591","D2","batch4","","2500","tol_toboard","","","","tol_peg_2","2500","2500","0","[[2,0,0],[3,1],[0]]","4","[[3,0,0],[2,0],[1]]","17","0","","","","","","5","","","","","","","","",""
"","","","","","single-stim-button","265","541612","0.0-2.0-62.4-0.4","5a6b7f02e6cc4a0001b6a591","D2","batch4","","565","tol_tohand","","","","tol_peg_1","565","565","0","[[0,0,0],[3,1],[0]]","5","[[3,0,0],[2,0],[1]]","17","0","","","","","","5","","","","","","","","",""
"","","","","","single-stim-button","266","542428","0.0-2.0-62.4-1.4","5a6b7f02e6cc4a0001b6a591","D2","batch4","","816","tol_toboard","","","","tol_peg_3","816","816","0","[[0,0,0],[3,1],[2]]","5","[[3,0,0],[2,0],[1]]","17","0","","","","","","5","","","","","","","","",""
"","","","","","single-stim-button","267","544336","0.0-2.0-62.5-0.5","5a6b7f02e6cc4a0001b6a591","D2","batch4","","1907","tol_tohand","","","","tol_peg_2","1907","1907","0","[[0,0,0],[3,0],[2]]","6","[[3,0,0],[2,0],[1]]","17","0","","","","","","5","","","","","","","","",""
"","","","","","single-stim-button","268","544970","0.0-2.0-62.5-1.5","5a6b7f02e6cc4a0001b6a591","D2","batch4","","633","tol_toboard","","","","tol_peg_1","633","633","0","[[1,0,0],[3,0],[2]]","6","[[3,0,0],[2,0],[1]]","17","0","","","","","","5","","","","","","","","",""
"","","","","","single-stim-button","269","545724","0.0-2.0-62.6-0.6","5a6b7f02e6cc4a0001b6a591","D2","batch4","","754","tol_tohand","","","","tol_peg_2","754","754","0","[[1,0,0],[0,0],[2]]","7","[[3,0,0],[2,0],[1]]","17","0","","","","","","5","","","","","","","","",""
"","","","","","single-stim-button","270","546250","0.0-2.0-62.6-1.6","5a6b7f02e6cc4a0001b6a591","D2","batch4","","524","tol_toboard","","","","tol_peg_1","524","524","0","[[1,3,0],[0,0],[2]]","7","[[3,0,0],[2,0],[1]]","17","0","","","","","","5","","","","","","","","",""
"","","","","","single-stim-button","271","547120","0.0-2.0-62.7-0.7","5a6b7f02e6cc4a0001b6a591","D2","batch4","","869","tol_tohand","","","","tol_peg_3","869","869","0","[[1,3,0],[0,0],[0]]","8","[[3,0,0],[2,0],[1]]","17","0","","","","","","5","","","","","","","","",""
"","","","","","single-stim-button","272","547922","0.0-2.0-62.7-1.7","5a6b7f02e6cc4a0001b6a591","D2","batch4","","802","tol_toboard","","","","tol_peg_2","802","802","0","[[1,3,0],[2,0],[0]]","8","[[3,0,0],[2,0],[1]]","17","0","","","","","","5","","","","","","","","",""
"","","","","","single-stim-button","273","548391","0.0-2.0-62.8-0.8","5a6b7f02e6cc4a0001b6a591","D2","batch4","","469","tol_tohand","","","","tol_peg_1","469","469","0","[[1,0,0],[2,0],[0]]","9","[[3,0,0],[2,0],[1]]","17","0","","","","","","5","","","","","","","","",""
"","","","","","single-stim-button","274","548910","0.0-2.0-62.8-1.8","5a6b7f02e6cc4a0001b6a591","D2","batch4","","519","tol_toboard","","","","tol_peg_3","519","519","0","[[1,0,0],[2,0],[3]]","9","[[3,0,0],[2,0],[1]]","17","0","","","","","","5","","","","","","","","",""
"","","","","","single-stim-button","275","549493","0.0-2.0-62.9-0.9","5a6b7f02e6cc4a0001b6a591","D2","batch4","","581","tol_tohand","","","","tol_peg_1","581","581","0","[[0,0,0],[2,0],[3]]","10","[[3,0,0],[2,0],[1]]","17","0","","","","","","5","","","","","","","","",""
"","","","","","single-stim-button","276","550080","0.0-2.0-62.9-1.9","5a6b7f02e6cc4a0001b6a591","D2","batch4","","587","tol_toboard","","","","tol_peg_2","587","587","0","[[0,0,0],[2,1],[3]]","10","[[3,0,0],[2,0],[1]]","17","0","","","","","","5","","","","","","","","",""
"","","","","","single-stim-button","277","550456","0.0-2.0-62.10-0.10","5a6b7f02e6cc4a0001b6a591","D2","batch4","","375","tol_tohand","","","","tol_peg_3","375","375","0","[[0,0,0],[2,1],[0]]","11","[[3,0,0],[2,0],[1]]","17","0","","","","","","5","","","","","","","","",""
"","","","","","single-stim-button","278","551163","0.0-2.0-62.10-1.10","5a6b7f02e6cc4a0001b6a591","D2","batch4","","705","tol_toboard","","","","tol_peg_1","705","705","0","[[3,0,0],[2,1],[0]]","11","[[3,0,0],[2,0],[1]]","17","0","","","","","","5","","","","","","","","",""
"","","","","","single-stim-button","279","551587","0.0-2.0-62.11-0.11","5a6b7f02e6cc4a0001b6a591","D2","batch4","","424","tol_tohand","","","","tol_peg_2","424","424","0","[[3,0,0],[2,0],[0]]","12","[[3,0,0],[2,0],[1]]","17","0","","","","","","5","","","","","","","","",""
"","","","","","single-stim-button","280","552190","0.0-2.0-62.11-1.11","5a6b7f02e6cc4a0001b6a591","D2","batch4","","602","tol_toboard","","","","tol_peg_3","602","602","0","[[3,0,0],[2,0],[1]]","12","[[3,0,0],[2,0],[1]]","17","0","","","","","","5","","","","","","","","",""
"","","","","","poldrack-single-stim","281","553193","0.0-2.0-63.0","5a6b7f02e6cc4a0001b6a591","D2","batch4","","-1","tol_feedback","","","true","","1000","1000","500","","","","","","-1","none","true","3146","41603","","","","","","","","","",""
"","","","","","html-button-response","282","554176","0.0-2.0-64.0","5a6b7f02e6cc4a0001b6a591","D2","batch4","","982.2000000476837","tol_trial_num","<div class = centerbox><p class = center-block-text>problem <strong>19</strong> out of 25 problems</p></div>","0","","","","","","","","","","","","","","","","","","","","","","","","",""
"","","","","","single-stim-button","283","557282","0.0-2.0-65.0-0.0","5a6b7f02e6cc4a0001b6a591","D2","batch4","","3105","tol_tohand","","","","tol_peg_2","3105","3105","0","[[1,2,0],[0,0],[0]]","1","[[0,0,0],[1,2],[3]]","18","0","","","","","","7","","","","","","","","",""
"","","","","","single-stim-button","284","558138","0.0-2.0-65.0-1.0","5a6b7f02e6cc4a0001b6a591","D2","batch4","","855","tol_toboard","","","","tol_peg_3","855","855","0","[[1,2,0],[0,0],[3]]","1","[[0,0,0],[1,2],[3]]","18","0","","","","","","7","","","","","","","","",""
"","","","","","single-stim-button","285","560181","0.0-2.0-65.1-0.1","5a6b7f02e6cc4a0001b6a591","D2","batch4","","2041","tol_tohand","","","","tol_peg_1","2041","2041","0","[[1,0,0],[0,0],[3]]","2","[[0,0,0],[1,2],[3]]","18","0","","","","","","7","","","","","","","","",""
"","","","","","single-stim-button","286","560830","0.0-2.0-65.1-1.1","5a6b7f02e6cc4a0001b6a591","D2","batch4","","649","tol_toboard","","","","tol_peg_2","649","649","0","[[1,0,0],[2,0],[3]]","2","[[0,0,0],[1,2],[3]]","18","0","","","","","","7","","","","","","","","",""
"","","","","","single-stim-button","287","567344","0.0-2.0-65.2-0.2","5a6b7f02e6cc4a0001b6a591","D2","batch4","","6513","tol_tohand","","","","tol_peg_3","6513","6513","0","[[1,0,0],[2,0],[0]]","3","[[0,0,0],[1,2],[3]]","18","0","","","","","","7","","","","","","","","",""
"","","","","","single-stim-button","288","568190","0.0-2.0-65.2-1.2","5a6b7f02e6cc4a0001b6a591","D2","batch4","","845","tol_toboard","","","","tol_peg_1","845","845","0","[[1,3,0],[2,0],[0]]","3","[[0,0,0],[1,2],[3]]","18","0","","","","","","7","","","","","","","","",""
"","","","","","single-stim-button","289","568686","0.0-2.0-65.3-0.3","5a6b7f02e6cc4a0001b6a591","D2","batch4","","495","tol_tohand","","","","tol_peg_2","495","495","0","[[1,3,0],[0,0],[0]]","4","[[0,0,0],[1,2],[3]]","18","0","","","","","","7","","","","","","","","",""
"","","","","","single-stim-button","290","569494","0.0-2.0-65.3-1.3","5a6b7f02e6cc4a0001b6a591","D2","batch4","","808","tol_toboard","","","","tol_peg_3","808","808","0","[[1,3,0],[0,0],[2]]","4","[[0,0,0],[1,2],[3]]","18","0","","","","","","7","","","","","","","","",""
"","","","","","single-stim-button","291","570262","0.0-2.0-65.4-0.4","5a6b7f02e6cc4a0001b6a591","D2","batch4","","767","tol_tohand","","","","tol_peg_1","767","767","0","[[1,0,0],[0,0],[2]]","5","[[0,0,0],[1,2],[3]]","18","0","","","","","","7","","","","","","","","",""
"","","","","","single-stim-button","292","571298","0.0-2.0-65.4-1.4","5a6b7f02e6cc4a0001b6a591","D2","batch4","","1035","tol_toboard","","","","tol_peg_2","1035","1035","0","[[1,0,0],[3,0],[2]]","5","[[0,0,0],[1,2],[3]]","18","0","","","","","","7","","","","","","","","",""
"","","","","","single-stim-button","293","571862","0.0-2.0-65.5-0.5","5a6b7f02e6cc4a0001b6a591","D2","batch4","","563","tol_tohand","","","","tol_peg_1","563","563","0","[[0,0,0],[3,0],[2]]","6","[[0,0,0],[1,2],[3]]","18","0","","","","","","7","","","","","","","","",""
"","","","","","single-stim-button","294","572515","0.0-2.0-65.5-1.5","5a6b7f02e6cc4a0001b6a591","D2","batch4","","651","tol_toboard","","","","tol_peg_2","651","651","0","[[0,0,0],[3,1],[2]]","6","[[0,0,0],[1,2],[3]]","18","0","","","","","","7","","","","","","","","",""
"","","","","","single-stim-button","295","573024","0.0-2.0-65.6-0.6","5a6b7f02e6cc4a0001b6a591","D2","batch4","","509","tol_tohand","","","","tol_peg_3","509","509","0","[[0,0,0],[3,1],[0]]","7","[[0,0,0],[1,2],[3]]","18","0","","","","","","7","","","","","","","","",""
"","","","","","single-stim-button","296","573926","0.0-2.0-65.6-1.6","5a6b7f02e6cc4a0001b6a591","D2","batch4","","901","tol_toboard","","","","tol_peg_1","901","901","0","[[2,0,0],[3,1],[0]]","7","[[0,0,0],[1,2],[3]]","18","0","","","","","","7","","","","","","","","",""
"","","","","","single-stim-button","297","576148","0.0-2.0-65.7-0.7","5a6b7f02e6cc4a0001b6a591","D2","batch4","","2222","tol_tohand","","","","tol_peg_2","2222","2222","0","[[2,0,0],[3,0],[0]]","8","[[0,0,0],[1,2],[3]]","18","0","","","","","","7","","","","","","","","",""
"","","","","","single-stim-button","298","577160","0.0-2.0-65.7-1.7","5a6b7f02e6cc4a0001b6a591","D2","batch4","","1011","tol_toboard","","","","tol_peg_1","1011","1011","0","[[2,1,0],[3,0],[0]]","8","[[0,0,0],[1,2],[3]]","18","0","","","","","","7","","","","","","","","",""
"","","","","","single-stim-button","299","577625","0.0-2.0-65.8-0.8","5a6b7f02e6cc4a0001b6a591","D2","batch4","","464","tol_tohand","","","","tol_peg_2","464","464","0","[[2,1,0],[0,0],[0]]","9","[[0,0,0],[1,2],[3]]","18","0","","","","","","7","","","","","","","","",""
"","","","","","single-stim-button","300","578330","0.0-2.0-65.8-1.8","5a6b7f02e6cc4a0001b6a591","D2","batch4","","704","tol_toboard","","","","tol_peg_3","704","704","0","[[2,1,0],[0,0],[3]]","9","[[0,0,0],[1,2],[3]]","18","0","","","","","","7","","","","","","","","",""
"","","","","","single-stim-button","301","578739","0.0-2.0-65.9-0.9","5a6b7f02e6cc4a0001b6a591","D2","batch4","","409","tol_tohand","","","","tol_peg_1","409","409","0","[[2,0,0],[0,0],[3]]","10","[[0,0,0],[1,2],[3]]","18","0","","","","","","7","","","","","","","","",""
"","","","","","single-stim-button","302","579224","0.0-2.0-65.9-1.9","5a6b7f02e6cc4a0001b6a591","D2","batch4","","485","tol_toboard","","","","tol_peg_2","485","485","0","[[2,0,0],[1,0],[3]]","10","[[0,0,0],[1,2],[3]]","18","0","","","","","","7","","","","","","","","",""
"","","","","","single-stim-button","303","579735","0.0-2.0-65.10-0.10","5a6b7f02e6cc4a0001b6a591","D2","batch4","","510","tol_tohand","","","","tol_peg_1","510","510","0","[[0,0,0],[1,0],[3]]","11","[[0,0,0],[1,2],[3]]","18","0","","","","","","7","","","","","","","","",""
"","","","","","single-stim-button","304","580260","0.0-2.0-65.10-1.10","5a6b7f02e6cc4a0001b6a591","D2","batch4","","525","tol_toboard","","","","tol_peg_2","525","525","0","[[0,0,0],[1,2],[3]]","11","[[0,0,0],[1,2],[3]]","18","0","","","","","","7","","","","","","","","",""
"","","","","","poldrack-single-stim","305","581263","0.0-2.0-66.0","5a6b7f02e6cc4a0001b6a591","D2","batch4","","-1","tol_feedback","","","true","","1000","1000","500","","","","","","-1","none","true","3105","17598","","","","","","","","","",""
"","","","","","html-button-response","306","582198","0.0-2.0-67.0","5a6b7f02e6cc4a0001b6a591","D2","batch4","","934.1000000238419","tol_trial_num","<div class = centerbox><p class = center-block-text>problem <strong>20</strong> out of 25 problems</p></div>","0","","","","","","","","","","","","","","","","","","","","","","","","",""
"","","","","","single-stim-button","307","586592","0.0-2.0-68.0-0.0","5a6b7f02e6cc4a0001b6a591","D2","batch4","","4393","tol_tohand","","","","tol_peg_1","4393","4393","0","[[1,0,0],[3,0],[0]]","1","[[2,1,0],[0,0],[3]]","19","0","","","","","","5","","","","","","","","",""
"","","","","","single-stim-button","308","588020","0.0-2.0-68.0-1.0","5a6b7f02e6cc4a0001b6a591","D2","batch4","","1427","tol_toboard","","","","tol_peg_3","1427","1427","0","[[1,0,0],[3,0],[2]]","1","[[2,1,0],[0,0],[3]]","19","0","","","","","","5","","","","","","","","",""
"","","","","","single-stim-button","309","588460","0.0-2.0-68.1-0.1","5a6b7f02e6cc4a0001b6a591","D2","batch4","","439","tol_tohand","","","","tol_peg_1","439","439","0","[[0,0,0],[3,0],[2]]","2","[[2,1,0],[0,0],[3]]","19","0","","","","","","5","","","","","","","","",""
"","","","","","single-stim-button","310","588994","0.0-2.0-68.1-1.1","5a6b7f02e6cc4a0001b6a591","D2","batch4","","534","tol_toboard","","","","tol_peg_2","534","534","0","[[0,0,0],[3,1],[2]]","2","[[2,1,0],[0,0],[3]]","19","0","","","","","","5","","","","","","","","",""
"","","","","","single-stim-button","311","589464","0.0-2.0-68.2-0.2","5a6b7f02e6cc4a0001b6a591","D2","batch4","","470","tol_tohand","","","","tol_peg_3","470","470","0","[[0,0,0],[3,1],[0]]","3","[[2,1,0],[0,0],[3]]","19","0","","","","","","5","","","","","","","","",""
"","","","","","single-stim-button","312","590336","0.0-2.0-68.2-1.2","5a6b7f02e6cc4a0001b6a591","D2","batch4","","871","tol_toboard","","","","tol_peg_1","871","871","0","[[2,0,0],[3,1],[0]]","3","[[2,1,0],[0,0],[3]]","19","0","","","","","","5","","","","","","","","",""
"","","","","","single-stim-button","313","590932","0.0-2.0-68.3-0.3","5a6b7f02e6cc4a0001b6a591","D2","batch4","","595","tol_tohand","","","","tol_peg_2","595","595","0","[[2,0,0],[3,0],[0]]","4","[[2,1,0],[0,0],[3]]","19","0","","","","","","5","","","","","","","","",""
"","","","","","single-stim-button","314","591340","0.0-2.0-68.3-1.3","5a6b7f02e6cc4a0001b6a591","D2","batch4","","408","tol_toboard","","","","tol_peg_1","408","408","0","[[2,1,0],[3,0],[0]]","4","[[2,1,0],[0,0],[3]]","19","0","","","","","","5","","","","","","","","",""
"","","","","","single-stim-button","315","592063","0.0-2.0-68.4-0.4","5a6b7f02e6cc4a0001b6a591","D2","batch4","","722","tol_tohand","","","","tol_peg_2","722","722","0","[[2,1,0],[0,0],[0]]","5","[[2,1,0],[0,0],[3]]","19","0","","","","","","5","","","","","","","","",""
"","","","","","single-stim-button","316","592736","0.0-2.0-68.4-1.4","5a6b7f02e6cc4a0001b6a591","D2","batch4","","673","tol_toboard","","","","tol_peg_3","673","673","0","[[2,1,0],[0,0],[3]]","5","[[2,1,0],[0,0],[3]]","19","0","","","","","","5","","","","","","","","",""
"","","","","","poldrack-single-stim","317","593738","0.0-2.0-69.0","5a6b7f02e6cc4a0001b6a591","D2","batch4","","-1","tol_feedback","","","true","","1000","1000","500","","","","","","-1","none","true","4393","6619","","","","","","","","","",""
"","","","","","html-button-response","318","594824","0.0-2.0-70.0","5a6b7f02e6cc4a0001b6a591","D2","batch4","","1084","tol_trial_num","<div class = centerbox><p class = center-block-text>problem <strong>21</strong> out of 25 problems</p></div>","0","","","","","","","","","","","","","","","","","","","","","","","","",""
"","","","","","single-stim-button","319","598192","0.0-2.0-71.0-0.0","5a6b7f02e6cc4a0001b6a591","D2","batch4","","3367","tol_tohand","","","","tol_peg_1","3367","3367","0","[[1,0,0],[3,0],[0]]","1","[[3,2,0],[0,0],[1]]","20","0","","","","","","6","","","","","","","","",""
"","","","","","single-stim-button","320","598613","0.0-2.0-71.0-1.0","5a6b7f02e6cc4a0001b6a591","D2","batch4","","420","tol_toboard","","","","tol_peg_2","420","420","0","[[1,0,0],[3,2],[0]]","1","[[3,2,0],[0,0],[1]]","20","0","","","","","","6","","","","","","","","",""
"","","","","","single-stim-button","321","599164","0.0-2.0-71.1-0.1","5a6b7f02e6cc4a0001b6a591","D2","batch4","","550","tol_tohand","","","","tol_peg_1","550","550","0","[[0,0,0],[3,2],[0]]","2","[[3,2,0],[0,0],[1]]","20","0","","","","","","6","","","","","","","","",""
"","","","","","single-stim-button","322","600020","0.0-2.0-71.1-1.1","5a6b7f02e6cc4a0001b6a591","D2","batch4","","856","tol_toboard","","","","tol_peg_3","856","856","0","[[0,0,0],[3,2],[1]]","2","[[3,2,0],[0,0],[1]]","20","0","","","","","","6","","","","","","","","",""
"","","","","","single-stim-button","323","602562","0.0-2.0-71.2-0.2","5a6b7f02e6cc4a0001b6a591","D2","batch4","","2541","tol_tohand","","","","tol_peg_2","2541","2541","0","[[0,0,0],[3,0],[1]]","3","[[3,2,0],[0,0],[1]]","20","0","","","","","","6","","","","","","","","",""
"","","","","","single-stim-button","324","603137","0.0-2.0-71.2-1.2","5a6b7f02e6cc4a0001b6a591","D2","batch4","","574","tol_toboard","","","","tol_peg_1","574","574","0","[[2,0,0],[3,0],[1]]","3","[[3,2,0],[0,0],[1]]","20","0","","","","","","6","","","","","","","","",""
"","","","","","single-stim-button","325","604109","0.0-2.0-71.3-0.3","5a6b7f02e6cc4a0001b6a591","D2","batch4","","971","tol_tohand","","","","tol_peg_2","971","971","0","[[2,0,0],[0,0],[1]]","4","[[3,2,0],[0,0],[1]]","20","0","","","","","","6","","","","","","","","",""
"","","","","","single-stim-button","326","604728","0.0-2.0-71.3-1.3","5a6b7f02e6cc4a0001b6a591","D2","batch4","","618","tol_toboard","","","","tol_peg_1","618","618","0","[[2,3,0],[0,0],[1]]","4","[[3,2,0],[0,0],[1]]","20","0","","","","","","6","","","","","","","","",""
"","","","","","single-stim-button","327","606972","0.0-2.0-71.4-0.4","5a6b7f02e6cc4a0001b6a591","D2","batch4","","2244","tol_tohand","","","","tol_peg_3","2244","2244","0","[[2,3,0],[0,0],[0]]","5","[[3,2,0],[0,0],[1]]","20","0","","","","","","6","","","","","","","","",""
"","","","","","single-stim-button","328","607836","0.0-2.0-71.4-1.4","5a6b7f02e6cc4a0001b6a591","D2","batch4","","864","tol_toboard","","","","tol_peg_2","864","864","0","[[2,3,0],[1,0],[0]]","5","[[3,2,0],[0,0],[1]]","20","0","","","","","","6","","","","","","","","",""
"","","","","","single-stim-button","329","608477","0.0-2.0-71.5-0.5","5a6b7f02e6cc4a0001b6a591","D2","batch4","","640","tol_tohand","","","","tol_peg_1","640","640","0","[[2,0,0],[1,0],[0]]","6","[[3,2,0],[0,0],[1]]","20","0","","","","","","6","","","","","","","","",""
"","","","","","single-stim-button","330","609602","0.0-2.0-71.5-1.5","5a6b7f02e6cc4a0001b6a591","D2","batch4","","1123","tol_toboard","","","","tol_peg_3","1123","1123","0","[[2,0,0],[1,0],[3]]","6","[[3,2,0],[0,0],[1]]","20","0","","","","","","6","","","","","","","","",""
"","","","","","single-stim-button","331","610222","0.0-2.0-71.6-0.6","5a6b7f02e6cc4a0001b6a591","D2","batch4","","620","tol_tohand","","","","tol_peg_1","620","620","0","[[0,0,0],[1,0],[3]]","7","[[3,2,0],[0,0],[1]]","20","0","","","","","","6","","","","","","","","",""
"","","","","","single-stim-button","332","610928","0.0-2.0-71.6-1.6","5a6b7f02e6cc4a0001b6a591","D2","batch4","","705","tol_toboard","","","","tol_peg_2","705","705","0","[[0,0,0],[1,2],[3]]","7","[[3,2,0],[0,0],[1]]","20","0","","","","","","6","","","","","","","","",""
"","","","","","single-stim-button","333","611430","0.0-2.0-71.7-0.7","5a6b7f02e6cc4a0001b6a591","D2","batch4","","502","tol_tohand","","","","tol_peg_3","502","502","0","[[0,0,0],[1,2],[0]]","8","[[3,2,0],[0,0],[1]]","20","0","","","","","","6","","","","","","","","",""
"","","","","","single-stim-button","334","612287","0.0-2.0-71.7-1.7","5a6b7f02e6cc4a0001b6a591","D2","batch4","","856","tol_toboard","","","","tol_peg_1","856","856","0","[[3,0,0],[1,2],[0]]","8","[[3,2,0],[0,0],[1]]","20","0","","","","","","6","","","","","","","","",""
"","","","","","single-stim-button","335","612866","0.0-2.0-71.8-0.8","5a6b7f02e6cc4a0001b6a591","D2","batch4","","579","tol_tohand","","","","tol_peg_2","579","579","0","[[3,0,0],[1,0],[0]]","9","[[3,2,0],[0,0],[1]]","20","0","","","","","","6","","","","","","","","",""
"","","","","","single-stim-button","336","613674","0.0-2.0-71.8-1.8","5a6b7f02e6cc4a0001b6a591","D2","batch4","","807","tol_toboard","","","","tol_peg_1","807","807","0","[[3,2,0],[1,0],[0]]","9","[[3,2,0],[0,0],[1]]","20","0","","","","","","6","","","","","","","","",""
"","","","","","single-stim-button","337","614129","0.0-2.0-71.9-0.9","5a6b7f02e6cc4a0001b6a591","D2","batch4","","453","tol_tohand","","","","tol_peg_2","453","453","0","[[3,2,0],[0,0],[0]]","10","[[3,2,0],[0,0],[1]]","20","0","","","","","","6","","","","","","","","",""
"","","","","","single-stim-button","338","614732","0.0-2.0-71.9-1.9","5a6b7f02e6cc4a0001b6a591","D2","batch4","","602","tol_toboard","","","","tol_peg_3","602","602","0","[[3,2,0],[0,0],[1]]","10","[[3,2,0],[0,0],[1]]","20","0","","","","","","6","","","","","","","","",""
"","","","","","poldrack-single-stim","339","615741","0.0-2.0-72.0","5a6b7f02e6cc4a0001b6a591","D2","batch4","","-1","tol_feedback","","","true","","1000","1000","500","","","","","","-1","none","true","3367","12467","","","","","","","","","",""
"","","","","","html-button-response","340","616741","0.0-2.0-73.0","5a6b7f02e6cc4a0001b6a591","D2","batch4","","999","tol_trial_num","<div class = centerbox><p class = center-block-text>problem <strong>22</strong> out of 25 problems</p></div>","0","","","","","","","","","","","","","","","","","","","","","","","","",""
"","","","","","single-stim-button","341","623569","0.0-2.0-74.0-0.0","5a6b7f02e6cc4a0001b6a591","D2","batch4","","6827","tol_tohand","","","","tol_peg_1","6827","6827","0","[[0,0,0],[2,3],[0]]","1","[[0,0,0],[1,2],[3]]","21","0","","","","","","6","","","","","","","","",""
"","","","","","single-stim-button","342","624716","0.0-2.0-74.0-1.0","5a6b7f02e6cc4a0001b6a591","D2","batch4","","1145","tol_toboard","","","","tol_peg_3","1145","1145","0","[[0,0,0],[2,3],[1]]","1","[[0,0,0],[1,2],[3]]","21","0","","","","","","6","","","","","","","","",""
"","","","","","single-stim-button","343","625203","0.0-2.0-74.1-0.1","5a6b7f02e6cc4a0001b6a591","D2","batch4","","487","tol_tohand","","","","tol_peg_2","487","487","0","[[0,0,0],[2,0],[1]]","2","[[0,0,0],[1,2],[3]]","21","0","","","","","","6","","","","","","","","",""
"","","","","","single-stim-button","344","625954","0.0-2.0-74.1-1.1","5a6b7f02e6cc4a0001b6a591","D2","batch4","","750","tol_toboard","","","","tol_peg_1","750","750","0","[[3,0,0],[2,0],[1]]","2","[[0,0,0],[1,2],[3]]","21","0","","","","","","6","","","","","","","","",""
"","","","","","single-stim-button","345","626489","0.0-2.0-74.2-0.2","5a6b7f02e6cc4a0001b6a591","D2","batch4","","535","tol_tohand","","","","tol_peg_2","535","535","0","[[3,0,0],[0,0],[1]]","3","[[0,0,0],[1,2],[3]]","21","0","","","","","","6","","","","","","","","",""
"","","","","","single-stim-button","346","626903","0.0-2.0-74.2-1.2","5a6b7f02e6cc4a0001b6a591","D2","batch4","","414","tol_toboard","","","","tol_peg_1","414","414","0","[[3,2,0],[0,0],[1]]","3","[[0,0,0],[1,2],[3]]","21","0","","","","","","6","","","","","","","","",""
"","","","","","single-stim-button","347","627690","0.0-2.0-74.3-0.3","5a6b7f02e6cc4a0001b6a591","D2","batch4","","785","tol_tohand","","","","tol_peg_3","785","785","0","[[3,2,0],[0,0],[0]]","4","[[0,0,0],[1,2],[3]]","21","0","","","","","","6","","","","","","","","",""
"","","","","","single-stim-button","348","628122","0.0-2.0-74.3-1.3","5a6b7f02e6cc4a0001b6a591","D2","batch4","","431","tol_toboard","","","","tol_peg_2","431","431","0","[[3,2,0],[1,0],[0]]","4","[[0,0,0],[1,2],[3]]","21","0","","","","","","6","","","","","","","","",""
"","","","","","single-stim-button","349","628544","0.0-2.0-74.4-0.4","5a6b7f02e6cc4a0001b6a591","D2","batch4","","422","tol_tohand","","","","tol_peg_1","422","422","0","[[3,0,0],[1,0],[0]]","5","[[0,0,0],[1,2],[3]]","21","0","","","","","","6","","","","","","","","",""
"","","","","","single-stim-button","350","629156","0.0-2.0-74.4-1.4","5a6b7f02e6cc4a0001b6a591","D2","batch4","","611","tol_toboard","","","","tol_peg_2","611","611","0","[[3,0,0],[1,2],[0]]","5","[[0,0,0],[1,2],[3]]","21","0","","","","","","6","","","","","","","","",""
"","","","","","single-stim-button","351","629674","0.0-2.0-74.5-0.5","5a6b7f02e6cc4a0001b6a591","D2","batch4","","516","tol_tohand","","","","tol_peg_1","516","516","0","[[0,0,0],[1,2],[0]]","6","[[0,0,0],[1,2],[3]]","21","0","","","","","","6","","","","","","","","",""
"","","","","","single-stim-button","352","630232","0.0-2.0-74.5-1.5","5a6b7f02e6cc4a0001b6a591","D2","batch4","","558","tol_toboard","","","","tol_peg_3","558","558","0","[[0,0,0],[1,2],[3]]","6","[[0,0,0],[1,2],[3]]","21","0","","","","","","6","","","","","","","","",""
"","","","","","poldrack-single-stim","353","631244","0.0-2.0-75.0","5a6b7f02e6cc4a0001b6a591","D2","batch4","","-1","tol_feedback","","","true","","1000","1000","500","","","","","","-1","none","true","6827","9572","","","","","","","","","",""
"","","","","","html-button-response","354","632226","0.0-2.0-76.0","5a6b7f02e6cc4a0001b6a591","D2","batch4","","979.8999999761581","tol_trial_num","<div class = centerbox><p class = center-block-text>problem <strong>23</strong> out of 25 problems</p></div>","0","","","","","","","","","","","","","","","","","","","","","","","","",""
"","","","","","single-stim-button","355","637438","0.0-2.0-77.0-0.0","5a6b7f02e6cc4a0001b6a591","D2","batch4","","5211","tol_tohand","","","","tol_peg_1","5211","5211","0","[[1,0,0],[3,0],[0]]","1","[[1,3,2],[0,0],[0]]","22","0","","","","","","3","","","","","","","","",""
