"success","timeout","failed_images","failed_audio","failed_video","trial_type","trial_index","time_elapsed","internal_node_id","subject_id","study_id","session_id","view_history","rt","task","stimulus","response","correct","mouse_click","stim_duration","block_duration","timing_post_trial","current_position","tol_num_moves_made","tol_target","tol_problem_id","tol_rt","key_press","possible_responses","tol_correct","preplanning","tol_rt_per_trial","tol_min_moves","answer","item","fiar_detect_rt","fiar_detect_correct","total_correct_fiar_detect","post_trial_gap","choices","spm_correct","spm_rt"
"true","false","[]","[]","[]","preload","0","6116","0.0-0.0","5a6ff39ef660ae0001a9837e","E1","batch5","","","","","","","","","","","","","","","","","","","","","","","","","","","","","",""
"true","","","","","fullscreen","1","17156","0.0-1.0-0.0","5a6ff39ef660ae0001a9837e","E1","batch5","","","","","","","","","","","","","","","","","","","","","","","","","","","","","",""
"true","","","","","fullscreen","2","20707","0.0-2.0-0.0","5a6ff39ef660ae0001a9837e","E1","batch5","","","","","","","","","","","","","","","","","","","","","","","","","","","","","",""
"","","","","","instructions","3","47814","0.0-2.0-1.0-0.0-0.0","5a6ff39ef660ae0001a9837e","E1","batch5","[{""page_index"":0,""viewing_time"":6839.6999999999825},{""page_index"":1,""viewing_time"":3250.7000000000116},{""page_index"":2,""viewing_time"":1894.999999999971},{""page_index"":3,""viewing_time"":3720.3000000000466},{""page_index"":4,""viewing_time"":2021.399999999965},{""page_index"":5,""viewing_time"":7524.5},{""page_index"":6,""viewing_time"":1851.9000000000233}]","27104.29999999999","tol-instructions","","","","","","","","","","","","","","","","","","","","","","","","","","",""
"","","","","","html-button-response","4","48934","0.0-2.0-1.0-1.0-0.0","5a6ff39ef660ae0001a9837e","E1","batch5","","1116","tol_enter_quiz","<p class=block-text> Let's answer a few questions <br>","0","","","","","","","","","","","","","","","","","","","","","","","","",""
"","","","","","html-button-response","5","53316","0.0-2.0-1.0-1.0-1.0","5a6ff39ef660ae0001a9837e","E1","batch5","","4376.700000000012","tol_quiz","<p class = block-text>True or False: You can only move the ball on top of a peg. <br></p>","0","true","","","","","","","","","","","","","","","","","","","","","","","",""
"","","","","","html-button-response","6","54403","0.0-2.0-1.0-1.0-2.0","5a6ff39ef660ae0001a9837e","E1","batch5","","1082.2000000000116","tol_quiz_feedback","<p class = block-text>Correct! You can only move the ball on top of a peg.</p>","0","","","","","","","","","","","","","","","","","","","","","","","","",""
"","","","","","html-button-response","7","56824","0.0-2.0-1.0-1.0-3.0","5a6ff39ef660ae0001a9837e","E1","batch5","","2415.5","tol_quiz","<p class = block-text>True or False: You should try to match your board with the target board with fewest moves possible. <br></p>","0","true","","","","","","","","","","","","","","","","","","","","","","","",""
"","","","","","html-button-response","8","57648","0.0-2.0-1.0-1.0-4.0","5a6ff39ef660ae0001a9837e","E1","batch5","","819.7000000000116","tol_quiz_feedback","<p class = block-text>Correct! </p>","0","","","","","","","","","","","","","","","","","","","","","","","","",""
"","","","","","html-button-response","9","59084","0.0-2.0-2.0","5a6ff39ef660ae0001a9837e","E1","batch5","","1431.7000000000116","","<p class=block-text> Now that you've understood the game, let's practice a few easier examples before we start!<br> <br>","0","","","","","","","","","","","","","","","","","","","","","","","","",""
"","","","","","single-stim-button","10","61963","0.0-2.0-3.0-0.0","5a6ff39ef660ae0001a9837e","E1","batch5","","2872","tol_practice","","","","tol_peg_2","2872","2872","0","[[1,2,0],[0,0],[0]]","1","[[1,2,0],[0,0],[3]]","practice","2872","","","","","","","","","","","","","","",""
"","","","","","single-stim-button","11","63083","0.0-2.0-3.0-1.0","5a6ff39ef660ae0001a9837e","E1","batch5","","1114","tol_practice","","","","tol_peg_3","1114","1114","0","[[1,2,0],[0,0],[3]]","1","[[1,2,0],[0,0],[3]]","practice","1114","","","","","","","","","","","","","","",""
"","","","","","poldrack-single-stim","12","64093","0.0-2.0-4.0","5a6ff39ef660ae0001a9837e","E1","batch5","","-1","tol_feedback","","","true","","1000","1000","500","","","","","","-1","none","true","","0","","","","","","","","","",""
"","","","","","single-stim-button","13","67201","0.0-2.0-5.0-0.0","5a6ff39ef660ae0001a9837e","E1","batch5","","3104","tol_practice","","","","tol_peg_1","3104","3104","0","[[1,0,0],[3,0],[0]]","2","[[0,0,0],[3,1],[2]]","practice","3104","","","","","","","","","","","","","","",""
"","","","","","single-stim-button","14","68053","0.0-2.0-5.0-1.0","5a6ff39ef660ae0001a9837e","E1","batch5","","850","tol_practice","","","","tol_peg_3","850","850","0","[[1,0,0],[3,0],[2]]","2","[[0,0,0],[3,1],[2]]","practice","850","","","","","","","","","","","","","","",""
"","","","","","single-stim-button","15","69018","0.0-2.0-5.1-0.1","5a6ff39ef660ae0001a9837e","E1","batch5","","962","tol_practice","","","","tol_peg_1","962","962","0","[[0,0,0],[3,0],[2]]","3","[[0,0,0],[3,1],[2]]","practice","962","","","","","","","","","","","","","","",""
"","","","","","single-stim-button","16","69775","0.0-2.0-5.1-1.1","5a6ff39ef660ae0001a9837e","E1","batch5","","755","tol_practice","","","","tol_peg_2","755","755","0","[[0,0,0],[3,1],[2]]","3","[[0,0,0],[3,1],[2]]","practice","755","","","","","","","","","","","","","","",""
"","","","","","poldrack-single-stim","17","70781","0.0-2.0-6.0","5a6ff39ef660ae0001a9837e","E1","batch5","","-1","tol_feedback","","","true","","1000","1000","500","","","","","","-1","none","true","","0","","","","","","","","","",""
"","","","","","single-stim-button","18","73404","0.0-2.0-7.0-0.0","5a6ff39ef660ae0001a9837e","E1","batch5","","2620","tol_practice","","","","tol_peg_2","2620","2620","0","[[1,2,0],[0,0],[0]]","4","[[1,0,0],[2,0],[3]]","practice","2620","","","","","","","","","","","","","","",""
"","","","","","single-stim-button","19","74558","0.0-2.0-7.0-1.0","5a6ff39ef660ae0001a9837e","E1","batch5","","1150","tol_practice","","","","tol_peg_3","1150","1150","0","[[1,2,0],[0,0],[3]]","4","[[1,0,0],[2,0],[3]]","practice","1150","","","","","","","","","","","","","","",""
"","","","","","single-stim-button","20","75615","0.0-2.0-7.1-0.1","5a6ff39ef660ae0001a9837e","E1","batch5","","1054","tol_practice","","","","tol_peg_1","1054","1054","0","[[1,0,0],[0,0],[3]]","5","[[1,0,0],[2,0],[3]]","practice","1054","","","","","","","","","","","","","","",""
"","","","","","single-stim-button","21","76321","0.0-2.0-7.1-1.1","5a6ff39ef660ae0001a9837e","E1","batch5","","703","tol_practice","","","","tol_peg_2","703","703","0","[[1,0,0],[2,0],[3]]","5","[[1,0,0],[2,0],[3]]","practice","703","","","","","","","","","","","","","","",""
"","","","","","poldrack-single-stim","22","77333","0.0-2.0-8.0","5a6ff39ef660ae0001a9837e","E1","batch5","","-1","tol_feedback","","","true","","1000","1000","500","","","","","","-1","none","true","","0","","","","","","","","","",""
"","","","","","html-button-response","23","78873","0.0-2.0-9.0","5a6ff39ef660ae0001a9837e","E1","batch5","","1537.2999999999884","tol_instruction","<div class = centerbox><p class = center-block-text>Great job! You are done with practice trials<br>You are about to start official trials.<br> <br> Problem <strong>1</strong> out of 25 problems</p></div>","0","","","","","","","","","","","","","","","","","","","","","","","","",""
"","","","","","single-stim-button","24","85215","0.0-2.0-10.0-0.0","5a6ff39ef660ae0001a9837e","E1","batch5","","5335","tol_tohand","","","","tol_peg_1","5335","5335","0","[[1,0,0],[3,0],[0]]","1","[[1,3,0],[2,0],[0]]","0","0","","","","","","3","","","","","","","","",""
"","","","","","single-stim-button","25","86995","0.0-2.0-10.0-1.0","5a6ff39ef660ae0001a9837e","E1","batch5","","1777","tol_toboard","","","","tol_peg_3","1777","1777","0","[[1,0,0],[3,0],[2]]","1","[[1,3,0],[2,0],[0]]","0","0","","","","","","3","","","","","","","","",""
"","","","","","single-stim-button","26","87903","0.0-2.0-10.1-0.1","5a6ff39ef660ae0001a9837e","E1","batch5","","905","tol_tohand","","","","tol_peg_2","905","905","0","[[1,0,0],[0,0],[2]]","2","[[1,3,0],[2,0],[0]]","0","0","","","","","","3","","","","","","","","",""
"","","","","","single-stim-button","27","88696","0.0-2.0-10.1-1.1","5a6ff39ef660ae0001a9837e","E1","batch5","","790","tol_toboard","","","","tol_peg_1","790","790","0","[[1,3,0],[0,0],[2]]","2","[[1,3,0],[2,0],[0]]","0","0","","","","","","3","","","","","","","","",""
"","","","","","single-stim-button","28","89496","0.0-2.0-10.2-0.2","5a6ff39ef660ae0001a9837e","E1","batch5","","797","tol_tohand","","","","tol_peg_3","797","797","0","[[1,3,0],[0,0],[0]]","3","[[1,3,0],[2,0],[0]]","0","0","","","","","","3","","","","","","","","",""
"","","","","","single-stim-button","29","90223","0.0-2.0-10.2-1.2","5a6ff39ef660ae0001a9837e","E1","batch5","","725","tol_toboard","","","","tol_peg_2","725","725","0","[[1,3,0],[2,0],[0]]","3","[[1,3,0],[2,0],[0]]","0","0","","","","","","3","","","","","","","","",""
"","","","","","poldrack-single-stim","30","91228","0.0-2.0-11.0","5a6ff39ef660ae0001a9837e","E1","batch5","","-1","tol_feedback","","","true","","1000","1000","500","","","","","","-1","none","true","5335","7037","","","","","","","","","",""
"","","","","","html-button-response","31","92440","0.0-2.0-12.0","5a6ff39ef660ae0001a9837e","E1","batch5","","1209","tol_trial_num","<div class = centerbox><p class = center-block-text>problem <strong>2</strong> out of 25 problems</p></div>","0","","","","","","","","","","","","","","","","","","","","","","","","",""
"","","","","","single-stim-button","32","95259","0.0-2.0-13.0-0.0","5a6ff39ef660ae0001a9837e","E1","batch5","","2816","tol_tohand","","","","tol_peg_1","2816","2816","0","[[1,0,0],[3,0],[0]]","1","[[2,1,3],[0,0],[0]]","1","0","","","","","","5","","","","","","","","",""
"","","","","","single-stim-button","33","104269","0.0-2.0-13.0-1.0","5a6ff39ef660ae0001a9837e","E1","batch5","","9009","tol_toboard","","","","tol_peg_2","9009","9009","0","[[1,0,0],[3,2],[0]]","1","[[2,1,3],[0,0],[0]]","1","0","","","","","","5","","","","","","","","",""
"","","","","","single-stim-button","34","105035","0.0-2.0-13.1-0.1","5a6ff39ef660ae0001a9837e","E1","batch5","","764","tol_tohand","","","","tol_peg_1","764","764","0","[[0,0,0],[3,2],[0]]","2","[[2,1,3],[0,0],[0]]","1","0","","","","","","5","","","","","","","","",""
"","","","","","single-stim-button","35","107946","0.0-2.0-13.1-1.1","5a6ff39ef660ae0001a9837e","E1","batch5","","2909","tol_toboard","","","","tol_peg_3","2909","2909","0","[[0,0,0],[3,2],[1]]","2","[[2,1,3],[0,0],[0]]","1","0","","","","","","5","","","","","","","","",""
"","","","","","single-stim-button","36","108943","0.0-2.0-13.2-0.2","5a6ff39ef660ae0001a9837e","E1","batch5","","994","tol_tohand","","","","tol_peg_2","994","994","0","[[0,0,0],[3,0],[1]]","3","[[2,1,3],[0,0],[0]]","1","0","","","","","","5","","","","","","","","",""
"","","","","","single-stim-button","37","109806","0.0-2.0-13.2-1.2","5a6ff39ef660ae0001a9837e","E1","batch5","","862","tol_toboard","","","","tol_peg_1","862","862","0","[[2,0,0],[3,0],[1]]","3","[[2,1,3],[0,0],[0]]","1","0","","","","","","5","","","","","","","","",""
"","","","","","single-stim-button","38","110598","0.0-2.0-13.3-0.3","5a6ff39ef660ae0001a9837e","E1","batch5","","789","tol_tohand","","","","tol_peg_3","789","789","0","[[2,0,0],[3,0],[0]]","4","[[2,1,3],[0,0],[0]]","1","0","","","","","","5","","","","","","","","",""
"","","","","","single-stim-button","39","111482","0.0-2.0-13.3-1.3","5a6ff39ef660ae0001a9837e","E1","batch5","","881","tol_toboard","","","","tol_peg_1","881","881","0","[[2,1,0],[3,0],[0]]","4","[[2,1,3],[0,0],[0]]","1","0","","","","","","5","","","","","","","","",""
"","","","","","single-stim-button","40","112268","0.0-2.0-13.4-0.4","5a6ff39ef660ae0001a9837e","E1","batch5","","784","tol_tohand","","","","tol_peg_2","784","784","0","[[2,1,0],[0,0],[0]]","5","[[2,1,3],[0,0],[0]]","1","0","","","","","","5","","","","","","","","",""
"","","","","","single-stim-button","41","113593","0.0-2.0-13.4-1.4","5a6ff39ef660ae0001a9837e","E1","batch5","","1323","tol_toboard","","","","tol_peg_1","1323","1323","0","[[2,1,3],[0,0],[0]]","5","[[2,1,3],[0,0],[0]]","1","0","","","","","","5","","","","","","","","",""
"","","","","","poldrack-single-stim","42","114605","0.0-2.0-14.0","5a6ff39ef660ae0001a9837e","E1","batch5","","-1","tol_feedback","","","true","","1000","1000","500","","","","","","-1","none","true","2816","6147","","","","","","","","","",""
"","","","","","html-button-response","43","116243","0.0-2.0-15.0","5a6ff39ef660ae0001a9837e","E1","batch5","","1634.7999999999884","tol_trial_num","<div class = centerbox><p class = center-block-text>problem <strong>3</strong> out of 25 problems</p></div>","0","","","","","","","","","","","","","","","","","","","","","","","","",""
"","","","","","single-stim-button","44","119432","0.0-2.0-16.0-0.0","5a6ff39ef660ae0001a9837e","E1","batch5","","3185","tol_tohand","","","","tol_peg_1","3185","3185","0","[[2,0,0],[0,0],[1]]","1","[[1,2,0],[3,0],[0]]","2","0","","","","","","4","","","","","","","","",""
"","","","","","single-stim-button","45","120305","0.0-2.0-16.0-1.0","5a6ff39ef660ae0001a9837e","E1","batch5","","870","tol_toboard","","","","tol_peg_2","870","870","0","[[2,0,0],[3,0],[1]]","1","[[1,2,0],[3,0],[0]]","2","0","","","","","","4","","","","","","","","",""
"","","","","","single-stim-button","46","122309","0.0-2.0-16.1-0.1","5a6ff39ef660ae0001a9837e","E1","batch5","","2001","tol_tohand","","","","tol_peg_1","2001","2001","0","[[0,0,0],[3,0],[1]]","2","[[1,2,0],[3,0],[0]]","2","0","","","","","","4","","","","","","","","",""
"","","","","","single-stim-button","47","123004","0.0-2.0-16.1-1.1","5a6ff39ef660ae0001a9837e","E1","batch5","","693","tol_toboard","","","","tol_peg_2","693","693","0","[[0,0,0],[3,2],[1]]","2","[[1,2,0],[3,0],[0]]","2","0","","","","","","4","","","","","","","","",""
"","","","","","single-stim-button","48","124308","0.0-2.0-16.2-0.2","5a6ff39ef660ae0001a9837e","E1","batch5","","1301","tol_tohand","","","","tol_peg_3","1301","1301","0","[[0,0,0],[3,2],[0]]","3","[[1,2,0],[3,0],[0]]","2","0","","","","","","4","","","","","","","","",""
"","","","","","single-stim-button","49","125085","0.0-2.0-16.2-1.2","5a6ff39ef660ae0001a9837e","E1","batch5","","774","tol_toboard","","","","tol_peg_1","774","774","0","[[1,0,0],[3,2],[0]]","3","[[1,2,0],[3,0],[0]]","2","0","","","","","","4","","","","","","","","",""
"","","","","","single-stim-button","50","125723","0.0-2.0-16.3-0.3","5a6ff39ef660ae0001a9837e","E1","batch5","","635","tol_tohand","","","","tol_peg_2","635","635","0","[[1,0,0],[3,0],[0]]","4","[[1,2,0],[3,0],[0]]","2","0","","","","","","4","","","","","","","","",""
"","","","","","single-stim-button","51","126798","0.0-2.0-16.3-1.3","5a6ff39ef660ae0001a9837e","E1","batch5","","1072","tol_toboard","","","","tol_peg_1","1072","1072","0","[[1,2,0],[3,0],[0]]","4","[[1,2,0],[3,0],[0]]","2","0","","","","","","4","","","","","","","","",""
"","","","","","poldrack-single-stim","52","127804","0.0-2.0-17.0","5a6ff39ef660ae0001a9837e","E1","batch5","","-1","tol_feedback","","","true","","1000","1000","500","","","","","","-1","none","true","3185","7122","","","","","","","","","",""
"","","","","","html-button-response","53","129380","0.0-2.0-18.0","5a6ff39ef660ae0001a9837e","E1","batch5","","1573.0999999999767","tol_trial_num","<div class = centerbox><p class = center-block-text>problem <strong>4</strong> out of 25 problems</p></div>","0","","","","","","","","","","","","","","","","","","","","","","","","",""
"","","","","","single-stim-button","54","131913","0.0-2.0-19.0-0.0","5a6ff39ef660ae0001a9837e","E1","batch5","","2531","tol_tohand","","","","tol_peg_2","2531","2531","0","[[3,0,0],[2,0],[0]]","1","[[3,0,0],[1,0],[2]]","3","0","","","","","","3","","","","","","","","",""
"","","","","","single-stim-button","55","133047","0.0-2.0-19.0-1.0","5a6ff39ef660ae0001a9837e","E1","batch5","","1131","tol_toboard","","","","tol_peg_1","1131","1131","0","[[3,1,0],[2,0],[0]]","1","[[3,0,0],[1,0],[2]]","3","0","","","","","","3","","","","","","","","",""
"","","","","","single-stim-button","56","133793","0.0-2.0-19.1-0.1","5a6ff39ef660ae0001a9837e","E1","batch5","","743","tol_tohand","","","","tol_peg_2","743","743","0","[[3,1,0],[0,0],[0]]","2","[[3,0,0],[1,0],[2]]","3","0","","","","","","3","","","","","","","","",""
"","","","","","single-stim-button","57","134540","0.0-2.0-19.1-1.1","5a6ff39ef660ae0001a9837e","E1","batch5","","744","tol_toboard","","","","tol_peg_3","744","744","0","[[3,1,0],[0,0],[2]]","2","[[3,0,0],[1,0],[2]]","3","0","","","","","","3","","","","","","","","",""
"","","","","","single-stim-button","58","135657","0.0-2.0-19.2-0.2","5a6ff39ef660ae0001a9837e","E1","batch5","","1114","tol_tohand","","","","tol_peg_1","1114","1114","0","[[3,0,0],[0,0],[2]]","3","[[3,0,0],[1,0],[2]]","3","0","","","","","","3","","","","","","","","",""
"","","","","","single-stim-button","59","136579","0.0-2.0-19.2-1.2","5a6ff39ef660ae0001a9837e","E1","batch5","","920","tol_toboard","","","","tol_peg_2","920","920","0","[[3,0,0],[1,0],[2]]","3","[[3,0,0],[1,0],[2]]","3","0","","","","","","3","","","","","","","","",""
"","","","","","poldrack-single-stim","60","137589","0.0-2.0-20.0","5a6ff39ef660ae0001a9837e","E1","batch5","","-1","tol_feedback","","","true","","1000","1000","500","","","","","","-1","none","true","2531","4388","","","","","","","","","",""
"","","","","","html-button-response","61","138957","0.0-2.0-21.0","5a6ff39ef660ae0001a9837e","E1","batch5","","1364.9000000000233","tol_trial_num","<div class = centerbox><p class = center-block-text>problem <strong>5</strong> out of 25 problems</p></div>","0","","","","","","","","","","","","","","","","","","","","","","","","",""
"","","","","","single-stim-button","62","141922","0.0-2.0-22.0-0.0","5a6ff39ef660ae0001a9837e","E1","batch5","","2961","tol_tohand","","","","tol_peg_2","2961","2961","0","[[1,0,0],[0,0],[3]]","1","[[0,0,0],[1,2],[3]]","4","0","","","","","","7","","","","","","","","",""
"","","","","","single-stim-button","63","145423","0.0-2.0-22.0-1.0","5a6ff39ef660ae0001a9837e","E1","batch5","","3499","tol_toboard","","","","tol_peg_2","3499","3499","0","[[1,0,0],[2,0],[3]]","1","[[0,0,0],[1,2],[3]]","4","0","","","","","","7","","","","","","","","",""
"","","","","","single-stim-button","64","150877","0.0-2.0-22.1-0.1","5a6ff39ef660ae0001a9837e","E1","batch5","","5452","tol_tohand","","","","tol_peg_3","5452","5452","0","[[1,0,0],[2,0],[0]]","2","[[0,0,0],[1,2],[3]]","4","0","","","","","","7","","","","","","","","",""
"","","","","","single-stim-button","65","151966","0.0-2.0-22.1-1.1","5a6ff39ef660ae0001a9837e","E1","batch5","","1086","tol_toboard","","","","tol_peg_2","1086","1086","0","[[1,0,0],[2,3],[0]]","2","[[0,0,0],[1,2],[3]]","4","0","","","","","","7","","","","","","","","",""
"","","","","","single-stim-button","66","152710","0.0-2.0-22.2-0.2","5a6ff39ef660ae0001a9837e","E1","batch5","","742","tol_tohand","","","","tol_peg_1","742","742","0","[[0,0,0],[2,3],[0]]","3","[[0,0,0],[1,2],[3]]","4","0","","","","","","7","","","","","","","","",""
"","","","","","single-stim-button","67","158382","0.0-2.0-22.2-1.2","5a6ff39ef660ae0001a9837e","E1","batch5","","5669","tol_toboard","","","","tol_peg_3","5669","5669","0","[[0,0,0],[2,3],[1]]","3","[[0,0,0],[1,2],[3]]","4","0","","","","","","7","","","","","","","","",""
"","","","","","single-stim-button","68","166782","0.0-2.0-22.3-0.3","5a6ff39ef660ae0001a9837e","E1","batch5","","8397","tol_tohand","","","","tol_peg_3","8397","8397","0","[[0,0,0],[2,3],[0]]","4","[[0,0,0],[1,2],[3]]","4","0","","","","","","7","","","","","","","","",""
"","","","","","single-stim-button","69","167652","0.0-2.0-22.3-1.3","5a6ff39ef660ae0001a9837e","E1","batch5","","868","tol_toboard","","","","tol_peg_1","868","868","0","[[1,0,0],[2,3],[0]]","4","[[0,0,0],[1,2],[3]]","4","0","","","","","","7","","","","","","","","",""
"","","","","","single-stim-button","70","168311","0.0-2.0-22.4-0.4","5a6ff39ef660ae0001a9837e","E1","batch5","","656","tol_tohand","","","","tol_peg_2","656","656","0","[[1,0,0],[2,0],[0]]","5","[[0,0,0],[1,2],[3]]","4","0","","","","","","7","","","","","","","","",""
"","","","","","single-stim-button","71","169434","0.0-2.0-22.4-1.4","5a6ff39ef660ae0001a9837e","E1","batch5","","1121","tol_toboard","","","","tol_peg_3","1121","1121","0","[[1,0,0],[2,0],[3]]","5","[[0,0,0],[1,2],[3]]","4","0","","","","","","7","","","","","","","","",""
"","","","","","single-stim-button","72","170780","0.0-2.0-22.5-0.5","5a6ff39ef660ae0001a9837e","E1","batch5","","1344","tol_tohand","","","","tol_peg_2","1344","1344","0","[[1,0,0],[0,0],[3]]","6","[[0,0,0],[1,2],[3]]","4","0","","","","","","7","","","","","","","","",""
"","","","","","single-stim-button","73","172045","0.0-2.0-22.5-1.5","5a6ff39ef660ae0001a9837e","E1","batch5","","1262","tol_toboard","","","","tol_peg_1","1262","1262","0","[[1,2,0],[0,0],[3]]","6","[[0,0,0],[1,2],[3]]","4","0","","","","","","7","","","","","","","","",""
"","","","","","single-stim-button","74","172912","0.0-2.0-22.6-0.6","5a6ff39ef660ae0001a9837e","E1","batch5","","865","tol_tohand","","","","tol_peg_3","865","865","0","[[1,2,0],[0,0],[0]]","7","[[0,0,0],[1,2],[3]]","4","0","","","","","","7","","","","","","","","",""
"","","","","","single-stim-button","75","174134","0.0-2.0-22.6-1.6","5a6ff39ef660ae0001a9837e","E1","batch5","","1220","tol_toboard","","","","tol_peg_2","1220","1220","0","[[1,2,0],[3,0],[0]]","7","[[0,0,0],[1,2],[3]]","4","0","","","","","","7","","","","","","","","",""
"","","","","","single-stim-button","76","175740","0.0-2.0-22.7-0.7","5a6ff39ef660ae0001a9837e","E1","batch5","","1603","tol_tohand","","","","tol_peg_1","1603","1603","0","[[1,0,0],[3,0],[0]]","8","[[0,0,0],[1,2],[3]]","4","0","","","","","","7","","","","","","","","",""
"","","","","","single-stim-button","77","176742","0.0-2.0-22.7-1.7","5a6ff39ef660ae0001a9837e","E1","batch5","","1001","tol_toboard","","","","tol_peg_2","1001","1001","0","[[1,0,0],[3,2],[0]]","8","[[0,0,0],[1,2],[3]]","4","0","","","","","","7","","","","","","","","",""
"","","","","","single-stim-button","78","178100","0.0-2.0-22.8-0.8","5a6ff39ef660ae0001a9837e","E1","batch5","","1356","tol_tohand","","","","tol_peg_1","1356","1356","0","[[0,0,0],[3,2],[0]]","9","[[0,0,0],[1,2],[3]]","4","0","","","","","","7","","","","","","","","",""
"","","","","","single-stim-button","79","180681","0.0-2.0-22.8-1.8","5a6ff39ef660ae0001a9837e","E1","batch5","","2578","tol_toboard","","","","tol_peg_3","2578","2578","0","[[0,0,0],[3,2],[1]]","9","[[0,0,0],[1,2],[3]]","4","0","","","","","","7","","","","","","","","",""
"","","","","","single-stim-button","80","181595","0.0-2.0-22.9-0.9","5a6ff39ef660ae0001a9837e","E1","batch5","","912","tol_tohand","","","","tol_peg_2","912","912","0","[[0,0,0],[3,0],[1]]","10","[[0,0,0],[1,2],[3]]","4","0","","","","","","7","","","","","","","","",""
"","","","","","single-stim-button","81","184986","0.0-2.0-22.9-1.9","5a6ff39ef660ae0001a9837e","E1","batch5","","3389","tol_toboard","","","","tol_peg_2","3389","3389","0","[[0,0,0],[3,2],[1]]","10","[[0,0,0],[1,2],[3]]","4","0","","","","","","7","","","","","","","","",""
"","","","","","single-stim-button","82","187616","0.0-2.0-22.10-0.10","5a6ff39ef660ae0001a9837e","E1","batch5","","2627","tol_tohand","","","","tol_peg_3","2627","2627","0","[[0,0,0],[3,2],[0]]","11","[[0,0,0],[1,2],[3]]","4","0","","","","","","7","","","","","","","","",""
"","","","","","single-stim-button","83","188343","0.0-2.0-22.10-1.10","5a6ff39ef660ae0001a9837e","E1","batch5","","725","tol_toboard","","","","tol_peg_1","725","725","0","[[1,0,0],[3,2],[0]]","11","[[0,0,0],[1,2],[3]]","4","0","","","","","","7","","","","","","","","",""
"","","","","","single-stim-button","84","189238","0.0-2.0-22.11-0.11","5a6ff39ef660ae0001a9837e","E1","batch5","","893","tol_tohand","","","","tol_peg_2","893","893","0","[[1,0,0],[3,0],[0]]","12","[[0,0,0],[1,2],[3]]","4","0","","","","","","7","","","","","","","","",""
"","","","","","single-stim-button","85","190046","0.0-2.0-22.11-1.11","5a6ff39ef660ae0001a9837e","E1","batch5","","806","tol_toboard","","","","tol_peg_3","806","806","0","[[1,0,0],[3,0],[2]]","12","[[0,0,0],[1,2],[3]]","4","0","","","","","","7","","","","","","","","",""
"","","","","","single-stim-button","86","190901","0.0-2.0-22.12-0.12","5a6ff39ef660ae0001a9837e","E1","batch5","","853","tol_tohand","","","","tol_peg_2","853","853","0","[[1,0,0],[0,0],[2]]","13","[[0,0,0],[1,2],[3]]","4","0","","","","","","7","","","","","","","","",""
"","","","","","single-stim-button","87","192019","0.0-2.0-22.12-1.12","5a6ff39ef660ae0001a9837e","E1","batch5","","1116","tol_toboard","","","","tol_peg_1","1116","1116","0","[[1,3,0],[0,0],[2]]","13","[[0,0,0],[1,2],[3]]","4","0","","","","","","7","","","","","","","","",""
"","","","","","single-stim-button","88","193830","0.0-2.0-22.13-0.13","5a6ff39ef660ae0001a9837e","E1","batch5","","1809","tol_tohand","","","","tol_peg_3","1809","1809","0","[[1,3,0],[0,0],[0]]","14","[[0,0,0],[1,2],[3]]","4","0","","","","","","7","","","","","","","","",""
"","","","","","single-stim-button","89","194660","0.0-2.0-22.13-1.13","5a6ff39ef660ae0001a9837e","E1","batch5","","826","tol_toboard","","","","tol_peg_2","826","826","0","[[1,3,0],[2,0],[0]]","14","[[0,0,0],[1,2],[3]]","4","0","","","","","","7","","","","","","","","",""
"","","","","","single-stim-button","90","195315","0.0-2.0-22.14-0.14","5a6ff39ef660ae0001a9837e","E1","batch5","","653","tol_tohand","","","","tol_peg_1","653","653","0","[[1,0,0],[2,0],[0]]","15","[[0,0,0],[1,2],[3]]","4","0","","","","","","7","","","","","","","","",""
"","","","","","single-stim-button","91","196222","0.0-2.0-22.14-1.14","5a6ff39ef660ae0001a9837e","E1","batch5","","904","tol_toboard","","","","tol_peg_3","904","904","0","[[1,0,0],[2,0],[3]]","15","[[0,0,0],[1,2],[3]]","4","0","","","","","","7","","","","","","","","",""
"","","","","","single-stim-button","92","197518","0.0-2.0-22.15-0.15","5a6ff39ef660ae0001a9837e","E1","batch5","","1293","tol_tohand","","","","tol_peg_2","1293","1293","0","[[1,0,0],[0,0],[3]]","16","[[0,0,0],[1,2],[3]]","4","0","","","","","","7","","","","","","","","",""
"","","","","","single-stim-button","93","199550","0.0-2.0-22.15-1.15","5a6ff39ef660ae0001a9837e","E1","batch5","","2030","tol_toboard","","","","tol_peg_1","2030","2030","0","[[1,2,0],[0,0],[3]]","16","[[0,0,0],[1,2],[3]]","4","0","","","","","","7","","","","","","","","",""
"","","","","","single-stim-button","94","202767","0.0-2.0-22.16-0.16","5a6ff39ef660ae0001a9837e","E1","batch5","","3214","tol_tohand","","","","tol_peg_3","3214","3214","0","[[1,2,0],[0,0],[0]]","17","[[0,0,0],[1,2],[3]]","4","0","","","","","","7","","","","","","","","",""
"","","","","","single-stim-button","95","204600","0.0-2.0-22.16-1.16","5a6ff39ef660ae0001a9837e","E1","batch5","","1830","tol_toboard","","","","tol_peg_2","1830","1830","0","[[1,2,0],[3,0],[0]]","17","[[0,0,0],[1,2],[3]]","4","0","","","","","","7","","","","","","","","",""
"","","","","","single-stim-button","96","205605","0.0-2.0-22.17-0.17","5a6ff39ef660ae0001a9837e","E1","batch5","","1002","tol_tohand","","","","tol_peg_1","1002","1002","0","[[1,0,0],[3,0],[0]]","18","[[0,0,0],[1,2],[3]]","4","0","","","","","","7","","","","","","","","",""
"","","","","","single-stim-button","97","206961","0.0-2.0-22.17-1.17","5a6ff39ef660ae0001a9837e","E1","batch5","","1354","tol_toboard","","","","tol_peg_2","1354","1354","0","[[1,0,0],[3,2],[0]]","18","[[0,0,0],[1,2],[3]]","4","0","","","","","","7","","","","","","","","",""
"","","","","","single-stim-button","98","207749","0.0-2.0-22.18-0.18","5a6ff39ef660ae0001a9837e","E1","batch5","","786","tol_tohand","","","","tol_peg_1","786","786","0","[[0,0,0],[3,2],[0]]","19","[[0,0,0],[1,2],[3]]","4","0","","","","","","7","","","","","","","","",""
"","","","","","single-stim-button","99","208722","0.0-2.0-22.18-1.18","5a6ff39ef660ae0001a9837e","E1","batch5","","970","tol_toboard","","","","tol_peg_3","970","970","0","[[0,0,0],[3,2],[1]]","19","[[0,0,0],[1,2],[3]]","4","0","","","","","","7","","","","","","","","",""
"","","","","","single-stim-button","100","209621","0.0-2.0-22.19-0.19","5a6ff39ef660ae0001a9837e","E1","batch5","","895","tol_tohand","","","","tol_peg_2","895","895","0","[[0,0,0],[3,0],[1]]","20","[[0,0,0],[1,2],[3]]","4","0","","","","","","7","","","","","","","","",""
"","","","","","single-stim-button","101","211016","0.0-2.0-22.19-1.19","5a6ff39ef660ae0001a9837e","E1","batch5","","1393","tol_toboard","","","","tol_peg_1","1393","1393","0","[[2,0,0],[3,0],[1]]","20","[[0,0,0],[1,2],[3]]","4","0","","","","","","7","","","","","","","","",""
"","","","","","single-stim-button","102","213026","0.0-2.0-22.20-0.20","5a6ff39ef660ae0001a9837e","E1","batch5","","2008","tol_tohand","","","","tol_peg_2","2008","2008","0","[[2,0,0],[0,0],[1]]","21","[[0,0,0],[1,2],[3]]","4","0","","","","","","7","","","","","","","","",""
"","","","","","single-stim-button","103","214013","0.0-2.0-22.20-1.20","5a6ff39ef660ae0001a9837e","E1","batch5","","984","tol_toboard","","","","tol_peg_1","984","984","0","[[2,3,0],[0,0],[1]]","21","[[0,0,0],[1,2],[3]]","4","0","","","","","","7","","","","","","","","",""
"","","","","","single-stim-button","104","215066","0.0-2.0-22.21-0.21","5a6ff39ef660ae0001a9837e","E1","batch5","","1052","tol_tohand","","","","tol_peg_3","1052","1052","0","[[2,3,0],[0,0],[0]]","22","[[0,0,0],[1,2],[3]]","4","0","","","","","","7","","","","","","","","",""
"","","","","","single-stim-button","105","216027","0.0-2.0-22.21-1.21","5a6ff39ef660ae0001a9837e","E1","batch5","","959","tol_toboard","","","","tol_peg_2","959","959","0","[[2,3,0],[1,0],[0]]","22","[[0,0,0],[1,2],[3]]","4","0","","","","","","7","","","","","","","","",""
"","","","","","single-stim-button","106","216732","0.0-2.0-22.22-0.22","5a6ff39ef660ae0001a9837e","E1","batch5","","704","tol_tohand","","","","tol_peg_1","704","704","0","[[2,0,0],[1,0],[0]]","23","[[0,0,0],[1,2],[3]]","4","0","","","","","","7","","","","","","","","",""
"","","","","","single-stim-button","107","217542","0.0-2.0-22.22-1.22","5a6ff39ef660ae0001a9837e","E1","batch5","","807","tol_toboard","","","","tol_peg_3","807","807","0","[[2,0,0],[1,0],[3]]","23","[[0,0,0],[1,2],[3]]","4","0","","","","","","7","","","","","","","","",""
"","","","","","single-stim-button","108","218260","0.0-2.0-22.23-0.23","5a6ff39ef660ae0001a9837e","E1","batch5","","715","tol_tohand","","","","tol_peg_1","715","715","0","[[0,0,0],[1,0],[3]]","24","[[0,0,0],[1,2],[3]]","4","0","","","","","","7","","","","","","","","",""
"","","","","","single-stim-button","109","219035","0.0-2.0-22.23-1.23","5a6ff39ef660ae0001a9837e","E1","batch5","","773","tol_toboard","","","","tol_peg_2","773","773","0","[[0,0,0],[1,2],[3]]","24","[[0,0,0],[1,2],[3]]","4","0","","","","","","7","","","","","","","","",""
"","","","","","poldrack-single-stim","110","220044","0.0-2.0-23.0","5a6ff39ef660ae0001a9837e","E1","batch5","","-1","tol_feedback","","","true","","1000","1000","500","","","","","","-1","none","true","2961","42792","","","","","","","","","",""
"","","","","","html-button-response","111","221055","0.0-2.0-24.0","5a6ff39ef660ae0001a9837e","E1","batch5","","1008.5999999999767","tol_trial_num","<div class = centerbox><p class = center-block-text>problem <strong>6</strong> out of 25 problems</p></div>","0","","","","","","","","","","","","","","","","","","","","","","","","",""
"","","","","","single-stim-button","112","225206","0.0-2.0-25.0-0.0","5a6ff39ef660ae0001a9837e","E1","batch5","","4148","tol_tohand","","","","tol_peg_2","4148","4148","0","[[0,0,0],[1,0],[3]]","1","[[1,0,0],[2,3],[0]]","5","0","","","","","","6","","","","","","","","",""
"","","","","","single-stim-button","113","226244","0.0-2.0-25.0-1.0","5a6ff39ef660ae0001a9837e","E1","batch5","","1034","tol_toboard","","","","tol_peg_1","1034","1034","0","[[2,0,0],[1,0],[3]]","1","[[1,0,0],[2,3],[0]]","5","0","","","","","","6","","","","","","","","",""
"","","","","","single-stim-button","114","227126","0.0-2.0-25.1-0.1","5a6ff39ef660ae0001a9837e","E1","batch5","","881","tol_tohand","","","","tol_peg_2","881","881","0","[[2,0,0],[0,0],[3]]","2","[[1,0,0],[2,3],[0]]","5","0","","","","","","6","","","","","","","","",""
"","","","","","single-stim-button","115","228093","0.0-2.0-25.1-1.1","5a6ff39ef660ae0001a9837e","E1","batch5","","965","tol_toboard","","","","tol_peg_1","965","965","0","[[2,1,0],[0,0],[3]]","2","[[1,0,0],[2,3],[0]]","5","0","","","","","","6","","","","","","","","",""
"","","","","","single-stim-button","116","232127","0.0-2.0-25.2-0.2","5a6ff39ef660ae0001a9837e","E1","batch5","","4031","tol_tohand","","","","tol_peg_3","4031","4031","0","[[2,1,0],[0,0],[0]]","3","[[1,0,0],[2,3],[0]]","5","0","","","","","","6","","","","","","","","",""
"","","","","","single-stim-button","117","233631","0.0-2.0-25.2-1.2","5a6ff39ef660ae0001a9837e","E1","batch5","","1503","tol_toboard","","","","tol_peg_2","1503","1503","0","[[2,1,0],[3,0],[0]]","3","[[1,0,0],[2,3],[0]]","5","0","","","","","","6","","","","","","","","",""
"","","","","","single-stim-button","118","234861","0.0-2.0-25.3-0.3","5a6ff39ef660ae0001a9837e","E1","batch5","","1228","tol_tohand","","","","tol_peg_1","1228","1228","0","[[2,0,0],[3,0],[0]]","4","[[1,0,0],[2,3],[0]]","5","0","","","","","","6","","","","","","","","",""
"","","","","","single-stim-button","119","236203","0.0-2.0-25.3-1.3","5a6ff39ef660ae0001a9837e","E1","batch5","","1340","tol_toboard","","","","tol_peg_3","1340","1340","0","[[2,0,0],[3,0],[1]]","4","[[1,0,0],[2,3],[0]]","5","0","","","","","","6","","","","","","","","",""
"","","","","","single-stim-button","120","236471","0.0-2.0-25.4-0.4","5a6ff39ef660ae0001a9837e","E1","batch5","","266","tol_tohand","","","","tol_peg_3","266","266","0","[[2,0,0],[3,0],[0]]","5","[[1,0,0],[2,3],[0]]","5","0","","","","","","6","","","","","","","","",""
"","","","","","single-stim-button","121","238543","0.0-2.0-25.4-1.4","5a6ff39ef660ae0001a9837e","E1","batch5","","2070","tol_toboard","","","","tol_peg_1","2070","2070","0","[[2,1,0],[3,0],[0]]","5","[[1,0,0],[2,3],[0]]","5","0","","","","","","6","","","","","","","","",""
"","","","","","single-stim-button","122","240186","0.0-2.0-25.5-0.5","5a6ff39ef660ae0001a9837e","E1","batch5","","1641","tol_tohand","","","","tol_peg_2","1641","1641","0","[[2,1,0],[0,0],[0]]","6","[[1,0,0],[2,3],[0]]","5","0","","","","","","6","","","","","","","","",""
"","","","","","single-stim-button","123","241076","0.0-2.0-25.5-1.5","5a6ff39ef660ae0001a9837e","E1","batch5","","888","tol_toboard","","","","tol_peg_2","888","888","0","[[2,1,0],[3,0],[0]]","6","[[1,0,0],[2,3],[0]]","5","0","","","","","","6","","","","","","","","",""
"","","","","","single-stim-button","124","242179","0.0-2.0-25.6-0.6","5a6ff39ef660ae0001a9837e","E1","batch5","","1100","tol_tohand","","","","tol_peg_1","1100","1100","0","[[2,0,0],[3,0],[0]]","7","[[1,0,0],[2,3],[0]]","5","0","","","","","","6","","","","","","","","",""
"","","","","","single-stim-button","125","243000","0.0-2.0-25.6-1.6","5a6ff39ef660ae0001a9837e","E1","batch5","","820","tol_toboard","","","","tol_peg_3","820","820","0","[[2,0,0],[3,0],[1]]","7","[[1,0,0],[2,3],[0]]","5","0","","","","","","6","","","","","","","","",""
"","","","","","single-stim-button","126","243995","0.0-2.0-25.7-0.7","5a6ff39ef660ae0001a9837e","E1","batch5","","992","tol_tohand","","","","tol_peg_1","992","992","0","[[0,0,0],[3,0],[1]]","8","[[1,0,0],[2,3],[0]]","5","0","","","","","","6","","","","","","","","",""
"","","","","","single-stim-button","127","244692","0.0-2.0-25.7-1.7","5a6ff39ef660ae0001a9837e","E1","batch5","","694","tol_toboard","","","","tol_peg_2","694","694","0","[[0,0,0],[3,2],[1]]","8","[[1,0,0],[2,3],[0]]","5","0","","","","","","6","","","","","","","","",""
"","","","","","single-stim-button","128","245709","0.0-2.0-25.8-0.8","5a6ff39ef660ae0001a9837e","E1","batch5","","1015","tol_tohand","","","","tol_peg_3","1015","1015","0","[[0,0,0],[3,2],[0]]","9","[[1,0,0],[2,3],[0]]","5","0","","","","","","6","","","","","","","","",""
"","","","","","single-stim-button","129","246653","0.0-2.0-25.8-1.8","5a6ff39ef660ae0001a9837e","E1","batch5","","941","tol_toboard","","","","tol_peg_1","941","941","0","[[1,0,0],[3,2],[0]]","9","[[1,0,0],[2,3],[0]]","5","0","","","","","","6","","","","","","","","",""
"","","","","","single-stim-button","130","247313","0.0-2.0-25.9-0.9","5a6ff39ef660ae0001a9837e","E1","batch5","","658","tol_tohand","","","","tol_peg_2","658","658","0","[[1,0,0],[3,0],[0]]","10","[[1,0,0],[2,3],[0]]","5","0","","","","","","6","","","","","","","","",""
"","","","","","single-stim-button","131","248150","0.0-2.0-25.9-1.9","5a6ff39ef660ae0001a9837e","E1","batch5","","835","tol_toboard","","","","tol_peg_3","835","835","0","[[1,0,0],[3,0],[2]]","10","[[1,0,0],[2,3],[0]]","5","0","","","","","","6","","","","","","","","",""
"","","","","","single-stim-button","132","248909","0.0-2.0-25.10-0.10","5a6ff39ef660ae0001a9837e","E1","batch5","","756","tol_tohand","","","","tol_peg_2","756","756","0","[[1,0,0],[0,0],[2]]","11","[[1,0,0],[2,3],[0]]","5","0","","","","","","6","","","","","","","","",""
"","","","","","single-stim-button","133","249525","0.0-2.0-25.10-1.10","5a6ff39ef660ae0001a9837e","E1","batch5","","613","tol_toboard","","","","tol_peg_1","613","613","0","[[1,3,0],[0,0],[2]]","11","[[1,0,0],[2,3],[0]]","5","0","","","","","","6","","","","","","","","",""
"","","","","","single-stim-button","134","250508","0.0-2.0-25.11-0.11","5a6ff39ef660ae0001a9837e","E1","batch5","","980","tol_tohand","","","","tol_peg_3","980","980","0","[[1,3,0],[0,0],[0]]","12","[[1,0,0],[2,3],[0]]","5","0","","","","","","6","","","","","","","","",""
"","","","","","single-stim-button","135","251864","0.0-2.0-25.11-1.11","5a6ff39ef660ae0001a9837e","E1","batch5","","1354","tol_toboard","","","","tol_peg_2","1354","1354","0","[[1,3,0],[2,0],[0]]","12","[[1,0,0],[2,3],[0]]","5","0","","","","","","6","","","","","","","","",""
"","","","","","single-stim-button","136","252732","0.0-2.0-25.12-0.12","5a6ff39ef660ae0001a9837e","E1","batch5","","866","tol_tohand","","","","tol_peg_1","866","866","0","[[1,0,0],[2,0],[0]]","13","[[1,0,0],[2,3],[0]]","5","0","","","","","","6","","","","","","","","",""
"","","","","","single-stim-button","137","253559","0.0-2.0-25.12-1.12","5a6ff39ef660ae0001a9837e","E1","batch5","","824","tol_toboard","","","","tol_peg_2","824","824","0","[[1,0,0],[2,3],[0]]","13","[[1,0,0],[2,3],[0]]","5","0","","","","","","6","","","","","","","","",""
"","","","","","poldrack-single-stim","138","254564","0.0-2.0-26.0","5a6ff39ef660ae0001a9837e","E1","batch5","","-1","tol_feedback","","","true","","1000","1000","500","","","","","","-1","none","true","4148","18562","","","","","","","","","",""
"","","","","","html-button-response","139","255491","0.0-2.0-27.0","5a6ff39ef660ae0001a9837e","E1","batch5","","924.3999999999651","tol_trial_num","<div class = centerbox><p class = center-block-text>problem <strong>7</strong> out of 25 problems</p></div>","0","","","","","","","","","","","","","","","","","","","","","","","","",""
"","","","","","single-stim-button","140","259519","0.0-2.0-28.0-0.0","5a6ff39ef660ae0001a9837e","E1","batch5","","4024","tol_tohand","","","","tol_peg_1","4024","4024","0","[[2,0,0],[0,0],[3]]","1","[[1,2,0],[3,0],[0]]","6","0","","","","","","5","","","","","","","","",""
"","","","","","single-stim-button","141","260735","0.0-2.0-28.0-1.0","5a6ff39ef660ae0001a9837e","E1","batch5","","1214","tol_toboard","","","","tol_peg_2","1214","1214","0","[[2,0,0],[1,0],[3]]","1","[[1,2,0],[3,0],[0]]","6","0","","","","","","5","","","","","","","","",""
"","","","","","single-stim-button","142","264273","0.0-2.0-28.1-0.1","5a6ff39ef660ae0001a9837e","E1","batch5","","3534","tol_tohand","","","","tol_peg_3","3534","3534","0","[[2,0,0],[1,0],[0]]","2","[[1,2,0],[3,0],[0]]","6","0","","","","","","5","","","","","","","","",""
"","","","","","single-stim-button","143","265147","0.0-2.0-28.1-1.1","5a6ff39ef660ae0001a9837e","E1","batch5","","871","tol_toboard","","","","tol_peg_2","871","871","0","[[2,0,0],[1,3],[0]]","2","[[1,2,0],[3,0],[0]]","6","0","","","","","","5","","","","","","","","",""
"","","","","","single-stim-button","144","266034","0.0-2.0-28.2-0.2","5a6ff39ef660ae0001a9837e","E1","batch5","","885","tol_tohand","","","","tol_peg_1","885","885","0","[[0,0,0],[1,3],[0]]","3","[[1,2,0],[3,0],[0]]","6","0","","","","","","5","","","","","","","","",""
"","","","","","single-stim-button","145","267118","0.0-2.0-28.2-1.2","5a6ff39ef660ae0001a9837e","E1","batch5","","1081","tol_toboard","","","","tol_peg_3","1081","1081","0","[[0,0,0],[1,3],[2]]","3","[[1,2,0],[3,0],[0]]","6","0","","","","","","5","","","","","","","","",""
"","","","","","single-stim-button","146","271101","0.0-2.0-28.3-0.3","5a6ff39ef660ae0001a9837e","E1","batch5","","3981","tol_tohand","","","","tol_peg_2","3981","3981","0","[[0,0,0],[1,0],[2]]","4","[[1,2,0],[3,0],[0]]","6","0","","","","","","5","","","","","","","","",""
"","","","","","single-stim-button","147","272951","0.0-2.0-28.3-1.3","5a6ff39ef660ae0001a9837e","E1","batch5","","1848","tol_toboard","","","","tol_peg_1","1848","1848","0","[[3,0,0],[1,0],[2]]","4","[[1,2,0],[3,0],[0]]","6","0","","","","","","5","","","","","","","","",""
"","","","","","single-stim-button","148","273958","0.0-2.0-28.4-0.4","5a6ff39ef660ae0001a9837e","E1","batch5","","1004","tol_tohand","","","","tol_peg_2","1004","1004","0","[[3,0,0],[0,0],[2]]","5","[[1,2,0],[3,0],[0]]","6","0","","","","","","5","","","","","","","","",""
"","","","","","single-stim-button","149","274579","0.0-2.0-28.4-1.4","5a6ff39ef660ae0001a9837e","E1","batch5","","618","tol_toboard","","","","tol_peg_1","618","618","0","[[3,1,0],[0,0],[2]]","5","[[1,2,0],[3,0],[0]]","6","0","","","","","","5","","","","","","","","",""
"","","","","","single-stim-button","150","276361","0.0-2.0-28.5-0.5","5a6ff39ef660ae0001a9837e","E1","batch5","","1780","tol_tohand","","","","tol_peg_3","1780","1780","0","[[3,1,0],[0,0],[0]]","6","[[1,2,0],[3,0],[0]]","6","0","","","","","","5","","","","","","","","",""
"","","","","","single-stim-button","151","281145","0.0-2.0-28.5-1.5","5a6ff39ef660ae0001a9837e","E1","batch5","","4782","tol_toboard","","","","tol_peg_2","4782","4782","0","[[3,1,0],[2,0],[0]]","6","[[1,2,0],[3,0],[0]]","6","0","","","","","","5","","","","","","","","",""
"","","","","","single-stim-button","152","281963","0.0-2.0-28.6-0.6","5a6ff39ef660ae0001a9837e","E1","batch5","","815","tol_tohand","","","","tol_peg_1","815","815","0","[[3,0,0],[2,0],[0]]","7","[[1,2,0],[3,0],[0]]","6","0","","","","","","5","","","","","","","","",""
"","","","","","single-stim-button","153","282797","0.0-2.0-28.6-1.6","5a6ff39ef660ae0001a9837e","E1","batch5","","832","tol_toboard","","","","tol_peg_2","832","832","0","[[3,0,0],[2,1],[0]]","7","[[1,2,0],[3,0],[0]]","6","0","","","","","","5","","","","","","","","",""
"","","","","","single-stim-button","154","283535","0.0-2.0-28.7-0.7","5a6ff39ef660ae0001a9837e","E1","batch5","","735","tol_tohand","","","","tol_peg_1","735","735","0","[[0,0,0],[2,1],[0]]","8","[[1,2,0],[3,0],[0]]","6","0","","","","","","5","","","","","","","","",""
"","","","","","single-stim-button","155","284482","0.0-2.0-28.7-1.7","5a6ff39ef660ae0001a9837e","E1","batch5","","944","tol_toboard","","","","tol_peg_3","944","944","0","[[0,0,0],[2,1],[3]]","8","[[1,2,0],[3,0],[0]]","6","0","","","","","","5","","","","","","","","",""
"","","","","","single-stim-button","156","285510","0.0-2.0-28.8-0.8","5a6ff39ef660ae0001a9837e","E1","batch5","","1026","tol_tohand","","","","tol_peg_2","1026","1026","0","[[0,0,0],[2,0],[3]]","9","[[1,2,0],[3,0],[0]]","6","0","","","","","","5","","","","","","","","",""
"","","","","","single-stim-button","157","286185","0.0-2.0-28.8-1.8","5a6ff39ef660ae0001a9837e","E1","batch5","","673","tol_toboard","","","","tol_peg_1","673","673","0","[[1,0,0],[2,0],[3]]","9","[[1,2,0],[3,0],[0]]","6","0","","","","","","5","","","","","","","","",""
"","","","","","single-stim-button","158","287402","0.0-2.0-28.9-0.9","5a6ff39ef660ae0001a9837e","E1","batch5","","1214","tol_tohand","","","","tol_peg_2","1214","1214","0","[[1,0,0],[0,0],[3]]","10","[[1,2,0],[3,0],[0]]","6","0","","","","","","5","","","","","","","","",""
"","","","","","single-stim-button","159","288051","0.0-2.0-28.9-1.9","5a6ff39ef660ae0001a9837e","E1","batch5","","646","tol_toboard","","","","tol_peg_1","646","646","0","[[1,2,0],[0,0],[3]]","10","[[1,2,0],[3,0],[0]]","6","0","","","","","","5","","","","","","","","",""
"","","","","","single-stim-button","160","288894","0.0-2.0-28.10-0.10","5a6ff39ef660ae0001a9837e","E1","batch5","","842","tol_tohand","","","","tol_peg_3","842","842","0","[[1,2,0],[0,0],[0]]","11","[[1,2,0],[3,0],[0]]","6","0","","","","","","5","","","","","","","","",""
"","","","","","single-stim-button","161","289584","0.0-2.0-28.10-1.10","5a6ff39ef660ae0001a9837e","E1","batch5","","688","tol_toboard","","","","tol_peg_2","688","688","0","[[1,2,0],[3,0],[0]]","11","[[1,2,0],[3,0],[0]]","6","0","","","","","","5","","","","","","","","",""
"","","","","","poldrack-single-stim","162","290588","0.0-2.0-29.0","5a6ff39ef660ae0001a9837e","E1","batch5","","-1","tol_feedback","","","true","","1000","1000","500","","","","","","-1","none","true","4024","19840","","","","","","","","","",""
"","","","","","html-button-response","163","291795","0.0-2.0-30.0","5a6ff39ef660ae0001a9837e","E1","batch5","","1203.7999999999884","tol_trial_num","<div class = centerbox><p class = center-block-text>problem <strong>8</strong> out of 25 problems</p></div>","0","","","","","","","","","","","","","","","","","","","","","","","","",""
"","","","","","single-stim-button","164","293749","0.0-2.0-31.0-0.0","5a6ff39ef660ae0001a9837e","E1","batch5","","1951","tol_tohand","","","","tol_peg_3","1951","1951","0","[[0,0,0],[2,3],[0]]","1","[[1,2,0],[3,0],[0]]","7","0","","","","","","4","","","","","","","","",""
"","","","","","single-stim-button","165","294822","0.0-2.0-31.0-1.0","5a6ff39ef660ae0001a9837e","E1","batch5","","1071","tol_toboard","","","","tol_peg_1","1071","1071","0","[[1,0,0],[2,3],[0]]","1","[[1,2,0],[3,0],[0]]","7","0","","","","","","4","","","","","","","","",""
"","","","","","single-stim-button","166","295609","0.0-2.0-31.1-0.1","5a6ff39ef660ae0001a9837e","E1","batch5","","786","tol_tohand","","","","tol_peg_2","786","786","0","[[1,0,0],[2,0],[0]]","2","[[1,2,0],[3,0],[0]]","7","0","","","","","","4","","","","","","","","",""
"","","","","","single-stim-button","167","297272","0.0-2.0-31.1-1.1","5a6ff39ef660ae0001a9837e","E1","batch5","","1662","tol_toboard","","","","tol_peg_3","1662","1662","0","[[1,0,0],[2,0],[3]]","2","[[1,2,0],[3,0],[0]]","7","0","","","","","","4","","","","","","","","",""
"","","","","","single-stim-button","168","298124","0.0-2.0-31.2-0.2","5a6ff39ef660ae0001a9837e","E1","batch5","","850","tol_tohand","","","","tol_peg_2","850","850","0","[[1,0,0],[0,0],[3]]","3","[[1,2,0],[3,0],[0]]","7","0","","","","","","4","","","","","","","","",""
"","","","","","single-stim-button","169","299466","0.0-2.0-31.2-1.2","5a6ff39ef660ae0001a9837e","E1","batch5","","1341","tol_toboard","","","","tol_peg_1","1341","1341","0","[[1,2,0],[0,0],[3]]","3","[[1,2,0],[3,0],[0]]","7","0","","","","","","4","","","","","","","","",""
"","","","","","single-stim-button","170","300344","0.0-2.0-31.3-0.3","5a6ff39ef660ae0001a9837e","E1","batch5","","876","tol_tohand","","","","tol_peg_3","876","876","0","[[1,2,0],[0,0],[0]]","4","[[1,2,0],[3,0],[0]]","7","0","","","","","","4","","","","","","","","",""
"","","","","","single-stim-button","171","301230","0.0-2.0-31.3-1.3","5a6ff39ef660ae0001a9837e","E1","batch5","","884","tol_toboard","","","","tol_peg_2","884","884","0","[[1,2,0],[3,0],[0]]","4","[[1,2,0],[3,0],[0]]","7","0","","","","","","4","","","","","","","","",""
"","","","","","poldrack-single-stim","172","302237","0.0-2.0-32.0","5a6ff39ef660ae0001a9837e","E1","batch5","","-1","tol_feedback","","","true","","1000","1000","500","","","","","","-1","none","true","1951","4463","","","","","","","","","",""
"","","","","","html-button-response","173","303181","0.0-2.0-33.0","5a6ff39ef660ae0001a9837e","E1","batch5","","939.8000000000466","tol_trial_num","<div class = centerbox><p class = center-block-text>problem <strong>9</strong> out of 25 problems</p></div>","0","","","","","","","","","","","","","","","","","","","","","","","","",""
"","","","","","single-stim-button","174","310242","0.0-2.0-34.0-0.0","5a6ff39ef660ae0001a9837e","E1","batch5","","7057","tol_tohand","","","","tol_peg_1","7057","7057","0","[[3,0,0],[0,0],[1]]","1","[[2,1,0],[3,0],[0]]","8","0","","","","","","6","","","","","","","","",""
"","","","","","single-stim-button","175","315505","0.0-2.0-34.0-1.0","5a6ff39ef660ae0001a9837e","E1","batch5","","5260","tol_toboard","","","","tol_peg_1","5260","5260","0","[[3,2,0],[0,0],[1]]","1","[[2,1,0],[3,0],[0]]","8","0","","","","","","6","","","","","","","","",""
"","","","","","single-stim-button","176","317387","0.0-2.0-34.1-0.1","5a6ff39ef660ae0001a9837e","E1","batch5","","1878","tol_tohand","","","","tol_peg_1","1878","1878","0","[[3,0,0],[0,0],[1]]","2","[[2,1,0],[3,0],[0]]","8","0","","","","","","6","","","","","","","","",""
"","","","","","single-stim-button","177","317965","0.0-2.0-34.1-1.1","5a6ff39ef660ae0001a9837e","E1","batch5","","576","tol_toboard","","","","tol_peg_2","576","576","0","[[3,0,0],[2,0],[1]]","2","[[2,1,0],[3,0],[0]]","8","0","","","","","","6","","","","","","","","",""
"","","","","","single-stim-button","178","318671","0.0-2.0-34.2-0.2","5a6ff39ef660ae0001a9837e","E1","batch5","","703","tol_tohand","","","","tol_peg_1","703","703","0","[[0,0,0],[2,0],[1]]","3","[[2,1,0],[3,0],[0]]","8","0","","","","","","6","","","","","","","","",""
"","","","","","single-stim-button","179","319321","0.0-2.0-34.2-1.2","5a6ff39ef660ae0001a9837e","E1","batch5","","648","tol_toboard","","","","tol_peg_2","648","648","0","[[0,0,0],[2,3],[1]]","3","[[2,1,0],[3,0],[0]]","8","0","","","","","","6","","","","","","","","",""
"","","","","","single-stim-button","180","320566","0.0-2.0-34.3-0.3","5a6ff39ef660ae0001a9837e","E1","batch5","","1242","tol_tohand","","","","tol_peg_3","1242","1242","0","[[0,0,0],[2,3],[0]]","4","[[2,1,0],[3,0],[0]]","8","0","","","","","","6","","","","","","","","",""
"","","","","","single-stim-button","181","323642","0.0-2.0-34.3-1.3","5a6ff39ef660ae0001a9837e","E1","batch5","","3073","tol_toboard","","","","tol_peg_1","3073","3073","0","[[1,0,0],[2,3],[0]]","4","[[2,1,0],[3,0],[0]]","8","0","","","","","","6","","","","","","","","",""
"","","","","","single-stim-button","182","324580","0.0-2.0-34.4-0.4","5a6ff39ef660ae0001a9837e","E1","batch5","","936","tol_tohand","","","","tol_peg_2","936","936","0","[[1,0,0],[2,0],[0]]","5","[[2,1,0],[3,0],[0]]","8","0","","","","","","6","","","","","","","","",""
"","","","","","single-stim-button","183","325399","0.0-2.0-34.4-1.4","5a6ff39ef660ae0001a9837e","E1","batch5","","816","tol_toboard","","","","tol_peg_3","816","816","0","[[1,0,0],[2,0],[3]]","5","[[2,1,0],[3,0],[0]]","8","0","","","","","","6","","","","","","","","",""
"","","","","","single-stim-button","184","327321","0.0-2.0-34.5-0.5","5a6ff39ef660ae0001a9837e","E1","batch5","","1920","tol_tohand","","","","tol_peg_2","1920","1920","0","[[1,0,0],[0,0],[3]]","6","[[2,1,0],[3,0],[0]]","8","0","","","","","","6","","","","","","","","",""
"","","","","","single-stim-button","185","328499","0.0-2.0-34.5-1.5","5a6ff39ef660ae0001a9837e","E1","batch5","","1175","tol_toboard","","","","tol_peg_1","1175","1175","0","[[1,2,0],[0,0],[3]]","6","[[2,1,0],[3,0],[0]]","8","0","","","","","","6","","","","","","","","",""
"","","","","","single-stim-button","186","329770","0.0-2.0-34.6-0.6","5a6ff39ef660ae0001a9837e","E1","batch5","","1270","tol_tohand","","","","tol_peg_1","1270","1270","0","[[1,0,0],[0,0],[3]]","7","[[2,1,0],[3,0],[0]]","8","0","","","","","","6","","","","","","","","",""
"","","","","","single-stim-button","187","332630","0.0-2.0-34.6-1.6","5a6ff39ef660ae0001a9837e","E1","batch5","","2858","tol_toboard","","","","tol_peg_1","2858","2858","0","[[1,2,0],[0,0],[3]]","7","[[2,1,0],[3,0],[0]]","8","0","","","","","","6","","","","","","","","",""
"","","","","","single-stim-button","188","333498","0.0-2.0-34.7-0.7","5a6ff39ef660ae0001a9837e","E1","batch5","","865","tol_tohand","","","","tol_peg_3","865","865","0","[[1,2,0],[0,0],[0]]","8","[[2,1,0],[3,0],[0]]","8","0","","","","","","6","","","","","","","","",""
"","","","","","single-stim-button","189","334185","0.0-2.0-34.7-1.7","5a6ff39ef660ae0001a9837e","E1","batch5","","685","tol_toboard","","","","tol_peg_2","685","685","0","[[1,2,0],[3,0],[0]]","8","[[2,1,0],[3,0],[0]]","8","0","","","","","","6","","","","","","","","",""
"","","","","","single-stim-button","190","335460","0.0-2.0-34.8-0.8","5a6ff39ef660ae0001a9837e","E1","batch5","","1272","tol_tohand","","","","tol_peg_1","1272","1272","0","[[1,0,0],[3,0],[0]]","9","[[2,1,0],[3,0],[0]]","8","0","","","","","","6","","","","","","","","",""
"","","","","","single-stim-button","191","336098","0.0-2.0-34.8-1.8","5a6ff39ef660ae0001a9837e","E1","batch5","","636","tol_toboard","","","","tol_peg_2","636","636","0","[[1,0,0],[3,2],[0]]","9","[[2,1,0],[3,0],[0]]","8","0","","","","","","6","","","","","","","","",""
"","","","","","single-stim-button","192","337015","0.0-2.0-34.9-0.9","5a6ff39ef660ae0001a9837e","E1","batch5","","914","tol_tohand","","","","tol_peg_1","914","914","0","[[0,0,0],[3,2],[0]]","10","[[2,1,0],[3,0],[0]]","8","0","","","","","","6","","","","","","","","",""
"","","","","","single-stim-button","193","337912","0.0-2.0-34.9-1.9","5a6ff39ef660ae0001a9837e","E1","batch5","","894","tol_toboard","","","","tol_peg_3","894","894","0","[[0,0,0],[3,2],[1]]","10","[[2,1,0],[3,0],[0]]","8","0","","","","","","6","","","","","","","","",""
"","","","","","single-stim-button","194","338110","0.0-2.0-34.10-0.10","5a6ff39ef660ae0001a9837e","E1","batch5","","195","tol_tohand","","","","tol_peg_3","195","195","0","[[0,0,0],[3,2],[0]]","11","[[2,1,0],[3,0],[0]]","8","0","","","","","","6","","","","","","","","",""
"","","","","","single-stim-button","195","339247","0.0-2.0-34.10-1.10","5a6ff39ef660ae0001a9837e","E1","batch5","","1135","tol_toboard","","","","tol_peg_3","1135","1135","0","[[0,0,0],[3,2],[1]]","11","[[2,1,0],[3,0],[0]]","8","0","","","","","","6","","","","","","","","",""
"","","","","","single-stim-button","196","340084","0.0-2.0-34.11-0.11","5a6ff39ef660ae0001a9837e","E1","batch5","","834","tol_tohand","","","","tol_peg_2","834","834","0","[[0,0,0],[3,0],[1]]","12","[[2,1,0],[3,0],[0]]","8","0","","","","","","6","","","","","","","","",""
"","","","","","single-stim-button","197","340819","0.0-2.0-34.11-1.11","5a6ff39ef660ae0001a9837e","E1","batch5","","733","tol_toboard","","","","tol_peg_1","733","733","0","[[2,0,0],[3,0],[1]]","12","[[2,1,0],[3,0],[0]]","8","0","","","","","","6","","","","","","","","",""
"","","","","","single-stim-button","198","341607","0.0-2.0-34.12-0.12","5a6ff39ef660ae0001a9837e","E1","batch5","","785","tol_tohand","","","","tol_peg_3","785","785","0","[[2,0,0],[3,0],[0]]","13","[[2,1,0],[3,0],[0]]","8","0","","","","","","6","","","","","","","","",""
"","","","","","single-stim-button","199","342475","0.0-2.0-34.12-1.12","5a6ff39ef660ae0001a9837e","E1","batch5","","866","tol_toboard","","","","tol_peg_1","866","866","0","[[2,1,0],[3,0],[0]]","13","[[2,1,0],[3,0],[0]]","8","0","","","","","","6","","","","","","","","",""
"","","","","","poldrack-single-stim","200","343485","0.0-2.0-35.0","5a6ff39ef660ae0001a9837e","E1","batch5","","-1","tol_feedback","","","true","","1000","1000","500","","","","","","-1","none","true","7057","19871","","","","","","","","","",""
"","","","","","html-button-response","201","344465","0.0-2.0-36.0","5a6ff39ef660ae0001a9837e","E1","batch5","","976.6999999999534","tol_trial_num","<div class = centerbox><p class = center-block-text>problem <strong>10</strong> out of 25 problems</p></div>","0","","","","","","","","","","","","","","","","","","","","","","","","",""
"","","","","","single-stim-button","202","346688","0.0-2.0-37.0-0.0","5a6ff39ef660ae0001a9837e","E1","batch5","","2221","tol_tohand","","","","tol_peg_2","2221","2221","0","[[3,0,0],[0,0],[2]]","1","[[3,0,0],[2,1],[0]]","9","0","","","","","","3","","","","","","","","",""
"","","","","","single-stim-button","203","347327","0.0-2.0-37.0-1.0","5a6ff39ef660ae0001a9837e","E1","batch5","","636","tol_toboard","","","","tol_peg_1","636","636","0","[[3,1,0],[0,0],[2]]","1","[[3,0,0],[2,1],[0]]","9","0","","","","","","3","","","","","","","","",""
"","","","","","single-stim-button","204","348230","0.0-2.0-37.1-0.1","5a6ff39ef660ae0001a9837e","E1","batch5","","901","tol_tohand","","","","tol_peg_3","901","901","0","[[3,1,0],[0,0],[0]]","2","[[3,0,0],[2,1],[0]]","9","0","","","","","","3","","","","","","","","",""
"","","","","","single-stim-button","205","349120","0.0-2.0-37.1-1.1","5a6ff39ef660ae0001a9837e","E1","batch5","","888","tol_toboard","","","","tol_peg_2","888","888","0","[[3,1,0],[2,0],[0]]","2","[[3,0,0],[2,1],[0]]","9","0","","","","","","3","","","","","","","","",""
"","","","","","single-stim-button","206","349965","0.0-2.0-37.2-0.2","5a6ff39ef660ae0001a9837e","E1","batch5","","842","tol_tohand","","","","tol_peg_1","842","842","0","[[3,0,0],[2,0],[0]]","3","[[3,0,0],[2,1],[0]]","9","0","","","","","","3","","","","","","","","",""
"","","","","","single-stim-button","207","350704","0.0-2.0-37.2-1.2","5a6ff39ef660ae0001a9837e","E1","batch5","","735","tol_toboard","","","","tol_peg_2","735","735","0","[[3,0,0],[2,1],[0]]","3","[[3,0,0],[2,1],[0]]","9","0","","","","","","3","","","","","","","","",""
"","","","","","poldrack-single-stim","208","351709","0.0-2.0-38.0","5a6ff39ef660ae0001a9837e","E1","batch5","","-1","tol_feedback","","","true","","1000","1000","500","","","","","","-1","none","true","2221","3964","","","","","","","","","",""
"","","","","","html-button-response","209","352882","0.0-2.0-39.0","5a6ff39ef660ae0001a9837e","E1","batch5","","1170.8999999999069","tol_trial_num","<div class = centerbox><p class = center-block-text>problem <strong>11</strong> out of 25 problems</p></div>","0","","","","","","","","","","","","","","","","","","","","","","","","",""
"","","","","","single-stim-button","210","356937","0.0-2.0-40.0-0.0","5a6ff39ef660ae0001a9837e","E1","batch5","","4051","tol_tohand","","","","tol_peg_2","4051","4051","0","[[1,2,0],[0,0],[0]]","1","[[2,0,0],[1,3],[0]]","10","0","","","","","","6","","","","","","","","",""
"","","","","","single-stim-button","211","358460","0.0-2.0-40.0-1.0","5a6ff39ef660ae0001a9837e","E1","batch5","","1520","tol_toboard","","","","tol_peg_3","1520","1520","0","[[1,2,0],[0,0],[3]]","1","[[2,0,0],[1,3],[0]]","10","0","","","","","","6","","","","","","","","",""
"","","","","","single-stim-button","212","359755","0.0-2.0-40.1-0.1","5a6ff39ef660ae0001a9837e","E1","batch5","","1292","tol_tohand","","","","tol_peg_1","1292","1292","0","[[1,0,0],[0,0],[3]]","2","[[2,0,0],[1,3],[0]]","10","0","","","","","","6","","","","","","","","",""
"","","","","","single-stim-button","213","360730","0.0-2.0-40.1-1.1","5a6ff39ef660ae0001a9837e","E1","batch5","","973","tol_toboard","","","","tol_peg_2","973","973","0","[[1,0,0],[2,0],[3]]","2","[[2,0,0],[1,3],[0]]","10","0","","","","","","6","","","","","","","","",""
"","","","","","single-stim-button","214","361658","0.0-2.0-40.2-0.2","5a6ff39ef660ae0001a9837e","E1","batch5","","925","tol_tohand","","","","tol_peg_1","925","925","0","[[0,0,0],[2,0],[3]]","3","[[2,0,0],[1,3],[0]]","10","0","","","","","","6","","","","","","","","",""
"","","","","","single-stim-button","215","362901","0.0-2.0-40.2-1.2","5a6ff39ef660ae0001a9837e","E1","batch5","","1241","tol_toboard","","","","tol_peg_2","1241","1241","0","[[0,0,0],[2,1],[3]]","3","[[2,0,0],[1,3],[0]]","10","0","","","","","","6","","","","","","","","",""
"","","","","","single-stim-button","216","364979","0.0-2.0-40.3-0.3","5a6ff39ef660ae0001a9837e","E1","batch5","","2076","tol_tohand","","","","tol_peg_3","2076","2076","0","[[0,0,0],[2,1],[0]]","4","[[2,0,0],[1,3],[0]]","10","0","","","","","","6","","","","","","","","",""
"","","","","","single-stim-button","217","365847","0.0-2.0-40.3-1.3","5a6ff39ef660ae0001a9837e","E1","batch5","","865","tol_toboard","","","","tol_peg_3","865","865","0","[[0,0,0],[2,1],[3]]","4","[[2,0,0],[1,3],[0]]","10","0","","","","","","6","","","","","","","","",""
"","","","","","single-stim-button","218","366801","0.0-2.0-40.4-0.4","5a6ff39ef660ae0001a9837e","E1","batch5","","951","tol_tohand","","","","tol_peg_2","951","951","0","[[0,0,0],[2,0],[3]]","5","[[2,0,0],[1,3],[0]]","10","0","","","","","","6","","","","","","","","",""
"","","","","","single-stim-button","219","367702","0.0-2.0-40.4-1.4","5a6ff39ef660ae0001a9837e","E1","batch5","","899","tol_toboard","","","","tol_peg_1","899","899","0","[[1,0,0],[2,0],[3]]","5","[[2,0,0],[1,3],[0]]","10","0","","","","","","6","","","","","","","","",""
"","","","","","single-stim-button","220","368467","0.0-2.0-40.5-0.5","5a6ff39ef660ae0001a9837e","E1","batch5","","762","tol_tohand","","","","tol_peg_3","762","762","0","[[1,0,0],[2,0],[0]]","6","[[2,0,0],[1,3],[0]]","10","0","","","","","","6","","","","","","","","",""
"","","","","","single-stim-button","221","369304","0.0-2.0-40.5-1.5","5a6ff39ef660ae0001a9837e","E1","batch5","","834","tol_toboard","","","","tol_peg_2","834","834","0","[[1,0,0],[2,3],[0]]","6","[[2,0,0],[1,3],[0]]","10","0","","","","","","6","","","","","","","","",""
"","","","","","single-stim-button","222","370081","0.0-2.0-40.6-0.6","5a6ff39ef660ae0001a9837e","E1","batch5","","774","tol_tohand","","","","tol_peg_1","774","774","0","[[0,0,0],[2,3],[0]]","7","[[2,0,0],[1,3],[0]]","10","0","","","","","","6","","","","","","","","",""
"","","","","","single-stim-button","223","371097","0.0-2.0-40.6-1.6","5a6ff39ef660ae0001a9837e","E1","batch5","","1014","tol_toboard","","","","tol_peg_3","1014","1014","0","[[0,0,0],[2,3],[1]]","7","[[2,0,0],[1,3],[0]]","10","0","","","","","","6","","","","","","","","",""
"","","","","","single-stim-button","224","372522","0.0-2.0-40.7-0.7","5a6ff39ef660ae0001a9837e","E1","batch5","","1422","tol_tohand","","","","tol_peg_2","1422","1422","0","[[0,0,0],[2,0],[1]]","8","[[2,0,0],[1,3],[0]]","10","0","","","","","","6","","","","","","","","",""
"","","","","","single-stim-button","225","373369","0.0-2.0-40.7-1.7","5a6ff39ef660ae0001a9837e","E1","batch5","","844","tol_toboard","","","","tol_peg_1","844","844","0","[[3,0,0],[2,0],[1]]","8","[[2,0,0],[1,3],[0]]","10","0","","","","","","6","","","","","","","","",""
"","","","","","single-stim-button","226","374385","0.0-2.0-40.8-0.8","5a6ff39ef660ae0001a9837e","E1","batch5","","1013","tol_tohand","","","","tol_peg_2","1013","1013","0","[[3,0,0],[0,0],[1]]","9","[[2,0,0],[1,3],[0]]","10","0","","","","","","6","","","","","","","","",""
"","","","","","single-stim-button","227","375421","0.0-2.0-40.8-1.8","5a6ff39ef660ae0001a9837e","E1","batch5","","1033","tol_toboard","","","","tol_peg_1","1033","1033","0","[[3,2,0],[0,0],[1]]","9","[[2,0,0],[1,3],[0]]","10","0","","","","","","6","","","","","","","","",""
"","","","","","single-stim-button","228","376707","0.0-2.0-40.9-0.9","5a6ff39ef660ae0001a9837e","E1","batch5","","1283","tol_tohand","","","","tol_peg_3","1283","1283","0","[[3,2,0],[0,0],[0]]","10","[[2,0,0],[1,3],[0]]","10","0","","","","","","6","","","","","","","","",""
"","","","","","single-stim-button","229","377574","0.0-2.0-40.9-1.9","5a6ff39ef660ae0001a9837e","E1","batch5","","865","tol_toboard","","","","tol_peg_2","865","865","0","[[3,2,0],[1,0],[0]]","10","[[2,0,0],[1,3],[0]]","10","0","","","","","","6","","","","","","","","",""
"","","","","","single-stim-button","230","378400","0.0-2.0-40.10-0.10","5a6ff39ef660ae0001a9837e","E1","batch5","","823","tol_tohand","","","","tol_peg_1","823","823","0","[[3,0,0],[1,0],[0]]","11","[[2,0,0],[1,3],[0]]","10","0","","","","","","6","","","","","","","","",""
"","","","","","single-stim-button","231","379515","0.0-2.0-40.10-1.10","5a6ff39ef660ae0001a9837e","E1","batch5","","1112","tol_toboard","","","","tol_peg_3","1112","1112","0","[[3,0,0],[1,0],[2]]","11","[[2,0,0],[1,3],[0]]","10","0","","","","","","6","","","","","","","","",""
"","","","","","single-stim-button","232","380393","0.0-2.0-40.11-0.11","5a6ff39ef660ae0001a9837e","E1","batch5","","873","tol_tohand","","","","tol_peg_1","873","873","0","[[0,0,0],[1,0],[2]]","12","[[2,0,0],[1,3],[0]]","10","0","","","","","","6","","","","","","","","",""
"","","","","","single-stim-button","233","381090","0.0-2.0-40.11-1.11","5a6ff39ef660ae0001a9837e","E1","batch5","","695","tol_toboard","","","","tol_peg_2","695","695","0","[[0,0,0],[1,3],[2]]","12","[[2,0,0],[1,3],[0]]","10","0","","","","","","6","","","","","","","","",""
"","","","","","single-stim-button","234","381816","0.0-2.0-40.12-0.12","5a6ff39ef660ae0001a9837e","E1","batch5","","723","tol_tohand","","","","tol_peg_3","723","723","0","[[0,0,0],[1,3],[0]]","13","[[2,0,0],[1,3],[0]]","10","0","","","","","","6","","","","","","","","",""
"","","","","","single-stim-button","235","382581","0.0-2.0-40.12-1.12","5a6ff39ef660ae0001a9837e","E1","batch5","","763","tol_toboard","","","","tol_peg_1","763","763","0","[[2,0,0],[1,3],[0]]","13","[[2,0,0],[1,3],[0]]","10","0","","","","","","6","","","","","","","","",""
"","","","","","poldrack-single-stim","236","383596","0.0-2.0-41.0","5a6ff39ef660ae0001a9837e","E1","batch5","","-1","tol_feedback","","","true","","1000","1000","500","","","","","","-1","none","true","4051","16968","","","","","","","","","",""
"","","","","","html-button-response","237","384217","0.0-2.0-42.0","5a6ff39ef660ae0001a9837e","E1","batch5","","618.7000000000698","tol_trial_num","<div class = centerbox><p class = center-block-text>problem <strong>12</strong> out of 25 problems</p></div>","0","","","","","","","","","","","","","","","","","","","","","","","","",""
"","","","","","single-stim-button","238","386764","0.0-2.0-43.0-0.0","5a6ff39ef660ae0001a9837e","E1","batch5","","2544","tol_tohand","","","","tol_peg_1","2544","2544","0","[[1,0,0],[3,0],[0]]","1","[[2,3,0],[0,0],[1]]","11","0","","","","","","4","","","","","","","","",""
"","","","","","single-stim-button","239","387639","0.0-2.0-43.0-1.0","5a6ff39ef660ae0001a9837e","E1","batch5","","872","tol_toboard","","","","tol_peg_2","872","872","0","[[1,0,0],[3,2],[0]]","1","[[2,3,0],[0,0],[1]]","11","0","","","","","","4","","","","","","","","",""
"","","","","","single-stim-button","240","388430","0.0-2.0-43.1-0.1","5a6ff39ef660ae0001a9837e","E1","batch5","","788","tol_tohand","","","","tol_peg_1","788","788","0","[[0,0,0],[3,2],[0]]","2","[[2,3,0],[0,0],[1]]","11","0","","","","","","4","","","","","","","","",""
"","","","","","single-stim-button","241","389352","0.0-2.0-43.1-1.1","5a6ff39ef660ae0001a9837e","E1","batch5","","921","tol_toboard","","","","tol_peg_3","921","921","0","[[0,0,0],[3,2],[1]]","2","[[2,3,0],[0,0],[1]]","11","0","","","","","","4","","","","","","","","",""
"","","","","","single-stim-button","242","390034","0.0-2.0-43.2-0.2","5a6ff39ef660ae0001a9837e","E1","batch5","","679","tol_tohand","","","","tol_peg_2","679","679","0","[[0,0,0],[3,0],[1]]","3","[[2,3,0],[0,0],[1]]","11","0","","","","","","4","","","","","","","","",""
"","","","","","single-stim-button","243","390926","0.0-2.0-43.2-1.2","5a6ff39ef660ae0001a9837e","E1","batch5","","891","tol_toboard","","","","tol_peg_1","891","891","0","[[2,0,0],[3,0],[1]]","3","[[2,3,0],[0,0],[1]]","11","0","","","","","","4","","","","","","","","",""
"","","","","","single-stim-button","244","391569","0.0-2.0-43.3-0.3","5a6ff39ef660ae0001a9837e","E1","batch5","","641","tol_tohand","","","","tol_peg_2","641","641","0","[[2,0,0],[0,0],[1]]","4","[[2,3,0],[0,0],[1]]","11","0","","","","","","4","","","","","","","","",""
"","","","","","single-stim-button","245","392729","0.0-2.0-43.3-1.3","5a6ff39ef660ae0001a9837e","E1","batch5","","1158","tol_toboard","","","","tol_peg_1","1158","1158","0","[[2,3,0],[0,0],[1]]","4","[[2,3,0],[0,0],[1]]","11","0","","","","","","4","","","","","","","","",""
"","","","","","poldrack-single-stim","246","393731","0.0-2.0-44.0","5a6ff39ef660ae0001a9837e","E1","batch5","","-1","tol_feedback","","","true","","1000","1000","500","","","","","","-1","none","true","2544","4652","","","","","","","","","",""
"","","","","","html-button-response","247","394917","0.0-2.0-45.0","5a6ff39ef660ae0001a9837e","E1","batch5","","1182.2999999999302","tol_trial_num","<div class = centerbox><p class = center-block-text>problem <strong>13</strong> out of 25 problems</p></div>","0","","","","","","","","","","","","","","","","","","","","","","","","",""
"","","","","","single-stim-button","248","398579","0.0-2.0-46.0-0.0","5a6ff39ef660ae0001a9837e","E1","batch5","","3659","tol_tohand","","","","tol_peg_1","3659","3659","0","[[1,0,0],[3,0],[0]]","1","[[0,0,0],[2,3],[1]]","12","0","","","","","","4","","","","","","","","",""
"","","","","","single-stim-button","249","399266","0.0-2.0-46.0-1.0","5a6ff39ef660ae0001a9837e","E1","batch5","","684","tol_toboard","","","","tol_peg_2","684","684","0","[[1,0,0],[3,2],[0]]","1","[[0,0,0],[2,3],[1]]","12","0","","","","","","4","","","","","","","","",""
"","","","","","single-stim-button","250","400006","0.0-2.0-46.1-0.1","5a6ff39ef660ae0001a9837e","E1","batch5","","737","tol_tohand","","","","tol_peg_1","737","737","0","[[0,0,0],[3,2],[0]]","2","[[0,0,0],[2,3],[1]]","12","0","","","","","","4","","","","","","","","",""
"","","","","","single-stim-button","251","401177","0.0-2.0-46.1-1.1","5a6ff39ef660ae0001a9837e","E1","batch5","","1169","tol_toboard","","","","tol_peg_3","1169","1169","0","[[0,0,0],[3,2],[1]]","2","[[0,0,0],[2,3],[1]]","12","0","","","","","","4","","","","","","","","",""
"","","","","","single-stim-button","252","402147","0.0-2.0-46.2-0.2","5a6ff39ef660ae0001a9837e","E1","batch5","","968","tol_tohand","","","","tol_peg_2","968","968","0","[[0,0,0],[3,0],[1]]","3","[[0,0,0],[2,3],[1]]","12","0","","","","","","4","","","","","","","","",""
"","","","","","single-stim-button","253","406121","0.0-2.0-46.2-1.2","5a6ff39ef660ae0001a9837e","E1","batch5","","3971","tol_toboard","","","","tol_peg_2","3971","3971","0","[[0,0,0],[3,2],[1]]","3","[[0,0,0],[2,3],[1]]","12","0","","","","","","4","","","","","","","","",""
"","","","","","single-stim-button","254","407343","0.0-2.0-46.3-0.3","5a6ff39ef660ae0001a9837e","E1","batch5","","1220","tol_tohand","","","","tol_peg_3","1220","1220","0","[[0,0,0],[3,2],[0]]","4","[[0,0,0],[2,3],[1]]","12","0","","","","","","4","","","","","","","","",""
"","","","","","single-stim-button","255","408623","0.0-2.0-46.3-1.3","5a6ff39ef660ae0001a9837e","E1","batch5","","1278","tol_toboard","","","","tol_peg_1","1278","1278","0","[[1,0,0],[3,2],[0]]","4","[[0,0,0],[2,3],[1]]","12","0","","","","","","4","","","","","","","","",""
"","","","","","single-stim-button","256","409558","0.0-2.0-46.4-0.4","5a6ff39ef660ae0001a9837e","E1","batch5","","933","tol_tohand","","","","tol_peg_2","933","933","0","[[1,0,0],[3,0],[0]]","5","[[0,0,0],[2,3],[1]]","12","0","","","","","","4","","","","","","","","",""
"","","","","","single-stim-button","257","410424","0.0-2.0-46.4-1.4","5a6ff39ef660ae0001a9837e","E1","batch5","","864","tol_toboard","","","","tol_peg_3","864","864","0","[[1,0,0],[3,0],[2]]","5","[[0,0,0],[2,3],[1]]","12","0","","","","","","4","","","","","","","","",""
"","","","","","single-stim-button","258","411234","0.0-2.0-46.5-0.5","5a6ff39ef660ae0001a9837e","E1","batch5","","806","tol_tohand","","","","tol_peg_2","806","806","0","[[1,0,0],[0,0],[2]]","6","[[0,0,0],[2,3],[1]]","12","0","","","","","","4","","","","","","","","",""
"","","","","","single-stim-button","259","412151","0.0-2.0-46.5-1.5","5a6ff39ef660ae0001a9837e","E1","batch5","","915","tol_toboard","","","","tol_peg_1","915","915","0","[[1,3,0],[0,0],[2]]","6","[[0,0,0],[2,3],[1]]","12","0","","","","","","4","","","","","","","","",""
"","","","","","single-stim-button","260","412998","0.0-2.0-46.6-0.6","5a6ff39ef660ae0001a9837e","E1","batch5","","844","tol_tohand","","","","tol_peg_3","844","844","0","[[1,3,0],[0,0],[0]]","7","[[0,0,0],[2,3],[1]]","12","0","","","","","","4","","","","","","","","",""
"","","","","","single-stim-button","261","414063","0.0-2.0-46.6-1.6","5a6ff39ef660ae0001a9837e","E1","batch5","","1055","tol_toboard","","","","tol_peg_2","1055","1055","0","[[1,3,0],[2,0],[0]]","7","[[0,0,0],[2,3],[1]]","12","0","","","","","","4","","","","","","","","",""
"","","","","","single-stim-button","262","414880","0.0-2.0-46.7-0.7","5a6ff39ef660ae0001a9837e","E1","batch5","","814","tol_tohand","","","","tol_peg_1","814","814","0","[[1,0,0],[2,0],[0]]","8","[[0,0,0],[2,3],[1]]","12","0","","","","","","4","","","","","","","","",""
"","","","","","single-stim-button","263","415508","0.0-2.0-46.7-1.7","5a6ff39ef660ae0001a9837e","E1","batch5","","626","tol_toboard","","","","tol_peg_2","626","626","0","[[1,0,0],[2,3],[0]]","8","[[0,0,0],[2,3],[1]]","12","0","","","","","","4","","","","","","","","",""
"","","","","","single-stim-button","264","416125","0.0-2.0-46.8-0.8","5a6ff39ef660ae0001a9837e","E1","batch5","","614","tol_tohand","","","","tol_peg_1","614","614","0","[[0,0,0],[2,3],[0]]","9","[[0,0,0],[2,3],[1]]","12","0","","","","","","4","","","","","","","","",""
"","","","","","single-stim-button","265","416971","0.0-2.0-46.8-1.8","5a6ff39ef660ae0001a9837e","E1","batch5","","843","tol_toboard","","","","tol_peg_3","843","843","0","[[0,0,0],[2,3],[1]]","9","[[0,0,0],[2,3],[1]]","12","0","","","","","","4","","","","","","","","",""
"","","","","","poldrack-single-stim","266","417980","0.0-2.0-47.0","5a6ff39ef660ae0001a9837e","E1","batch5","","-1","tol_feedback","","","true","","1000","1000","500","","","","","","-1","none","true","3659","10595","","","","","","","","","",""
"","","","","","html-button-response","267","421505","0.0-2.0-48.0","5a6ff39ef660ae0001a9837e","E1","batch5","","3521.5","attention_check","<p class = block-text>How many balls are in your board<br></p>","1","true","","","","","","","","","","","","","","","","","","","","","","","",""
"","","","","","html-button-response","268","422383","0.0-2.0-49.0","5a6ff39ef660ae0001a9837e","E1","batch5","","872.0999999999767","tol_trial_num","<div class = centerbox><p class = center-block-text>problem <strong>14</strong> out of 25 problems</p></div>","0","","","","","","","","","","","","","","","","","","","","","","","","",""
"","","","","","single-stim-button","269","425720","0.0-2.0-50.0-0.0","5a6ff39ef660ae0001a9837e","E1","batch5","","3335","tol_tohand","","","","tol_peg_1","3335","3335","0","[[2,0,0],[3,0],[0]]","1","[[1,2,0],[3,0],[0]]","13","0","","","","","","4","","","","","","","","",""
"","","","","","single-stim-button","270","427244","0.0-2.0-50.0-1.0","5a6ff39ef660ae0001a9837e","E1","batch5","","1521","tol_toboard","","","","tol_peg_3","1521","1521","0","[[2,0,0],[3,0],[1]]","1","[[1,2,0],[3,0],[0]]","13","0","","","","","","4","","","","","","","","",""
"","","","","","single-stim-button","271","427932","0.0-2.0-50.1-0.1","5a6ff39ef660ae0001a9837e","E1","batch5","","684","tol_tohand","","","","tol_peg_1","684","684","0","[[0,0,0],[3,0],[1]]","2","[[1,2,0],[3,0],[0]]","13","0","","","","","","4","","","","","","","","",""
"","","","","","single-stim-button","272","428659","0.0-2.0-50.1-1.1","5a6ff39ef660ae0001a9837e","E1","batch5","","725","tol_toboard","","","","tol_peg_2","725","725","0","[[0,0,0],[3,2],[1]]","2","[[1,2,0],[3,0],[0]]","13","0","","","","","","4","","","","","","","","",""
"","","","","","single-stim-button","273","430083","0.0-2.0-50.2-0.2","5a6ff39ef660ae0001a9837e","E1","batch5","","1421","tol_tohand","","","","tol_peg_3","1421","1421","0","[[0,0,0],[3,2],[0]]","3","[[1,2,0],[3,0],[0]]","13","0","","","","","","4","","","","","","","","",""
"","","","","","single-stim-button","274","431228","0.0-2.0-50.2-1.2","5a6ff39ef660ae0001a9837e","E1","batch5","","1142","tol_toboard","","","","tol_peg_1","1142","1142","0","[[1,0,0],[3,2],[0]]","3","[[1,2,0],[3,0],[0]]","13","0","","","","","","4","","","","","","","","",""
"","","","","","single-stim-button","275","431924","0.0-2.0-50.3-0.3","5a6ff39ef660ae0001a9837e","E1","batch5","","695","tol_tohand","","","","tol_peg_2","695","695","0","[[1,0,0],[3,0],[0]]","4","[[1,2,0],[3,0],[0]]","13","0","","","","","","4","","","","","","","","",""
"","","","","","single-stim-button","276","432844","0.0-2.0-50.3-1.3","5a6ff39ef660ae0001a9837e","E1","batch5","","918","tol_toboard","","","","tol_peg_1","918","918","0","[[1,2,0],[3,0],[0]]","4","[[1,2,0],[3,0],[0]]","13","0","","","","","","4","","","","","","","","",""
"","","","","","poldrack-single-stim","277","433852","0.0-2.0-51.0","5a6ff39ef660ae0001a9837e","E1","batch5","","-1","tol_feedback","","","true","","1000","1000","500","","","","","","-1","none","true","3335","6135","","","","","","","","","",""
"","","","","","html-button-response","278","435238","0.0-2.0-52.0","5a6ff39ef660ae0001a9837e","E1","batch5","","1382.6999999999534","tol_trial_num","<div class = centerbox><p class = center-block-text>problem <strong>15</strong> out of 25 problems</p></div>","0","","","","","","","","","","","","","","","","","","","","","","","","",""
"","","","","","single-stim-button","279","437700","0.0-2.0-53.0-0.0","5a6ff39ef660ae0001a9837e","E1","batch5","","2460","tol_tohand","","","","tol_peg_1","2460","2460","0","[[1,0,0],[3,0],[0]]","1","[[2,0,0],[3,0],[1]]","14","0","","","","","","3","","","","","","","","",""
"","","","","","single-stim-button","280","438638","0.0-2.0-53.0-1.0","5a6ff39ef660ae0001a9837e","E1","batch5","","936","tol_toboard","","","","tol_peg_2","936","936","0","[[1,0,0],[3,2],[0]]","1","[[2,0,0],[3,0],[1]]","14","0","","","","","","3","","","","","","","","",""
"","","","","","single-stim-button","281","439333","0.0-2.0-53.1-0.1","5a6ff39ef660ae0001a9837e","E1","batch5","","693","tol_tohand","","","","tol_peg_1","693","693","0","[[0,0,0],[3,2],[0]]","2","[[2,0,0],[3,0],[1]]","14","0","","","","","","3","","","","","","","","",""
"","","","","","single-stim-button","282","440370","0.0-2.0-53.1-1.1","5a6ff39ef660ae0001a9837e","E1","batch5","","1036","tol_toboard","","","","tol_peg_3","1036","1036","0","[[0,0,0],[3,2],[1]]","2","[[2,0,0],[3,0],[1]]","14","0","","","","","","3","","","","","","","","",""
"","","","","","single-stim-button","283","441229","0.0-2.0-53.2-0.2","5a6ff39ef660ae0001a9837e","E1","batch5","","857","tol_tohand","","","","tol_peg_2","857","857","0","[[0,0,0],[3,0],[1]]","3","[[2,0,0],[3,0],[1]]","14","0","","","","","","3","","","","","","","","",""
"","","","","","single-stim-button","284","442223","0.0-2.0-53.2-1.2","5a6ff39ef660ae0001a9837e","E1","batch5","","993","tol_toboard","","","","tol_peg_1","993","993","0","[[2,0,0],[3,0],[1]]","3","[[2,0,0],[3,0],[1]]","14","0","","","","","","3","","","","","","","","",""
"","","","","","poldrack-single-stim","285","443228","0.0-2.0-54.0","5a6ff39ef660ae0001a9837e","E1","batch5","","-1","tol_feedback","","","true","","1000","1000","500","","","","","","-1","none","true","2460","4010","","","","","","","","","",""
"","","","","","html-button-response","286","444100","0.0-2.0-55.0","5a6ff39ef660ae0001a9837e","E1","batch5","","869.0999999999767","tol_trial_num","<div class = centerbox><p class = center-block-text>problem <strong>16</strong> out of 25 problems</p></div>","0","","","","","","","","","","","","","","","","","","","","","","","","",""
"","","","","","single-stim-button","287","451688","0.0-2.0-56.0-0.0","5a6ff39ef660ae0001a9837e","E1","batch5","","7586","tol_tohand","","","","tol_peg_2","7586","7586","0","[[0,0,0],[2,0],[1]]","1","[[2,3,0],[1,0],[0]]","15","0","","","","","","7","","","","","","","","",""
"","","","","","single-stim-button","288","454050","0.0-2.0-56.0-1.0","5a6ff39ef660ae0001a9837e","E1","batch5","","2359","tol_toboard","","","","tol_peg_2","2359","2359","0","[[0,0,0],[2,3],[1]]","1","[[2,3,0],[1,0],[0]]","15","0","","","","","","7","","","","","","","","",""
"","","","","","single-stim-button","289","454786","0.0-2.0-56.1-0.1","5a6ff39ef660ae0001a9837e","E1","batch5","","734","tol_tohand","","","","tol_peg_3","734","734","0","[[0,0,0],[2,3],[0]]","2","[[2,3,0],[1,0],[0]]","15","0","","","","","","7","","","","","","","","",""
"","","","","","single-stim-button","290","456696","0.0-2.0-56.1-1.1","5a6ff39ef660ae0001a9837e","E1","batch5","","1908","tol_toboard","","","","tol_peg_1","1908","1908","0","[[1,0,0],[2,3],[0]]","2","[[2,3,0],[1,0],[0]]","15","0","","","","","","7","","","","","","","","",""
"","","","","","single-stim-button","291","457498","0.0-2.0-56.2-0.2","5a6ff39ef660ae0001a9837e","E1","batch5","","800","tol_tohand","","","","tol_peg_2","800","800","0","[[1,0,0],[2,0],[0]]","3","[[2,3,0],[1,0],[0]]","15","0","","","","","","7","","","","","","","","",""
"","","","","","single-stim-button","292","461094","0.0-2.0-56.2-1.2","5a6ff39ef660ae0001a9837e","E1","batch5","","3593","tol_toboard","","","","tol_peg_3","3593","3593","0","[[1,0,0],[2,0],[3]]","3","[[2,3,0],[1,0],[0]]","15","0","","","","","","7","","","","","","","","",""
"","","","","","single-stim-button","293","463381","0.0-2.0-56.3-0.3","5a6ff39ef660ae0001a9837e","E1","batch5","","2284","tol_tohand","","","","tol_peg_1","2284","2284","0","[[0,0,0],[2,0],[3]]","4","[[2,3,0],[1,0],[0]]","15","0","","","","","","7","","","","","","","","",""
"","","","","","single-stim-button","294","465845","0.0-2.0-56.3-1.3","5a6ff39ef660ae0001a9837e","E1","batch5","","2462","tol_toboard","","","","tol_peg_1","2462","2462","0","[[1,0,0],[2,0],[3]]","4","[[2,3,0],[1,0],[0]]","15","0","","","","","","7","","","","","","","","",""
"","","","","","single-stim-button","295","466671","0.0-2.0-56.4-0.4","5a6ff39ef660ae0001a9837e","E1","batch5","","822","tol_tohand","","","","tol_peg_2","822","822","0","[[1,0,0],[0,0],[3]]","5","[[2,3,0],[1,0],[0]]","15","0","","","","","","7","","","","","","","","",""
"","","","","","single-stim-button","296","467666","0.0-2.0-56.4-1.4","5a6ff39ef660ae0001a9837e","E1","batch5","","992","tol_toboard","","","","tol_peg_1","992","992","0","[[1,2,0],[0,0],[3]]","5","[[2,3,0],[1,0],[0]]","15","0","","","","","","7","","","","","","","","",""
"","","","","","single-stim-button","297","468574","0.0-2.0-56.5-0.5","5a6ff39ef660ae0001a9837e","E1","batch5","","906","tol_tohand","","","","tol_peg_3","906","906","0","[[1,2,0],[0,0],[0]]","6","[[2,3,0],[1,0],[0]]","15","0","","","","","","7","","","","","","","","",""
"","","","","","single-stim-button","298","469342","0.0-2.0-56.5-1.5","5a6ff39ef660ae0001a9837e","E1","batch5","","766","tol_toboard","","","","tol_peg_2","766","766","0","[[1,2,0],[3,0],[0]]","6","[[2,3,0],[1,0],[0]]","15","0","","","","","","7","","","","","","","","",""
"","","","","","single-stim-button","299","470079","0.0-2.0-56.6-0.6","5a6ff39ef660ae0001a9837e","E1","batch5","","734","tol_tohand","","","","tol_peg_1","734","734","0","[[1,0,0],[3,0],[0]]","7","[[2,3,0],[1,0],[0]]","15","0","","","","","","7","","","","","","","","",""
"","","","","","single-stim-button","300","471234","0.0-2.0-56.6-1.6","5a6ff39ef660ae0001a9837e","E1","batch5","","1153","tol_toboard","","","","tol_peg_2","1153","1153","0","[[1,0,0],[3,2],[0]]","7","[[2,3,0],[1,0],[0]]","15","0","","","","","","7","","","","","","","","",""
"","","","","","single-stim-button","301","471893","0.0-2.0-56.7-0.7","5a6ff39ef660ae0001a9837e","E1","batch5","","658","tol_tohand","","","","tol_peg_1","658","658","0","[[0,0,0],[3,2],[0]]","8","[[2,3,0],[1,0],[0]]","15","0","","","","","","7","","","","","","","","",""
"","","","","","single-stim-button","302","472846","0.0-2.0-56.7-1.7","5a6ff39ef660ae0001a9837e","E1","batch5","","952","tol_toboard","","","","tol_peg_3","952","952","0","[[0,0,0],[3,2],[1]]","8","[[2,3,0],[1,0],[0]]","15","0","","","","","","7","","","","","","","","",""
"","","","","","single-stim-button","303","473655","0.0-2.0-56.8-0.8","5a6ff39ef660ae0001a9837e","E1","batch5","","807","tol_tohand","","","","tol_peg_2","807","807","0","[[0,0,0],[3,0],[1]]","9","[[2,3,0],[1,0],[0]]","15","0","","","","","","7","","","","","","","","",""
"","","","","","single-stim-button","304","474522","0.0-2.0-56.8-1.8","5a6ff39ef660ae0001a9837e","E1","batch5","","864","tol_toboard","","","","tol_peg_1","864","864","0","[[2,0,0],[3,0],[1]]","9","[[2,3,0],[1,0],[0]]","15","0","","","","","","7","","","","","","","","",""
"","","","","","single-stim-button","305","475381","0.0-2.0-56.9-0.9","5a6ff39ef660ae0001a9837e","E1","batch5","","856","tol_tohand","","","","tol_peg_2","856","856","0","[[2,0,0],[0,0],[1]]","10","[[2,3,0],[1,0],[0]]","15","0","","","","","","7","","","","","","","","",""
"","","","","","single-stim-button","306","476218","0.0-2.0-56.9-1.9","5a6ff39ef660ae0001a9837e","E1","batch5","","835","tol_toboard","","","","tol_peg_1","835","835","0","[[2,3,0],[0,0],[1]]","10","[[2,3,0],[1,0],[0]]","15","0","","","","","","7","","","","","","","","",""
"","","","","","single-stim-button","307","477363","0.0-2.0-56.10-0.10","5a6ff39ef660ae0001a9837e","E1","batch5","","1142","tol_tohand","","","","tol_peg_3","1142","1142","0","[[2,3,0],[0,0],[0]]","11","[[2,3,0],[1,0],[0]]","15","0","","","","","","7","","","","","","","","",""
"","","","","","single-stim-button","308","478172","0.0-2.0-56.10-1.10","5a6ff39ef660ae0001a9837e","E1","batch5","","806","tol_toboard","","","","tol_peg_2","806","806","0","[[2,3,0],[1,0],[0]]","11","[[2,3,0],[1,0],[0]]","15","0","","","","","","7","","","","","","","","",""
"","","","","","poldrack-single-stim","309","479181","0.0-2.0-57.0","5a6ff39ef660ae0001a9837e","E1","batch5","","-1","tol_feedback","","","true","","1000","1000","500","","","","","","-1","none","true","7586","17329","","","","","","","","","",""
"","","","","","html-button-response","310","479954","0.0-2.0-58.0","5a6ff39ef660ae0001a9837e","E1","batch5","","770.7000000000698","tol_trial_num","<div class = centerbox><p class = center-block-text>problem <strong>17</strong> out of 25 problems</p></div>","0","","","","","","","","","","","","","","","","","","","","","","","","",""
"","","","","","single-stim-button","311","482353","0.0-2.0-59.0-0.0","5a6ff39ef660ae0001a9837e","E1","batch5","","2395","tol_tohand","","","","tol_peg_1","2395","2395","0","[[1,0,0],[3,0],[0]]","1","[[3,1,0],[2,0],[0]]","16","0","","","","","","5","","","","","","","","",""
"","","","","","single-stim-button","312","486792","0.0-2.0-59.0-1.0","5a6ff39ef660ae0001a9837e","E1","batch5","","4437","tol_toboard","","","","tol_peg_2","4437","4437","0","[[1,0,0],[3,2],[0]]","1","[[3,1,0],[2,0],[0]]","16","0","","","","","","5","","","","","","","","",""
"","","","","","single-stim-button","313","487396","0.0-2.0-59.1-0.1","5a6ff39ef660ae0001a9837e","E1","batch5","","602","tol_tohand","","","","tol_peg_1","602","602","0","[[0,0,0],[3,2],[0]]","2","[[3,1,0],[2,0],[0]]","16","0","","","","","","5","","","","","","","","",""
"","","","","","single-stim-button","314","488426","0.0-2.0-59.1-1.1","5a6ff39ef660ae0001a9837e","E1","batch5","","1027","tol_toboard","","","","tol_peg_3","1027","1027","0","[[0,0,0],[3,2],[1]]","2","[[3,1,0],[2,0],[0]]","16","0","","","","","","5","","","","","","","","",""
"","","","","","single-stim-button","315","489457","0.0-2.0-59.2-0.2","5a6ff39ef660ae0001a9837e","E1","batch5","","1029","tol_tohand","","","","tol_peg_2","1029","1029","0","[[0,0,0],[3,0],[1]]","3","[[3,1,0],[2,0],[0]]","16","0","","","","","","5","","","","","","","","",""
"","","","","","single-stim-button","316","490248","0.0-2.0-59.2-1.2","5a6ff39ef660ae0001a9837e","E1","batch5","","789","tol_toboard","","","","tol_peg_1","789","789","0","[[2,0,0],[3,0],[1]]","3","[[3,1,0],[2,0],[0]]","16","0","","","","","","5","","","","","","","","",""
"","","","","","single-stim-button","317","491239","0.0-2.0-59.3-0.3","5a6ff39ef660ae0001a9837e","E1","batch5","","989","tol_tohand","","","","tol_peg_2","989","989","0","[[2,0,0],[0,0],[1]]","4","[[3,1,0],[2,0],[0]]","16","0","","","","","","5","","","","","","","","",""
"","","","","","single-stim-button","318","492157","0.0-2.0-59.3-1.3","5a6ff39ef660ae0001a9837e","E1","batch5","","915","tol_toboard","","","","tol_peg_1","915","915","0","[[2,3,0],[0,0],[1]]","4","[[3,1,0],[2,0],[0]]","16","0","","","","","","5","","","","","","","","",""
"","","","","","single-stim-button","319","493987","0.0-2.0-59.4-0.4","5a6ff39ef660ae0001a9837e","E1","batch5","","1828","tol_tohand","","","","tol_peg_3","1828","1828","0","[[2,3,0],[0,0],[0]]","5","[[3,1,0],[2,0],[0]]","16","0","","","","","","5","","","","","","","","",""
"","","","","","single-stim-button","320","495141","0.0-2.0-59.4-1.4","5a6ff39ef660ae0001a9837e","E1","batch5","","1151","tol_toboard","","","","tol_peg_2","1151","1151","0","[[2,3,0],[1,0],[0]]","5","[[3,1,0],[2,0],[0]]","16","0","","","","","","5","","","","","","","","",""
"","","","","","single-stim-button","321","496218","0.0-2.0-59.5-0.5","5a6ff39ef660ae0001a9837e","E1","batch5","","1075","tol_tohand","","","","tol_peg_1","1075","1075","0","[[2,0,0],[1,0],[0]]","6","[[3,1,0],[2,0],[0]]","16","0","","","","","","5","","","","","","","","",""
"","","","","","single-stim-button","322","497189","0.0-2.0-59.5-1.5","5a6ff39ef660ae0001a9837e","E1","batch5","","969","tol_toboard","","","","tol_peg_3","969","969","0","[[2,0,0],[1,0],[3]]","6","[[3,1,0],[2,0],[0]]","16","0","","","","","","5","","","","","","","","",""
"","","","","","single-stim-button","323","498108","0.0-2.0-59.6-0.6","5a6ff39ef660ae0001a9837e","E1","batch5","","917","tol_tohand","","","","tol_peg_1","917","917","0","[[0,0,0],[1,0],[3]]","7","[[3,1,0],[2,0],[0]]","16","0","","","","","","5","","","","","","","","",""
"","","","","","single-stim-button","324","500106","0.0-2.0-59.6-1.6","5a6ff39ef660ae0001a9837e","E1","batch5","","1995","tol_toboard","","","","tol_peg_2","1995","1995","0","[[0,0,0],[1,2],[3]]","7","[[3,1,0],[2,0],[0]]","16","0","","","","","","5","","","","","","","","",""
"","","","","","single-stim-button","325","500954","0.0-2.0-59.7-0.7","5a6ff39ef660ae0001a9837e","E1","batch5","","845","tol_tohand","","","","tol_peg_3","845","845","0","[[0,0,0],[1,2],[0]]","8","[[3,1,0],[2,0],[0]]","16","0","","","","","","5","","","","","","","","",""
"","","","","","single-stim-button","326","502385","0.0-2.0-59.7-1.7","5a6ff39ef660ae0001a9837e","E1","batch5","","1428","tol_toboard","","","","tol_peg_1","1428","1428","0","[[3,0,0],[1,2],[0]]","8","[[3,1,0],[2,0],[0]]","16","0","","","","","","5","","","","","","","","",""
"","","","","","single-stim-button","327","503100","0.0-2.0-59.8-0.8","5a6ff39ef660ae0001a9837e","E1","batch5","","713","tol_tohand","","","","tol_peg_2","713","713","0","[[3,0,0],[1,0],[0]]","9","[[3,1,0],[2,0],[0]]","16","0","","","","","","5","","","","","","","","",""
"","","","","","single-stim-button","328","503849","0.0-2.0-59.8-1.8","5a6ff39ef660ae0001a9837e","E1","batch5","","747","tol_toboard","","","","tol_peg_3","747","747","0","[[3,0,0],[1,0],[2]]","9","[[3,1,0],[2,0],[0]]","16","0","","","","","","5","","","","","","","","",""
"","","","","","single-stim-button","329","504728","0.0-2.0-59.9-0.9","5a6ff39ef660ae0001a9837e","E1","batch5","","874","tol_tohand","","","","tol_peg_2","874","874","0","[[3,0,0],[0,0],[2]]","10","[[3,1,0],[2,0],[0]]","16","0","","","","","","5","","","","","","","","",""
"","","","","","single-stim-button","330","505433","0.0-2.0-59.9-1.9","5a6ff39ef660ae0001a9837e","E1","batch5","","702","tol_toboard","","","","tol_peg_1","702","702","0","[[3,1,0],[0,0],[2]]","10","[[3,1,0],[2,0],[0]]","16","0","","","","","","5","","","","","","","","",""
"","","","","","single-stim-button","331","506580","0.0-2.0-59.10-0.10","5a6ff39ef660ae0001a9837e","E1","batch5","","1144","tol_tohand","","","","tol_peg_3","1144","1144","0","[[3,1,0],[0,0],[0]]","11","[[3,1,0],[2,0],[0]]","16","0","","","","","","5","","","","","","","","",""
"","","","","","single-stim-button","332","507707","0.0-2.0-59.10-1.10","5a6ff39ef660ae0001a9837e","E1","batch5","","1124","tol_toboard","","","","tol_peg_2","1124","1124","0","[[3,1,0],[2,0],[0]]","11","[[3,1,0],[2,0],[0]]","16","0","","","","","","5","","","","","","","","",""
"","","","","","poldrack-single-stim","333","508714","0.0-2.0-60.0","5a6ff39ef660ae0001a9837e","E1","batch5","","-1","tol_feedback","","","true","","1000","1000","500","","","","","","-1","none","true","2395","12411","","","","","","","","","",""
"","","","","","html-button-response","334","509518","0.0-2.0-61.0","5a6ff39ef660ae0001a9837e","E1","batch5","","801.7999999999302","tol_trial_num","<div class = centerbox><p class = center-block-text>problem <strong>18</strong> out of 25 problems</p></div>","0","","","","","","","","","","","","","","","","","","","","","","","","",""
"","","","","","single-stim-button","335","512389","0.0-2.0-62.0-0.0","5a6ff39ef660ae0001a9837e","E1","batch5","","2867","tol_tohand","","","","tol_peg_1","2867","2867","0","[[1,0,0],[3,0],[0]]","1","[[3,0,0],[2,0],[1]]","17","0","","","","","","5","","","","","","","","",""
"","","","","","single-stim-button","336","513543","0.0-2.0-62.0-1.0","5a6ff39ef660ae0001a9837e","E1","batch5","","1152","tol_toboard","","","","tol_peg_3","1152","1152","0","[[1,0,0],[3,0],[2]]","1","[[3,0,0],[2,0],[1]]","17","0","","","","","","5","","","","","","","","",""
"","","","","","single-stim-button","337","514502","0.0-2.0-62.1-0.1","5a6ff39ef660ae0001a9837e","E1","batch5","","957","tol_tohand","","","","tol_peg_1","957","957","0","[[0,0,0],[3,0],[2]]","2","[[3,0,0],[2,0],[1]]","17","0","","","","","","5","","","","","","","","",""
"","","","","","single-stim-button","338","518447","0.0-2.0-62.1-1.1","5a6ff39ef660ae0001a9837e","E1","batch5","","3942","tol_toboard","","","","tol_peg_1","3942","3942","0","[[1,0,0],[3,0],[2]]","2","[[3,0,0],[2,0],[1]]","17","0","","","","","","5","","","","","","","","",""
"","","","","","single-stim-button","339","519174","0.0-2.0-62.2-0.2","5a6ff39ef660ae0001a9837e","E1","batch5","","723","tol_tohand","","","","tol_peg_2","723","723","0","[[1,0,0],[0,0],[2]]","3","[[3,0,0],[2,0],[1]]","17","0","","","","","","5","","","","","","","","",""
"","","","","","single-stim-button","340","520141","0.0-2.0-62.2-1.2","5a6ff39ef660ae0001a9837e","E1","batch5","","964","tol_toboard","","","","tol_peg_1","964","964","0","[[1,3,0],[0,0],[2]]","3","[[3,0,0],[2,0],[1]]","17","0","","","","","","5","","","","","","","","",""
"","","","","","single-stim-button","341","521595","0.0-2.0-62.3-0.3","5a6ff39ef660ae0001a9837e","E1","batch5","","1452","tol_tohand","","","","tol_peg_3","1452","1452","0","[[1,3,0],[0,0],[0]]","4","[[3,0,0],[2,0],[1]]","17","0","","","","","","5","","","","","","","","",""
"","","","","","single-stim-button","342","522393","0.0-2.0-62.3-1.3","5a6ff39ef660ae0001a9837e","E1","batch5","","795","tol_toboard","","","","tol_peg_2","795","795","0","[[1,3,0],[2,0],[0]]","4","[[3,0,0],[2,0],[1]]","17","0","","","","","","5","","","","","","","","",""
"","","","","","single-stim-button","343","523260","0.0-2.0-62.4-0.4","5a6ff39ef660ae0001a9837e","E1","batch5","","863","tol_tohand","","","","tol_peg_1","863","863","0","[[1,0,0],[2,0],[0]]","5","[[3,0,0],[2,0],[1]]","17","0","","","","","","5","","","","","","","","",""
"","","","","","single-stim-button","344","524395","0.0-2.0-62.4-1.4","5a6ff39ef660ae0001a9837e","E1","batch5","","1132","tol_toboard","","","","tol_peg_3","1132","1132","0","[[1,0,0],[2,0],[3]]","5","[[3,0,0],[2,0],[1]]","17","0","","","","","","5","","","","","","","","",""
"","","","","","single-stim-button","345","525263","0.0-2.0-62.5-0.5","5a6ff39ef660ae0001a9837e","E1","batch5","","865","tol_tohand","","","","tol_peg_1","865","865","0","[[0,0,0],[2,0],[3]]","6","[[3,0,0],[2,0],[1]]","17","0","","","","","","5","","","","","","","","",""
"","","","","","single-stim-button","346","525978","0.0-2.0-62.5-1.5","5a6ff39ef660ae0001a9837e","E1","batch5","","713","tol_toboard","","","","tol_peg_2","713","713","0","[[0,0,0],[2,1],[3]]","6","[[3,0,0],[2,0],[1]]","17","0","","","","","","5","","","","","","","","",""
"","","","","","single-stim-button","347","526779","0.0-2.0-62.6-0.6","5a6ff39ef660ae0001a9837e","E1","batch5","","799","tol_tohand","","","","tol_peg_3","799","799","0","[[0,0,0],[2,1],[0]]","7","[[3,0,0],[2,0],[1]]","17","0","","","","","","5","","","","","","","","",""
"","","","","","single-stim-button","348","527578","0.0-2.0-62.6-1.6","5a6ff39ef660ae0001a9837e","E1","batch5","","795","tol_toboard","","","","tol_peg_1","795","795","0","[[3,0,0],[2,1],[0]]","7","[[3,0,0],[2,0],[1]]","17","0","","","","","","5","","","","","","","","",""
"","","","","","single-stim-button","349","528284","0.0-2.0-62.7-0.7","5a6ff39ef660ae0001a9837e","E1","batch5","","703","tol_tohand","","","","tol_peg_2","703","703","0","[[3,0,0],[2,0],[0]]","8","[[3,0,0],[2,0],[1]]","17","0","","","","","","5","","","","","","","","",""
"","","","","","single-stim-button","350","529141","0.0-2.0-62.7-1.7","5a6ff39ef660ae0001a9837e","E1","batch5","","855","tol_toboard","","","","tol_peg_3","855","855","0","[[3,0,0],[2,0],[1]]","8","[[3,0,0],[2,0],[1]]","17","0","","","","","","5","","","","","","","","",""
"","","","","","poldrack-single-stim","351","530146","0.0-2.0-63.0","5a6ff39ef660ae0001a9837e","E1","batch5","","-1","tol_feedback","","","true","","1000","1000","500","","","","","","-1","none","true","2867","9229","","","","","","","","","",""
"","","","","","html-button-response","352","530934","0.0-2.0-64.0","5a6ff39ef660ae0001a9837e","E1","batch5","","784.0999999998603","tol_trial_num","<div class = centerbox><p class = center-block-text>problem <strong>19</strong> out of 25 problems</p></div>","0","","","","","","","","","","","","","","","","","","","","","","","","",""
"","","","","","single-stim-button","353","535544","0.0-2.0-65.0-0.0","5a6ff39ef660ae0001a9837e","E1","batch5","","4606","tol_tohand","","","","tol_peg_1","4606","4606","0","[[1,0,0],[3,0],[0]]","1","[[0,0,0],[1,2],[3]]","18","0","","","","","","7","","","","","","","","",""
"","","","","","single-stim-button","354","536864","0.0-2.0-65.0-1.0","5a6ff39ef660ae0001a9837e","E1","batch5","","1317","tol_toboard","","","","tol_peg_3","1317","1317","0","[[1,0,0],[3,0],[2]]","1","[[0,0,0],[1,2],[3]]","18","0","","","","","","7","","","","","","","","",""
"","","","","","single-stim-button","355","537802","0.0-2.0-65.1-0.1","5a6ff39ef660ae0001a9837e","E1","batch5","","936","tol_tohand","","","","tol_peg_1","936","936","0","[[0,0,0],[3,0],[2]]","2","[[0,0,0],[1,2],[3]]","18","0","","","","","","7","","","","","","","","",""
