"success","timeout","failed_images","failed_audio","failed_video","trial_type","trial_index","time_elapsed","internal_node_id","subject_id","study_id","session_id","view_history","rt","task","stimulus","response","correct","mouse_click","stim_duration","block_duration","timing_post_trial","current_position","tol_num_moves_made","tol_target","tol_problem_id","tol_rt","key_press","possible_responses","tol_correct","preplanning","tol_rt_per_trial","tol_min_moves","answer","item","fiar_detect_rt","fiar_detect_correct","total_correct_fiar_detect","post_trial_gap","choices","spm_correct","spm_rt"
"true","false","[]","[]","[]","preload","0","930","0.0-0.0","5a78f57a2a842c0001fc43db","A3","batch1","","","","","","","","","","","","","","","","","","","","","","","","","","","","","",""
"true","","","","","fullscreen","1","14172","0.0-1.0-0.0","5a78f57a2a842c0001fc43db","A3","batch1","","","","","","","","","","","","","","","","","","","","","","","","","","","","","",""
"true","","","","","fullscreen","2","16592","0.0-2.0-0.0","5a78f57a2a842c0001fc43db","A3","batch1","","","","","","","","","","","","","","","","","","","","","","","","","","","","","",""
"","","","","","instructions","3","142116","0.0-2.0-1.0-0.0-0.0","5a78f57a2a842c0001fc43db","A3","batch1","[{""page_index"":0,""viewing_time"":13431.799999952316},{""page_index"":1,""viewing_time"":28197.799999952316},{""page_index"":2,""viewing_time"":2598.7999999523163},{""page_index"":3,""viewing_time"":6121.200000047684},{""page_index"":4,""viewing_time"":4546.400000095367},{""page_index"":5,""viewing_time"":67602.29999995232},{""page_index"":6,""viewing_time"":3022.5999999046326}]","125521.69999980927","tol-instructions","","","","","","","","","","","","","","","","","","","","","","","","","","",""
"","","","","","html-button-response","4","142911","0.0-2.0-1.0-1.0-0.0","5a78f57a2a842c0001fc43db","A3","batch1","","786.0999999046326","tol_enter_quiz","<p class=block-text> Let's answer a few questions <br>","0","","","","","","","","","","","","","","","","","","","","","","","","",""
"","","","","","html-button-response","5","144898","0.0-2.0-1.0-1.0-1.0","5a78f57a2a842c0001fc43db","A3","batch1","","1985.3999998569489","tol_quiz","<p class = block-text>True or False: You can only move the ball on top of a peg. <br></p>","0","true","","","","","","","","","","","","","","","","","","","","","","","",""
"","","","","","html-button-response","6","145778","0.0-2.0-1.0-1.0-2.0","5a78f57a2a842c0001fc43db","A3","batch1","","877.2000000476837","tol_quiz_feedback","<p class = block-text>Correct! You can only move the ball on top of a peg.</p>","0","","","","","","","","","","","","","","","","","","","","","","","","",""
"","","","","","html-button-response","7","148804","0.0-2.0-1.0-1.0-3.0","5a78f57a2a842c0001fc43db","A3","batch1","","3022.399999856949","tol_quiz","<p class = block-text>True or False: You should try to match your board with the target board with fewest moves possible. <br></p>","0","true","","","","","","","","","","","","","","","","","","","","","","","",""
"","","","","","html-button-response","8","149421","0.0-2.0-1.0-1.0-4.0","5a78f57a2a842c0001fc43db","A3","batch1","","615.3999998569489","tol_quiz_feedback","<p class = block-text>Correct! </p>","0","","","","","","","","","","","","","","","","","","","","","","","","",""
"","","","","","html-button-response","9","150456","0.0-2.0-2.0","5a78f57a2a842c0001fc43db","A3","batch1","","1032.2999999523163","","<p class=block-text> Now that you've understood the game, let's practice a few easier examples before we start!<br> <br>","0","","","","","","","","","","","","","","","","","","","","","","","","",""
"","","","","","single-stim-button","10","152621","0.0-2.0-3.0-0.0","5a78f57a2a842c0001fc43db","A3","batch1","","2161","tol_practice","","","","tol_peg_2","2161","2161","0","[[1,2,0],[0,0],[0]]","1","[[1,2,0],[0,0],[3]]","practice","2161","","","","","","","","","","","","","","",""
"","","","","","single-stim-button","11","153569","0.0-2.0-3.0-1.0","5a78f57a2a842c0001fc43db","A3","batch1","","947","tol_practice","","","","tol_peg_3","947","947","0","[[1,2,0],[0,0],[3]]","1","[[1,2,0],[0,0],[3]]","practice","947","","","","","","","","","","","","","","",""
"","","","","","poldrack-single-stim","12","154583","0.0-2.0-4.0","5a78f57a2a842c0001fc43db","A3","batch1","","-1","tol_feedback","","","true","","1000","1000","500","","","","","","-1","none","true","","0","","","","","","","","","",""
"","","","","","single-stim-button","13","157968","0.0-2.0-5.0-0.0","5a78f57a2a842c0001fc43db","A3","batch1","","3384","tol_practice","","","","tol_peg_1","3384","3384","0","[[1,0,0],[3,0],[0]]","2","[[0,0,0],[3,1],[2]]","practice","3384","","","","","","","","","","","","","","",""
"","","","","","single-stim-button","14","159385","0.0-2.0-5.0-1.0","5a78f57a2a842c0001fc43db","A3","batch1","","1416","tol_practice","","","","tol_peg_3","1416","1416","0","[[1,0,0],[3,0],[2]]","2","[[0,0,0],[3,1],[2]]","practice","1416","","","","","","","","","","","","","","",""
"","","","","","single-stim-button","15","160228","0.0-2.0-5.1-0.1","5a78f57a2a842c0001fc43db","A3","batch1","","841","tol_practice","","","","tol_peg_1","841","841","0","[[0,0,0],[3,0],[2]]","3","[[0,0,0],[3,1],[2]]","practice","841","","","","","","","","","","","","","","",""
"","","","","","single-stim-button","16","160842","0.0-2.0-5.1-1.1","5a78f57a2a842c0001fc43db","A3","batch1","","613","tol_practice","","","","tol_peg_2","613","613","0","[[0,0,0],[3,1],[2]]","3","[[0,0,0],[3,1],[2]]","practice","613","","","","","","","","","","","","","","",""
"","","","","","poldrack-single-stim","17","161845","0.0-2.0-6.0","5a78f57a2a842c0001fc43db","A3","batch1","","-1","tol_feedback","","","true","","1000","1000","500","","","","","","-1","none","true","","0","","","","","","","","","",""
"","","","","","single-stim-button","18","165410","0.0-2.0-7.0-0.0","5a78f57a2a842c0001fc43db","A3","batch1","","3564","tol_practice","","","","tol_peg_2","3564","3564","0","[[1,2,0],[0,0],[0]]","4","[[1,0,0],[2,0],[3]]","practice","3564","","","","","","","","","","","","","","",""
"","","","","","single-stim-button","19","166051","0.0-2.0-7.0-1.0","5a78f57a2a842c0001fc43db","A3","batch1","","640","tol_practice","","","","tol_peg_3","640","640","0","[[1,2,0],[0,0],[3]]","4","[[1,0,0],[2,0],[3]]","practice","640","","","","","","","","","","","","","","",""
"","","","","","single-stim-button","20","166681","0.0-2.0-7.1-0.1","5a78f57a2a842c0001fc43db","A3","batch1","","629","tol_practice","","","","tol_peg_1","629","629","0","[[1,0,0],[0,0],[3]]","5","[[1,0,0],[2,0],[3]]","practice","629","","","","","","","","","","","","","","",""
"","","","","","single-stim-button","21","167180","0.0-2.0-7.1-1.1","5a78f57a2a842c0001fc43db","A3","batch1","","499","tol_practice","","","","tol_peg_2","499","499","0","[[1,0,0],[2,0],[3]]","5","[[1,0,0],[2,0],[3]]","practice","499","","","","","","","","","","","","","","",""
"","","","","","poldrack-single-stim","22","168182","0.0-2.0-8.0","5a78f57a2a842c0001fc43db","A3","batch1","","-1","tol_feedback","","","true","","1000","1000","500","","","","","","-1","none","true","","0","","","","","","","","","",""
"","","","","","html-button-response","23","170524","0.0-2.0-9.0","5a78f57a2a842c0001fc43db","A3","batch1","","2340.7999999523163","tol_instruction","<div class = centerbox><p class = center-block-text>Great job! You are done with practice trials<br>You are about to start official trials.<br> <br> Problem <strong>1</strong> out of 25 problems</p></div>","0","","","","","","","","","","","","","","","","","","","","","","","","",""
"","","","","","single-stim-button","24","184561","0.0-2.0-10.0-0.0","5a78f57a2a842c0001fc43db","A3","batch1","","13032","tol_tohand","","","","tol_peg_2","13032","13032","0","[[1,2,0],[0,0],[0]]","1","[[1,3,0],[2,0],[0]]","0","0","","","","","","3","","","","","","","","",""
"","","","","","single-stim-button","25","185028","0.0-2.0-10.0-1.0","5a78f57a2a842c0001fc43db","A3","batch1","","466","tol_toboard","","","","tol_peg_3","466","466","0","[[1,2,0],[0,0],[3]]","1","[[1,3,0],[2,0],[0]]","0","0","","","","","","3","","","","","","","","",""
"","","","","","single-stim-button","26","185722","0.0-2.0-10.1-0.1","5a78f57a2a842c0001fc43db","A3","batch1","","693","tol_tohand","","","","tol_peg_1","693","693","0","[[1,0,0],[0,0],[3]]","2","[[1,3,0],[2,0],[0]]","0","0","","","","","","3","","","","","","","","",""
"","","","","","single-stim-button","27","186182","0.0-2.0-10.1-1.1","5a78f57a2a842c0001fc43db","A3","batch1","","459","tol_toboard","","","","tol_peg_2","459","459","0","[[1,0,0],[2,0],[3]]","2","[[1,3,0],[2,0],[0]]","0","0","","","","","","3","","","","","","","","",""
"","","","","","single-stim-button","28","186634","0.0-2.0-10.2-0.2","5a78f57a2a842c0001fc43db","A3","batch1","","451","tol_tohand","","","","tol_peg_3","451","451","0","[[1,0,0],[2,0],[0]]","3","[[1,3,0],[2,0],[0]]","0","0","","","","","","3","","","","","","","","",""
"","","","","","single-stim-button","29","187297","0.0-2.0-10.2-1.2","5a78f57a2a842c0001fc43db","A3","batch1","","661","tol_toboard","","","","tol_peg_1","661","661","0","[[1,3,0],[2,0],[0]]","3","[[1,3,0],[2,0],[0]]","0","0","","","","","","3","","","","","","","","",""
"","","","","","poldrack-single-stim","30","188299","0.0-2.0-11.0","5a78f57a2a842c0001fc43db","A3","batch1","","-1","tol_feedback","","","true","","1000","1000","500","","","","","","-1","none","true","13032","14176","","","","","","","","","",""
"","","","","","html-button-response","31","189042","0.0-2.0-12.0","5a78f57a2a842c0001fc43db","A3","batch1","","741.5","tol_trial_num","<div class = centerbox><p class = center-block-text>problem <strong>2</strong> out of 25 problems</p></div>","0","","","","","","","","","","","","","","","","","","","","","","","","",""
"","","","","","single-stim-button","32","210683","0.0-2.0-13.0-0.0","5a78f57a2a842c0001fc43db","A3","batch1","","21641","tol_tohand","","","","tol_peg_1","21641","21641","0","[[1,0,0],[3,0],[0]]","1","[[2,1,3],[0,0],[0]]","1","0","","","","","","5","","","","","","","","",""
"","","","","","single-stim-button","33","212234","0.0-2.0-13.0-1.0","5a78f57a2a842c0001fc43db","A3","batch1","","1550","tol_toboard","","","","tol_peg_2","1550","1550","0","[[1,0,0],[3,2],[0]]","1","[[2,1,3],[0,0],[0]]","1","0","","","","","","5","","","","","","","","",""
"","","","","","single-stim-button","34","212679","0.0-2.0-13.1-0.1","5a78f57a2a842c0001fc43db","A3","batch1","","443","tol_tohand","","","","tol_peg_1","443","443","0","[[0,0,0],[3,2],[0]]","2","[[2,1,3],[0,0],[0]]","1","0","","","","","","5","","","","","","","","",""
"","","","","","single-stim-button","35","213217","0.0-2.0-13.1-1.1","5a78f57a2a842c0001fc43db","A3","batch1","","538","tol_toboard","","","","tol_peg_3","538","538","0","[[0,0,0],[3,2],[1]]","2","[[2,1,3],[0,0],[0]]","1","0","","","","","","5","","","","","","","","",""
"","","","","","single-stim-button","36","213795","0.0-2.0-13.2-0.2","5a78f57a2a842c0001fc43db","A3","batch1","","577","tol_tohand","","","","tol_peg_2","577","577","0","[[0,0,0],[3,0],[1]]","3","[[2,1,3],[0,0],[0]]","1","0","","","","","","5","","","","","","","","",""
"","","","","","single-stim-button","37","214215","0.0-2.0-13.2-1.2","5a78f57a2a842c0001fc43db","A3","batch1","","419","tol_toboard","","","","tol_peg_1","419","419","0","[[2,0,0],[3,0],[1]]","3","[[2,1,3],[0,0],[0]]","1","0","","","","","","5","","","","","","","","",""
"","","","","","single-stim-button","38","214691","0.0-2.0-13.3-0.3","5a78f57a2a842c0001fc43db","A3","batch1","","475","tol_tohand","","","","tol_peg_3","475","475","0","[[2,0,0],[3,0],[0]]","4","[[2,1,3],[0,0],[0]]","1","0","","","","","","5","","","","","","","","",""
"","","","","","single-stim-button","39","215135","0.0-2.0-13.3-1.3","5a78f57a2a842c0001fc43db","A3","batch1","","444","tol_toboard","","","","tol_peg_1","444","444","0","[[2,1,0],[3,0],[0]]","4","[[2,1,3],[0,0],[0]]","1","0","","","","","","5","","","","","","","","",""
"","","","","","single-stim-button","40","215557","0.0-2.0-13.4-0.4","5a78f57a2a842c0001fc43db","A3","batch1","","420","tol_tohand","","","","tol_peg_2","420","420","0","[[2,1,0],[0,0],[0]]","5","[[2,1,3],[0,0],[0]]","1","0","","","","","","5","","","","","","","","",""
"","","","","","single-stim-button","41","216008","0.0-2.0-13.4-1.4","5a78f57a2a842c0001fc43db","A3","batch1","","451","tol_toboard","","","","tol_peg_1","451","451","0","[[2,1,3],[0,0],[0]]","5","[[2,1,3],[0,0],[0]]","1","0","","","","","","5","","","","","","","","",""
"","","","","","poldrack-single-stim","42","217020","0.0-2.0-14.0","5a78f57a2a842c0001fc43db","A3","batch1","","-1","tol_feedback","","","true","","1000","1000","500","","","","","","-1","none","true","21641","23556","","","","","","","","","",""
"","","","","","html-button-response","43","217668","0.0-2.0-15.0","5a78f57a2a842c0001fc43db","A3","batch1","","647.5","tol_trial_num","<div class = centerbox><p class = center-block-text>problem <strong>3</strong> out of 25 problems</p></div>","0","","","","","","","","","","","","","","","","","","","","","","","","",""
"","","","","","single-stim-button","44","223939","0.0-2.0-16.0-0.0","5a78f57a2a842c0001fc43db","A3","batch1","","6270","tol_tohand","","","","tol_peg_1","6270","6270","0","[[2,0,0],[0,0],[1]]","1","[[1,2,0],[3,0],[0]]","2","0","","","","","","4","","","","","","","","",""
"","","","","","single-stim-button","45","224657","0.0-2.0-16.0-1.0","5a78f57a2a842c0001fc43db","A3","batch1","","718","tol_toboard","","","","tol_peg_2","718","718","0","[[2,0,0],[3,0],[1]]","1","[[1,2,0],[3,0],[0]]","2","0","","","","","","4","","","","","","","","",""
"","","","","","single-stim-button","46","225122","0.0-2.0-16.1-0.1","5a78f57a2a842c0001fc43db","A3","batch1","","465","tol_tohand","","","","tol_peg_1","465","465","0","[[0,0,0],[3,0],[1]]","2","[[1,2,0],[3,0],[0]]","2","0","","","","","","4","","","","","","","","",""
"","","","","","single-stim-button","47","225779","0.0-2.0-16.1-1.1","5a78f57a2a842c0001fc43db","A3","batch1","","656","tol_toboard","","","","tol_peg_2","656","656","0","[[0,0,0],[3,2],[1]]","2","[[1,2,0],[3,0],[0]]","2","0","","","","","","4","","","","","","","","",""
"","","","","","single-stim-button","48","226168","0.0-2.0-16.2-0.2","5a78f57a2a842c0001fc43db","A3","batch1","","389","tol_tohand","","","","tol_peg_3","389","389","0","[[0,0,0],[3,2],[0]]","3","[[1,2,0],[3,0],[0]]","2","0","","","","","","4","","","","","","","","",""
"","","","","","single-stim-button","49","226518","0.0-2.0-16.2-1.2","5a78f57a2a842c0001fc43db","A3","batch1","","349","tol_toboard","","","","tol_peg_1","349","349","0","[[1,0,0],[3,2],[0]]","3","[[1,2,0],[3,0],[0]]","2","0","","","","","","4","","","","","","","","",""
"","","","","","single-stim-button","50","226870","0.0-2.0-16.3-0.3","5a78f57a2a842c0001fc43db","A3","batch1","","352","tol_tohand","","","","tol_peg_2","352","352","0","[[1,0,0],[3,0],[0]]","4","[[1,2,0],[3,0],[0]]","2","0","","","","","","4","","","","","","","","",""
"","","","","","single-stim-button","51","227196","0.0-2.0-16.3-1.3","5a78f57a2a842c0001fc43db","A3","batch1","","326","tol_toboard","","","","tol_peg_1","326","326","0","[[1,2,0],[3,0],[0]]","4","[[1,2,0],[3,0],[0]]","2","0","","","","","","4","","","","","","","","",""
"","","","","","poldrack-single-stim","52","228197","0.0-2.0-17.0","5a78f57a2a842c0001fc43db","A3","batch1","","-1","tol_feedback","","","true","","1000","1000","500","","","","","","-1","none","true","6270","7476","","","","","","","","","",""
"","","","","","html-button-response","53","228842","0.0-2.0-18.0","5a78f57a2a842c0001fc43db","A3","batch1","","643.6000001430511","tol_trial_num","<div class = centerbox><p class = center-block-text>problem <strong>4</strong> out of 25 problems</p></div>","0","","","","","","","","","","","","","","","","","","","","","","","","",""
"","","","","","single-stim-button","54","232873","0.0-2.0-19.0-0.0","5a78f57a2a842c0001fc43db","A3","batch1","","4029","tol_tohand","","","","tol_peg_2","4029","4029","0","[[3,0,0],[2,0],[0]]","1","[[3,0,0],[1,0],[2]]","3","0","","","","","","3","","","","","","","","",""
"","","","","","single-stim-button","55","233311","0.0-2.0-19.0-1.0","5a78f57a2a842c0001fc43db","A3","batch1","","437","tol_toboard","","","","tol_peg_1","437","437","0","[[3,1,0],[2,0],[0]]","1","[[3,0,0],[1,0],[2]]","3","0","","","","","","3","","","","","","","","",""
"","","","","","single-stim-button","56","233848","0.0-2.0-19.1-0.1","5a78f57a2a842c0001fc43db","A3","batch1","","537","tol_tohand","","","","tol_peg_2","537","537","0","[[3,1,0],[0,0],[0]]","2","[[3,0,0],[1,0],[2]]","3","0","","","","","","3","","","","","","","","",""
"","","","","","single-stim-button","57","234236","0.0-2.0-19.1-1.1","5a78f57a2a842c0001fc43db","A3","batch1","","387","tol_toboard","","","","tol_peg_3","387","387","0","[[3,1,0],[0,0],[2]]","2","[[3,0,0],[1,0],[2]]","3","0","","","","","","3","","","","","","","","",""
"","","","","","single-stim-button","58","234721","0.0-2.0-19.2-0.2","5a78f57a2a842c0001fc43db","A3","batch1","","483","tol_tohand","","","","tol_peg_1","483","483","0","[[3,0,0],[0,0],[2]]","3","[[3,0,0],[1,0],[2]]","3","0","","","","","","3","","","","","","","","",""
"","","","","","single-stim-button","59","235111","0.0-2.0-19.2-1.2","5a78f57a2a842c0001fc43db","A3","batch1","","389","tol_toboard","","","","tol_peg_2","389","389","0","[[3,0,0],[1,0],[2]]","3","[[3,0,0],[1,0],[2]]","3","0","","","","","","3","","","","","","","","",""
"","","","","","poldrack-single-stim","60","236113","0.0-2.0-20.0","5a78f57a2a842c0001fc43db","A3","batch1","","-1","tol_feedback","","","true","","1000","1000","500","","","","","","-1","none","true","4029","5049","","","","","","","","","",""
"","","","","","html-button-response","61","236966","0.0-2.0-21.0","5a78f57a2a842c0001fc43db","A3","batch1","","852.7000000476837","tol_trial_num","<div class = centerbox><p class = center-block-text>problem <strong>5</strong> out of 25 problems</p></div>","0","","","","","","","","","","","","","","","","","","","","","","","","",""
"","","","","","single-stim-button","62","242955","0.0-2.0-22.0-0.0","5a78f57a2a842c0001fc43db","A3","batch1","","5987","tol_tohand","","","","tol_peg_3","5987","5987","0","[[1,0,0],[2,0],[0]]","1","[[0,0,0],[1,2],[3]]","4","0","","","","","","7","","","","","","","","",""
"","","","","","single-stim-button","63","243663","0.0-2.0-22.0-1.0","5a78f57a2a842c0001fc43db","A3","batch1","","707","tol_toboard","","","","tol_peg_1","707","707","0","[[1,3,0],[2,0],[0]]","1","[[0,0,0],[1,2],[3]]","4","0","","","","","","7","","","","","","","","",""
"","","","","","single-stim-button","64","244015","0.0-2.0-22.1-0.1","5a78f57a2a842c0001fc43db","A3","batch1","","352","tol_tohand","","","","tol_peg_2","352","352","0","[[1,3,0],[0,0],[0]]","2","[[0,0,0],[1,2],[3]]","4","0","","","","","","7","","","","","","","","",""
"","","","","","single-stim-button","65","244381","0.0-2.0-22.1-1.1","5a78f57a2a842c0001fc43db","A3","batch1","","366","tol_toboard","","","","tol_peg_3","366","366","0","[[1,3,0],[0,0],[2]]","2","[[0,0,0],[1,2],[3]]","4","0","","","","","","7","","","","","","","","",""
"","","","","","single-stim-button","66","244956","0.0-2.0-22.2-0.2","5a78f57a2a842c0001fc43db","A3","batch1","","574","tol_tohand","","","","tol_peg_1","574","574","0","[[1,0,0],[0,0],[2]]","3","[[0,0,0],[1,2],[3]]","4","0","","","","","","7","","","","","","","","",""
"","","","","","single-stim-button","67","271741","0.0-2.0-22.2-1.2","5a78f57a2a842c0001fc43db","A3","batch1","","26784","tol_toboard","","","","tol_peg_1","26784","26784","0","[[1,3,0],[0,0],[2]]","3","[[0,0,0],[1,2],[3]]","4","0","","","","","","7","","","","","","","","",""
"","","","","","single-stim-button","68","301340","0.0-2.0-22.3-0.3","5a78f57a2a842c0001fc43db","A3","batch1","","29598","tol_tohand","","","","tol_peg_1","29598","29598","0","[[1,0,0],[0,0],[2]]","4","[[0,0,0],[1,2],[3]]","4","0","","","","","","7","","","","","","","","",""
"","","","","","single-stim-button","69","302578","0.0-2.0-22.3-1.3","5a78f57a2a842c0001fc43db","A3","batch1","","1238","tol_toboard","","","","tol_peg_2","1238","1238","0","[[1,0,0],[3,0],[2]]","4","[[0,0,0],[1,2],[3]]","4","0","","","","","","7","","","","","","","","",""
"","","","","","single-stim-button","70","303513","0.0-2.0-22.4-0.4","5a78f57a2a842c0001fc43db","A3","batch1","","934","tol_tohand","","","","tol_peg_1","934","934","0","[[0,0,0],[3,0],[2]]","5","[[0,0,0],[1,2],[3]]","4","0","","","","","","7","","","","","","","","",""
"","","","","","single-stim-button","71","304105","0.0-2.0-22.4-1.4","5a78f57a2a842c0001fc43db","A3","batch1","","590","tol_toboard","","","","tol_peg_2","590","590","0","[[0,0,0],[3,1],[2]]","5","[[0,0,0],[1,2],[3]]","4","0","","","","","","7","","","","","","","","",""
"","","","","","single-stim-button","72","304618","0.0-2.0-22.5-0.5","5a78f57a2a842c0001fc43db","A3","batch1","","513","tol_tohand","","","","tol_peg_3","513","513","0","[[0,0,0],[3,1],[0]]","6","[[0,0,0],[1,2],[3]]","4","0","","","","","","7","","","","","","","","",""
"","","","","","single-stim-button","73","305151","0.0-2.0-22.5-1.5","5a78f57a2a842c0001fc43db","A3","batch1","","531","tol_toboard","","","","tol_peg_1","531","531","0","[[2,0,0],[3,1],[0]]","6","[[0,0,0],[1,2],[3]]","4","0","","","","","","7","","","","","","","","",""
"","","","","","single-stim-button","74","306140","0.0-2.0-22.6-0.6","5a78f57a2a842c0001fc43db","A3","batch1","","989","tol_tohand","","","","tol_peg_2","989","989","0","[[2,0,0],[3,0],[0]]","7","[[0,0,0],[1,2],[3]]","4","0","","","","","","7","","","","","","","","",""
"","","","","","single-stim-button","75","306687","0.0-2.0-22.6-1.6","5a78f57a2a842c0001fc43db","A3","batch1","","546","tol_toboard","","","","tol_peg_1","546","546","0","[[2,1,0],[3,0],[0]]","7","[[0,0,0],[1,2],[3]]","4","0","","","","","","7","","","","","","","","",""
"","","","","","single-stim-button","76","307140","0.0-2.0-22.7-0.7","5a78f57a2a842c0001fc43db","A3","batch1","","451","tol_tohand","","","","tol_peg_2","451","451","0","[[2,1,0],[0,0],[0]]","8","[[0,0,0],[1,2],[3]]","4","0","","","","","","7","","","","","","","","",""
"","","","","","single-stim-button","77","307621","0.0-2.0-22.7-1.7","5a78f57a2a842c0001fc43db","A3","batch1","","480","tol_toboard","","","","tol_peg_3","480","480","0","[[2,1,0],[0,0],[3]]","8","[[0,0,0],[1,2],[3]]","4","0","","","","","","7","","","","","","","","",""
"","","","","","single-stim-button","78","308455","0.0-2.0-22.8-0.8","5a78f57a2a842c0001fc43db","A3","batch1","","834","tol_tohand","","","","tol_peg_1","834","834","0","[[2,0,0],[0,0],[3]]","9","[[0,0,0],[1,2],[3]]","4","0","","","","","","7","","","","","","","","",""
"","","","","","single-stim-button","79","308971","0.0-2.0-22.8-1.8","5a78f57a2a842c0001fc43db","A3","batch1","","515","tol_toboard","","","","tol_peg_2","515","515","0","[[2,0,0],[1,0],[3]]","9","[[0,0,0],[1,2],[3]]","4","0","","","","","","7","","","","","","","","",""
"","","","","","single-stim-button","80","309423","0.0-2.0-22.9-0.9","5a78f57a2a842c0001fc43db","A3","batch1","","452","tol_tohand","","","","tol_peg_1","452","452","0","[[0,0,0],[1,0],[3]]","10","[[0,0,0],[1,2],[3]]","4","0","","","","","","7","","","","","","","","",""
"","","","","","single-stim-button","81","309819","0.0-2.0-22.9-1.9","5a78f57a2a842c0001fc43db","A3","batch1","","396","tol_toboard","","","","tol_peg_2","396","396","0","[[0,0,0],[1,2],[3]]","10","[[0,0,0],[1,2],[3]]","4","0","","","","","","7","","","","","","","","",""
"","","","","","poldrack-single-stim","82","310828","0.0-2.0-23.0","5a78f57a2a842c0001fc43db","A3","batch1","","-1","tol_feedback","","","true","","1000","1000","500","","","","","","-1","none","true","5987","40684","","","","","","","","","",""
"","","","","","html-button-response","83","311596","0.0-2.0-24.0","5a78f57a2a842c0001fc43db","A3","batch1","","767.6000001430511","tol_trial_num","<div class = centerbox><p class = center-block-text>problem <strong>6</strong> out of 25 problems</p></div>","0","","","","","","","","","","","","","","","","","","","","","","","","",""
"","","","","","single-stim-button","84","333040","0.0-2.0-25.0-0.0","5a78f57a2a842c0001fc43db","A3","batch1","","21442","tol_tohand","","","","tol_peg_2","21442","21442","0","[[0,0,0],[1,0],[3]]","1","[[1,0,0],[2,3],[0]]","5","0","","","","","","6","","","","","","","","",""
"","","","","","single-stim-button","85","334731","0.0-2.0-25.0-1.0","5a78f57a2a842c0001fc43db","A3","batch1","","1691","tol_toboard","","","","tol_peg_2","1691","1691","0","[[0,0,0],[1,2],[3]]","1","[[1,0,0],[2,3],[0]]","5","0","","","","","","6","","","","","","","","",""
"","","","","","single-stim-button","86","337661","0.0-2.0-25.1-0.1","5a78f57a2a842c0001fc43db","A3","batch1","","2930","tol_tohand","","","","tol_peg_3","2930","2930","0","[[0,0,0],[1,2],[0]]","2","[[1,0,0],[2,3],[0]]","5","0","","","","","","6","","","","","","","","",""
"","","","","","single-stim-button","87","338255","0.0-2.0-25.1-1.1","5a78f57a2a842c0001fc43db","A3","batch1","","592","tol_toboard","","","","tol_peg_1","592","592","0","[[3,0,0],[1,2],[0]]","2","[[1,0,0],[2,3],[0]]","5","0","","","","","","6","","","","","","","","",""
"","","","","","single-stim-button","88","338683","0.0-2.0-25.2-0.2","5a78f57a2a842c0001fc43db","A3","batch1","","428","tol_tohand","","","","tol_peg_2","428","428","0","[[3,0,0],[1,0],[0]]","3","[[1,0,0],[2,3],[0]]","5","0","","","","","","6","","","","","","","","",""
"","","","","","single-stim-button","89","341349","0.0-2.0-25.2-1.2","5a78f57a2a842c0001fc43db","A3","batch1","","2665","tol_toboard","","","","tol_peg_3","2665","2665","0","[[3,0,0],[1,0],[2]]","3","[[1,0,0],[2,3],[0]]","5","0","","","","","","6","","","","","","","","",""
"","","","","","single-stim-button","90","341863","0.0-2.0-25.3-0.3","5a78f57a2a842c0001fc43db","A3","batch1","","513","tol_tohand","","","","tol_peg_2","513","513","0","[[3,0,0],[0,0],[2]]","4","[[1,0,0],[2,3],[0]]","5","0","","","","","","6","","","","","","","","",""
"","","","","","single-stim-button","91","342503","0.0-2.0-25.3-1.3","5a78f57a2a842c0001fc43db","A3","batch1","","640","tol_toboard","","","","tol_peg_1","640","640","0","[[3,1,0],[0,0],[2]]","4","[[1,0,0],[2,3],[0]]","5","0","","","","","","6","","","","","","","","",""
"","","","","","single-stim-button","92","343025","0.0-2.0-25.4-0.4","5a78f57a2a842c0001fc43db","A3","batch1","","522","tol_tohand","","","","tol_peg_3","522","522","0","[[3,1,0],[0,0],[0]]","5","[[1,0,0],[2,3],[0]]","5","0","","","","","","6","","","","","","","","",""
"","","","","","single-stim-button","93","343485","0.0-2.0-25.4-1.4","5a78f57a2a842c0001fc43db","A3","batch1","","460","tol_toboard","","","","tol_peg_2","460","460","0","[[3,1,0],[2,0],[0]]","5","[[1,0,0],[2,3],[0]]","5","0","","","","","","6","","","","","","","","",""
"","","","","","single-stim-button","94","344023","0.0-2.0-25.5-0.5","5a78f57a2a842c0001fc43db","A3","batch1","","537","tol_tohand","","","","tol_peg_1","537","537","0","[[3,0,0],[2,0],[0]]","6","[[1,0,0],[2,3],[0]]","5","0","","","","","","6","","","","","","","","",""
"","","","","","single-stim-button","95","345801","0.0-2.0-25.5-1.5","5a78f57a2a842c0001fc43db","A3","batch1","","1778","tol_toboard","","","","tol_peg_3","1778","1778","0","[[3,0,0],[2,0],[1]]","6","[[1,0,0],[2,3],[0]]","5","0","","","","","","6","","","","","","","","",""
"","","","","","single-stim-button","96","346347","0.0-2.0-25.6-0.6","5a78f57a2a842c0001fc43db","A3","batch1","","544","tol_tohand","","","","tol_peg_1","544","544","0","[[0,0,0],[2,0],[1]]","7","[[1,0,0],[2,3],[0]]","5","0","","","","","","6","","","","","","","","",""
"","","","","","single-stim-button","97","346673","0.0-2.0-25.6-1.6","5a78f57a2a842c0001fc43db","A3","batch1","","325","tol_toboard","","","","tol_peg_2","325","325","0","[[0,0,0],[2,3],[1]]","7","[[1,0,0],[2,3],[0]]","5","0","","","","","","6","","","","","","","","",""
"","","","","","single-stim-button","98","347080","0.0-2.0-25.7-0.7","5a78f57a2a842c0001fc43db","A3","batch1","","406","tol_tohand","","","","tol_peg_3","406","406","0","[[0,0,0],[2,3],[0]]","8","[[1,0,0],[2,3],[0]]","5","0","","","","","","6","","","","","","","","",""
"","","","","","single-stim-button","99","347563","0.0-2.0-25.7-1.7","5a78f57a2a842c0001fc43db","A3","batch1","","482","tol_toboard","","","","tol_peg_1","482","482","0","[[1,0,0],[2,3],[0]]","8","[[1,0,0],[2,3],[0]]","5","0","","","","","","6","","","","","","","","",""
"","","","","","poldrack-single-stim","100","348565","0.0-2.0-26.0","5a78f57a2a842c0001fc43db","A3","batch1","","-1","tol_feedback","","","true","","1000","1000","500","","","","","","-1","none","true","21442","27322","","","","","","","","","",""
"","","","","","html-button-response","101","349216","0.0-2.0-27.0","5a78f57a2a842c0001fc43db","A3","batch1","","650.5","tol_trial_num","<div class = centerbox><p class = center-block-text>problem <strong>7</strong> out of 25 problems</p></div>","0","","","","","","","","","","","","","","","","","","","","","","","","",""
"","","","","","single-stim-button","102","359179","0.0-2.0-28.0-0.0","5a78f57a2a842c0001fc43db","A3","batch1","","9962","tol_tohand","","","","tol_peg_3","9962","9962","0","[[2,1,0],[0,0],[0]]","1","[[1,2,0],[3,0],[0]]","6","0","","","","","","5","","","","","","","","",""
"","","","","","single-stim-button","103","359680","0.0-2.0-28.0-1.0","5a78f57a2a842c0001fc43db","A3","batch1","","500","tol_toboard","","","","tol_peg_2","500","500","0","[[2,1,0],[3,0],[0]]","1","[[1,2,0],[3,0],[0]]","6","0","","","","","","5","","","","","","","","",""
"","","","","","single-stim-button","104","361495","0.0-2.0-28.1-0.1","5a78f57a2a842c0001fc43db","A3","batch1","","1815","tol_tohand","","","","tol_peg_1","1815","1815","0","[[2,0,0],[3,0],[0]]","2","[[1,2,0],[3,0],[0]]","6","0","","","","","","5","","","","","","","","",""
"","","","","","single-stim-button","105","361931","0.0-2.0-28.1-1.1","5a78f57a2a842c0001fc43db","A3","batch1","","435","tol_toboard","","","","tol_peg_2","435","435","0","[[2,0,0],[3,1],[0]]","2","[[1,2,0],[3,0],[0]]","6","0","","","","","","5","","","","","","","","",""
"","","","","","single-stim-button","106","362751","0.0-2.0-28.2-0.2","5a78f57a2a842c0001fc43db","A3","batch1","","819","tol_tohand","","","","tol_peg_1","819","819","0","[[0,0,0],[3,1],[0]]","3","[[1,2,0],[3,0],[0]]","6","0","","","","","","5","","","","","","","","",""
"","","","","","single-stim-button","107","363545","0.0-2.0-28.2-1.2","5a78f57a2a842c0001fc43db","A3","batch1","","794","tol_toboard","","","","tol_peg_3","794","794","0","[[0,0,0],[3,1],[2]]","3","[[1,2,0],[3,0],[0]]","6","0","","","","","","5","","","","","","","","",""
"","","","","","single-stim-button","108","364145","0.0-2.0-28.3-0.3","5a78f57a2a842c0001fc43db","A3","batch1","","599","tol_tohand","","","","tol_peg_2","599","599","0","[[0,0,0],[3,0],[2]]","4","[[1,2,0],[3,0],[0]]","6","0","","","","","","5","","","","","","","","",""
"","","","","","single-stim-button","109","364552","0.0-2.0-28.3-1.3","5a78f57a2a842c0001fc43db","A3","batch1","","405","tol_toboard","","","","tol_peg_1","405","405","0","[[1,0,0],[3,0],[2]]","4","[[1,2,0],[3,0],[0]]","6","0","","","","","","5","","","","","","","","",""
"","","","","","single-stim-button","110","364966","0.0-2.0-28.4-0.4","5a78f57a2a842c0001fc43db","A3","batch1","","413","tol_tohand","","","","tol_peg_3","413","413","0","[[1,0,0],[3,0],[0]]","5","[[1,2,0],[3,0],[0]]","6","0","","","","","","5","","","","","","","","",""
"","","","","","single-stim-button","111","365401","0.0-2.0-28.4-1.4","5a78f57a2a842c0001fc43db","A3","batch1","","434","tol_toboard","","","","tol_peg_1","434","434","0","[[1,2,0],[3,0],[0]]","5","[[1,2,0],[3,0],[0]]","6","0","","","","","","5","","","","","","","","",""
"","","","","","poldrack-single-stim","112","366403","0.0-2.0-29.0","5a78f57a2a842c0001fc43db","A3","batch1","","-1","tol_feedback","","","true","","1000","1000","500","","","","","","-1","none","true","9962","13608","","","","","","","","","",""
"","","","","","html-button-response","113","367124","0.0-2.0-30.0","5a78f57a2a842c0001fc43db","A3","batch1","","720","tol_trial_num","<div class = centerbox><p class = center-block-text>problem <strong>8</strong> out of 25 problems</p></div>","0","","","","","","","","","","","","","","","","","","","","","","","","",""
"","","","","","single-stim-button","114","372512","0.0-2.0-31.0-0.0","5a78f57a2a842c0001fc43db","A3","batch1","","5387","tol_tohand","","","","tol_peg_3","5387","5387","0","[[0,0,0],[2,3],[0]]","1","[[1,2,0],[3,0],[0]]","7","0","","","","","","4","","","","","","","","",""
"","","","","","single-stim-button","115","373033","0.0-2.0-31.0-1.0","5a78f57a2a842c0001fc43db","A3","batch1","","520","tol_toboard","","","","tol_peg_1","520","520","0","[[1,0,0],[2,3],[0]]","1","[[1,2,0],[3,0],[0]]","7","0","","","","","","4","","","","","","","","",""
"","","","","","single-stim-button","116","373773","0.0-2.0-31.1-0.1","5a78f57a2a842c0001fc43db","A3","batch1","","740","tol_tohand","","","","tol_peg_2","740","740","0","[[1,0,0],[2,0],[0]]","2","[[1,2,0],[3,0],[0]]","7","0","","","","","","4","","","","","","","","",""
"","","","","","single-stim-button","117","374319","0.0-2.0-31.1-1.1","5a78f57a2a842c0001fc43db","A3","batch1","","545","tol_toboard","","","","tol_peg_3","545","545","0","[[1,0,0],[2,0],[3]]","2","[[1,2,0],[3,0],[0]]","7","0","","","","","","4","","","","","","","","",""
"","","","","","single-stim-button","118","374726","0.0-2.0-31.2-0.2","5a78f57a2a842c0001fc43db","A3","batch1","","405","tol_tohand","","","","tol_peg_2","405","405","0","[[1,0,0],[0,0],[3]]","3","[[1,2,0],[3,0],[0]]","7","0","","","","","","4","","","","","","","","",""
"","","","","","single-stim-button","119","375199","0.0-2.0-31.2-1.2","5a78f57a2a842c0001fc43db","A3","batch1","","472","tol_toboard","","","","tol_peg_1","472","472","0","[[1,2,0],[0,0],[3]]","3","[[1,2,0],[3,0],[0]]","7","0","","","","","","4","","","","","","","","",""
"","","","","","single-stim-button","120","375715","0.0-2.0-31.3-0.3","5a78f57a2a842c0001fc43db","A3","batch1","","516","tol_tohand","","","","tol_peg_3","516","516","0","[[1,2,0],[0,0],[0]]","4","[[1,2,0],[3,0],[0]]","7","0","","","","","","4","","","","","","","","",""
"","","","","","single-stim-button","121","376048","0.0-2.0-31.3-1.3","5a78f57a2a842c0001fc43db","A3","batch1","","333","tol_toboard","","","","tol_peg_2","333","333","0","[[1,2,0],[3,0],[0]]","4","[[1,2,0],[3,0],[0]]","7","0","","","","","","4","","","","","","","","",""
"","","","","","poldrack-single-stim","122","377051","0.0-2.0-32.0","5a78f57a2a842c0001fc43db","A3","batch1","","-1","tol_feedback","","","true","","1000","1000","500","","","","","","-1","none","true","5387","7048","","","","","","","","","",""
"","","","","","html-button-response","123","377709","0.0-2.0-33.0","5a78f57a2a842c0001fc43db","A3","batch1","","657.5","tol_trial_num","<div class = centerbox><p class = center-block-text>problem <strong>9</strong> out of 25 problems</p></div>","0","","","","","","","","","","","","","","","","","","","","","","","","",""
"","","","","","single-stim-button","124","389551","0.0-2.0-34.0-0.0","5a78f57a2a842c0001fc43db","A3","batch1","","11841","tol_tohand","","","","tol_peg_3","11841","11841","0","[[3,2,0],[0,0],[0]]","1","[[2,1,0],[3,0],[0]]","8","0","","","","","","6","","","","","","","","",""
"","","","","","single-stim-button","125","390049","0.0-2.0-34.0-1.0","5a78f57a2a842c0001fc43db","A3","batch1","","497","tol_toboard","","","","tol_peg_2","497","497","0","[[3,2,0],[1,0],[0]]","1","[[2,1,0],[3,0],[0]]","8","0","","","","","","6","","","","","","","","",""
"","","","","","single-stim-button","126","391100","0.0-2.0-34.1-0.1","5a78f57a2a842c0001fc43db","A3","batch1","","1050","tol_tohand","","","","tol_peg_1","1050","1050","0","[[3,0,0],[1,0],[0]]","2","[[2,1,0],[3,0],[0]]","8","0","","","","","","6","","","","","","","","",""
"","","","","","single-stim-button","127","391617","0.0-2.0-34.1-1.1","5a78f57a2a842c0001fc43db","A3","batch1","","515","tol_toboard","","","","tol_peg_2","515","515","0","[[3,0,0],[1,2],[0]]","2","[[2,1,0],[3,0],[0]]","8","0","","","","","","6","","","","","","","","",""
"","","","","","single-stim-button","128","392045","0.0-2.0-34.2-0.2","5a78f57a2a842c0001fc43db","A3","batch1","","427","tol_tohand","","","","tol_peg_1","427","427","0","[[0,0,0],[1,2],[0]]","3","[[2,1,0],[3,0],[0]]","8","0","","","","","","6","","","","","","","","",""
"","","","","","single-stim-button","129","392527","0.0-2.0-34.2-1.2","5a78f57a2a842c0001fc43db","A3","batch1","","481","tol_toboard","","","","tol_peg_3","481","481","0","[[0,0,0],[1,2],[3]]","3","[[2,1,0],[3,0],[0]]","8","0","","","","","","6","","","","","","","","",""
"","","","","","single-stim-button","130","392950","0.0-2.0-34.3-0.3","5a78f57a2a842c0001fc43db","A3","batch1","","422","tol_tohand","","","","tol_peg_2","422","422","0","[[0,0,0],[1,0],[3]]","4","[[2,1,0],[3,0],[0]]","8","0","","","","","","6","","","","","","","","",""
"","","","","","single-stim-button","131","393448","0.0-2.0-34.3-1.3","5a78f57a2a842c0001fc43db","A3","batch1","","498","tol_toboard","","","","tol_peg_1","498","498","0","[[2,0,0],[1,0],[3]]","4","[[2,1,0],[3,0],[0]]","8","0","","","","","","6","","","","","","","","",""
"","","","","","single-stim-button","132","393861","0.0-2.0-34.4-0.4","5a78f57a2a842c0001fc43db","A3","batch1","","411","tol_tohand","","","","tol_peg_2","411","411","0","[[2,0,0],[0,0],[3]]","5","[[2,1,0],[3,0],[0]]","8","0","","","","","","6","","","","","","","","",""
"","","","","","single-stim-button","133","394187","0.0-2.0-34.4-1.4","5a78f57a2a842c0001fc43db","A3","batch1","","325","tol_toboard","","","","tol_peg_1","325","325","0","[[2,1,0],[0,0],[3]]","5","[[2,1,0],[3,0],[0]]","8","0","","","","","","6","","","","","","","","",""
"","","","","","single-stim-button","134","394780","0.0-2.0-34.5-0.5","5a78f57a2a842c0001fc43db","A3","batch1","","593","tol_tohand","","","","tol_peg_3","593","593","0","[[2,1,0],[0,0],[0]]","6","[[2,1,0],[3,0],[0]]","8","0","","","","","","6","","","","","","","","",""
"","","","","","single-stim-button","135","395085","0.0-2.0-34.5-1.5","5a78f57a2a842c0001fc43db","A3","batch1","","304","tol_toboard","","","","tol_peg_2","304","304","0","[[2,1,0],[3,0],[0]]","6","[[2,1,0],[3,0],[0]]","8","0","","","","","","6","","","","","","","","",""
"","","","","","poldrack-single-stim","136","396091","0.0-2.0-35.0","5a78f57a2a842c0001fc43db","A3","batch1","","-1","tol_feedback","","","true","","1000","1000","500","","","","","","-1","none","true","11841","14744","","","","","","","","","",""
"","","","","","html-button-response","137","396853","0.0-2.0-36.0","5a78f57a2a842c0001fc43db","A3","batch1","","760.4000000953674","tol_trial_num","<div class = centerbox><p class = center-block-text>problem <strong>10</strong> out of 25 problems</p></div>","0","","","","","","","","","","","","","","","","","","","","","","","","",""
"","","","","","single-stim-button","138","400369","0.0-2.0-37.0-0.0","5a78f57a2a842c0001fc43db","A3","batch1","","3516","tol_tohand","","","","tol_peg_2","3516","3516","0","[[3,0,0],[0,0],[2]]","1","[[3,0,0],[2,1],[0]]","9","0","","","","","","3","","","","","","","","",""
"","","","","","single-stim-button","139","400893","0.0-2.0-37.0-1.0","5a78f57a2a842c0001fc43db","A3","batch1","","523","tol_toboard","","","","tol_peg_1","523","523","0","[[3,1,0],[0,0],[2]]","1","[[3,0,0],[2,1],[0]]","9","0","","","","","","3","","","","","","","","",""
"","","","","","single-stim-button","140","401288","0.0-2.0-37.1-0.1","5a78f57a2a842c0001fc43db","A3","batch1","","395","tol_tohand","","","","tol_peg_3","395","395","0","[[3,1,0],[0,0],[0]]","2","[[3,0,0],[2,1],[0]]","9","0","","","","","","3","","","","","","","","",""
"","","","","","single-stim-button","141","401649","0.0-2.0-37.1-1.1","5a78f57a2a842c0001fc43db","A3","batch1","","361","tol_toboard","","","","tol_peg_2","361","361","0","[[3,1,0],[2,0],[0]]","2","[[3,0,0],[2,1],[0]]","9","0","","","","","","3","","","","","","","","",""
"","","","","","single-stim-button","142","402093","0.0-2.0-37.2-0.2","5a78f57a2a842c0001fc43db","A3","batch1","","444","tol_tohand","","","","tol_peg_1","444","444","0","[[3,0,0],[2,0],[0]]","3","[[3,0,0],[2,1],[0]]","9","0","","","","","","3","","","","","","","","",""
"","","","","","single-stim-button","143","402410","0.0-2.0-37.2-1.2","5a78f57a2a842c0001fc43db","A3","batch1","","316","tol_toboard","","","","tol_peg_2","316","316","0","[[3,0,0],[2,1],[0]]","3","[[3,0,0],[2,1],[0]]","9","0","","","","","","3","","","","","","","","",""
"","","","","","poldrack-single-stim","144","403413","0.0-2.0-38.0","5a78f57a2a842c0001fc43db","A3","batch1","","-1","tol_feedback","","","true","","1000","1000","500","","","","","","-1","none","true","3516","4355","","","","","","","","","",""
"","","","","","html-button-response","145","404197","0.0-2.0-39.0","5a78f57a2a842c0001fc43db","A3","batch1","","782.5999999046326","tol_trial_num","<div class = centerbox><p class = center-block-text>problem <strong>11</strong> out of 25 problems</p></div>","0","","","","","","","","","","","","","","","","","","","","","","","","",""
"","","","","","single-stim-button","146","407807","0.0-2.0-40.0-0.0","5a78f57a2a842c0001fc43db","A3","batch1","","3610","tol_tohand","","","","tol_peg_2","3610","3610","0","[[1,2,0],[0,0],[0]]","1","[[2,0,0],[1,3],[0]]","10","0","","","","","","6","","","","","","","","",""
"","","","","","single-stim-button","147","408227","0.0-2.0-40.0-1.0","5a78f57a2a842c0001fc43db","A3","batch1","","418","tol_toboard","","","","tol_peg_3","418","418","0","[[1,2,0],[0,0],[3]]","1","[[2,0,0],[1,3],[0]]","10","0","","","","","","6","","","","","","","","",""
"","","","","","single-stim-button","148","442719","0.0-2.0-40.1-0.1","5a78f57a2a842c0001fc43db","A3","batch1","","34491","tol_tohand","","","","tol_peg_3","34491","34491","0","[[1,2,0],[0,0],[0]]","2","[[2,0,0],[1,3],[0]]","10","0","","","","","","6","","","","","","","","",""
"","","","","","single-stim-button","149","443359","0.0-2.0-40.1-1.1","5a78f57a2a842c0001fc43db","A3","batch1","","639","tol_toboard","","","","tol_peg_2","639","639","0","[[1,2,0],[3,0],[0]]","2","[[2,0,0],[1,3],[0]]","10","0","","","","","","6","","","","","","","","",""
"","","","","","single-stim-button","150","444722","0.0-2.0-40.2-0.2","5a78f57a2a842c0001fc43db","A3","batch1","","1363","tol_tohand","","","","tol_peg_1","1363","1363","0","[[1,0,0],[3,0],[0]]","3","[[2,0,0],[1,3],[0]]","10","0","","","","","","6","","","","","","","","",""
"","","","","","single-stim-button","151","447106","0.0-2.0-40.2-1.2","5a78f57a2a842c0001fc43db","A3","batch1","","2383","tol_toboard","","","","tol_peg_3","2383","2383","0","[[1,0,0],[3,0],[2]]","3","[[2,0,0],[1,3],[0]]","10","0","","","","","","6","","","","","","","","",""
"","","","","","single-stim-button","152","447700","0.0-2.0-40.3-0.3","5a78f57a2a842c0001fc43db","A3","batch1","","593","tol_tohand","","","","tol_peg_1","593","593","0","[[0,0,0],[3,0],[2]]","4","[[2,0,0],[1,3],[0]]","10","0","","","","","","6","","","","","","","","",""
"","","","","","single-stim-button","153","448112","0.0-2.0-40.3-1.3","5a78f57a2a842c0001fc43db","A3","batch1","","411","tol_toboard","","","","tol_peg_2","411","411","0","[[0,0,0],[3,1],[2]]","4","[[2,0,0],[1,3],[0]]","10","0","","","","","","6","","","","","","","","",""
"","","","","","single-stim-button","154","448642","0.0-2.0-40.4-0.4","5a78f57a2a842c0001fc43db","A3","batch1","","530","tol_tohand","","","","tol_peg_3","530","530","0","[[0,0,0],[3,1],[0]]","5","[[2,0,0],[1,3],[0]]","10","0","","","","","","6","","","","","","","","",""
"","","","","","single-stim-button","155","449094","0.0-2.0-40.4-1.4","5a78f57a2a842c0001fc43db","A3","batch1","","451","tol_toboard","","","","tol_peg_1","451","451","0","[[2,0,0],[3,1],[0]]","5","[[2,0,0],[1,3],[0]]","10","0","","","","","","6","","","","","","","","",""
"","","","","","single-stim-button","156","449555","0.0-2.0-40.5-0.5","5a78f57a2a842c0001fc43db","A3","batch1","","459","tol_tohand","","","","tol_peg_2","459","459","0","[[2,0,0],[3,0],[0]]","6","[[2,0,0],[1,3],[0]]","10","0","","","","","","6","","","","","","","","",""
"","","","","","single-stim-button","157","450100","0.0-2.0-40.5-1.5","5a78f57a2a842c0001fc43db","A3","batch1","","545","tol_toboard","","","","tol_peg_3","545","545","0","[[2,0,0],[3,0],[1]]","6","[[2,0,0],[1,3],[0]]","10","0","","","","","","6","","","","","","","","",""
"","","","","","single-stim-button","158","450709","0.0-2.0-40.6-0.6","5a78f57a2a842c0001fc43db","A3","batch1","","609","tol_tohand","","","","tol_peg_2","609","609","0","[[2,0,0],[0,0],[1]]","7","[[2,0,0],[1,3],[0]]","10","0","","","","","","6","","","","","","","","",""
"","","","","","single-stim-button","159","451082","0.0-2.0-40.6-1.6","5a78f57a2a842c0001fc43db","A3","batch1","","372","tol_toboard","","","","tol_peg_1","372","372","0","[[2,3,0],[0,0],[1]]","7","[[2,0,0],[1,3],[0]]","10","0","","","","","","6","","","","","","","","",""
"","","","","","single-stim-button","160","451542","0.0-2.0-40.7-0.7","5a78f57a2a842c0001fc43db","A3","batch1","","460","tol_tohand","","","","tol_peg_3","460","460","0","[[2,3,0],[0,0],[0]]","8","[[2,0,0],[1,3],[0]]","10","0","","","","","","6","","","","","","","","",""
"","","","","","single-stim-button","161","451870","0.0-2.0-40.7-1.7","5a78f57a2a842c0001fc43db","A3","batch1","","327","tol_toboard","","","","tol_peg_2","327","327","0","[[2,3,0],[1,0],[0]]","8","[[2,0,0],[1,3],[0]]","10","0","","","","","","6","","","","","","","","",""
"","","","","","single-stim-button","162","452282","0.0-2.0-40.8-0.8","5a78f57a2a842c0001fc43db","A3","batch1","","412","tol_tohand","","","","tol_peg_1","412","412","0","[[2,0,0],[1,0],[0]]","9","[[2,0,0],[1,3],[0]]","10","0","","","","","","6","","","","","","","","",""
"","","","","","single-stim-button","163","452680","0.0-2.0-40.8-1.8","5a78f57a2a842c0001fc43db","A3","batch1","","397","tol_toboard","","","","tol_peg_2","397","397","0","[[2,0,0],[1,3],[0]]","9","[[2,0,0],[1,3],[0]]","10","0","","","","","","6","","","","","","","","",""
"","","","","","poldrack-single-stim","164","453682","0.0-2.0-41.0","5a78f57a2a842c0001fc43db","A3","batch1","","-1","tol_feedback","","","true","","1000","1000","500","","","","","","-1","none","true","3610","42527","","","","","","","","","",""
"","","","","","html-button-response","165","454591","0.0-2.0-42.0","5a78f57a2a842c0001fc43db","A3","batch1","","907.7999999523163","tol_trial_num","<div class = centerbox><p class = center-block-text>problem <strong>12</strong> out of 25 problems</p></div>","0","","","","","","","","","","","","","","","","","","","","","","","","",""
"","","","","","single-stim-button","166","460630","0.0-2.0-43.0-0.0","5a78f57a2a842c0001fc43db","A3","batch1","","6039","tol_tohand","","","","tol_peg_1","6039","6039","0","[[1,0,0],[3,0],[0]]","1","[[2,3,0],[0,0],[1]]","11","0","","","","","","4","","","","","","","","",""
"","","","","","single-stim-button","167","461139","0.0-2.0-43.0-1.0","5a78f57a2a842c0001fc43db","A3","batch1","","508","tol_toboard","","","","tol_peg_2","508","508","0","[[1,0,0],[3,2],[0]]","1","[[2,3,0],[0,0],[1]]","11","0","","","","","","4","","","","","","","","",""
"","","","","","single-stim-button","168","461488","0.0-2.0-43.1-0.1","5a78f57a2a842c0001fc43db","A3","batch1","","349","tol_tohand","","","","tol_peg_1","349","349","0","[[0,0,0],[3,2],[0]]","2","[[2,3,0],[0,0],[1]]","11","0","","","","","","4","","","","","","","","",""
"","","","","","single-stim-button","169","461941","0.0-2.0-43.1-1.1","5a78f57a2a842c0001fc43db","A3","batch1","","451","tol_toboard","","","","tol_peg_3","451","451","0","[[0,0,0],[3,2],[1]]","2","[[2,3,0],[0,0],[1]]","11","0","","","","","","4","","","","","","","","",""
"","","","","","single-stim-button","170","462298","0.0-2.0-43.2-0.2","5a78f57a2a842c0001fc43db","A3","batch1","","357","tol_tohand","","","","tol_peg_2","357","357","0","[[0,0,0],[3,0],[1]]","3","[[2,3,0],[0,0],[1]]","11","0","","","","","","4","","","","","","","","",""
"","","","","","single-stim-button","171","462657","0.0-2.0-43.2-1.2","5a78f57a2a842c0001fc43db","A3","batch1","","358","tol_toboard","","","","tol_peg_1","358","358","0","[[2,0,0],[3,0],[1]]","3","[[2,3,0],[0,0],[1]]","11","0","","","","","","4","","","","","","","","",""
"","","","","","single-stim-button","172","463095","0.0-2.0-43.3-0.3","5a78f57a2a842c0001fc43db","A3","batch1","","437","tol_tohand","","","","tol_peg_2","437","437","0","[[2,0,0],[0,0],[1]]","4","[[2,3,0],[0,0],[1]]","11","0","","","","","","4","","","","","","","","",""
"","","","","","single-stim-button","173","463484","0.0-2.0-43.3-1.3","5a78f57a2a842c0001fc43db","A3","batch1","","387","tol_toboard","","","","tol_peg_1","387","387","0","[[2,3,0],[0,0],[1]]","4","[[2,3,0],[0,0],[1]]","11","0","","","","","","4","","","","","","","","",""
"","","","","","poldrack-single-stim","174","464485","0.0-2.0-44.0","5a78f57a2a842c0001fc43db","A3","batch1","","-1","tol_feedback","","","true","","1000","1000","500","","","","","","-1","none","true","6039","7182","","","","","","","","","",""
"","","","","","html-button-response","175","465144","0.0-2.0-45.0","5a78f57a2a842c0001fc43db","A3","batch1","","659","tol_trial_num","<div class = centerbox><p class = center-block-text>problem <strong>13</strong> out of 25 problems</p></div>","0","","","","","","","","","","","","","","","","","","","","","","","","",""
"","","","","","single-stim-button","176","469266","0.0-2.0-46.0-0.0","5a78f57a2a842c0001fc43db","A3","batch1","","4121","tol_tohand","","","","tol_peg_1","4121","4121","0","[[1,0,0],[3,0],[0]]","1","[[0,0,0],[2,3],[1]]","12","0","","","","","","4","","","","","","","","",""
"","","","","","single-stim-button","177","469627","0.0-2.0-46.0-1.0","5a78f57a2a842c0001fc43db","A3","batch1","","359","tol_toboard","","","","tol_peg_2","359","359","0","[[1,0,0],[3,2],[0]]","1","[[0,0,0],[2,3],[1]]","12","0","","","","","","4","","","","","","","","",""
"","","","","","single-stim-button","178","469985","0.0-2.0-46.1-0.1","5a78f57a2a842c0001fc43db","A3","batch1","","358","tol_tohand","","","","tol_peg_1","358","358","0","[[0,0,0],[3,2],[0]]","2","[[0,0,0],[2,3],[1]]","12","0","","","","","","4","","","","","","","","",""
"","","","","","single-stim-button","179","470405","0.0-2.0-46.1-1.1","5a78f57a2a842c0001fc43db","A3","batch1","","418","tol_toboard","","","","tol_peg_3","418","418","0","[[0,0,0],[3,2],[1]]","2","[[0,0,0],[2,3],[1]]","12","0","","","","","","4","","","","","","","","",""
"","","","","","single-stim-button","180","474996","0.0-2.0-46.2-0.2","5a78f57a2a842c0001fc43db","A3","batch1","","4591","tol_tohand","","","","tol_peg_3","4591","4591","0","[[0,0,0],[3,2],[0]]","3","[[0,0,0],[2,3],[1]]","12","0","","","","","","4","","","","","","","","",""
"","","","","","single-stim-button","181","475588","0.0-2.0-46.2-1.2","5a78f57a2a842c0001fc43db","A3","batch1","","591","tol_toboard","","","","tol_peg_1","591","591","0","[[1,0,0],[3,2],[0]]","3","[[0,0,0],[2,3],[1]]","12","0","","","","","","4","","","","","","","","",""
"","","","","","single-stim-button","182","476010","0.0-2.0-46.3-0.3","5a78f57a2a842c0001fc43db","A3","batch1","","421","tol_tohand","","","","tol_peg_2","421","421","0","[[1,0,0],[3,0],[0]]","4","[[0,0,0],[2,3],[1]]","12","0","","","","","","4","","","","","","","","",""
"","","","","","single-stim-button","183","476882","0.0-2.0-46.3-1.3","5a78f57a2a842c0001fc43db","A3","batch1","","872","tol_toboard","","","","tol_peg_1","872","872","0","[[1,2,0],[3,0],[0]]","4","[[0,0,0],[2,3],[1]]","12","0","","","","","","4","","","","","","","","",""
"","","","","","single-stim-button","184","477272","0.0-2.0-46.4-0.4","5a78f57a2a842c0001fc43db","A3","batch1","","389","tol_tohand","","","","tol_peg_2","389","389","0","[[1,2,0],[0,0],[0]]","5","[[0,0,0],[2,3],[1]]","12","0","","","","","","4","","","","","","","","",""
"","","","","","single-stim-button","185","477555","0.0-2.0-46.4-1.4","5a78f57a2a842c0001fc43db","A3","batch1","","281","tol_toboard","","","","tol_peg_3","281","281","0","[[1,2,0],[0,0],[3]]","5","[[0,0,0],[2,3],[1]]","12","0","","","","","","4","","","","","","","","",""
"","","","","","single-stim-button","186","478762","0.0-2.0-46.5-0.5","5a78f57a2a842c0001fc43db","A3","batch1","","1207","tol_tohand","","","","tol_peg_1","1207","1207","0","[[1,0,0],[0,0],[3]]","6","[[0,0,0],[2,3],[1]]","12","0","","","","","","4","","","","","","","","",""
"","","","","","single-stim-button","187","479096","0.0-2.0-46.5-1.5","5a78f57a2a842c0001fc43db","A3","batch1","","334","tol_toboard","","","","tol_peg_2","334","334","0","[[1,0,0],[2,0],[3]]","6","[[0,0,0],[2,3],[1]]","12","0","","","","","","4","","","","","","","","",""
"","","","","","single-stim-button","188","479433","0.0-2.0-46.6-0.6","5a78f57a2a842c0001fc43db","A3","batch1","","337","tol_tohand","","","","tol_peg_3","337","337","0","[[1,0,0],[2,0],[0]]","7","[[0,0,0],[2,3],[1]]","12","0","","","","","","4","","","","","","","","",""
"","","","","","single-stim-button","189","479775","0.0-2.0-46.6-1.6","5a78f57a2a842c0001fc43db","A3","batch1","","341","tol_toboard","","","","tol_peg_2","341","341","0","[[1,0,0],[2,3],[0]]","7","[[0,0,0],[2,3],[1]]","12","0","","","","","","4","","","","","","","","",""
"","","","","","single-stim-button","190","480314","0.0-2.0-46.7-0.7","5a78f57a2a842c0001fc43db","A3","batch1","","539","tol_tohand","","","","tol_peg_1","539","539","0","[[0,0,0],[2,3],[0]]","8","[[0,0,0],[2,3],[1]]","12","0","","","","","","4","","","","","","","","",""
"","","","","","single-stim-button","191","480710","0.0-2.0-46.7-1.7","5a78f57a2a842c0001fc43db","A3","batch1","","396","tol_toboard","","","","tol_peg_3","396","396","0","[[0,0,0],[2,3],[1]]","8","[[0,0,0],[2,3],[1]]","12","0","","","","","","4","","","","","","","","",""
"","","","","","poldrack-single-stim","192","481720","0.0-2.0-47.0","5a78f57a2a842c0001fc43db","A3","batch1","","-1","tol_feedback","","","true","","1000","1000","500","","","","","","-1","none","true","4121","11963","","","","","","","","","",""
"","","","","","html-button-response","193","483710","0.0-2.0-48.0","5a78f57a2a842c0001fc43db","A3","batch1","","1989.0999999046326","attention_check","<p class = block-text>How many balls are in your board<br></p>","1","true","","","","","","","","","","","","","","","","","","","","","","","",""
"","","","","","html-button-response","194","484506","0.0-2.0-49.0","5a78f57a2a842c0001fc43db","A3","batch1","","794.7999999523163","tol_trial_num","<div class = centerbox><p class = center-block-text>problem <strong>14</strong> out of 25 problems</p></div>","0","","","","","","","","","","","","","","","","","","","","","","","","",""
"","","","","","single-stim-button","195","490066","0.0-2.0-50.0-0.0","5a78f57a2a842c0001fc43db","A3","batch1","","5560","tol_tohand","","","","tol_peg_1","5560","5560","0","[[2,0,0],[3,0],[0]]","1","[[1,2,0],[3,0],[0]]","13","0","","","","","","4","","","","","","","","",""
"","","","","","single-stim-button","196","491199","0.0-2.0-50.0-1.0","5a78f57a2a842c0001fc43db","A3","batch1","","1131","tol_toboard","","","","tol_peg_3","1131","1131","0","[[2,0,0],[3,0],[1]]","1","[[1,2,0],[3,0],[0]]","13","0","","","","","","4","","","","","","","","",""
"","","","","","single-stim-button","197","492310","0.0-2.0-50.1-0.1","5a78f57a2a842c0001fc43db","A3","batch1","","1111","tol_tohand","","","","tol_peg_1","1111","1111","0","[[0,0,0],[3,0],[1]]","2","[[1,2,0],[3,0],[0]]","13","0","","","","","","4","","","","","","","","",""
"","","","","","single-stim-button","198","492615","0.0-2.0-50.1-1.1","5a78f57a2a842c0001fc43db","A3","batch1","","303","tol_toboard","","","","tol_peg_2","303","303","0","[[0,0,0],[3,2],[1]]","2","[[1,2,0],[3,0],[0]]","13","0","","","","","","4","","","","","","","","",""
"","","","","","single-stim-button","199","493012","0.0-2.0-50.2-0.2","5a78f57a2a842c0001fc43db","A3","batch1","","397","tol_tohand","","","","tol_peg_3","397","397","0","[[0,0,0],[3,2],[0]]","3","[[1,2,0],[3,0],[0]]","13","0","","","","","","4","","","","","","","","",""
"","","","","","single-stim-button","200","493409","0.0-2.0-50.2-1.2","5a78f57a2a842c0001fc43db","A3","batch1","","396","tol_toboard","","","","tol_peg_1","396","396","0","[[1,0,0],[3,2],[0]]","3","[[1,2,0],[3,0],[0]]","13","0","","","","","","4","","","","","","","","",""
"","","","","","single-stim-button","201","493839","0.0-2.0-50.3-0.3","5a78f57a2a842c0001fc43db","A3","batch1","","429","tol_tohand","","","","tol_peg_2","429","429","0","[[1,0,0],[3,0],[0]]","4","[[1,2,0],[3,0],[0]]","13","0","","","","","","4","","","","","","","","",""
"","","","","","single-stim-button","202","494158","0.0-2.0-50.3-1.3","5a78f57a2a842c0001fc43db","A3","batch1","","319","tol_toboard","","","","tol_peg_1","319","319","0","[[1,2,0],[3,0],[0]]","4","[[1,2,0],[3,0],[0]]","13","0","","","","","","4","","","","","","","","",""
"","","","","","poldrack-single-stim","203","495165","0.0-2.0-51.0","5a78f57a2a842c0001fc43db","A3","batch1","","-1","tol_feedback","","","true","","1000","1000","500","","","","","","-1","none","true","5560","7497","","","","","","","","","",""
"","","","","","html-button-response","204","495872","0.0-2.0-52.0","5a78f57a2a842c0001fc43db","A3","batch1","","706.7999999523163","tol_trial_num","<div class = centerbox><p class = center-block-text>problem <strong>15</strong> out of 25 problems</p></div>","0","","","","","","","","","","","","","","","","","","","","","","","","",""
"","","","","","single-stim-button","205","498297","0.0-2.0-53.0-0.0","5a78f57a2a842c0001fc43db","A3","batch1","","2423","tol_tohand","","","","tol_peg_1","2423","2423","0","[[1,0,0],[3,0],[0]]","1","[[2,0,0],[3,0],[1]]","14","0","","","","","","3","","","","","","","","",""
"","","","","","single-stim-button","206","498982","0.0-2.0-53.0-1.0","5a78f57a2a842c0001fc43db","A3","batch1","","685","tol_toboard","","","","tol_peg_2","685","685","0","[[1,0,0],[3,2],[0]]","1","[[2,0,0],[3,0],[1]]","14","0","","","","","","3","","","","","","","","",""
"","","","","","single-stim-button","207","499512","0.0-2.0-53.1-0.1","5a78f57a2a842c0001fc43db","A3","batch1","","528","tol_tohand","","","","tol_peg_1","528","528","0","[[0,0,0],[3,2],[0]]","2","[[2,0,0],[3,0],[1]]","14","0","","","","","","3","","","","","","","","",""
"","","","","","single-stim-button","208","499965","0.0-2.0-53.1-1.1","5a78f57a2a842c0001fc43db","A3","batch1","","452","tol_toboard","","","","tol_peg_3","452","452","0","[[0,0,0],[3,2],[1]]","2","[[2,0,0],[3,0],[1]]","14","0","","","","","","3","","","","","","","","",""
"","","","","","single-stim-button","209","500377","0.0-2.0-53.2-0.2","5a78f57a2a842c0001fc43db","A3","batch1","","412","tol_tohand","","","","tol_peg_2","412","412","0","[[0,0,0],[3,0],[1]]","3","[[2,0,0],[3,0],[1]]","14","0","","","","","","3","","","","","","","","",""
"","","","","","single-stim-button","210","500736","0.0-2.0-53.2-1.2","5a78f57a2a842c0001fc43db","A3","batch1","","359","tol_toboard","","","","tol_peg_1","359","359","0","[[2,0,0],[3,0],[1]]","3","[[2,0,0],[3,0],[1]]","14","0","","","","","","3","","","","","","","","",""
"","","","","","poldrack-single-stim","211","501738","0.0-2.0-54.0","5a78f57a2a842c0001fc43db","A3","batch1","","-1","tol_feedback","","","true","","1000","1000","500","","","","","","-1","none","true","2423","3363","","","","","","","","","",""
"","","","","","html-button-response","212","502272","0.0-2.0-55.0","5a78f57a2a842c0001fc43db","A3","batch1","","533.2999999523163","tol_trial_num","<div class = centerbox><p class = center-block-text>problem <strong>16</strong> out of 25 problems</p></div>","0","","","","","","","","","","","","","","","","","","","","","","","","",""
"","","","","","single-stim-button","213","536687","0.0-2.0-56.0-0.0","5a78f57a2a842c0001fc43db","A3","batch1","","34415","tol_tohand","","","","tol_peg_2","34415","34415","0","[[0,0,0],[2,0],[1]]","1","[[2,3,0],[1,0],[0]]","15","0","","","","","","7","","","","","","","","",""
"","","","","","single-stim-button","214","537411","0.0-2.0-56.0-1.0","5a78f57a2a842c0001fc43db","A3","batch1","","723","tol_toboard","","","","tol_peg_1","723","723","0","[[3,0,0],[2,0],[1]]","1","[[2,3,0],[1,0],[0]]","15","0","","","","","","7","","","","","","","","",""
"","","","","","single-stim-button","215","539765","0.0-2.0-56.1-0.1","5a78f57a2a842c0001fc43db","A3","batch1","","2353","tol_tohand","","","","tol_peg_2","2353","2353","0","[[3,0,0],[0,0],[1]]","2","[[2,3,0],[1,0],[0]]","15","0","","","","","","7","","","","","","","","",""
"","","","","","single-stim-button","216","540279","0.0-2.0-56.1-1.1","5a78f57a2a842c0001fc43db","A3","batch1","","514","tol_toboard","","","","tol_peg_1","514","514","0","[[3,2,0],[0,0],[1]]","2","[[2,3,0],[1,0],[0]]","15","0","","","","","","7","","","","","","","","",""
"","","","","","single-stim-button","217","540871","0.0-2.0-56.2-0.2","5a78f57a2a842c0001fc43db","A3","batch1","","591","tol_tohand","","","","tol_peg_3","591","591","0","[[3,2,0],[0,0],[0]]","3","[[2,3,0],[1,0],[0]]","15","0","","","","","","7","","","","","","","","",""
"","","","","","single-stim-button","218","541261","0.0-2.0-56.2-1.2","5a78f57a2a842c0001fc43db","A3","batch1","","388","tol_toboard","","","","tol_peg_2","388","388","0","[[3,2,0],[1,0],[0]]","3","[[2,3,0],[1,0],[0]]","15","0","","","","","","7","","","","","","","","",""
"","","","","","single-stim-button","219","541938","0.0-2.0-56.3-0.3","5a78f57a2a842c0001fc43db","A3","batch1","","677","tol_tohand","","","","tol_peg_1","677","677","0","[[3,0,0],[1,0],[0]]","4","[[2,3,0],[1,0],[0]]","15","0","","","","","","7","","","","","","","","",""
"","","","","","single-stim-button","220","542515","0.0-2.0-56.3-1.3","5a78f57a2a842c0001fc43db","A3","batch1","","575","tol_toboard","","","","tol_peg_3","575","575","0","[[3,0,0],[1,0],[2]]","4","[[2,3,0],[1,0],[0]]","15","0","","","","","","7","","","","","","","","",""
"","","","","","single-stim-button","221","543474","0.0-2.0-56.4-0.4","5a78f57a2a842c0001fc43db","A3","batch1","","959","tol_tohand","","","","tol_peg_3","959","959","0","[[3,0,0],[1,0],[0]]","5","[[2,3,0],[1,0],[0]]","15","0","","","","","","7","","","","","","","","",""
"","","","","","single-stim-button","222","544403","0.0-2.0-56.4-1.4","5a78f57a2a842c0001fc43db","A3","batch1","","928","tol_toboard","","","","tol_peg_2","928","928","0","[[3,0,0],[1,2],[0]]","5","[[2,3,0],[1,0],[0]]","15","0","","","","","","7","","","","","","","","",""
"","","","","","single-stim-button","223","544799","0.0-2.0-56.5-0.5","5a78f57a2a842c0001fc43db","A3","batch1","","394","tol_tohand","","","","tol_peg_1","394","394","0","[[0,0,0],[1,2],[0]]","6","[[2,3,0],[1,0],[0]]","15","0","","","","","","7","","","","","","","","",""
"","","","","","single-stim-button","224","545188","0.0-2.0-56.5-1.5","5a78f57a2a842c0001fc43db","A3","batch1","","389","tol_toboard","","","","tol_peg_3","389","389","0","[[0,0,0],[1,2],[3]]","6","[[2,3,0],[1,0],[0]]","15","0","","","","","","7","","","","","","","","",""
"","","","","","single-stim-button","225","545618","0.0-2.0-56.6-0.6","5a78f57a2a842c0001fc43db","A3","batch1","","428","tol_tohand","","","","tol_peg_2","428","428","0","[[0,0,0],[1,0],[3]]","7","[[2,3,0],[1,0],[0]]","15","0","","","","","","7","","","","","","","","",""
"","","","","","single-stim-button","226","545993","0.0-2.0-56.6-1.6","5a78f57a2a842c0001fc43db","A3","batch1","","374","tol_toboard","","","","tol_peg_1","374","374","0","[[2,0,0],[1,0],[3]]","7","[[2,3,0],[1,0],[0]]","15","0","","","","","","7","","","","","","","","",""
"","","","","","single-stim-button","227","546459","0.0-2.0-56.7-0.7","5a78f57a2a842c0001fc43db","A3","batch1","","465","tol_tohand","","","","tol_peg_3","465","465","0","[[2,0,0],[1,0],[0]]","8","[[2,3,0],[1,0],[0]]","15","0","","","","","","7","","","","","","","","",""
"","","","","","single-stim-button","228","546881","0.0-2.0-56.7-1.7","5a78f57a2a842c0001fc43db","A3","batch1","","422","tol_toboard","","","","tol_peg_1","422","422","0","[[2,3,0],[1,0],[0]]","8","[[2,3,0],[1,0],[0]]","15","0","","","","","","7","","","","","","","","",""
"","","","","","poldrack-single-stim","229","547889","0.0-2.0-57.0","5a78f57a2a842c0001fc43db","A3","batch1","","-1","tol_feedback","","","true","","1000","1000","500","","","","","","-1","none","true","34415","40282","","","","","","","","","",""
"","","","","","html-button-response","230","548533","0.0-2.0-58.0","5a78f57a2a842c0001fc43db","A3","batch1","","642.8000001907349","tol_trial_num","<div class = centerbox><p class = center-block-text>problem <strong>17</strong> out of 25 problems</p></div>","0","","","","","","","","","","","","","","","","","","","","","","","","",""
"","","","","","single-stim-button","231","579803","0.0-2.0-59.0-0.0","5a78f57a2a842c0001fc43db","A3","batch1","","31269","tol_tohand","","","","tol_peg_1","31269","31269","0","[[1,0,0],[3,0],[0]]","1","[[3,1,0],[2,0],[0]]","16","0","","","","","","5","","","","","","","","",""
"","","","","","single-stim-button","232","580239","0.0-2.0-59.0-1.0","5a78f57a2a842c0001fc43db","A3","batch1","","436","tol_toboard","","","","tol_peg_2","436","436","0","[[1,0,0],[3,2],[0]]","1","[[3,1,0],[2,0],[0]]","16","0","","","","","","5","","","","","","","","",""
"","","","","","single-stim-button","233","580662","0.0-2.0-59.1-0.1","5a78f57a2a842c0001fc43db","A3","batch1","","421","tol_tohand","","","","tol_peg_1","421","421","0","[[0,0,0],[3,2],[0]]","2","[[3,1,0],[2,0],[0]]","16","0","","","","","","5","","","","","","","","",""
"","","","","","single-stim-button","234","581167","0.0-2.0-59.1-1.1","5a78f57a2a842c0001fc43db","A3","batch1","","505","tol_toboard","","","","tol_peg_3","505","505","0","[[0,0,0],[3,2],[1]]","2","[[3,1,0],[2,0],[0]]","16","0","","","","","","5","","","","","","","","",""
"","","","","","single-stim-button","235","587917","0.0-2.0-59.2-0.2","5a78f57a2a842c0001fc43db","A3","batch1","","6749","tol_tohand","","","","tol_peg_3","6749","6749","0","[[0,0,0],[3,2],[0]]","3","[[3,1,0],[2,0],[0]]","16","0","","","","","","5","","","","","","","","",""
"","","","","","single-stim-button","236","588635","0.0-2.0-59.2-1.2","5a78f57a2a842c0001fc43db","A3","batch1","","718","tol_toboard","","","","tol_peg_1","718","718","0","[[1,0,0],[3,2],[0]]","3","[[3,1,0],[2,0],[0]]","16","0","","","","","","5","","","","","","","","",""
"","","","","","single-stim-button","237","589087","0.0-2.0-59.3-0.3","5a78f57a2a842c0001fc43db","A3","batch1","","452","tol_tohand","","","","tol_peg_2","452","452","0","[[1,0,0],[3,0],[0]]","4","[[3,1,0],[2,0],[0]]","16","0","","","","","","5","","","","","","","","",""
"","","","","","single-stim-button","238","589516","0.0-2.0-59.3-1.3","5a78f57a2a842c0001fc43db","A3","batch1","","427","tol_toboard","","","","tol_peg_3","427","427","0","[[1,0,0],[3,0],[2]]","4","[[3,1,0],[2,0],[0]]","16","0","","","","","","5","","","","","","","","",""
"","","","","","single-stim-button","239","599711","0.0-2.0-59.4-0.4","5a78f57a2a842c0001fc43db","A3","batch1","","10195","tol_tohand","","","","tol_peg_3","10195","10195","0","[[1,0,0],[3,0],[0]]","5","[[3,1,0],[2,0],[0]]","16","0","","","","","","5","","","","","","","","",""
"","","","","","single-stim-button","240","600249","0.0-2.0-59.4-1.4","5a78f57a2a842c0001fc43db","A3","batch1","","537","tol_toboard","","","","tol_peg_1","537","537","0","[[1,2,0],[3,0],[0]]","5","[[3,1,0],[2,0],[0]]","16","0","","","","","","5","","","","","","","","",""
"","","","","","single-stim-button","241","600639","0.0-2.0-59.5-0.5","5a78f57a2a842c0001fc43db","A3","batch1","","390","tol_tohand","","","","tol_peg_2","390","390","0","[[1,2,0],[0,0],[0]]","6","[[3,1,0],[2,0],[0]]","16","0","","","","","","5","","","","","","","","",""
"","","","","","single-stim-button","242","600989","0.0-2.0-59.5-1.5","5a78f57a2a842c0001fc43db","A3","batch1","","349","tol_toboard","","","","tol_peg_3","349","349","0","[[1,2,0],[0,0],[3]]","6","[[3,1,0],[2,0],[0]]","16","0","","","","","","5","","","","","","","","",""
"","","","","","single-stim-button","243","601458","0.0-2.0-59.6-0.6","5a78f57a2a842c0001fc43db","A3","batch1","","469","tol_tohand","","","","tol_peg_1","469","469","0","[[1,0,0],[0,0],[3]]","7","[[3,1,0],[2,0],[0]]","16","0","","","","","","5","","","","","","","","",""
"","","","","","single-stim-button","244","602292","0.0-2.0-59.6-1.6","5a78f57a2a842c0001fc43db","A3","batch1","","833","tol_toboard","","","","tol_peg_2","833","833","0","[[1,0,0],[2,0],[3]]","7","[[3,1,0],[2,0],[0]]","16","0","","","","","","5","","","","","","","","",""
"","","","","","single-stim-button","245","602837","0.0-2.0-59.7-0.7","5a78f57a2a842c0001fc43db","A3","batch1","","544","tol_tohand","","","","tol_peg_1","544","544","0","[[0,0,0],[2,0],[3]]","8","[[3,1,0],[2,0],[0]]","16","0","","","","","","5","","","","","","","","",""
"","","","","","single-stim-button","246","603125","0.0-2.0-59.7-1.7","5a78f57a2a842c0001fc43db","A3","batch1","","287","tol_toboard","","","","tol_peg_2","287","287","0","[[0,0,0],[2,1],[3]]","8","[[3,1,0],[2,0],[0]]","16","0","","","","","","5","","","","","","","","",""
"","","","","","single-stim-button","247","603459","0.0-2.0-59.8-0.8","5a78f57a2a842c0001fc43db","A3","batch1","","334","tol_tohand","","","","tol_peg_3","334","334","0","[[0,0,0],[2,1],[0]]","9","[[3,1,0],[2,0],[0]]","16","0","","","","","","5","","","","","","","","",""
"","","","","","single-stim-button","248","603819","0.0-2.0-59.8-1.8","5a78f57a2a842c0001fc43db","A3","batch1","","358","tol_toboard","","","","tol_peg_1","358","358","0","[[3,0,0],[2,1],[0]]","9","[[3,1,0],[2,0],[0]]","16","0","","","","","","5","","","","","","","","",""
"","","","","","single-stim-button","249","604169","0.0-2.0-59.9-0.9","5a78f57a2a842c0001fc43db","A3","batch1","","350","tol_tohand","","","","tol_peg_2","350","350","0","[[3,0,0],[2,0],[0]]","10","[[3,1,0],[2,0],[0]]","16","0","","","","","","5","","","","","","","","",""
"","","","","","single-stim-button","250","604519","0.0-2.0-59.9-1.9","5a78f57a2a842c0001fc43db","A3","batch1","","350","tol_toboard","","","","tol_peg_1","350","350","0","[[3,1,0],[2,0],[0]]","10","[[3,1,0],[2,0],[0]]","16","0","","","","","","5","","","","","","","","",""
"","","","","","poldrack-single-stim","251","605521","0.0-2.0-60.0","5a78f57a2a842c0001fc43db","A3","batch1","","-1","tol_feedback","","","true","","1000","1000","500","","","","","","-1","none","true","31269","51173","","","","","","","","","",""
"","","","","","html-button-response","252","606195","0.0-2.0-61.0","5a78f57a2a842c0001fc43db","A3","batch1","","672.7000000476837","tol_trial_num","<div class = centerbox><p class = center-block-text>problem <strong>18</strong> out of 25 problems</p></div>","0","","","","","","","","","","","","","","","","","","","","","","","","",""
"","","","","","single-stim-button","253","609741","0.0-2.0-62.0-0.0","5a78f57a2a842c0001fc43db","A3","batch1","","3546","tol_tohand","","","","tol_peg_1","3546","3546","0","[[1,0,0],[3,0],[0]]","1","[[3,0,0],[2,0],[1]]","17","0","","","","","","5","","","","","","","","",""
"","","","","","single-stim-button","254","610093","0.0-2.0-62.0-1.0","5a78f57a2a842c0001fc43db","A3","batch1","","350","tol_toboard","","","","tol_peg_2","350","350","0","[[1,0,0],[3,2],[0]]","1","[[3,0,0],[2,0],[1]]","17","0","","","","","","5","","","","","","","","",""
"","","","","","single-stim-button","255","610451","0.0-2.0-62.1-0.1","5a78f57a2a842c0001fc43db","A3","batch1","","358","tol_tohand","","","","tol_peg_1","358","358","0","[[0,0,0],[3,2],[0]]","2","[[3,0,0],[2,0],[1]]","17","0","","","","","","5","","","","","","","","",""
"","","","","","single-stim-button","256","610958","0.0-2.0-62.1-1.1","5a78f57a2a842c0001fc43db","A3","batch1","","506","tol_toboard","","","","tol_peg_3","506","506","0","[[0,0,0],[3,2],[1]]","2","[[3,0,0],[2,0],[1]]","17","0","","","","","","5","","","","","","","","",""
"","","","","","single-stim-button","257","613279","0.0-2.0-62.2-0.2","5a78f57a2a842c0001fc43db","A3","batch1","","2320","tol_tohand","","","","tol_peg_3","2320","2320","0","[[0,0,0],[3,2],[0]]","3","[[3,0,0],[2,0],[1]]","17","0","","","","","","5","","","","","","","","",""
"","","","","","single-stim-button","258","613873","0.0-2.0-62.2-1.2","5a78f57a2a842c0001fc43db","A3","batch1","","594","tol_toboard","","","","tol_peg_1","594","594","0","[[1,0,0],[3,2],[0]]","3","[[3,0,0],[2,0],[1]]","17","0","","","","","","5","","","","","","","","",""
"","","","","","single-stim-button","259","614569","0.0-2.0-62.3-0.3","5a78f57a2a842c0001fc43db","A3","batch1","","694","tol_tohand","","","","tol_peg_2","694","694","0","[[1,0,0],[3,0],[0]]","4","[[3,0,0],[2,0],[1]]","17","0","","","","","","5","","","","","","","","",""
"","","","","","single-stim-button","260","618760","0.0-2.0-62.3-1.3","5a78f57a2a842c0001fc43db","A3","batch1","","4190","tol_toboard","","","","tol_peg_2","4190","4190","0","[[1,0,0],[3,2],[0]]","4","[[3,0,0],[2,0],[1]]","17","0","","","","","","5","","","","","","","","",""
"","","","","","single-stim-button","261","623515","0.0-2.0-62.4-0.4","5a78f57a2a842c0001fc43db","A3","batch1","","4754","tol_tohand","","","","tol_peg_2","4754","4754","0","[[1,0,0],[3,0],[0]]","5","[[3,0,0],[2,0],[1]]","17","0","","","","","","5","","","","","","","","",""
"","","","","","single-stim-button","262","623872","0.0-2.0-62.4-1.4","5a78f57a2a842c0001fc43db","A3","batch1","","357","tol_toboard","","","","tol_peg_1","357","357","0","[[1,2,0],[3,0],[0]]","5","[[3,0,0],[2,0],[1]]","17","0","","","","","","5","","","","","","","","",""
"","","","","","single-stim-button","263","624449","0.0-2.0-62.5-0.5","5a78f57a2a842c0001fc43db","A3","batch1","","576","tol_tohand","","","","tol_peg_2","576","576","0","[[1,2,0],[0,0],[0]]","6","[[3,0,0],[2,0],[1]]","17","0","","","","","","5","","","","","","","","",""
"","","","","","single-stim-button","264","624753","0.0-2.0-62.5-1.5","5a78f57a2a842c0001fc43db","A3","batch1","","303","tol_toboard","","","","tol_peg_3","303","303","0","[[1,2,0],[0,0],[3]]","6","[[3,0,0],[2,0],[1]]","17","0","","","","","","5","","","","","","","","",""
"","","","","","single-stim-button","265","625197","0.0-2.0-62.6-0.6","5a78f57a2a842c0001fc43db","A3","batch1","","444","tol_tohand","","","","tol_peg_1","444","444","0","[[1,0,0],[0,0],[3]]","7","[[3,0,0],[2,0],[1]]","17","0","","","","","","5","","","","","","","","",""
"","","","","","single-stim-button","266","625509","0.0-2.0-62.6-1.6","5a78f57a2a842c0001fc43db","A3","batch1","","311","tol_toboard","","","","tol_peg_2","311","311","0","[[1,0,0],[2,0],[3]]","7","[[3,0,0],[2,0],[1]]","17","0","","","","","","5","","","","","","","","",""
"","","","","","single-stim-button","267","627021","0.0-2.0-62.7-0.7","5a78f57a2a842c0001fc43db","A3","batch1","","1511","tol_tohand","","","","tol_peg_1","1511","1511","0","[[0,0,0],[2,0],[3]]","8","[[3,0,0],[2,0],[1]]","17","0","","","","","","5","","","","","","","","",""
"","","","","","single-stim-button","268","627349","0.0-2.0-62.7-1.7","5a78f57a2a842c0001fc43db","A3","batch1","","328","tol_toboard","","","","tol_peg_2","328","328","0","[[0,0,0],[2,1],[3]]","8","[[3,0,0],[2,0],[1]]","17","0","","","","","","5","","","","","","","","",""
"","","","","","single-stim-button","269","627863","0.0-2.0-62.8-0.8","5a78f57a2a842c0001fc43db","A3","batch1","","513","tol_tohand","","","","tol_peg_3","513","513","0","[[0,0,0],[2,1],[0]]","9","[[3,0,0],[2,0],[1]]","17","0","","","","","","5","","","","","","","","",""
"","","","","","single-stim-button","270","628213","0.0-2.0-62.8-1.8","5a78f57a2a842c0001fc43db","A3","batch1","","350","tol_toboard","","","","tol_peg_1","350","350","0","[[3,0,0],[2,1],[0]]","9","[[3,0,0],[2,0],[1]]","17","0","","","","","","5","","","","","","","","",""
"","","","","","single-stim-button","271","628595","0.0-2.0-62.9-0.9","5a78f57a2a842c0001fc43db","A3","batch1","","382","tol_tohand","","","","tol_peg_2","382","382","0","[[3,0,0],[2,0],[0]]","10","[[3,0,0],[2,0],[1]]","17","0","","","","","","5","","","","","","","","",""
"","","","","","single-stim-button","272","628931","0.0-2.0-62.9-1.9","5a78f57a2a842c0001fc43db","A3","batch1","","335","tol_toboard","","","","tol_peg_3","335","335","0","[[3,0,0],[2,0],[1]]","10","[[3,0,0],[2,0],[1]]","17","0","","","","","","5","","","","","","","","",""
"","","","","","poldrack-single-stim","273","629932","0.0-2.0-63.0","5a78f57a2a842c0001fc43db","A3","batch1","","-1","tol_feedback","","","true","","1000","1000","500","","","","","","-1","none","true","3546","15098","","","","","","","","","",""
"","","","","","html-button-response","274","630553","0.0-2.0-64.0","5a78f57a2a842c0001fc43db","A3","batch1","","619.8999998569489","tol_trial_num","<div class = centerbox><p class = center-block-text>problem <strong>19</strong> out of 25 problems</p></div>","0","","","","","","","","","","","","","","","","","","","","","","","","",""
"","","","","","single-stim-button","275","687589","0.0-2.0-65.0-0.0","5a78f57a2a842c0001fc43db","A3","batch1","","57035","tol_tohand","","","","tol_peg_1","57035","57035","0","[[1,0,0],[3,0],[0]]","1","[[0,0,0],[1,2],[3]]","18","0","","","","","","7","","","","","","","","",""
"","","","","","single-stim-button","276","688172","0.0-2.0-65.0-1.0","5a78f57a2a842c0001fc43db","A3","batch1","","581","tol_toboard","","","","tol_peg_2","581","581","0","[[1,0,0],[3,2],[0]]","1","[[0,0,0],[1,2],[3]]","18","0","","","","","","7","","","","","","","","",""
"","","","","","single-stim-button","277","689005","0.0-2.0-65.1-0.1","5a78f57a2a842c0001fc43db","A3","batch1","","833","tol_tohand","","","","tol_peg_1","833","833","0","[[0,0,0],[3,2],[0]]","2","[[0,0,0],[1,2],[3]]","18","0","","","","","","7","","","","","","","","",""
"","","","","","single-stim-button","278","689605","0.0-2.0-65.1-1.1","5a78f57a2a842c0001fc43db","A3","batch1","","598","tol_toboard","","","","tol_peg_3","598","598","0","[[0,0,0],[3,2],[1]]","2","[[0,0,0],[1,2],[3]]","18","0","","","","","","7","","","","","","","","",""
"","","","","","single-stim-button","279","690563","0.0-2.0-65.2-0.2","5a78f57a2a842c0001fc43db","A3","batch1","","957","tol_tohand","","","","tol_peg_2","957","957","0","[[0,0,0],[3,0],[1]]","3","[[0,0,0],[1,2],[3]]","18","0","","","","","","7","","","","","","","","",""
"","","","","","single-stim-button","280","691193","0.0-2.0-65.2-1.2","5a78f57a2a842c0001fc43db","A3","batch1","","630","tol_toboard","","","","tol_peg_1","630","630","0","[[2,0,0],[3,0],[1]]","3","[[0,0,0],[1,2],[3]]","18","0","","","","","","7","","","","","","","","",""
"","","","","","single-stim-button","281","691857","0.0-2.0-65.3-0.3","5a78f57a2a842c0001fc43db","A3","batch1","","664","tol_tohand","","","","tol_peg_2","664","664","0","[[2,0,0],[0,0],[1]]","4","[[0,0,0],[1,2],[3]]","18","0","","","","","","7","","","","","","","","",""
"","","","","","single-stim-button","282","692379","0.0-2.0-65.3-1.3","5a78f57a2a842c0001fc43db","A3","batch1","","522","tol_toboard","","","","tol_peg_1","522","522","0","[[2,3,0],[0,0],[1]]","4","[[0,0,0],[1,2],[3]]","18","0","","","","","","7","","","","","","","","",""
"","","","","","single-stim-button","283","692815","0.0-2.0-65.4-0.4","5a78f57a2a842c0001fc43db","A3","batch1","","436","tol_tohand","","","","tol_peg_3","436","436","0","[[2,3,0],[0,0],[0]]","5","[[0,0,0],[1,2],[3]]","18","0","","","","","","7","","","","","","","","",""
"","","","","","single-stim-button","284","693087","0.0-2.0-65.4-1.4","5a78f57a2a842c0001fc43db","A3","batch1","","271","tol_toboard","","","","tol_peg_2","271","271","0","[[2,3,0],[1,0],[0]]","5","[[0,0,0],[1,2],[3]]","18","0","","","","","","7","","","","","","","","",""
"","","","","","single-stim-button","285","693445","0.0-2.0-65.5-0.5","5a78f57a2a842c0001fc43db","A3","batch1","","357","tol_tohand","","","","tol_peg_1","357","357","0","[[2,0,0],[1,0],[0]]","6","[[0,0,0],[1,2],[3]]","18","0","","","","","","7","","","","","","","","",""
"","","","","","single-stim-button","286","693867","0.0-2.0-65.5-1.5","5a78f57a2a842c0001fc43db","A3","batch1","","421","tol_toboard","","","","tol_peg_3","421","421","0","[[2,0,0],[1,0],[3]]","6","[[0,0,0],[1,2],[3]]","18","0","","","","","","7","","","","","","","","",""
"","","","","","single-stim-button","287","694825","0.0-2.0-65.6-0.6","5a78f57a2a842c0001fc43db","A3","batch1","","958","tol_tohand","","","","tol_peg_1","958","958","0","[[0,0,0],[1,0],[3]]","7","[[0,0,0],[1,2],[3]]","18","0","","","","","","7","","","","","","","","",""
"","","","","","single-stim-button","288","695183","0.0-2.0-65.6-1.6","5a78f57a2a842c0001fc43db","A3","batch1","","357","tol_toboard","","","","tol_peg_2","357","357","0","[[0,0,0],[1,2],[3]]","7","[[0,0,0],[1,2],[3]]","18","0","","","","","","7","","","","","","","","",""
"","","","","","poldrack-single-stim","289","696188","0.0-2.0-66.0","5a78f57a2a842c0001fc43db","A3","batch1","","-1","tol_feedback","","","true","","1000","1000","500","","","","","","-1","none","true","57035","61240","","","","","","","","","",""
"","","","","","html-button-response","290","697147","0.0-2.0-67.0","5a78f57a2a842c0001fc43db","A3","batch1","","958","tol_trial_num","<div class = centerbox><p class = center-block-text>problem <strong>20</strong> out of 25 problems</p></div>","0","","","","","","","","","","","","","","","","","","","","","","","","",""
"","","","","","single-stim-button","291","700887","0.0-2.0-68.0-0.0","5a78f57a2a842c0001fc43db","A3","batch1","","3740","tol_tohand","","","","tol_peg_2","3740","3740","0","[[1,2,0],[0,0],[0]]","1","[[2,1,0],[0,0],[3]]","19","0","","","","","","5","","","","","","","","",""
"","","","","","single-stim-button","292","701315","0.0-2.0-68.0-1.0","5a78f57a2a842c0001fc43db","A3","batch1","","427","tol_toboard","","","","tol_peg_3","427","427","0","[[1,2,0],[0,0],[3]]","1","[[2,1,0],[0,0],[3]]","19","0","","","","","","5","","","","","","","","",""
"","","","","","single-stim-button","293","701854","0.0-2.0-68.1-0.1","5a78f57a2a842c0001fc43db","A3","batch1","","539","tol_tohand","","","","tol_peg_1","539","539","0","[[1,0,0],[0,0],[3]]","2","[[2,1,0],[0,0],[3]]","19","0","","","","","","5","","","","","","","","",""
"","","","","","single-stim-button","294","702329","0.0-2.0-68.1-1.1","5a78f57a2a842c0001fc43db","A3","batch1","","475","tol_toboard","","","","tol_peg_2","475","475","0","[[1,0,0],[2,0],[3]]","2","[[2,1,0],[0,0],[3]]","19","0","","","","","","5","","","","","","","","",""
"","","","","","single-stim-button","295","704433","0.0-2.0-68.2-0.2","5a78f57a2a842c0001fc43db","A3","batch1","","2103","tol_tohand","","","","tol_peg_3","2103","2103","0","[[1,0,0],[2,0],[0]]","3","[[2,1,0],[0,0],[3]]","19","0","","","","","","5","","","","","","","","",""
"","","","","","single-stim-button","296","704768","0.0-2.0-68.2-1.2","5a78f57a2a842c0001fc43db","A3","batch1","","333","tol_toboard","","","","tol_peg_2","333","333","0","[[1,0,0],[2,3],[0]]","3","[[2,1,0],[0,0],[3]]","19","0","","","","","","5","","","","","","","","",""
"","","","","","single-stim-button","297","705173","0.0-2.0-68.3-0.3","5a78f57a2a842c0001fc43db","A3","batch1","","405","tol_tohand","","","","tol_peg_1","405","405","0","[[0,0,0],[2,3],[0]]","4","[[2,1,0],[0,0],[3]]","19","0","","","","","","5","","","","","","","","",""
"","","","","","single-stim-button","298","705499","0.0-2.0-68.3-1.3","5a78f57a2a842c0001fc43db","A3","batch1","","325","tol_toboard","","","","tol_peg_3","325","325","0","[[0,0,0],[2,3],[1]]","4","[[2,1,0],[0,0],[3]]","19","0","","","","","","5","","","","","","","","",""
"","","","","","single-stim-button","299","753037","0.0-2.0-68.4-0.4","5a78f57a2a842c0001fc43db","A3","batch1","","47537","tol_tohand","","","","tol_peg_3","47537","47537","0","[[0,0,0],[2,3],[0]]","5","[[2,1,0],[0,0],[3]]","19","0","","","","","","5","","","","","","","","",""
"","","","","","single-stim-button","300","753793","0.0-2.0-68.4-1.4","5a78f57a2a842c0001fc43db","A3","batch1","","755","tol_toboard","","","","tol_peg_1","755","755","0","[[1,0,0],[2,3],[0]]","5","[[2,1,0],[0,0],[3]]","19","0","","","","","","5","","","","","","","","",""
"","","","","","single-stim-button","301","754348","0.0-2.0-68.5-0.5","5a78f57a2a842c0001fc43db","A3","batch1","","553","tol_tohand","","","","tol_peg_2","553","553","0","[[1,0,0],[2,0],[0]]","6","[[2,1,0],[0,0],[3]]","19","0","","","","","","5","","","","","","","","",""
"","","","","","single-stim-button","302","755033","0.0-2.0-68.5-1.5","5a78f57a2a842c0001fc43db","A3","batch1","","685","tol_toboard","","","","tol_peg_1","685","685","0","[[1,3,0],[2,0],[0]]","6","[[2,1,0],[0,0],[3]]","19","0","","","","","","5","","","","","","","","",""
"","","","","","single-stim-button","303","757870","0.0-2.0-68.6-0.6","5a78f57a2a842c0001fc43db","A3","batch1","","2835","tol_tohand","","","","tol_peg_2","2835","2835","0","[[1,3,0],[0,0],[0]]","7","[[2,1,0],[0,0],[3]]","19","0","","","","","","5","","","","","","","","",""
"","","","","","single-stim-button","304","758282","0.0-2.0-68.6-1.6","5a78f57a2a842c0001fc43db","A3","batch1","","412","tol_toboard","","","","tol_peg_3","412","412","0","[[1,3,0],[0,0],[2]]","7","[[2,1,0],[0,0],[3]]","19","0","","","","","","5","","","","","","","","",""
"","","","","","single-stim-button","305","758991","0.0-2.0-68.7-0.7","5a78f57a2a842c0001fc43db","A3","batch1","","709","tol_tohand","","","","tol_peg_1","709","709","0","[[1,0,0],[0,0],[2]]","8","[[2,1,0],[0,0],[3]]","19","0","","","","","","5","","","","","","","","",""
"","","","","","single-stim-button","306","759801","0.0-2.0-68.7-1.7","5a78f57a2a842c0001fc43db","A3","batch1","","809","tol_toboard","","","","tol_peg_2","809","809","0","[[1,0,0],[3,0],[2]]","8","[[2,1,0],[0,0],[3]]","19","0","","","","","","5","","","","","","","","",""
"","","","","","single-stim-button","307","760300","0.0-2.0-68.8-0.8","5a78f57a2a842c0001fc43db","A3","batch1","","498","tol_tohand","","","","tol_peg_1","498","498","0","[[0,0,0],[3,0],[2]]","9","[[2,1,0],[0,0],[3]]","19","0","","","","","","5","","","","","","","","",""
"","","","","","single-stim-button","308","760595","0.0-2.0-68.8-1.8","5a78f57a2a842c0001fc43db","A3","batch1","","295","tol_toboard","","","","tol_peg_2","295","295","0","[[0,0,0],[3,1],[2]]","9","[[2,1,0],[0,0],[3]]","19","0","","","","","","5","","","","","","","","",""
"","","","","","single-stim-button","309","761040","0.0-2.0-68.9-0.9","5a78f57a2a842c0001fc43db","A3","batch1","","444","tol_tohand","","","","tol_peg_3","444","444","0","[[0,0,0],[3,1],[0]]","10","[[2,1,0],[0,0],[3]]","19","0","","","","","","5","","","","","","","","",""
"","","","","","single-stim-button","310","761453","0.0-2.0-68.9-1.9","5a78f57a2a842c0001fc43db","A3","batch1","","412","tol_toboard","","","","tol_peg_1","412","412","0","[[2,0,0],[3,1],[0]]","10","[[2,1,0],[0,0],[3]]","19","0","","","","","","5","","","","","","","","",""
"","","","","","single-stim-button","311","761778","0.0-2.0-68.10-0.10","5a78f57a2a842c0001fc43db","A3","batch1","","324","tol_tohand","","","","tol_peg_2","324","324","0","[[2,0,0],[3,0],[0]]","11","[[2,1,0],[0,0],[3]]","19","0","","","","","","5","","","","","","","","",""
"","","","","","single-stim-button","312","762037","0.0-2.0-68.10-1.10","5a78f57a2a842c0001fc43db","A3","batch1","","258","tol_toboard","","","","tol_peg_1","258","258","0","[[2,1,0],[3,0],[0]]","11","[[2,1,0],[0,0],[3]]","19","0","","","","","","5","","","","","","","","",""
"","","","","","single-stim-button","313","763049","0.0-2.0-68.11-0.11","5a78f57a2a842c0001fc43db","A3","batch1","","1012","tol_tohand","","","","tol_peg_2","1012","1012","0","[[2,1,0],[0,0],[0]]","12","[[2,1,0],[0,0],[3]]","19","0","","","","","","5","","","","","","","","",""
"","","","","","single-stim-button","314","763332","0.0-2.0-68.11-1.11","5a78f57a2a842c0001fc43db","A3","batch1","","281","tol_toboard","","","","tol_peg_3","281","281","0","[[2,1,0],[0,0],[3]]","12","[[2,1,0],[0,0],[3]]","19","0","","","","","","5","","","","","","","","",""
"","","","","","poldrack-single-stim","315","764333","0.0-2.0-69.0","5a78f57a2a842c0001fc43db","A3","batch1","","-1","tol_feedback","","","true","","1000","1000","500","","","","","","-1","none","true","3740","60699","","","","","","","","","",""
"","","","","","html-button-response","316","765007","0.0-2.0-70.0","5a78f57a2a842c0001fc43db","A3","batch1","","672.5","tol_trial_num","<div class = centerbox><p class = center-block-text>problem <strong>21</strong> out of 25 problems</p></div>","0","","","","","","","","","","","","","","","","","","","","","","","","",""
"","","","","","single-stim-button","317","768575","0.0-2.0-71.0-0.0","5a78f57a2a842c0001fc43db","A3","batch1","","3568","tol_tohand","","","","tol_peg_1","3568","3568","0","[[1,0,0],[3,0],[0]]","1","[[3,2,0],[0,0],[1]]","20","0","","","","","","6","","","","","","","","",""
"","","","","","single-stim-button","318","768941","0.0-2.0-71.0-1.0","5a78f57a2a842c0001fc43db","A3","batch1","","366","tol_toboard","","","","tol_peg_2","366","366","0","[[1,0,0],[3,2],[0]]","1","[[3,2,0],[0,0],[1]]","20","0","","","","","","6","","","","","","","","",""
"","","","","","single-stim-button","319","769324","0.0-2.0-71.1-0.1","5a78f57a2a842c0001fc43db","A3","batch1","","382","tol_tohand","","","","tol_peg_1","382","382","0","[[0,0,0],[3,2],[0]]","2","[[3,2,0],[0,0],[1]]","20","0","","","","","","6","","","","","","","","",""
"","","","","","single-stim-button","320","769807","0.0-2.0-71.1-1.1","5a78f57a2a842c0001fc43db","A3","batch1","","483","tol_toboard","","","","tol_peg_3","483","483","0","[[0,0,0],[3,2],[1]]","2","[[3,2,0],[0,0],[1]]","20","0","","","","","","6","","","","","","","","",""
"","","","","","single-stim-button","321","773539","0.0-2.0-71.2-0.2","5a78f57a2a842c0001fc43db","A3","batch1","","3730","tol_tohand","","","","tol_peg_3","3730","3730","0","[[0,0,0],[3,2],[0]]","3","[[3,2,0],[0,0],[1]]","20","0","","","","","","6","","","","","","","","",""
"","","","","","single-stim-button","322","774147","0.0-2.0-71.2-1.2","5a78f57a2a842c0001fc43db","A3","batch1","","608","tol_toboard","","","","tol_peg_1","608","608","0","[[1,0,0],[3,2],[0]]","3","[[3,2,0],[0,0],[1]]","20","0","","","","","","6","","","","","","","","",""
"","","","","","single-stim-button","323","774895","0.0-2.0-71.3-0.3","5a78f57a2a842c0001fc43db","A3","batch1","","747","tol_tohand","","","","tol_peg_2","747","747","0","[[1,0,0],[3,0],[0]]","4","[[3,2,0],[0,0],[1]]","20","0","","","","","","6","","","","","","","","",""
"","","","","","single-stim-button","324","775199","0.0-2.0-71.3-1.3","5a78f57a2a842c0001fc43db","A3","batch1","","303","tol_toboard","","","","tol_peg_1","303","303","0","[[1,2,0],[3,0],[0]]","4","[[3,2,0],[0,0],[1]]","20","0","","","","","","6","","","","","","","","",""
"","","","","","single-stim-button","325","775521","0.0-2.0-71.4-0.4","5a78f57a2a842c0001fc43db","A3","batch1","","321","tol_tohand","","","","tol_peg_2","321","321","0","[[1,2,0],[0,0],[0]]","5","[[3,2,0],[0,0],[1]]","20","0","","","","","","6","","","","","","","","",""
"","","","","","single-stim-button","326","775807","0.0-2.0-71.4-1.4","5a78f57a2a842c0001fc43db","A3","batch1","","285","tol_toboard","","","","tol_peg_3","285","285","0","[[1,2,0],[0,0],[3]]","5","[[3,2,0],[0,0],[1]]","20","0","","","","","","6","","","","","","","","",""
"","","","","","single-stim-button","327","776681","0.0-2.0-71.5-0.5","5a78f57a2a842c0001fc43db","A3","batch1","","873","tol_tohand","","","","tol_peg_1","873","873","0","[[1,0,0],[0,0],[3]]","6","[[3,2,0],[0,0],[1]]","20","0","","","","","","6","","","","","","","","",""
"","","","","","single-stim-button","328","777093","0.0-2.0-71.5-1.5","5a78f57a2a842c0001fc43db","A3","batch1","","411","tol_toboard","","","","tol_peg_2","411","411","0","[[1,0,0],[2,0],[3]]","6","[[3,2,0],[0,0],[1]]","20","0","","","","","","6","","","","","","","","",""
"","","","","","single-stim-button","329","779136","0.0-2.0-71.6-0.6","5a78f57a2a842c0001fc43db","A3","batch1","","2042","tol_tohand","","","","tol_peg_1","2042","2042","0","[[0,0,0],[2,0],[3]]","7","[[3,2,0],[0,0],[1]]","20","0","","","","","","6","","","","","","","","",""
"","","","","","single-stim-button","330","779601","0.0-2.0-71.6-1.6","5a78f57a2a842c0001fc43db","A3","batch1","","464","tol_toboard","","","","tol_peg_2","464","464","0","[[0,0,0],[2,1],[3]]","7","[[3,2,0],[0,0],[1]]","20","0","","","","","","6","","","","","","","","",""
"","","","","","single-stim-button","331","780061","0.0-2.0-71.7-0.7","5a78f57a2a842c0001fc43db","A3","batch1","","460","tol_tohand","","","","tol_peg_3","460","460","0","[[0,0,0],[2,1],[0]]","8","[[3,2,0],[0,0],[1]]","20","0","","","","","","6","","","","","","","","",""
"","","","","","single-stim-button","332","780428","0.0-2.0-71.7-1.7","5a78f57a2a842c0001fc43db","A3","batch1","","365","tol_toboard","","","","tol_peg_1","365","365","0","[[3,0,0],[2,1],[0]]","8","[[3,2,0],[0,0],[1]]","20","0","","","","","","6","","","","","","","","",""
"","","","","","single-stim-button","333","780833","0.0-2.0-71.8-0.8","5a78f57a2a842c0001fc43db","A3","batch1","","405","tol_tohand","","","","tol_peg_2","405","405","0","[[3,0,0],[2,0],[0]]","9","[[3,2,0],[0,0],[1]]","20","0","","","","","","6","","","","","","","","",""
"","","","","","single-stim-button","334","781160","0.0-2.0-71.8-1.8","5a78f57a2a842c0001fc43db","A3","batch1","","326","tol_toboard","","","","tol_peg_3","326","326","0","[[3,0,0],[2,0],[1]]","9","[[3,2,0],[0,0],[1]]","20","0","","","","","","6","","","","","","","","",""
"","","","","","single-stim-button","335","781528","0.0-2.0-71.9-0.9","5a78f57a2a842c0001fc43db","A3","batch1","","368","tol_tohand","","","","tol_peg_2","368","368","0","[[3,0,0],[0,0],[1]]","10","[[3,2,0],[0,0],[1]]","20","0","","","","","","6","","","","","","","","",""
"","","","","","single-stim-button","336","781908","0.0-2.0-71.9-1.9","5a78f57a2a842c0001fc43db","A3","batch1","","379","tol_toboard","","","","tol_peg_1","379","379","0","[[3,2,0],[0,0],[1]]","10","[[3,2,0],[0,0],[1]]","20","0","","","","","","6","","","","","","","","",""
"","","","","","poldrack-single-stim","337","782910","0.0-2.0-72.0","5a78f57a2a842c0001fc43db","A3","batch1","","-1","tol_feedback","","","true","","1000","1000","500","","","","","","-1","none","true","3568","12896","","","","","","","","","",""
"","","","","","html-button-response","338","783537","0.0-2.0-73.0","5a78f57a2a842c0001fc43db","A3","batch1","","626.5","tol_trial_num","<div class = centerbox><p class = center-block-text>problem <strong>22</strong> out of 25 problems</p></div>","0","","","","","","","","","","","","","","","","","","","","","","","","",""
"","","","","","single-stim-button","339","796745","0.0-2.0-74.0-0.0","5a78f57a2a842c0001fc43db","A3","batch1","","13206","tol_tohand","","","","tol_peg_1","13206","13206","0","[[0,0,0],[2,3],[0]]","1","[[0,0,0],[1,2],[3]]","21","0","","","","","","6","","","","","","","","",""
"","","","","","single-stim-button","340","797501","0.0-2.0-74.0-1.0","5a78f57a2a842c0001fc43db","A3","batch1","","756","tol_toboard","","","","tol_peg_3","756","756","0","[[0,0,0],[2,3],[1]]","1","[[0,0,0],[1,2],[3]]","21","0","","","","","","6","","","","","","","","",""
"","","","","","single-stim-button","341","799129","0.0-2.0-74.1-0.1","5a78f57a2a842c0001fc43db","A3","batch1","","1626","tol_tohand","","","","tol_peg_2","1626","1626","0","[[0,0,0],[2,0],[1]]","2","[[0,0,0],[1,2],[3]]","21","0","","","","","","6","","","","","","","","",""
"","","","","","single-stim-button","342","799503","0.0-2.0-74.1-1.1","5a78f57a2a842c0001fc43db","A3","batch1","","374","tol_toboard","","","","tol_peg_1","374","374","0","[[3,0,0],[2,0],[1]]","2","[[0,0,0],[1,2],[3]]","21","0","","","","","","6","","","","","","","","",""
"","","","","","single-stim-button","343","799823","0.0-2.0-74.2-0.2","5a78f57a2a842c0001fc43db","A3","batch1","","319","tol_tohand","","","","tol_peg_2","319","319","0","[[3,0,0],[0,0],[1]]","3","[[0,0,0],[1,2],[3]]","21","0","","","","","","6","","","","","","","","",""
"","","","","","single-stim-button","344","800135","0.0-2.0-74.2-1.2","5a78f57a2a842c0001fc43db","A3","batch1","","311","tol_toboard","","","","tol_peg_1","311","311","0","[[3,2,0],[0,0],[1]]","3","[[0,0,0],[1,2],[3]]","21","0","","","","","","6","","","","","","","","",""
"","","","","","single-stim-button","345","800510","0.0-2.0-74.3-0.3","5a78f57a2a842c0001fc43db","A3","batch1","","373","tol_tohand","","","","tol_peg_3","373","373","0","[[3,2,0],[0,0],[0]]","4","[[0,0,0],[1,2],[3]]","21","0","","","","","","6","","","","","","","","",""
"","","","","","single-stim-button","346","800805","0.0-2.0-74.3-1.3","5a78f57a2a842c0001fc43db","A3","batch1","","295","tol_toboard","","","","tol_peg_2","295","295","0","[[3,2,0],[1,0],[0]]","4","[[0,0,0],[1,2],[3]]","21","0","","","","","","6","","","","","","","","",""
"","","","","","single-stim-button","347","801188","0.0-2.0-74.4-0.4","5a78f57a2a842c0001fc43db","A3","batch1","","382","tol_tohand","","","","tol_peg_1","382","382","0","[[3,0,0],[1,0],[0]]","5","[[0,0,0],[1,2],[3]]","21","0","","","","","","6","","","","","","","","",""
"","","","","","single-stim-button","348","801568","0.0-2.0-74.4-1.4","5a78f57a2a842c0001fc43db","A3","batch1","","380","tol_toboard","","","","tol_peg_2","380","380","0","[[3,0,0],[1,2],[0]]","5","[[0,0,0],[1,2],[3]]","21","0","","","","","","6","","","","","","","","",""
"","","","","","single-stim-button","349","801911","0.0-2.0-74.5-0.5","5a78f57a2a842c0001fc43db","A3","batch1","","342","tol_tohand","","","","tol_peg_1","342","342","0","[[0,0,0],[1,2],[0]]","6","[[0,0,0],[1,2],[3]]","21","0","","","","","","6","","","","","","","","",""
"","","","","","single-stim-button","350","802215","0.0-2.0-74.5-1.5","5a78f57a2a842c0001fc43db","A3","batch1","","304","tol_toboard","","","","tol_peg_3","304","304","0","[[0,0,0],[1,2],[3]]","6","[[0,0,0],[1,2],[3]]","21","0","","","","","","6","","","","","","","","",""
"","","","","","poldrack-single-stim","351","803229","0.0-2.0-75.0","5a78f57a2a842c0001fc43db","A3","batch1","","-1","tol_feedback","","","true","","1000","1000","500","","","","","","-1","none","true","13206","16248","","","","","","","","","",""
"","","","","","html-button-response","352","803891","0.0-2.0-76.0","5a78f57a2a842c0001fc43db","A3","batch1","","661.3000001907349","tol_trial_num","<div class = centerbox><p class = center-block-text>problem <strong>23</strong> out of 25 problems</p></div>","0","","","","","","","","","","","","","","","","","","","","","","","","",""
"","","","","","single-stim-button","353","807493","0.0-2.0-77.0-0.0","5a78f57a2a842c0001fc43db","A3","batch1","","3602","tol_tohand","","","","tol_peg_1","3602","3602","0","[[1,0,0],[3,0],[0]]","1","[[1,3,2],[0,0],[0]]","22","0","","","","","","3","","","","","","","","",""
"","","","","","single-stim-button","354","807795","0.0-2.0-77.0-1.0","5a78f57a2a842c0001fc43db","A3","batch1","","301","tol_toboard","","","","tol_peg_3","301","301","0","[[1,0,0],[3,0],[2]]","1","[[1,3,2],[0,0],[0]]","22","0","","","","","","3","","","","","","","","",""
"","","","","","single-stim-button","355","808092","0.0-2.0-77.1-0.1","5a78f57a2a842c0001fc43db","A3","batch1","","297","tol_tohand","","","","tol_peg_2","297","297","0","[[1,0,0],[0,0],[2]]","2","[[1,3,2],[0,0],[0]]","22","0","","","","","","3","","","","","","","","",""
"","","","","","single-stim-button","356","808551","0.0-2.0-77.1-1.1","5a78f57a2a842c0001fc43db","A3","batch1","","458","tol_toboard","","","","tol_peg_1","458","458","0","[[1,3,0],[0,0],[2]]","2","[[1,3,2],[0,0],[0]]","22","0","","","","","","3","","","","","","","","",""
