"success","timeout","failed_images","failed_audio","failed_video","trial_type","trial_index","time_elapsed","internal_node_id","subject_id","study_id","session_id","view_history","rt","task","stimulus","response","correct","mouse_click","stim_duration","block_duration","timing_post_trial","current_position","tol_num_moves_made","tol_target","tol_problem_id","tol_rt","key_press","possible_responses","tol_correct","preplanning","tol_rt_per_trial","tol_min_moves","item","answer","spm_correct","spm_rt","fiar_detect_rt","fiar_detect_correct","total_correct_fiar_detect","post_trial_gap","choices"
"true","false","[]","[]","[]","preload","0","2856","0.0-0.0","5a7f42215292b8000122c84a","D2","batch4","","","","","","","","","","","","","","","","","","","","","","","","","","","","","",""
"true","","","","","fullscreen","1","24842","0.0-1.0-0.0","5a7f42215292b8000122c84a","D2","batch4","","","","","","","","","","","","","","","","","","","","","","","","","","","","","",""
"true","","","","","fullscreen","2","27625","0.0-2.0-0.0","5a7f42215292b8000122c84a","D2","batch4","","","","","","","","","","","","","","","","","","","","","","","","","","","","","",""
"","","","","","instructions","3","102595","0.0-2.0-1.0-0.0-0.0","5a7f42215292b8000122c84a","D2","batch4","[{""page_index"":0,""viewing_time"":18001.39999999851},{""page_index"":1,""viewing_time"":13451.39999999851},{""page_index"":2,""viewing_time"":5097.80000000447},{""page_index"":3,""viewing_time"":9615.19999999553},{""page_index"":4,""viewing_time"":6601.9000000059605},{""page_index"":5,""viewing_time"":18831.29999999702},{""page_index"":6,""viewing_time"":3370.10000000149}]","74969.5","tol-instructions","","","","","","","","","","","","","","","","","","","","","","","","","","",""
"","","","","","html-button-response","4","103898","0.0-2.0-1.0-1.0-0.0","5a7f42215292b8000122c84a","D2","batch4","","1301.5","tol_enter_quiz","<p class=block-text> Let's answer a few questions <br>","0","","","","","","","","","","","","","","","","","","","","","","","","",""
"","","","","","html-button-response","5","116121","0.0-2.0-1.0-1.0-1.0","5a7f42215292b8000122c84a","D2","batch4","","12221.60000000149","tol_quiz","<p class = block-text>True or False: You can only move the ball on top of a peg. <br></p>","0","true","","","","","","","","","","","","","","","","","","","","","","","",""
"","","","","","html-button-response","6","117326","0.0-2.0-1.0-1.0-2.0","5a7f42215292b8000122c84a","D2","batch4","","1203.1000000014901","tol_quiz_feedback","<p class = block-text>Correct! You can only move the ball on top of a peg.</p>","0","","","","","","","","","","","","","","","","","","","","","","","","",""
"","","","","","html-button-response","7","121301","0.0-2.0-1.0-1.0-3.0","5a7f42215292b8000122c84a","D2","batch4","","3973.3000000044703","tol_quiz","<p class = block-text>True or False: You should try to match your board with the target board with fewest moves possible. <br></p>","0","true","","","","","","","","","","","","","","","","","","","","","","","",""
"","","","","","html-button-response","8","122378","0.0-2.0-1.0-1.0-4.0","5a7f42215292b8000122c84a","D2","batch4","","1076.1000000014901","tol_quiz_feedback","<p class = block-text>Correct! </p>","0","","","","","","","","","","","","","","","","","","","","","","","","",""
"","","","","","html-button-response","9","124697","0.0-2.0-2.0","5a7f42215292b8000122c84a","D2","batch4","","2316.6999999955297","","<p class=block-text> Now that you've understood the game, let's practice a few easier examples before we start!<br> <br>","0","","","","","","","","","","","","","","","","","","","","","","","","",""
"","","","","","single-stim-button","10","128363","0.0-2.0-3.0-0.0","5a7f42215292b8000122c84a","D2","batch4","","3664","tol_practice","","","","tol_peg_2","3664","3664","0","[[1,2,0],[0,0],[0]]","1","[[1,2,0],[0,0],[3]]","practice","3664","","","","","","","","","","","","","","",""
"","","","","","single-stim-button","11","134208","0.0-2.0-3.0-1.0","5a7f42215292b8000122c84a","D2","batch4","","5844","tol_practice","","","","tol_peg_3","5844","5844","0","[[1,2,0],[0,0],[3]]","1","[[1,2,0],[0,0],[3]]","practice","5844","","","","","","","","","","","","","","",""
"","","","","","poldrack-single-stim","12","135214","0.0-2.0-4.0","5a7f42215292b8000122c84a","D2","batch4","","-1","tol_feedback","","","true","","1000","1000","500","","","","","","-1","none","true","","0","","","","","","","","","",""
"","","","","","single-stim-button","13","150666","0.0-2.0-5.0-0.0","5a7f42215292b8000122c84a","D2","batch4","","15451","tol_practice","","","","tol_peg_1","15451","15451","0","[[1,0,0],[3,0],[0]]","2","[[0,0,0],[3,1],[2]]","practice","15451","","","","","","","","","","","","","","",""
"","","","","","single-stim-button","14","152392","0.0-2.0-5.0-1.0","5a7f42215292b8000122c84a","D2","batch4","","1725","tol_practice","","","","tol_peg_3","1725","1725","0","[[1,0,0],[3,0],[2]]","2","[[0,0,0],[3,1],[2]]","practice","1725","","","","","","","","","","","","","","",""
"","","","","","single-stim-button","15","153668","0.0-2.0-5.1-0.1","5a7f42215292b8000122c84a","D2","batch4","","1275","tol_practice","","","","tol_peg_1","1275","1275","0","[[0,0,0],[3,0],[2]]","3","[[0,0,0],[3,1],[2]]","practice","1275","","","","","","","","","","","","","","",""
"","","","","","single-stim-button","16","154822","0.0-2.0-5.1-1.1","5a7f42215292b8000122c84a","D2","batch4","","1153","tol_practice","","","","tol_peg_2","1153","1153","0","[[0,0,0],[3,1],[2]]","3","[[0,0,0],[3,1],[2]]","practice","1153","","","","","","","","","","","","","","",""
"","","","","","poldrack-single-stim","17","155835","0.0-2.0-6.0","5a7f42215292b8000122c84a","D2","batch4","","-1","tol_feedback","","","true","","1000","1000","500","","","","","","-1","none","true","","0","","","","","","","","","",""
"","","","","","single-stim-button","18","163093","0.0-2.0-7.0-0.0","5a7f42215292b8000122c84a","D2","batch4","","7256","tol_practice","","","","tol_peg_2","7256","7256","0","[[1,2,0],[0,0],[0]]","4","[[1,0,0],[2,0],[3]]","practice","7256","","","","","","","","","","","","","","",""
"","","","","","single-stim-button","19","164300","0.0-2.0-7.0-1.0","5a7f42215292b8000122c84a","D2","batch4","","1206","tol_practice","","","","tol_peg_3","1206","1206","0","[[1,2,0],[0,0],[3]]","4","[[1,0,0],[2,0],[3]]","practice","1206","","","","","","","","","","","","","","",""
"","","","","","single-stim-button","20","165993","0.0-2.0-7.1-0.1","5a7f42215292b8000122c84a","D2","batch4","","1693","tol_practice","","","","tol_peg_1","1693","1693","0","[[1,0,0],[0,0],[3]]","5","[[1,0,0],[2,0],[3]]","practice","1693","","","","","","","","","","","","","","",""
"","","","","","single-stim-button","21","167212","0.0-2.0-7.1-1.1","5a7f42215292b8000122c84a","D2","batch4","","1218","tol_practice","","","","tol_peg_2","1218","1218","0","[[1,0,0],[2,0],[3]]","5","[[1,0,0],[2,0],[3]]","practice","1218","","","","","","","","","","","","","","",""
"","","","","","poldrack-single-stim","22","168215","0.0-2.0-8.0","5a7f42215292b8000122c84a","D2","batch4","","-1","tol_feedback","","","true","","1000","1000","500","","","","","","-1","none","true","","0","","","","","","","","","",""
"","","","","","html-button-response","23","171382","0.0-2.0-9.0","5a7f42215292b8000122c84a","D2","batch4","","3165.7999999970198","tol_instruction","<div class = centerbox><p class = center-block-text>Great job! You are done with practice trials<br>You are about to start official trials.<br> <br> Problem <strong>1</strong> out of 25 problems</p></div>","0","","","","","","","","","","","","","","","","","","","","","","","","",""
"","","","","","single-stim-button","24","186851","0.0-2.0-10.0-0.0","5a7f42215292b8000122c84a","D2","batch4","","14453","tol_tohand","","","","tol_peg_2","14453","14453","0","[[1,2,0],[0,0],[0]]","1","[[1,3,0],[2,0],[0]]","0","0","","","","","","3","","","","","","","","",""
"","","","","","single-stim-button","25","191079","0.0-2.0-10.0-1.0","5a7f42215292b8000122c84a","D2","batch4","","4227","tol_toboard","","","","tol_peg_3","4227","4227","0","[[1,2,0],[0,0],[3]]","1","[[1,3,0],[2,0],[0]]","0","0","","","","","","3","","","","","","","","",""
"","","","","","single-stim-button","26","193144","0.0-2.0-10.1-0.1","5a7f42215292b8000122c84a","D2","batch4","","2064","tol_tohand","","","","tol_peg_1","2064","2064","0","[[1,0,0],[0,0],[3]]","2","[[1,3,0],[2,0],[0]]","0","0","","","","","","3","","","","","","","","",""
"","","","","","single-stim-button","27","194554","0.0-2.0-10.1-1.1","5a7f42215292b8000122c84a","D2","batch4","","1410","tol_toboard","","","","tol_peg_2","1410","1410","0","[[1,0,0],[2,0],[3]]","2","[[1,3,0],[2,0],[0]]","0","0","","","","","","3","","","","","","","","",""
"","","","","","single-stim-button","28","195680","0.0-2.0-10.2-0.2","5a7f42215292b8000122c84a","D2","batch4","","1125","tol_tohand","","","","tol_peg_3","1125","1125","0","[[1,0,0],[2,0],[0]]","3","[[1,3,0],[2,0],[0]]","0","0","","","","","","3","","","","","","","","",""
"","","","","","single-stim-button","29","196894","0.0-2.0-10.2-1.2","5a7f42215292b8000122c84a","D2","batch4","","1213","tol_toboard","","","","tol_peg_1","1213","1213","0","[[1,3,0],[2,0],[0]]","3","[[1,3,0],[2,0],[0]]","0","0","","","","","","3","","","","","","","","",""
"","","","","","poldrack-single-stim","30","197896","0.0-2.0-11.0","5a7f42215292b8000122c84a","D2","batch4","","-1","tol_feedback","","","true","","1000","1000","500","","","","","","-1","none","true","14453","17642","","","","","","","","","",""
"","","","","","html-button-response","31","199534","0.0-2.0-12.0","5a7f42215292b8000122c84a","D2","batch4","","1636.6000000014901","tol_trial_num","<div class = centerbox><p class = center-block-text>problem <strong>2</strong> out of 25 problems</p></div>","0","","","","","","","","","","","","","","","","","","","","","","","","",""
"","","","","","single-stim-button","32","238126","0.0-2.0-13.0-0.0","5a7f42215292b8000122c84a","D2","batch4","","38590","tol_tohand","","","","tol_peg_2","38590","38590","0","[[1,2,0],[0,0],[0]]","1","[[2,1,3],[0,0],[0]]","1","0","","","","","","5","","","","","","","","",""
"","","","","","single-stim-button","33","240002","0.0-2.0-13.0-1.0","5a7f42215292b8000122c84a","D2","batch4","","1875","tol_toboard","","","","tol_peg_3","1875","1875","0","[[1,2,0],[0,0],[3]]","1","[[2,1,3],[0,0],[0]]","1","0","","","","","","5","","","","","","","","",""
"","","","","","single-stim-button","34","254691","0.0-2.0-13.1-0.1","5a7f42215292b8000122c84a","D2","batch4","","14688","tol_tohand","","","","tol_peg_1","14688","14688","0","[[1,0,0],[0,0],[3]]","2","[[2,1,3],[0,0],[0]]","1","0","","","","","","5","","","","","","","","",""
"","","","","","single-stim-button","35","264935","0.0-2.0-13.1-1.1","5a7f42215292b8000122c84a","D2","batch4","","10243","tol_toboard","","","","tol_peg_2","10243","10243","0","[[1,0,0],[2,0],[3]]","2","[[2,1,3],[0,0],[0]]","1","0","","","","","","5","","","","","","","","",""
"","","","","","single-stim-button","36","276789","0.0-2.0-13.2-0.2","5a7f42215292b8000122c84a","D2","batch4","","11853","tol_tohand","","","","tol_peg_1","11853","11853","0","[[0,0,0],[2,0],[3]]","3","[[2,1,3],[0,0],[0]]","1","0","","","","","","5","","","","","","","","",""
"","","","","","single-stim-button","37","278051","0.0-2.0-13.2-1.2","5a7f42215292b8000122c84a","D2","batch4","","1261","tol_toboard","","","","tol_peg_2","1261","1261","0","[[0,0,0],[2,1],[3]]","3","[[2,1,3],[0,0],[0]]","1","0","","","","","","5","","","","","","","","",""
"","","","","","single-stim-button","38","281820","0.0-2.0-13.3-0.3","5a7f42215292b8000122c84a","D2","batch4","","3768","tol_tohand","","","","tol_peg_3","3768","3768","0","[[0,0,0],[2,1],[0]]","4","[[2,1,3],[0,0],[0]]","1","0","","","","","","5","","","","","","","","",""
"","","","","","single-stim-button","39","284589","0.0-2.0-13.3-1.3","5a7f42215292b8000122c84a","D2","batch4","","2767","tol_toboard","","","","tol_peg_3","2767","2767","0","[[0,0,0],[2,1],[3]]","4","[[2,1,3],[0,0],[0]]","1","0","","","","","","5","","","","","","","","",""
"","","","","","single-stim-button","40","289707","0.0-2.0-13.4-0.4","5a7f42215292b8000122c84a","D2","batch4","","5118","tol_tohand","","","","tol_peg_3","5118","5118","0","[[0,0,0],[2,1],[0]]","5","[[2,1,3],[0,0],[0]]","1","0","","","","","","5","","","","","","","","",""
"","","","","","single-stim-button","41","291388","0.0-2.0-13.4-1.4","5a7f42215292b8000122c84a","D2","batch4","","1680","tol_toboard","","","","tol_peg_1","1680","1680","0","[[3,0,0],[2,1],[0]]","5","[[2,1,3],[0,0],[0]]","1","0","","","","","","5","","","","","","","","",""
"","","","","","single-stim-button","42","292322","0.0-2.0-13.5-0.5","5a7f42215292b8000122c84a","D2","batch4","","933","tol_tohand","","","","tol_peg_2","933","933","0","[[3,0,0],[2,0],[0]]","6","[[2,1,3],[0,0],[0]]","1","0","","","","","","5","","","","","","","","",""
"","","","","","single-stim-button","43","293384","0.0-2.0-13.5-1.5","5a7f42215292b8000122c84a","D2","batch4","","1062","tol_toboard","","","","tol_peg_3","1062","1062","0","[[3,0,0],[2,0],[1]]","6","[[2,1,3],[0,0],[0]]","1","0","","","","","","5","","","","","","","","",""
"","","","","","single-stim-button","44","296411","0.0-2.0-13.6-0.6","5a7f42215292b8000122c84a","D2","batch4","","3026","tol_tohand","","","","tol_peg_2","3026","3026","0","[[3,0,0],[0,0],[1]]","7","[[2,1,3],[0,0],[0]]","1","0","","","","","","5","","","","","","","","",""
"","","","","","single-stim-button","45","297157","0.0-2.0-13.6-1.6","5a7f42215292b8000122c84a","D2","batch4","","745","tol_toboard","","","","tol_peg_1","745","745","0","[[3,2,0],[0,0],[1]]","7","[[2,1,3],[0,0],[0]]","1","0","","","","","","5","","","","","","","","",""
"","","","","","single-stim-button","46","300926","0.0-2.0-13.7-0.7","5a7f42215292b8000122c84a","D2","batch4","","3767","tol_tohand","","","","tol_peg_1","3767","3767","0","[[3,0,0],[0,0],[1]]","8","[[2,1,3],[0,0],[0]]","1","0","","","","","","5","","","","","","","","",""
"","","","","","single-stim-button","47","302942","0.0-2.0-13.7-1.7","5a7f42215292b8000122c84a","D2","batch4","","2016","tol_toboard","","","","tol_peg_2","2016","2016","0","[[3,0,0],[2,0],[1]]","8","[[2,1,3],[0,0],[0]]","1","0","","","","","","5","","","","","","","","",""
"","","","","","single-stim-button","48","303838","0.0-2.0-13.8-0.8","5a7f42215292b8000122c84a","D2","batch4","","895","tol_tohand","","","","tol_peg_1","895","895","0","[[0,0,0],[2,0],[1]]","9","[[2,1,3],[0,0],[0]]","1","0","","","","","","5","","","","","","","","",""
"","","","","","single-stim-button","49","304754","0.0-2.0-13.8-1.8","5a7f42215292b8000122c84a","D2","batch4","","914","tol_toboard","","","","tol_peg_2","914","914","0","[[0,0,0],[2,3],[1]]","9","[[2,1,3],[0,0],[0]]","1","0","","","","","","5","","","","","","","","",""
"","","","","","single-stim-button","50","309598","0.0-2.0-13.9-0.9","5a7f42215292b8000122c84a","D2","batch4","","4844","tol_tohand","","","","tol_peg_3","4844","4844","0","[[0,0,0],[2,3],[0]]","10","[[2,1,3],[0,0],[0]]","1","0","","","","","","5","","","","","","","","",""
"","","","","","single-stim-button","51","311230","0.0-2.0-13.9-1.9","5a7f42215292b8000122c84a","D2","batch4","","1631","tol_toboard","","","","tol_peg_1","1631","1631","0","[[1,0,0],[2,3],[0]]","10","[[2,1,3],[0,0],[0]]","1","0","","","","","","5","","","","","","","","",""
"","","","","","single-stim-button","52","312298","0.0-2.0-13.10-0.10","5a7f42215292b8000122c84a","D2","batch4","","1068","tol_tohand","","","","tol_peg_2","1068","1068","0","[[1,0,0],[2,0],[0]]","11","[[2,1,3],[0,0],[0]]","1","0","","","","","","5","","","","","","","","",""
"","","","","","single-stim-button","53","316344","0.0-2.0-13.10-1.10","5a7f42215292b8000122c84a","D2","batch4","","4044","tol_toboard","","","","tol_peg_3","4044","4044","0","[[1,0,0],[2,0],[3]]","11","[[2,1,3],[0,0],[0]]","1","0","","","","","","5","","","","","","","","",""
"","","","","","single-stim-button","54","318746","0.0-2.0-13.11-0.11","5a7f42215292b8000122c84a","D2","batch4","","2402","tol_tohand","","","","tol_peg_2","2402","2402","0","[[1,0,0],[0,0],[3]]","12","[[2,1,3],[0,0],[0]]","1","0","","","","","","5","","","","","","","","",""
"","","","","","single-stim-button","55","320730","0.0-2.0-13.11-1.11","5a7f42215292b8000122c84a","D2","batch4","","1982","tol_toboard","","","","tol_peg_1","1982","1982","0","[[1,2,0],[0,0],[3]]","12","[[2,1,3],[0,0],[0]]","1","0","","","","","","5","","","","","","","","",""
"","","","","","single-stim-button","56","326336","0.0-2.0-13.12-0.12","5a7f42215292b8000122c84a","D2","batch4","","5605","tol_tohand","","","","tol_peg_3","5605","5605","0","[[1,2,0],[0,0],[0]]","13","[[2,1,3],[0,0],[0]]","1","0","","","","","","5","","","","","","","","",""
"","","","","","single-stim-button","57","328065","0.0-2.0-13.12-1.12","5a7f42215292b8000122c84a","D2","batch4","","1728","tol_toboard","","","","tol_peg_2","1728","1728","0","[[1,2,0],[3,0],[0]]","13","[[2,1,3],[0,0],[0]]","1","0","","","","","","5","","","","","","","","",""
"","","","","","single-stim-button","58","329800","0.0-2.0-13.13-0.13","5a7f42215292b8000122c84a","D2","batch4","","1733","tol_tohand","","","","tol_peg_1","1733","1733","0","[[1,0,0],[3,0],[0]]","14","[[2,1,3],[0,0],[0]]","1","0","","","","","","5","","","","","","","","",""
"","","","","","single-stim-button","59","331212","0.0-2.0-13.13-1.13","5a7f42215292b8000122c84a","D2","batch4","","1412","tol_toboard","","","","tol_peg_2","1412","1412","0","[[1,0,0],[3,2],[0]]","14","[[2,1,3],[0,0],[0]]","1","0","","","","","","5","","","","","","","","",""
"","","","","","single-stim-button","60","332445","0.0-2.0-13.14-0.14","5a7f42215292b8000122c84a","D2","batch4","","1231","tol_tohand","","","","tol_peg_1","1231","1231","0","[[0,0,0],[3,2],[0]]","15","[[2,1,3],[0,0],[0]]","1","0","","","","","","5","","","","","","","","",""
"","","","","","single-stim-button","61","334116","0.0-2.0-13.14-1.14","5a7f42215292b8000122c84a","D2","batch4","","1670","tol_toboard","","","","tol_peg_3","1670","1670","0","[[0,0,0],[3,2],[1]]","15","[[2,1,3],[0,0],[0]]","1","0","","","","","","5","","","","","","","","",""
"","","","","","single-stim-button","62","335591","0.0-2.0-13.15-0.15","5a7f42215292b8000122c84a","D2","batch4","","1474","tol_tohand","","","","tol_peg_2","1474","1474","0","[[0,0,0],[3,0],[1]]","16","[[2,1,3],[0,0],[0]]","1","0","","","","","","5","","","","","","","","",""
"","","","","","single-stim-button","63","337118","0.0-2.0-13.15-1.15","5a7f42215292b8000122c84a","D2","batch4","","1527","tol_toboard","","","","tol_peg_1","1527","1527","0","[[2,0,0],[3,0],[1]]","16","[[2,1,3],[0,0],[0]]","1","0","","","","","","5","","","","","","","","",""
"","","","","","single-stim-button","64","338084","0.0-2.0-13.16-0.16","5a7f42215292b8000122c84a","D2","batch4","","965","tol_tohand","","","","tol_peg_3","965","965","0","[[2,0,0],[3,0],[0]]","17","[[2,1,3],[0,0],[0]]","1","0","","","","","","5","","","","","","","","",""
"","","","","","single-stim-button","65","339641","0.0-2.0-13.16-1.16","5a7f42215292b8000122c84a","D2","batch4","","1557","tol_toboard","","","","tol_peg_1","1557","1557","0","[[2,1,0],[3,0],[0]]","17","[[2,1,3],[0,0],[0]]","1","0","","","","","","5","","","","","","","","",""
"","","","","","single-stim-button","66","340562","0.0-2.0-13.17-0.17","5a7f42215292b8000122c84a","D2","batch4","","920","tol_tohand","","","","tol_peg_2","920","920","0","[[2,1,0],[0,0],[0]]","18","[[2,1,3],[0,0],[0]]","1","0","","","","","","5","","","","","","","","",""
"","","","","","single-stim-button","67","341713","0.0-2.0-13.17-1.17","5a7f42215292b8000122c84a","D2","batch4","","1150","tol_toboard","","","","tol_peg_1","1150","1150","0","[[2,1,3],[0,0],[0]]","18","[[2,1,3],[0,0],[0]]","1","0","","","","","","5","","","","","","","","",""
"","","","","","poldrack-single-stim","68","342730","0.0-2.0-14.0","5a7f42215292b8000122c84a","D2","batch4","","-1","tol_feedback","","","true","","1000","1000","500","","","","","","-1","none","true","38590","102880","","","","","","","","","",""
"","","","","","html-button-response","69","344532","0.0-2.0-15.0","5a7f42215292b8000122c84a","D2","batch4","","1800.8999999910593","tol_trial_num","<div class = centerbox><p class = center-block-text>problem <strong>3</strong> out of 25 problems</p></div>","0","","","","","","","","","","","","","","","","","","","","","","","","",""
"","","","","","single-stim-button","70","360047","0.0-2.0-16.0-0.0","5a7f42215292b8000122c84a","D2","batch4","","15514","tol_tohand","","","","tol_peg_3","15514","15514","0","[[2,3,0],[0,0],[0]]","1","[[1,2,0],[3,0],[0]]","2","0","","","","","","4","","","","","","","","",""
"","","","","","single-stim-button","71","361395","0.0-2.0-16.0-1.0","5a7f42215292b8000122c84a","D2","batch4","","1347","tol_toboard","","","","tol_peg_2","1347","1347","0","[[2,3,0],[1,0],[0]]","1","[[1,2,0],[3,0],[0]]","2","0","","","","","","4","","","","","","","","",""
"","","","","","single-stim-button","72","362402","0.0-2.0-16.1-0.1","5a7f42215292b8000122c84a","D2","batch4","","1006","tol_tohand","","","","tol_peg_1","1006","1006","0","[[2,0,0],[1,0],[0]]","2","[[1,2,0],[3,0],[0]]","2","0","","","","","","4","","","","","","","","",""
"","","","","","single-stim-button","73","379680","0.0-2.0-16.1-1.1","5a7f42215292b8000122c84a","D2","batch4","","17277","tol_toboard","","","","tol_peg_3","17277","17277","0","[[2,0,0],[1,0],[3]]","2","[[1,2,0],[3,0],[0]]","2","0","","","","","","4","","","","","","","","",""
"","","","","","single-stim-button","74","385216","0.0-2.0-16.2-0.2","5a7f42215292b8000122c84a","D2","batch4","","5535","tol_tohand","","","","tol_peg_1","5535","5535","0","[[0,0,0],[1,0],[3]]","3","[[1,2,0],[3,0],[0]]","2","0","","","","","","4","","","","","","","","",""
"","","","","","single-stim-button","75","386621","0.0-2.0-16.2-1.2","5a7f42215292b8000122c84a","D2","batch4","","1403","tol_toboard","","","","tol_peg_2","1403","1403","0","[[0,0,0],[1,2],[3]]","3","[[1,2,0],[3,0],[0]]","2","0","","","","","","4","","","","","","","","",""
"","","","","","single-stim-button","76","387609","0.0-2.0-16.3-0.3","5a7f42215292b8000122c84a","D2","batch4","","987","tol_tohand","","","","tol_peg_2","987","987","0","[[0,0,0],[1,0],[3]]","4","[[1,2,0],[3,0],[0]]","2","0","","","","","","4","","","","","","","","",""
"","","","","","single-stim-button","77","400423","0.0-2.0-16.3-1.3","5a7f42215292b8000122c84a","D2","batch4","","12813","tol_toboard","","","","tol_peg_2","12813","12813","0","[[0,0,0],[1,2],[3]]","4","[[1,2,0],[3,0],[0]]","2","0","","","","","","4","","","","","","","","",""
"","","","","","single-stim-button","78","401651","0.0-2.0-16.4-0.4","5a7f42215292b8000122c84a","D2","batch4","","1228","tol_tohand","","","","tol_peg_3","1228","1228","0","[[0,0,0],[1,2],[0]]","5","[[1,2,0],[3,0],[0]]","2","0","","","","","","4","","","","","","","","",""
"","","","","","single-stim-button","79","404430","0.0-2.0-16.4-1.4","5a7f42215292b8000122c84a","D2","batch4","","2778","tol_toboard","","","","tol_peg_1","2778","2778","0","[[3,0,0],[1,2],[0]]","5","[[1,2,0],[3,0],[0]]","2","0","","","","","","4","","","","","","","","",""
"","","","","","single-stim-button","80","411810","0.0-2.0-16.5-0.5","5a7f42215292b8000122c84a","D2","batch4","","7378","tol_tohand","","","","tol_peg_2","7378","7378","0","[[3,0,0],[1,0],[0]]","6","[[1,2,0],[3,0],[0]]","2","0","","","","","","4","","","","","","","","",""
"","","","","","single-stim-button","81","412860","0.0-2.0-16.5-1.5","5a7f42215292b8000122c84a","D2","batch4","","1050","tol_toboard","","","","tol_peg_1","1050","1050","0","[[3,2,0],[1,0],[0]]","6","[[1,2,0],[3,0],[0]]","2","0","","","","","","4","","","","","","","","",""
"","","","","","single-stim-button","82","414348","0.0-2.0-16.6-0.6","5a7f42215292b8000122c84a","D2","batch4","","1486","tol_tohand","","","","tol_peg_2","1486","1486","0","[[3,2,0],[0,0],[0]]","7","[[1,2,0],[3,0],[0]]","2","0","","","","","","4","","","","","","","","",""
"","","","","","single-stim-button","83","415325","0.0-2.0-16.6-1.6","5a7f42215292b8000122c84a","D2","batch4","","977","tol_toboard","","","","tol_peg_3","977","977","0","[[3,2,0],[0,0],[1]]","7","[[1,2,0],[3,0],[0]]","2","0","","","","","","4","","","","","","","","",""
"","","","","","single-stim-button","84","420443","0.0-2.0-16.7-0.7","5a7f42215292b8000122c84a","D2","batch4","","5117","tol_tohand","","","","tol_peg_1","5117","5117","0","[[3,0,0],[0,0],[1]]","8","[[1,2,0],[3,0],[0]]","2","0","","","","","","4","","","","","","","","",""
"","","","","","single-stim-button","85","421603","0.0-2.0-16.7-1.7","5a7f42215292b8000122c84a","D2","batch4","","1158","tol_toboard","","","","tol_peg_2","1158","1158","0","[[3,0,0],[2,0],[1]]","8","[[1,2,0],[3,0],[0]]","2","0","","","","","","4","","","","","","","","",""
"","","","","","single-stim-button","86","423562","0.0-2.0-16.8-0.8","5a7f42215292b8000122c84a","D2","batch4","","1959","tol_tohand","","","","tol_peg_1","1959","1959","0","[[0,0,0],[2,0],[1]]","9","[[1,2,0],[3,0],[0]]","2","0","","","","","","4","","","","","","","","",""
"","","","","","single-stim-button","87","425224","0.0-2.0-16.8-1.8","5a7f42215292b8000122c84a","D2","batch4","","1661","tol_toboard","","","","tol_peg_2","1661","1661","0","[[0,0,0],[2,3],[1]]","9","[[1,2,0],[3,0],[0]]","2","0","","","","","","4","","","","","","","","",""
"","","","","","single-stim-button","88","426383","0.0-2.0-16.9-0.9","5a7f42215292b8000122c84a","D2","batch4","","1158","tol_tohand","","","","tol_peg_3","1158","1158","0","[[0,0,0],[2,3],[0]]","10","[[1,2,0],[3,0],[0]]","2","0","","","","","","4","","","","","","","","",""
"","","","","","single-stim-button","89","428545","0.0-2.0-16.9-1.9","5a7f42215292b8000122c84a","D2","batch4","","2162","tol_toboard","","","","tol_peg_1","2162","2162","0","[[1,0,0],[2,3],[0]]","10","[[1,2,0],[3,0],[0]]","2","0","","","","","","4","","","","","","","","",""
"","","","","","single-stim-button","90","429568","0.0-2.0-16.10-0.10","5a7f42215292b8000122c84a","D2","batch4","","1021","tol_tohand","","","","tol_peg_2","1021","1021","0","[[1,0,0],[2,0],[0]]","11","[[1,2,0],[3,0],[0]]","2","0","","","","","","4","","","","","","","","",""
"","","","","","single-stim-button","91","430455","0.0-2.0-16.10-1.10","5a7f42215292b8000122c84a","D2","batch4","","886","tol_toboard","","","","tol_peg_3","886","886","0","[[1,0,0],[2,0],[3]]","11","[[1,2,0],[3,0],[0]]","2","0","","","","","","4","","","","","","","","",""
"","","","","","single-stim-button","92","431371","0.0-2.0-16.11-0.11","5a7f42215292b8000122c84a","D2","batch4","","916","tol_tohand","","","","tol_peg_2","916","916","0","[[1,0,0],[0,0],[3]]","12","[[1,2,0],[3,0],[0]]","2","0","","","","","","4","","","","","","","","",""
"","","","","","single-stim-button","93","432288","0.0-2.0-16.11-1.11","5a7f42215292b8000122c84a","D2","batch4","","916","tol_toboard","","","","tol_peg_1","916","916","0","[[1,2,0],[0,0],[3]]","12","[[1,2,0],[3,0],[0]]","2","0","","","","","","4","","","","","","","","",""
"","","","","","single-stim-button","94","433980","0.0-2.0-16.12-0.12","5a7f42215292b8000122c84a","D2","batch4","","1691","tol_tohand","","","","tol_peg_3","1691","1691","0","[[1,2,0],[0,0],[0]]","13","[[1,2,0],[3,0],[0]]","2","0","","","","","","4","","","","","","","","",""
"","","","","","single-stim-button","95","434839","0.0-2.0-16.12-1.12","5a7f42215292b8000122c84a","D2","batch4","","858","tol_toboard","","","","tol_peg_2","858","858","0","[[1,2,0],[3,0],[0]]","13","[[1,2,0],[3,0],[0]]","2","0","","","","","","4","","","","","","","","",""
"","","","","","poldrack-single-stim","96","435843","0.0-2.0-17.0","5a7f42215292b8000122c84a","D2","batch4","","-1","tol_feedback","","","true","","1000","1000","500","","","","","","-1","none","true","15514","44996","","","","","","","","","",""
"","","","","","html-button-response","97","436753","0.0-2.0-18.0","5a7f42215292b8000122c84a","D2","batch4","","909.5","tol_trial_num","<div class = centerbox><p class = center-block-text>problem <strong>4</strong> out of 25 problems</p></div>","0","","","","","","","","","","","","","","","","","","","","","","","","",""
"","","","","","single-stim-button","98","447830","0.0-2.0-19.0-0.0","5a7f42215292b8000122c84a","D2","batch4","","11076","tol_tohand","","","","tol_peg_2","11076","11076","0","[[3,0,0],[2,0],[0]]","1","[[3,0,0],[1,0],[2]]","3","0","","","","","","3","","","","","","","","",""
"","","","","","single-stim-button","99","448993","0.0-2.0-19.0-1.0","5a7f42215292b8000122c84a","D2","batch4","","1162","tol_toboard","","","","tol_peg_1","1162","1162","0","[[3,1,0],[2,0],[0]]","1","[[3,0,0],[1,0],[2]]","3","0","","","","","","3","","","","","","","","",""
"","","","","","single-stim-button","100","449976","0.0-2.0-19.1-0.1","5a7f42215292b8000122c84a","D2","batch4","","983","tol_tohand","","","","tol_peg_2","983","983","0","[[3,1,0],[0,0],[0]]","2","[[3,0,0],[1,0],[2]]","3","0","","","","","","3","","","","","","","","",""
"","","","","","single-stim-button","101","451537","0.0-2.0-19.1-1.1","5a7f42215292b8000122c84a","D2","batch4","","1560","tol_toboard","","","","tol_peg_3","1560","1560","0","[[3,1,0],[0,0],[2]]","2","[[3,0,0],[1,0],[2]]","3","0","","","","","","3","","","","","","","","",""
"","","","","","single-stim-button","102","452489","0.0-2.0-19.2-0.2","5a7f42215292b8000122c84a","D2","batch4","","952","tol_tohand","","","","tol_peg_1","952","952","0","[[3,0,0],[0,0],[2]]","3","[[3,0,0],[1,0],[2]]","3","0","","","","","","3","","","","","","","","",""
"","","","","","single-stim-button","103","453907","0.0-2.0-19.2-1.2","5a7f42215292b8000122c84a","D2","batch4","","1416","tol_toboard","","","","tol_peg_2","1416","1416","0","[[3,0,0],[1,0],[2]]","3","[[3,0,0],[1,0],[2]]","3","0","","","","","","3","","","","","","","","",""
"","","","","","poldrack-single-stim","104","454921","0.0-2.0-20.0","5a7f42215292b8000122c84a","D2","batch4","","-1","tol_feedback","","","true","","1000","1000","500","","","","","","-1","none","true","11076","13011","","","","","","","","","",""
"","","","","","html-button-response","105","456024","0.0-2.0-21.0","5a7f42215292b8000122c84a","D2","batch4","","1101.5999999940395","tol_trial_num","<div class = centerbox><p class = center-block-text>problem <strong>5</strong> out of 25 problems</p></div>","0","","","","","","","","","","","","","","","","","","","","","","","","",""
"","","","","","single-stim-button","106","489348","0.0-2.0-22.0-0.0","5a7f42215292b8000122c84a","D2","batch4","","33323","tol_tohand","","","","tol_peg_3","33323","33323","0","[[1,0,0],[2,0],[0]]","1","[[0,0,0],[1,2],[3]]","4","0","","","","","","7","","","","","","","","",""
"","","","","","single-stim-button","107","495577","0.0-2.0-22.0-1.0","5a7f42215292b8000122c84a","D2","batch4","","6229","tol_toboard","","","","tol_peg_1","6229","6229","0","[[1,3,0],[2,0],[0]]","1","[[0,0,0],[1,2],[3]]","4","0","","","","","","7","","","","","","","","",""
"","","","","","single-stim-button","108","498920","0.0-2.0-22.1-0.1","5a7f42215292b8000122c84a","D2","batch4","","3341","tol_tohand","","","","tol_peg_2","3341","3341","0","[[1,3,0],[0,0],[0]]","2","[[0,0,0],[1,2],[3]]","4","0","","","","","","7","","","","","","","","",""
"","","","","","single-stim-button","109","502093","0.0-2.0-22.1-1.1","5a7f42215292b8000122c84a","D2","batch4","","3173","tol_toboard","","","","tol_peg_3","3173","3173","0","[[1,3,0],[0,0],[2]]","2","[[0,0,0],[1,2],[3]]","4","0","","","","","","7","","","","","","","","",""
"","","","","","single-stim-button","110","511155","0.0-2.0-22.2-0.2","5a7f42215292b8000122c84a","D2","batch4","","9060","tol_tohand","","","","tol_peg_1","9060","9060","0","[[1,0,0],[0,0],[2]]","3","[[0,0,0],[1,2],[3]]","4","0","","","","","","7","","","","","","","","",""
"","","","","","single-stim-button","111","513660","0.0-2.0-22.2-1.2","5a7f42215292b8000122c84a","D2","batch4","","2505","tol_toboard","","","","tol_peg_2","2505","2505","0","[[1,0,0],[3,0],[2]]","3","[[0,0,0],[1,2],[3]]","4","0","","","","","","7","","","","","","","","",""
"","","","","","single-stim-button","112","515165","0.0-2.0-22.3-0.3","5a7f42215292b8000122c84a","D2","batch4","","1504","tol_tohand","","","","tol_peg_1","1504","1504","0","[[0,0,0],[3,0],[2]]","4","[[0,0,0],[1,2],[3]]","4","0","","","","","","7","","","","","","","","",""
"","","","","","single-stim-button","113","518849","0.0-2.0-22.3-1.3","5a7f42215292b8000122c84a","D2","batch4","","3683","tol_toboard","","","","tol_peg_2","3683","3683","0","[[0,0,0],[3,1],[2]]","4","[[0,0,0],[1,2],[3]]","4","0","","","","","","7","","","","","","","","",""
"","","","","","single-stim-button","114","523178","0.0-2.0-22.4-0.4","5a7f42215292b8000122c84a","D2","batch4","","4327","tol_tohand","","","","tol_peg_3","4327","4327","0","[[0,0,0],[3,1],[0]]","5","[[0,0,0],[1,2],[3]]","4","0","","","","","","7","","","","","","","","",""
"","","","","","single-stim-button","115","525467","0.0-2.0-22.4-1.4","5a7f42215292b8000122c84a","D2","batch4","","2289","tol_toboard","","","","tol_peg_1","2289","2289","0","[[2,0,0],[3,1],[0]]","5","[[0,0,0],[1,2],[3]]","4","0","","","","","","7","","","","","","","","",""
"","","","","","single-stim-button","116","530557","0.0-2.0-22.5-0.5","5a7f42215292b8000122c84a","D2","batch4","","5089","tol_tohand","","","","tol_peg_2","5089","5089","0","[[2,0,0],[3,0],[0]]","6","[[0,0,0],[1,2],[3]]","4","0","","","","","","7","","","","","","","","",""
"","","","","","single-stim-button","117","531716","0.0-2.0-22.5-1.5","5a7f42215292b8000122c84a","D2","batch4","","1158","tol_toboard","","","","tol_peg_1","1158","1158","0","[[2,1,0],[3,0],[0]]","6","[[0,0,0],[1,2],[3]]","4","0","","","","","","7","","","","","","","","",""
"","","","","","single-stim-button","118","532859","0.0-2.0-22.6-0.6","5a7f42215292b8000122c84a","D2","batch4","","1143","tol_tohand","","","","tol_peg_2","1143","1143","0","[[2,1,0],[0,0],[0]]","7","[[0,0,0],[1,2],[3]]","4","0","","","","","","7","","","","","","","","",""
"","","","","","single-stim-button","119","533952","0.0-2.0-22.6-1.6","5a7f42215292b8000122c84a","D2","batch4","","1093","tol_toboard","","","","tol_peg_3","1093","1093","0","[[2,1,0],[0,0],[3]]","7","[[0,0,0],[1,2],[3]]","4","0","","","","","","7","","","","","","","","",""
"","","","","","single-stim-button","120","535139","0.0-2.0-22.7-0.7","5a7f42215292b8000122c84a","D2","batch4","","1186","tol_tohand","","","","tol_peg_1","1186","1186","0","[[2,0,0],[0,0],[3]]","8","[[0,0,0],[1,2],[3]]","4","0","","","","","","7","","","","","","","","",""
"","","","","","single-stim-button","121","536102","0.0-2.0-22.7-1.7","5a7f42215292b8000122c84a","D2","batch4","","961","tol_toboard","","","","tol_peg_2","961","961","0","[[2,0,0],[1,0],[3]]","8","[[0,0,0],[1,2],[3]]","4","0","","","","","","7","","","","","","","","",""
"","","","","","single-stim-button","122","537071","0.0-2.0-22.8-0.8","5a7f42215292b8000122c84a","D2","batch4","","968","tol_tohand","","","","tol_peg_1","968","968","0","[[0,0,0],[1,0],[3]]","9","[[0,0,0],[1,2],[3]]","4","0","","","","","","7","","","","","","","","",""
"","","","","","single-stim-button","123","538118","0.0-2.0-22.8-1.8","5a7f42215292b8000122c84a","D2","batch4","","1047","tol_toboard","","","","tol_peg_2","1047","1047","0","[[0,0,0],[1,2],[3]]","9","[[0,0,0],[1,2],[3]]","4","0","","","","","","7","","","","","","","","",""
"","","","","","poldrack-single-stim","124","539132","0.0-2.0-23.0","5a7f42215292b8000122c84a","D2","batch4","","-1","tol_feedback","","","true","","1000","1000","500","","","","","","-1","none","true","33323","59941","","","","","","","","","",""
"","","","","","html-button-response","125","540908","0.0-2.0-24.0","5a7f42215292b8000122c84a","D2","batch4","","1774.7999999970198","tol_trial_num","<div class = centerbox><p class = center-block-text>problem <strong>6</strong> out of 25 problems</p></div>","0","","","","","","","","","","","","","","","","","","","","","","","","",""
"","","","","","single-stim-button","126","554629","0.0-2.0-25.0-0.0","5a7f42215292b8000122c84a","D2","batch4","","13720","tol_tohand","","","","tol_peg_3","13720","13720","0","[[0,0,0],[1,2],[0]]","1","[[1,0,0],[2,3],[0]]","5","0","","","","","","6","","","","","","","","",""
"","","","","","single-stim-button","127","557193","0.0-2.0-25.0-1.0","5a7f42215292b8000122c84a","D2","batch4","","2564","tol_toboard","","","","tol_peg_1","2564","2564","0","[[3,0,0],[1,2],[0]]","1","[[1,0,0],[2,3],[0]]","5","0","","","","","","6","","","","","","","","",""
"","","","","","single-stim-button","128","561947","0.0-2.0-25.1-0.1","5a7f42215292b8000122c84a","D2","batch4","","4752","tol_tohand","","","","tol_peg_2","4752","4752","0","[[3,0,0],[1,0],[0]]","2","[[1,0,0],[2,3],[0]]","5","0","","","","","","6","","","","","","","","",""
"","","","","","single-stim-button","129","563925","0.0-2.0-25.1-1.1","5a7f42215292b8000122c84a","D2","batch4","","1978","tol_toboard","","","","tol_peg_1","1978","1978","0","[[3,2,0],[1,0],[0]]","2","[[1,0,0],[2,3],[0]]","5","0","","","","","","6","","","","","","","","",""
"","","","","","single-stim-button","130","565478","0.0-2.0-25.2-0.2","5a7f42215292b8000122c84a","D2","batch4","","1552","tol_tohand","","","","tol_peg_2","1552","1552","0","[[3,2,0],[0,0],[0]]","3","[[1,0,0],[2,3],[0]]","5","0","","","","","","6","","","","","","","","",""
"","","","","","single-stim-button","131","566501","0.0-2.0-25.2-1.2","5a7f42215292b8000122c84a","D2","batch4","","1022","tol_toboard","","","","tol_peg_3","1022","1022","0","[[3,2,0],[0,0],[1]]","3","[[1,0,0],[2,3],[0]]","5","0","","","","","","6","","","","","","","","",""
"","","","","","single-stim-button","132","568457","0.0-2.0-25.3-0.3","5a7f42215292b8000122c84a","D2","batch4","","1954","tol_tohand","","","","tol_peg_1","1954","1954","0","[[3,0,0],[0,0],[1]]","4","[[1,0,0],[2,3],[0]]","5","0","","","","","","6","","","","","","","","",""
"","","","","","single-stim-button","133","569720","0.0-2.0-25.3-1.3","5a7f42215292b8000122c84a","D2","batch4","","1263","tol_toboard","","","","tol_peg_2","1263","1263","0","[[3,0,0],[2,0],[1]]","4","[[1,0,0],[2,3],[0]]","5","0","","","","","","6","","","","","","","","",""
"","","","","","single-stim-button","134","570790","0.0-2.0-25.4-0.4","5a7f42215292b8000122c84a","D2","batch4","","1069","tol_tohand","","","","tol_peg_1","1069","1069","0","[[0,0,0],[2,0],[1]]","5","[[1,0,0],[2,3],[0]]","5","0","","","","","","6","","","","","","","","",""
"","","","","","single-stim-button","135","571794","0.0-2.0-25.4-1.4","5a7f42215292b8000122c84a","D2","batch4","","1003","tol_toboard","","","","tol_peg_2","1003","1003","0","[[0,0,0],[2,3],[1]]","5","[[1,0,0],[2,3],[0]]","5","0","","","","","","6","","","","","","","","",""
"","","","","","single-stim-button","136","572861","0.0-2.0-25.5-0.5","5a7f42215292b8000122c84a","D2","batch4","","1066","tol_tohand","","","","tol_peg_3","1066","1066","0","[[0,0,0],[2,3],[0]]","6","[[1,0,0],[2,3],[0]]","5","0","","","","","","6","","","","","","","","",""
"","","","","","single-stim-button","137","575268","0.0-2.0-25.5-1.5","5a7f42215292b8000122c84a","D2","batch4","","2406","tol_toboard","","","","tol_peg_1","2406","2406","0","[[1,0,0],[2,3],[0]]","6","[[1,0,0],[2,3],[0]]","5","0","","","","","","6","","","","","","","","",""
"","","","","","poldrack-single-stim","138","576270","0.0-2.0-26.0","5a7f42215292b8000122c84a","D2","batch4","","-1","tol_feedback","","","true","","1000","1000","500","","","","","","-1","none","true","13720","24113","","","","","","","","","",""
"","","","","","html-button-response","139","577324","0.0-2.0-27.0","5a7f42215292b8000122c84a","D2","batch4","","1053","tol_trial_num","<div class = centerbox><p class = center-block-text>problem <strong>7</strong> out of 25 problems</p></div>","0","","","","","","","","","","","","","","","","","","","","","","","","",""
"","","","","","single-stim-button","140","585799","0.0-2.0-28.0-0.0","5a7f42215292b8000122c84a","D2","batch4","","8475","tol_tohand","","","","tol_peg_1","8475","8475","0","[[2,0,0],[0,0],[3]]","1","[[1,2,0],[3,0],[0]]","6","0","","","","","","5","","","","","","","","",""
"","","","","","single-stim-button","141","588151","0.0-2.0-28.0-1.0","5a7f42215292b8000122c84a","D2","batch4","","2350","tol_toboard","","","","tol_peg_2","2350","2350","0","[[2,0,0],[1,0],[3]]","1","[[1,2,0],[3,0],[0]]","6","0","","","","","","5","","","","","","","","",""
"","","","","","single-stim-button","142","596322","0.0-2.0-28.1-0.1","5a7f42215292b8000122c84a","D2","batch4","","8171","tol_tohand","","","","tol_peg_1","8171","8171","0","[[0,0,0],[1,0],[3]]","2","[[1,2,0],[3,0],[0]]","6","0","","","","","","5","","","","","","","","",""
"","","","","","single-stim-button","143","597196","0.0-2.0-28.1-1.1","5a7f42215292b8000122c84a","D2","batch4","","873","tol_toboard","","","","tol_peg_2","873","873","0","[[0,0,0],[1,2],[3]]","2","[[1,2,0],[3,0],[0]]","6","0","","","","","","5","","","","","","","","",""
"","","","","","single-stim-button","144","598308","0.0-2.0-28.2-0.2","5a7f42215292b8000122c84a","D2","batch4","","1111","tol_tohand","","","","tol_peg_3","1111","1111","0","[[0,0,0],[1,2],[0]]","3","[[1,2,0],[3,0],[0]]","6","0","","","","","","5","","","","","","","","",""
"","","","","","single-stim-button","145","599503","0.0-2.0-28.2-1.2","5a7f42215292b8000122c84a","D2","batch4","","1194","tol_toboard","","","","tol_peg_1","1194","1194","0","[[3,0,0],[1,2],[0]]","3","[[1,2,0],[3,0],[0]]","6","0","","","","","","5","","","","","","","","",""
"","","","","","single-stim-button","146","613933","0.0-2.0-28.3-0.3","5a7f42215292b8000122c84a","D2","batch4","","14429","tol_tohand","","","","tol_peg_2","14429","14429","0","[[3,0,0],[1,0],[0]]","4","[[1,2,0],[3,0],[0]]","6","0","","","","","","5","","","","","","","","",""
"","","","","","single-stim-button","147","622478","0.0-2.0-28.3-1.3","5a7f42215292b8000122c84a","D2","batch4","","8544","tol_toboard","","","","tol_peg_3","8544","8544","0","[[3,0,0],[1,0],[2]]","4","[[1,2,0],[3,0],[0]]","6","0","","","","","","5","","","","","","","","",""
"","","","","","single-stim-button","148","629265","0.0-2.0-28.4-0.4","5a7f42215292b8000122c84a","D2","batch4","","6786","tol_tohand","","","","tol_peg_2","6786","6786","0","[[3,0,0],[0,0],[2]]","5","[[1,2,0],[3,0],[0]]","6","0","","","","","","5","","","","","","","","",""
"","","","","","single-stim-button","149","634907","0.0-2.0-28.4-1.4","5a7f42215292b8000122c84a","D2","batch4","","5641","tol_toboard","","","","tol_peg_1","5641","5641","0","[[3,1,0],[0,0],[2]]","5","[[1,2,0],[3,0],[0]]","6","0","","","","","","5","","","","","","","","",""
"","","","","","single-stim-button","150","636446","0.0-2.0-28.5-0.5","5a7f42215292b8000122c84a","D2","batch4","","1538","tol_tohand","","","","tol_peg_3","1538","1538","0","[[3,1,0],[0,0],[0]]","6","[[1,2,0],[3,0],[0]]","6","0","","","","","","5","","","","","","","","",""
"","","","","","single-stim-button","151","637553","0.0-2.0-28.5-1.5","5a7f42215292b8000122c84a","D2","batch4","","1105","tol_toboard","","","","tol_peg_2","1105","1105","0","[[3,1,0],[2,0],[0]]","6","[[1,2,0],[3,0],[0]]","6","0","","","","","","5","","","","","","","","",""
"","","","","","single-stim-button","152","640878","0.0-2.0-28.6-0.6","5a7f42215292b8000122c84a","D2","batch4","","3325","tol_tohand","","","","tol_peg_1","3325","3325","0","[[3,0,0],[2,0],[0]]","7","[[1,2,0],[3,0],[0]]","6","0","","","","","","5","","","","","","","","",""
"","","","","","single-stim-button","153","647972","0.0-2.0-28.6-1.6","5a7f42215292b8000122c84a","D2","batch4","","7092","tol_toboard","","","","tol_peg_3","7092","7092","0","[[3,0,0],[2,0],[1]]","7","[[1,2,0],[3,0],[0]]","6","0","","","","","","5","","","","","","","","",""
"","","","","","single-stim-button","154","650252","0.0-2.0-28.7-0.7","5a7f42215292b8000122c84a","D2","batch4","","2279","tol_tohand","","","","tol_peg_1","2279","2279","0","[[0,0,0],[2,0],[1]]","8","[[1,2,0],[3,0],[0]]","6","0","","","","","","5","","","","","","","","",""
"","","","","","single-stim-button","155","651883","0.0-2.0-28.7-1.7","5a7f42215292b8000122c84a","D2","batch4","","1630","tol_toboard","","","","tol_peg_2","1630","1630","0","[[0,0,0],[2,3],[1]]","8","[[1,2,0],[3,0],[0]]","6","0","","","","","","5","","","","","","","","",""
"","","","","","single-stim-button","156","653724","0.0-2.0-28.8-0.8","5a7f42215292b8000122c84a","D2","batch4","","1841","tol_tohand","","","","tol_peg_3","1841","1841","0","[[0,0,0],[2,3],[0]]","9","[[1,2,0],[3,0],[0]]","6","0","","","","","","5","","","","","","","","",""
"","","","","","single-stim-button","157","654807","0.0-2.0-28.8-1.8","5a7f42215292b8000122c84a","D2","batch4","","1082","tol_toboard","","","","tol_peg_1","1082","1082","0","[[1,0,0],[2,3],[0]]","9","[[1,2,0],[3,0],[0]]","6","0","","","","","","5","","","","","","","","",""
"","","","","","single-stim-button","158","655981","0.0-2.0-28.9-0.9","5a7f42215292b8000122c84a","D2","batch4","","1172","tol_tohand","","","","tol_peg_2","1172","1172","0","[[1,0,0],[2,0],[0]]","10","[[1,2,0],[3,0],[0]]","6","0","","","","","","5","","","","","","","","",""
"","","","","","single-stim-button","159","656973","0.0-2.0-28.9-1.9","5a7f42215292b8000122c84a","D2","batch4","","992","tol_toboard","","","","tol_peg_3","992","992","0","[[1,0,0],[2,0],[3]]","10","[[1,2,0],[3,0],[0]]","6","0","","","","","","5","","","","","","","","",""
"","","","","","single-stim-button","160","658360","0.0-2.0-28.10-0.10","5a7f42215292b8000122c84a","D2","batch4","","1385","tol_tohand","","","","tol_peg_2","1385","1385","0","[[1,0,0],[0,0],[3]]","11","[[1,2,0],[3,0],[0]]","6","0","","","","","","5","","","","","","","","",""
"","","","","","single-stim-button","161","659237","0.0-2.0-28.10-1.10","5a7f42215292b8000122c84a","D2","batch4","","876","tol_toboard","","","","tol_peg_1","876","876","0","[[1,2,0],[0,0],[3]]","11","[[1,2,0],[3,0],[0]]","6","0","","","","","","5","","","","","","","","",""
"","","","","","single-stim-button","162","660762","0.0-2.0-28.11-0.11","5a7f42215292b8000122c84a","D2","batch4","","1524","tol_tohand","","","","tol_peg_3","1524","1524","0","[[1,2,0],[0,0],[0]]","12","[[1,2,0],[3,0],[0]]","6","0","","","","","","5","","","","","","","","",""
"","","","","","single-stim-button","163","661784","0.0-2.0-28.11-1.11","5a7f42215292b8000122c84a","D2","batch4","","1022","tol_toboard","","","","tol_peg_2","1022","1022","0","[[1,2,0],[3,0],[0]]","12","[[1,2,0],[3,0],[0]]","6","0","","","","","","5","","","","","","","","",""
"","","","","","poldrack-single-stim","164","662797","0.0-2.0-29.0","5a7f42215292b8000122c84a","D2","batch4","","-1","tol_feedback","","","true","","1000","1000","500","","","","","","-1","none","true","8475","52036","","","","","","","","","",""
"","","","","","html-button-response","165","663923","0.0-2.0-30.0","5a7f42215292b8000122c84a","D2","batch4","","1124.5999999940395","tol_trial_num","<div class = centerbox><p class = center-block-text>problem <strong>8</strong> out of 25 problems</p></div>","0","","","","","","","","","","","","","","","","","","","","","","","","",""
"","","","","","single-stim-button","166","670116","0.0-2.0-31.0-0.0","5a7f42215292b8000122c84a","D2","batch4","","6193","tol_tohand","","","","tol_peg_3","6193","6193","0","[[0,0,0],[2,3],[0]]","1","[[1,2,0],[3,0],[0]]","7","0","","","","","","4","","","","","","","","",""
"","","","","","single-stim-button","167","671955","0.0-2.0-31.0-1.0","5a7f42215292b8000122c84a","D2","batch4","","1838","tol_toboard","","","","tol_peg_1","1838","1838","0","[[1,0,0],[2,3],[0]]","1","[[1,2,0],[3,0],[0]]","7","0","","","","","","4","","","","","","","","",""
"","","","","","single-stim-button","168","675471","0.0-2.0-31.1-0.1","5a7f42215292b8000122c84a","D2","batch4","","3515","tol_tohand","","","","tol_peg_2","3515","3515","0","[[1,0,0],[2,0],[0]]","2","[[1,2,0],[3,0],[0]]","7","0","","","","","","4","","","","","","","","",""
"","","","","","single-stim-button","169","677005","0.0-2.0-31.1-1.1","5a7f42215292b8000122c84a","D2","batch4","","1533","tol_toboard","","","","tol_peg_3","1533","1533","0","[[1,0,0],[2,0],[3]]","2","[[1,2,0],[3,0],[0]]","7","0","","","","","","4","","","","","","","","",""
"","","","","","single-stim-button","170","678795","0.0-2.0-31.2-0.2","5a7f42215292b8000122c84a","D2","batch4","","1789","tol_tohand","","","","tol_peg_2","1789","1789","0","[[1,0,0],[0,0],[3]]","3","[[1,2,0],[3,0],[0]]","7","0","","","","","","4","","","","","","","","",""
"","","","","","single-stim-button","171","679864","0.0-2.0-31.2-1.2","5a7f42215292b8000122c84a","D2","batch4","","1068","tol_toboard","","","","tol_peg_1","1068","1068","0","[[1,2,0],[0,0],[3]]","3","[[1,2,0],[3,0],[0]]","7","0","","","","","","4","","","","","","","","",""
"","","","","","single-stim-button","172","682263","0.0-2.0-31.3-0.3","5a7f42215292b8000122c84a","D2","batch4","","2399","tol_tohand","","","","tol_peg_3","2399","2399","0","[[1,2,0],[0,0],[0]]","4","[[1,2,0],[3,0],[0]]","7","0","","","","","","4","","","","","","","","",""
"","","","","","single-stim-button","173","683298","0.0-2.0-31.3-1.3","5a7f42215292b8000122c84a","D2","batch4","","1035","tol_toboard","","","","tol_peg_2","1035","1035","0","[[1,2,0],[3,0],[0]]","4","[[1,2,0],[3,0],[0]]","7","0","","","","","","4","","","","","","","","",""
"","","","","","poldrack-single-stim","174","684313","0.0-2.0-32.0","5a7f42215292b8000122c84a","D2","batch4","","-1","tol_feedback","","","true","","1000","1000","500","","","","","","-1","none","true","6193","13896","","","","","","","","","",""
"","","","","","html-button-response","175","685786","0.0-2.0-33.0","5a7f42215292b8000122c84a","D2","batch4","","1471.9000000059605","tol_trial_num","<div class = centerbox><p class = center-block-text>problem <strong>9</strong> out of 25 problems</p></div>","0","","","","","","","","","","","","","","","","","","","","","","","","",""
"","","","","","single-stim-button","176","700640","0.0-2.0-34.0-0.0","5a7f42215292b8000122c84a","D2","batch4","","14853","tol_tohand","","","","tol_peg_3","14853","14853","0","[[3,2,0],[0,0],[0]]","1","[[2,1,0],[3,0],[0]]","8","0","","","","","","6","","","","","","","","",""
"","","","","","single-stim-button","177","702672","0.0-2.0-34.0-1.0","5a7f42215292b8000122c84a","D2","batch4","","2030","tol_toboard","","","","tol_peg_2","2030","2030","0","[[3,2,0],[1,0],[0]]","1","[[2,1,0],[3,0],[0]]","8","0","","","","","","6","","","","","","","","",""
"","","","","","single-stim-button","178","703671","0.0-2.0-34.1-0.1","5a7f42215292b8000122c84a","D2","batch4","","999","tol_tohand","","","","tol_peg_1","999","999","0","[[3,0,0],[1,0],[0]]","2","[[2,1,0],[3,0],[0]]","8","0","","","","","","6","","","","","","","","",""
"","","","","","single-stim-button","179","707874","0.0-2.0-34.1-1.1","5a7f42215292b8000122c84a","D2","batch4","","4201","tol_toboard","","","","tol_peg_2","4201","4201","0","[[3,0,0],[1,2],[0]]","2","[[2,1,0],[3,0],[0]]","8","0","","","","","","6","","","","","","","","",""
"","","","","","single-stim-button","180","709221","0.0-2.0-34.2-0.2","5a7f42215292b8000122c84a","D2","batch4","","1347","tol_tohand","","","","tol_peg_1","1347","1347","0","[[0,0,0],[1,2],[0]]","3","[[2,1,0],[3,0],[0]]","8","0","","","","","","6","","","","","","","","",""
"","","","","","single-stim-button","181","710863","0.0-2.0-34.2-1.2","5a7f42215292b8000122c84a","D2","batch4","","1640","tol_toboard","","","","tol_peg_3","1640","1640","0","[[0,0,0],[1,2],[3]]","3","[[2,1,0],[3,0],[0]]","8","0","","","","","","6","","","","","","","","",""
"","","","","","single-stim-button","182","711766","0.0-2.0-34.3-0.3","5a7f42215292b8000122c84a","D2","batch4","","903","tol_tohand","","","","tol_peg_2","903","903","0","[[0,0,0],[1,0],[3]]","4","[[2,1,0],[3,0],[0]]","8","0","","","","","","6","","","","","","","","",""
"","","","","","single-stim-button","183","712858","0.0-2.0-34.3-1.3","5a7f42215292b8000122c84a","D2","batch4","","1092","tol_toboard","","","","tol_peg_1","1092","1092","0","[[2,0,0],[1,0],[3]]","4","[[2,1,0],[3,0],[0]]","8","0","","","","","","6","","","","","","","","",""
"","","","","","single-stim-button","184","713900","0.0-2.0-34.4-0.4","5a7f42215292b8000122c84a","D2","batch4","","1040","tol_tohand","","","","tol_peg_2","1040","1040","0","[[2,0,0],[0,0],[3]]","5","[[2,1,0],[3,0],[0]]","8","0","","","","","","6","","","","","","","","",""
"","","","","","single-stim-button","185","714765","0.0-2.0-34.4-1.4","5a7f42215292b8000122c84a","D2","batch4","","864","tol_toboard","","","","tol_peg_1","864","864","0","[[2,1,0],[0,0],[3]]","5","[[2,1,0],[3,0],[0]]","8","0","","","","","","6","","","","","","","","",""
"","","","","","single-stim-button","186","716127","0.0-2.0-34.5-0.5","5a7f42215292b8000122c84a","D2","batch4","","1361","tol_tohand","","","","tol_peg_3","1361","1361","0","[[2,1,0],[0,0],[0]]","6","[[2,1,0],[3,0],[0]]","8","0","","","","","","6","","","","","","","","",""
"","","","","","single-stim-button","187","717236","0.0-2.0-34.5-1.5","5a7f42215292b8000122c84a","D2","batch4","","1109","tol_toboard","","","","tol_peg_2","1109","1109","0","[[2,1,0],[3,0],[0]]","6","[[2,1,0],[3,0],[0]]","8","0","","","","","","6","","","","","","","","",""
"","","","","","poldrack-single-stim","188","718244","0.0-2.0-35.0","5a7f42215292b8000122c84a","D2","batch4","","-1","tol_feedback","","","true","","1000","1000","500","","","","","","-1","none","true","14853","20503","","","","","","","","","",""
"","","","","","html-button-response","189","719315","0.0-2.0-36.0","5a7f42215292b8000122c84a","D2","batch4","","1070.5","tol_trial_num","<div class = centerbox><p class = center-block-text>problem <strong>10</strong> out of 25 problems</p></div>","0","","","","","","","","","","","","","","","","","","","","","","","","",""
"","","","","","single-stim-button","190","726877","0.0-2.0-37.0-0.0","5a7f42215292b8000122c84a","D2","batch4","","7560","tol_tohand","","","","tol_peg_2","7560","7560","0","[[3,0,0],[0,0],[2]]","1","[[3,0,0],[2,1],[0]]","9","0","","","","","","3","","","","","","","","",""
"","","","","","single-stim-button","191","728702","0.0-2.0-37.0-1.0","5a7f42215292b8000122c84a","D2","batch4","","1824","tol_toboard","","","","tol_peg_1","1824","1824","0","[[3,1,0],[0,0],[2]]","1","[[3,0,0],[2,1],[0]]","9","0","","","","","","3","","","","","","","","",""
"","","","","","single-stim-button","192","729618","0.0-2.0-37.1-0.1","5a7f42215292b8000122c84a","D2","batch4","","916","tol_tohand","","","","tol_peg_3","916","916","0","[[3,1,0],[0,0],[0]]","2","[[3,0,0],[2,1],[0]]","9","0","","","","","","3","","","","","","","","",""
"","","","","","single-stim-button","193","730671","0.0-2.0-37.1-1.1","5a7f42215292b8000122c84a","D2","batch4","","1052","tol_toboard","","","","tol_peg_2","1052","1052","0","[[3,1,0],[2,0],[0]]","2","[[3,0,0],[2,1],[0]]","9","0","","","","","","3","","","","","","","","",""
"","","","","","single-stim-button","194","731575","0.0-2.0-37.2-0.2","5a7f42215292b8000122c84a","D2","batch4","","903","tol_tohand","","","","tol_peg_1","903","903","0","[[3,0,0],[2,0],[0]]","3","[[3,0,0],[2,1],[0]]","9","0","","","","","","3","","","","","","","","",""
"","","","","","single-stim-button","195","732625","0.0-2.0-37.2-1.2","5a7f42215292b8000122c84a","D2","batch4","","1048","tol_toboard","","","","tol_peg_2","1048","1048","0","[[3,0,0],[2,1],[0]]","3","[[3,0,0],[2,1],[0]]","9","0","","","","","","3","","","","","","","","",""
"","","","","","poldrack-single-stim","196","733626","0.0-2.0-38.0","5a7f42215292b8000122c84a","D2","batch4","","-1","tol_feedback","","","true","","1000","1000","500","","","","","","-1","none","true","7560","9379","","","","","","","","","",""
"","","","","","html-button-response","197","734460","0.0-2.0-39.0","5a7f42215292b8000122c84a","D2","batch4","","832.2000000029802","tol_trial_num","<div class = centerbox><p class = center-block-text>problem <strong>11</strong> out of 25 problems</p></div>","0","","","","","","","","","","","","","","","","","","","","","","","","",""
"","","","","","single-stim-button","198","753569","0.0-2.0-40.0-0.0","5a7f42215292b8000122c84a","D2","batch4","","19108","tol_tohand","","","","tol_peg_2","19108","19108","0","[[1,2,0],[0,0],[0]]","1","[[2,0,0],[1,3],[0]]","10","0","","","","","","6","","","","","","","","",""
"","","","","","single-stim-button","199","760402","0.0-2.0-40.0-1.0","5a7f42215292b8000122c84a","D2","batch4","","6832","tol_toboard","","","","tol_peg_3","6832","6832","0","[[1,2,0],[0,0],[3]]","1","[[2,0,0],[1,3],[0]]","10","0","","","","","","6","","","","","","","","",""
"","","","","","single-stim-button","200","766469","0.0-2.0-40.1-0.1","5a7f42215292b8000122c84a","D2","batch4","","6065","tol_tohand","","","","tol_peg_1","6065","6065","0","[[1,0,0],[0,0],[3]]","2","[[2,0,0],[1,3],[0]]","10","0","","","","","","6","","","","","","","","",""
"","","","","","single-stim-button","201","767724","0.0-2.0-40.1-1.1","5a7f42215292b8000122c84a","D2","batch4","","1255","tol_toboard","","","","tol_peg_2","1255","1255","0","[[1,0,0],[2,0],[3]]","2","[[2,0,0],[1,3],[0]]","10","0","","","","","","6","","","","","","","","",""
"","","","","","single-stim-button","202","771301","0.0-2.0-40.2-0.2","5a7f42215292b8000122c84a","D2","batch4","","3576","tol_tohand","","","","tol_peg_1","3576","3576","0","[[0,0,0],[2,0],[3]]","3","[[2,0,0],[1,3],[0]]","10","0","","","","","","6","","","","","","","","",""
"","","","","","single-stim-button","203","773095","0.0-2.0-40.2-1.2","5a7f42215292b8000122c84a","D2","batch4","","1792","tol_toboard","","","","tol_peg_2","1792","1792","0","[[0,0,0],[2,1],[3]]","3","[[2,0,0],[1,3],[0]]","10","0","","","","","","6","","","","","","","","",""
"","","","","","single-stim-button","204","774782","0.0-2.0-40.3-0.3","5a7f42215292b8000122c84a","D2","batch4","","1686","tol_tohand","","","","tol_peg_3","1686","1686","0","[[0,0,0],[2,1],[0]]","4","[[2,0,0],[1,3],[0]]","10","0","","","","","","6","","","","","","","","",""
"","","","","","single-stim-button","205","776632","0.0-2.0-40.3-1.3","5a7f42215292b8000122c84a","D2","batch4","","1850","tol_toboard","","","","tol_peg_1","1850","1850","0","[[3,0,0],[2,1],[0]]","4","[[2,0,0],[1,3],[0]]","10","0","","","","","","6","","","","","","","","",""
"","","","","","single-stim-button","206","777440","0.0-2.0-40.4-0.4","5a7f42215292b8000122c84a","D2","batch4","","807","tol_tohand","","","","tol_peg_2","807","807","0","[[3,0,0],[2,0],[0]]","5","[[2,0,0],[1,3],[0]]","10","0","","","","","","6","","","","","","","","",""
"","","","","","single-stim-button","207","778608","0.0-2.0-40.4-1.4","5a7f42215292b8000122c84a","D2","batch4","","1167","tol_toboard","","","","tol_peg_3","1167","1167","0","[[3,0,0],[2,0],[1]]","5","[[2,0,0],[1,3],[0]]","10","0","","","","","","6","","","","","","","","",""
"","","","","","single-stim-button","208","779598","0.0-2.0-40.5-0.5","5a7f42215292b8000122c84a","D2","batch4","","989","tol_tohand","","","","tol_peg_2","989","989","0","[[3,0,0],[0,0],[1]]","6","[[2,0,0],[1,3],[0]]","10","0","","","","","","6","","","","","","","","",""
"","","","","","single-stim-button","209","781536","0.0-2.0-40.5-1.5","5a7f42215292b8000122c84a","D2","batch4","","1937","tol_toboard","","","","tol_peg_1","1937","1937","0","[[3,2,0],[0,0],[1]]","6","[[2,0,0],[1,3],[0]]","10","0","","","","","","6","","","","","","","","",""
"","","","","","single-stim-button","210","782922","0.0-2.0-40.6-0.6","5a7f42215292b8000122c84a","D2","batch4","","1385","tol_tohand","","","","tol_peg_3","1385","1385","0","[[3,2,0],[0,0],[0]]","7","[[2,0,0],[1,3],[0]]","10","0","","","","","","6","","","","","","","","",""
"","","","","","single-stim-button","211","783977","0.0-2.0-40.6-1.6","5a7f42215292b8000122c84a","D2","batch4","","1054","tol_toboard","","","","tol_peg_2","1054","1054","0","[[3,2,0],[1,0],[0]]","7","[[2,0,0],[1,3],[0]]","10","0","","","","","","6","","","","","","","","",""
"","","","","","single-stim-button","212","785209","0.0-2.0-40.7-0.7","5a7f42215292b8000122c84a","D2","batch4","","1230","tol_tohand","","","","tol_peg_1","1230","1230","0","[[3,0,0],[1,0],[0]]","8","[[2,0,0],[1,3],[0]]","10","0","","","","","","6","","","","","","","","",""
"","","","","","single-stim-button","213","787157","0.0-2.0-40.7-1.7","5a7f42215292b8000122c84a","D2","batch4","","1948","tol_toboard","","","","tol_peg_3","1948","1948","0","[[3,0,0],[1,0],[2]]","8","[[2,0,0],[1,3],[0]]","10","0","","","","","","6","","","","","","","","",""
"","","","","","single-stim-button","214","788627","0.0-2.0-40.8-0.8","5a7f42215292b8000122c84a","D2","batch4","","1469","tol_tohand","","","","tol_peg_1","1469","1469","0","[[0,0,0],[1,0],[2]]","9","[[2,0,0],[1,3],[0]]","10","0","","","","","","6","","","","","","","","",""
"","","","","","single-stim-button","215","789676","0.0-2.0-40.8-1.8","5a7f42215292b8000122c84a","D2","batch4","","1048","tol_toboard","","","","tol_peg_2","1048","1048","0","[[0,0,0],[1,3],[2]]","9","[[2,0,0],[1,3],[0]]","10","0","","","","","","6","","","","","","","","",""
"","","","","","single-stim-button","216","790614","0.0-2.0-40.9-0.9","5a7f42215292b8000122c84a","D2","batch4","","938","tol_tohand","","","","tol_peg_3","938","938","0","[[0,0,0],[1,3],[0]]","10","[[2,0,0],[1,3],[0]]","10","0","","","","","","6","","","","","","","","",""
"","","","","","single-stim-button","217","792799","0.0-2.0-40.9-1.9","5a7f42215292b8000122c84a","D2","batch4","","2184","tol_toboard","","","","tol_peg_1","2184","2184","0","[[2,0,0],[1,3],[0]]","10","[[2,0,0],[1,3],[0]]","10","0","","","","","","6","","","","","","","","",""
"","","","","","poldrack-single-stim","218","793813","0.0-2.0-41.0","5a7f42215292b8000122c84a","D2","batch4","","-1","tol_feedback","","","true","","1000","1000","500","","","","","","-1","none","true","19108","37253","","","","","","","","","",""
"","","","","","html-button-response","219","794743","0.0-2.0-42.0","5a7f42215292b8000122c84a","D2","batch4","","927.5","tol_trial_num","<div class = centerbox><p class = center-block-text>problem <strong>12</strong> out of 25 problems</p></div>","0","","","","","","","","","","","","","","","","","","","","","","","","",""
"","","","","","single-stim-button","220","811792","0.0-2.0-43.0-0.0","5a7f42215292b8000122c84a","D2","batch4","","17048","tol_tohand","","","","tol_peg_1","17048","17048","0","[[1,0,0],[3,0],[0]]","1","[[2,3,0],[0,0],[1]]","11","0","","","","","","4","","","","","","","","",""
"","","","","","single-stim-button","221","816714","0.0-2.0-43.0-1.0","5a7f42215292b8000122c84a","D2","batch4","","4921","tol_toboard","","","","tol_peg_2","4921","4921","0","[[1,0,0],[3,2],[0]]","1","[[2,3,0],[0,0],[1]]","11","0","","","","","","4","","","","","","","","",""
"","","","","","single-stim-button","222","817770","0.0-2.0-43.1-0.1","5a7f42215292b8000122c84a","D2","batch4","","1055","tol_tohand","","","","tol_peg_1","1055","1055","0","[[0,0,0],[3,2],[0]]","2","[[2,3,0],[0,0],[1]]","11","0","","","","","","4","","","","","","","","",""
"","","","","","single-stim-button","223","819354","0.0-2.0-43.1-1.1","5a7f42215292b8000122c84a","D2","batch4","","1583","tol_toboard","","","","tol_peg_3","1583","1583","0","[[0,0,0],[3,2],[1]]","2","[[2,3,0],[0,0],[1]]","11","0","","","","","","4","","","","","","","","",""
"","","","","","single-stim-button","224","820275","0.0-2.0-43.2-0.2","5a7f42215292b8000122c84a","D2","batch4","","919","tol_tohand","","","","tol_peg_2","919","919","0","[[0,0,0],[3,0],[1]]","3","[[2,3,0],[0,0],[1]]","11","0","","","","","","4","","","","","","","","",""
"","","","","","single-stim-button","225","821379","0.0-2.0-43.2-1.2","5a7f42215292b8000122c84a","D2","batch4","","1104","tol_toboard","","","","tol_peg_1","1104","1104","0","[[2,0,0],[3,0],[1]]","3","[[2,3,0],[0,0],[1]]","11","0","","","","","","4","","","","","","","","",""
"","","","","","single-stim-button","226","822539","0.0-2.0-43.3-0.3","5a7f42215292b8000122c84a","D2","batch4","","1159","tol_tohand","","","","tol_peg_2","1159","1159","0","[[2,0,0],[0,0],[1]]","4","[[2,3,0],[0,0],[1]]","11","0","","","","","","4","","","","","","","","",""
"","","","","","single-stim-button","227","823964","0.0-2.0-43.3-1.3","5a7f42215292b8000122c84a","D2","batch4","","1425","tol_toboard","","","","tol_peg_1","1425","1425","0","[[2,3,0],[0,0],[1]]","4","[[2,3,0],[0,0],[1]]","11","0","","","","","","4","","","","","","","","",""
"","","","","","poldrack-single-stim","228","824966","0.0-2.0-44.0","5a7f42215292b8000122c84a","D2","batch4","","-1","tol_feedback","","","true","","1000","1000","500","","","","","","-1","none","true","17048","20181","","","","","","","","","",""
"","","","","","html-button-response","229","825887","0.0-2.0-45.0","5a7f42215292b8000122c84a","D2","batch4","","919.4000000059605","tol_trial_num","<div class = centerbox><p class = center-block-text>problem <strong>13</strong> out of 25 problems</p></div>","0","","","","","","","","","","","","","","","","","","","","","","","","",""
"","","","","","single-stim-button","230","832001","0.0-2.0-46.0-0.0","5a7f42215292b8000122c84a","D2","batch4","","6114","tol_tohand","","","","tol_peg_2","6114","6114","0","[[1,2,0],[0,0],[0]]","1","[[0,0,0],[2,3],[1]]","12","0","","","","","","4","","","","","","","","",""
"","","","","","single-stim-button","231","833287","0.0-2.0-46.0-1.0","5a7f42215292b8000122c84a","D2","batch4","","1285","tol_toboard","","","","tol_peg_3","1285","1285","0","[[1,2,0],[0,0],[3]]","1","[[0,0,0],[2,3],[1]]","12","0","","","","","","4","","","","","","","","",""
"","","","","","single-stim-button","232","834213","0.0-2.0-46.1-0.1","5a7f42215292b8000122c84a","D2","batch4","","925","tol_tohand","","","","tol_peg_1","925","925","0","[[1,0,0],[0,0],[3]]","2","[[0,0,0],[2,3],[1]]","12","0","","","","","","4","","","","","","","","",""
"","","","","","single-stim-button","233","835082","0.0-2.0-46.1-1.1","5a7f42215292b8000122c84a","D2","batch4","","869","tol_toboard","","","","tol_peg_2","869","869","0","[[1,0,0],[2,0],[3]]","2","[[0,0,0],[2,3],[1]]","12","0","","","","","","4","","","","","","","","",""
"","","","","","single-stim-button","234","835867","0.0-2.0-46.2-0.2","5a7f42215292b8000122c84a","D2","batch4","","783","tol_tohand","","","","tol_peg_3","783","783","0","[[1,0,0],[2,0],[0]]","3","[[0,0,0],[2,3],[1]]","12","0","","","","","","4","","","","","","","","",""
"","","","","","single-stim-button","235","836865","0.0-2.0-46.2-1.2","5a7f42215292b8000122c84a","D2","batch4","","998","tol_toboard","","","","tol_peg_2","998","998","0","[[1,0,0],[2,3],[0]]","3","[[0,0,0],[2,3],[1]]","12","0","","","","","","4","","","","","","","","",""
"","","","","","single-stim-button","236","838013","0.0-2.0-46.3-0.3","5a7f42215292b8000122c84a","D2","batch4","","1147","tol_tohand","","","","tol_peg_1","1147","1147","0","[[0,0,0],[2,3],[0]]","4","[[0,0,0],[2,3],[1]]","12","0","","","","","","4","","","","","","","","",""
"","","","","","single-stim-button","237","839416","0.0-2.0-46.3-1.3","5a7f42215292b8000122c84a","D2","batch4","","1402","tol_toboard","","","","tol_peg_3","1402","1402","0","[[0,0,0],[2,3],[1]]","4","[[0,0,0],[2,3],[1]]","12","0","","","","","","4","","","","","","","","",""
"","","","","","poldrack-single-stim","238","840419","0.0-2.0-47.0","5a7f42215292b8000122c84a","D2","batch4","","-1","tol_feedback","","","true","","1000","1000","500","","","","","","-1","none","true","6114","8969","","","","","","","","","",""
"","","","","","html-button-response","239","845257","0.0-2.0-48.0","5a7f42215292b8000122c84a","D2","batch4","","4838","attention_check","<p class = block-text>How many balls are in your board<br></p>","1","true","","","","","","","","","","","","","","","","","","","","","","","",""
"","","","","","html-button-response","240","849983","0.0-2.0-49.0","5a7f42215292b8000122c84a","D2","batch4","","4724.300000011921","tol_trial_num","<div class = centerbox><p class = center-block-text>problem <strong>14</strong> out of 25 problems</p></div>","0","","","","","","","","","","","","","","","","","","","","","","","","",""
"","","","","","single-stim-button","241","861684","0.0-2.0-50.0-0.0","5a7f42215292b8000122c84a","D2","batch4","","11700","tol_tohand","","","","tol_peg_1","11700","11700","0","[[2,0,0],[3,0],[0]]","1","[[1,2,0],[3,0],[0]]","13","0","","","","","","4","","","","","","","","",""
"","","","","","single-stim-button","242","865372","0.0-2.0-50.0-1.0","5a7f42215292b8000122c84a","D2","batch4","","3687","tol_toboard","","","","tol_peg_3","3687","3687","0","[[2,0,0],[3,0],[1]]","1","[[1,2,0],[3,0],[0]]","13","0","","","","","","4","","","","","","","","",""
"","","","","","single-stim-button","243","866296","0.0-2.0-50.1-0.1","5a7f42215292b8000122c84a","D2","batch4","","923","tol_tohand","","","","tol_peg_1","923","923","0","[[0,0,0],[3,0],[1]]","2","[[1,2,0],[3,0],[0]]","13","0","","","","","","4","","","","","","","","",""
"","","","","","single-stim-button","244","867841","0.0-2.0-50.1-1.1","5a7f42215292b8000122c84a","D2","batch4","","1544","tol_toboard","","","","tol_peg_2","1544","1544","0","[[0,0,0],[3,2],[1]]","2","[[1,2,0],[3,0],[0]]","13","0","","","","","","4","","","","","","","","",""
"","","","","","single-stim-button","245","868972","0.0-2.0-50.2-0.2","5a7f42215292b8000122c84a","D2","batch4","","1131","tol_tohand","","","","tol_peg_3","1131","1131","0","[[0,0,0],[3,2],[0]]","3","[[1,2,0],[3,0],[0]]","13","0","","","","","","4","","","","","","","","",""
"","","","","","single-stim-button","246","870989","0.0-2.0-50.2-1.2","5a7f42215292b8000122c84a","D2","batch4","","2016","tol_toboard","","","","tol_peg_1","2016","2016","0","[[1,0,0],[3,2],[0]]","3","[[1,2,0],[3,0],[0]]","13","0","","","","","","4","","","","","","","","",""
"","","","","","single-stim-button","247","871873","0.0-2.0-50.3-0.3","5a7f42215292b8000122c84a","D2","batch4","","883","tol_tohand","","","","tol_peg_2","883","883","0","[[1,0,0],[3,0],[0]]","4","[[1,2,0],[3,0],[0]]","13","0","","","","","","4","","","","","","","","",""
"","","","","","single-stim-button","248","872911","0.0-2.0-50.3-1.3","5a7f42215292b8000122c84a","D2","batch4","","1037","tol_toboard","","","","tol_peg_1","1037","1037","0","[[1,2,0],[3,0],[0]]","4","[[1,2,0],[3,0],[0]]","13","0","","","","","","4","","","","","","","","",""
"","","","","","poldrack-single-stim","249","873915","0.0-2.0-51.0","5a7f42215292b8000122c84a","D2","batch4","","-1","tol_feedback","","","true","","1000","1000","500","","","","","","-1","none","true","11700","14637","","","","","","","","","",""
"","","","","","html-button-response","250","875456","0.0-2.0-52.0","5a7f42215292b8000122c84a","D2","batch4","","1540.1000000089407","tol_trial_num","<div class = centerbox><p class = center-block-text>problem <strong>15</strong> out of 25 problems</p></div>","0","","","","","","","","","","","","","","","","","","","","","","","","",""
"","","","","","single-stim-button","251","881532","0.0-2.0-53.0-0.0","5a7f42215292b8000122c84a","D2","batch4","","6074","tol_tohand","","","","tol_peg_1","6074","6074","0","[[1,0,0],[3,0],[0]]","1","[[2,0,0],[3,0],[1]]","14","0","","","","","","3","","","","","","","","",""
"","","","","","single-stim-button","252","882416","0.0-2.0-53.0-1.0","5a7f42215292b8000122c84a","D2","batch4","","884","tol_toboard","","","","tol_peg_2","884","884","0","[[1,0,0],[3,2],[0]]","1","[[2,0,0],[3,0],[1]]","14","0","","","","","","3","","","","","","","","",""
"","","","","","single-stim-button","253","883310","0.0-2.0-53.1-0.1","5a7f42215292b8000122c84a","D2","batch4","","893","tol_tohand","","","","tol_peg_1","893","893","0","[[0,0,0],[3,2],[0]]","2","[[2,0,0],[3,0],[1]]","14","0","","","","","","3","","","","","","","","",""
"","","","","","single-stim-button","254","884817","0.0-2.0-53.1-1.1","5a7f42215292b8000122c84a","D2","batch4","","1506","tol_toboard","","","","tol_peg_3","1506","1506","0","[[0,0,0],[3,2],[1]]","2","[[2,0,0],[3,0],[1]]","14","0","","","","","","3","","","","","","","","",""
"","","","","","single-stim-button","255","885849","0.0-2.0-53.2-0.2","5a7f42215292b8000122c84a","D2","batch4","","1031","tol_tohand","","","","tol_peg_2","1031","1031","0","[[0,0,0],[3,0],[1]]","3","[[2,0,0],[3,0],[1]]","14","0","","","","","","3","","","","","","","","",""
"","","","","","single-stim-button","256","886983","0.0-2.0-53.2-1.2","5a7f42215292b8000122c84a","D2","batch4","","1133","tol_toboard","","","","tol_peg_1","1133","1133","0","[[2,0,0],[3,0],[1]]","3","[[2,0,0],[3,0],[1]]","14","0","","","","","","3","","","","","","","","",""
"","","","","","poldrack-single-stim","257","887985","0.0-2.0-54.0","5a7f42215292b8000122c84a","D2","batch4","","-1","tol_feedback","","","true","","1000","1000","500","","","","","","-1","none","true","6074","7998","","","","","","","","","",""
"","","","","","html-button-response","258","889038","0.0-2.0-55.0","5a7f42215292b8000122c84a","D2","batch4","","1051.3999999910593","tol_trial_num","<div class = centerbox><p class = center-block-text>problem <strong>16</strong> out of 25 problems</p></div>","0","","","","","","","","","","","","","","","","","","","","","","","","",""
"","","","","","single-stim-button","259","907027","0.0-2.0-56.0-0.0","5a7f42215292b8000122c84a","D2","batch4","","17989","tol_tohand","","","","tol_peg_3","17989","17989","0","[[0,0,0],[2,3],[0]]","1","[[2,3,0],[1,0],[0]]","15","0","","","","","","7","","","","","","","","",""
"","","","","","single-stim-button","260","909000","0.0-2.0-56.0-1.0","5a7f42215292b8000122c84a","D2","batch4","","1972","tol_toboard","","","","tol_peg_1","1972","1972","0","[[1,0,0],[2,3],[0]]","1","[[2,3,0],[1,0],[0]]","15","0","","","","","","7","","","","","","","","",""
"","","","","","single-stim-button","261","923511","0.0-2.0-56.1-0.1","5a7f42215292b8000122c84a","D2","batch4","","14510","tol_tohand","","","","tol_peg_1","14510","14510","0","[[0,0,0],[2,3],[0]]","2","[[2,3,0],[1,0],[0]]","15","0","","","","","","7","","","","","","","","",""
"","","","","","single-stim-button","262","924902","0.0-2.0-56.1-1.1","5a7f42215292b8000122c84a","D2","batch4","","1389","tol_toboard","","","","tol_peg_3","1389","1389","0","[[0,0,0],[2,3],[1]]","2","[[2,3,0],[1,0],[0]]","15","0","","","","","","7","","","","","","","","",""
"","","","","","single-stim-button","263","925814","0.0-2.0-56.2-0.2","5a7f42215292b8000122c84a","D2","batch4","","911","tol_tohand","","","","tol_peg_2","911","911","0","[[0,0,0],[2,0],[1]]","3","[[2,3,0],[1,0],[0]]","15","0","","","","","","7","","","","","","","","",""
"","","","","","single-stim-button","264","927505","0.0-2.0-56.2-1.2","5a7f42215292b8000122c84a","D2","batch4","","1690","tol_toboard","","","","tol_peg_1","1690","1690","0","[[3,0,0],[2,0],[1]]","3","[[2,3,0],[1,0],[0]]","15","0","","","","","","7","","","","","","","","",""
"","","","","","single-stim-button","265","928847","0.0-2.0-56.3-0.3","5a7f42215292b8000122c84a","D2","batch4","","1342","tol_tohand","","","","tol_peg_3","1342","1342","0","[[3,0,0],[2,0],[0]]","4","[[2,3,0],[1,0],[0]]","15","0","","","","","","7","","","","","","","","",""
"","","","","","single-stim-button","266","930086","0.0-2.0-56.3-1.3","5a7f42215292b8000122c84a","D2","batch4","","1237","tol_toboard","","","","tol_peg_1","1237","1237","0","[[3,1,0],[2,0],[0]]","4","[[2,3,0],[1,0],[0]]","15","0","","","","","","7","","","","","","","","",""
"","","","","","single-stim-button","267","931043","0.0-2.0-56.4-0.4","5a7f42215292b8000122c84a","D2","batch4","","957","tol_tohand","","","","tol_peg_2","957","957","0","[[3,1,0],[0,0],[0]]","5","[[2,3,0],[1,0],[0]]","15","0","","","","","","7","","","","","","","","",""
"","","","","","single-stim-button","268","932336","0.0-2.0-56.4-1.4","5a7f42215292b8000122c84a","D2","batch4","","1292","tol_toboard","","","","tol_peg_3","1292","1292","0","[[3,1,0],[0,0],[2]]","5","[[2,3,0],[1,0],[0]]","15","0","","","","","","7","","","","","","","","",""
"","","","","","single-stim-button","269","933628","0.0-2.0-56.5-0.5","5a7f42215292b8000122c84a","D2","batch4","","1291","tol_tohand","","","","tol_peg_1","1291","1291","0","[[3,0,0],[0,0],[2]]","6","[[2,3,0],[1,0],[0]]","15","0","","","","","","7","","","","","","","","",""
"","","","","","single-stim-button","270","935373","0.0-2.0-56.5-1.5","5a7f42215292b8000122c84a","D2","batch4","","1743","tol_toboard","","","","tol_peg_2","1743","1743","0","[[3,0,0],[1,0],[2]]","6","[[2,3,0],[1,0],[0]]","15","0","","","","","","7","","","","","","","","",""
"","","","","","single-stim-button","271","936300","0.0-2.0-56.6-0.6","5a7f42215292b8000122c84a","D2","batch4","","927","tol_tohand","","","","tol_peg_1","927","927","0","[[0,0,0],[1,0],[2]]","7","[[2,3,0],[1,0],[0]]","15","0","","","","","","7","","","","","","","","",""
"","","","","","single-stim-button","272","937307","0.0-2.0-56.6-1.6","5a7f42215292b8000122c84a","D2","batch4","","1006","tol_toboard","","","","tol_peg_2","1006","1006","0","[[0,0,0],[1,3],[2]]","7","[[2,3,0],[1,0],[0]]","15","0","","","","","","7","","","","","","","","",""
"","","","","","single-stim-button","273","938211","0.0-2.0-56.7-0.7","5a7f42215292b8000122c84a","D2","batch4","","903","tol_tohand","","","","tol_peg_3","903","903","0","[[0,0,0],[1,3],[0]]","8","[[2,3,0],[1,0],[0]]","15","0","","","","","","7","","","","","","","","",""
"","","","","","single-stim-button","274","939550","0.0-2.0-56.7-1.7","5a7f42215292b8000122c84a","D2","batch4","","1338","tol_toboard","","","","tol_peg_1","1338","1338","0","[[2,0,0],[1,3],[0]]","8","[[2,3,0],[1,0],[0]]","15","0","","","","","","7","","","","","","","","",""
"","","","","","single-stim-button","275","940713","0.0-2.0-56.8-0.8","5a7f42215292b8000122c84a","D2","batch4","","1162","tol_tohand","","","","tol_peg_2","1162","1162","0","[[2,0,0],[1,0],[0]]","9","[[2,3,0],[1,0],[0]]","15","0","","","","","","7","","","","","","","","",""
"","","","","","single-stim-button","276","941685","0.0-2.0-56.8-1.8","5a7f42215292b8000122c84a","D2","batch4","","970","tol_toboard","","","","tol_peg_1","970","970","0","[[2,3,0],[1,0],[0]]","9","[[2,3,0],[1,0],[0]]","15","0","","","","","","7","","","","","","","","",""
"","","","","","poldrack-single-stim","277","942686","0.0-2.0-57.0","5a7f42215292b8000122c84a","D2","batch4","","-1","tol_feedback","","","true","","1000","1000","500","","","","","","-1","none","true","17989","39992","","","","","","","","","",""
"","","","","","html-button-response","278","944129","0.0-2.0-58.0","5a7f42215292b8000122c84a","D2","batch4","","1442","tol_trial_num","<div class = centerbox><p class = center-block-text>problem <strong>17</strong> out of 25 problems</p></div>","0","","","","","","","","","","","","","","","","","","","","","","","","",""
"","","","","","single-stim-button","279","962780","0.0-2.0-59.0-0.0","5a7f42215292b8000122c84a","D2","batch4","","18649","tol_tohand","","","","tol_peg_1","18649","18649","0","[[1,0,0],[3,0],[0]]","1","[[3,1,0],[2,0],[0]]","16","0","","","","","","5","","","","","","","","",""
"","","","","","single-stim-button","280","964958","0.0-2.0-59.0-1.0","5a7f42215292b8000122c84a","D2","batch4","","2177","tol_toboard","","","","tol_peg_3","2177","2177","0","[[1,0,0],[3,0],[2]]","1","[[3,1,0],[2,0],[0]]","16","0","","","","","","5","","","","","","","","",""
"","","","","","single-stim-button","281","965902","0.0-2.0-59.1-0.1","5a7f42215292b8000122c84a","D2","batch4","","942","tol_tohand","","","","tol_peg_1","942","942","0","[[0,0,0],[3,0],[2]]","2","[[3,1,0],[2,0],[0]]","16","0","","","","","","5","","","","","","","","",""
"","","","","","single-stim-button","282","967048","0.0-2.0-59.1-1.1","5a7f42215292b8000122c84a","D2","batch4","","1146","tol_toboard","","","","tol_peg_2","1146","1146","0","[[0,0,0],[3,1],[2]]","2","[[3,1,0],[2,0],[0]]","16","0","","","","","","5","","","","","","","","",""
"","","","","","single-stim-button","283","968457","0.0-2.0-59.2-0.2","5a7f42215292b8000122c84a","D2","batch4","","1407","tol_tohand","","","","tol_peg_3","1407","1407","0","[[0,0,0],[3,1],[0]]","3","[[3,1,0],[2,0],[0]]","16","0","","","","","","5","","","","","","","","",""
"","","","","","single-stim-button","284","970900","0.0-2.0-59.2-1.2","5a7f42215292b8000122c84a","D2","batch4","","2442","tol_toboard","","","","tol_peg_1","2442","2442","0","[[2,0,0],[3,1],[0]]","3","[[3,1,0],[2,0],[0]]","16","0","","","","","","5","","","","","","","","",""
"","","","","","single-stim-button","285","972480","0.0-2.0-59.3-0.3","5a7f42215292b8000122c84a","D2","batch4","","1580","tol_tohand","","","","tol_peg_2","1580","1580","0","[[2,0,0],[3,0],[0]]","4","[[3,1,0],[2,0],[0]]","16","0","","","","","","5","","","","","","","","",""
"","","","","","single-stim-button","286","973760","0.0-2.0-59.3-1.3","5a7f42215292b8000122c84a","D2","batch4","","1280","tol_toboard","","","","tol_peg_3","1280","1280","0","[[2,0,0],[3,0],[1]]","4","[[3,1,0],[2,0],[0]]","16","0","","","","","","5","","","","","","","","",""
"","","","","","single-stim-button","287","983217","0.0-2.0-59.4-0.4","5a7f42215292b8000122c84a","D2","batch4","","9456","tol_tohand","","","","tol_peg_3","9456","9456","0","[[2,0,0],[3,0],[0]]","5","[[3,1,0],[2,0],[0]]","16","0","","","","","","5","","","","","","","","",""
"","","","","","single-stim-button","288","984953","0.0-2.0-59.4-1.4","5a7f42215292b8000122c84a","D2","batch4","","1734","tol_toboard","","","","tol_peg_1","1734","1734","0","[[2,1,0],[3,0],[0]]","5","[[3,1,0],[2,0],[0]]","16","0","","","","","","5","","","","","","","","",""
"","","","","","single-stim-button","289","985789","0.0-2.0-59.5-0.5","5a7f42215292b8000122c84a","D2","batch4","","836","tol_tohand","","","","tol_peg_2","836","836","0","[[2,1,0],[0,0],[0]]","6","[[3,1,0],[2,0],[0]]","16","0","","","","","","5","","","","","","","","",""
"","","","","","single-stim-button","290","986900","0.0-2.0-59.5-1.5","5a7f42215292b8000122c84a","D2","batch4","","1110","tol_toboard","","","","tol_peg_3","1110","1110","0","[[2,1,0],[0,0],[3]]","6","[[3,1,0],[2,0],[0]]","16","0","","","","","","5","","","","","","","","",""
"","","","","","single-stim-button","291","987983","0.0-2.0-59.6-0.6","5a7f42215292b8000122c84a","D2","batch4","","1082","tol_tohand","","","","tol_peg_1","1082","1082","0","[[2,0,0],[0,0],[3]]","7","[[3,1,0],[2,0],[0]]","16","0","","","","","","5","","","","","","","","",""
"","","","","","single-stim-button","292","989370","0.0-2.0-59.6-1.6","5a7f42215292b8000122c84a","D2","batch4","","1386","tol_toboard","","","","tol_peg_2","1386","1386","0","[[2,0,0],[1,0],[3]]","7","[[3,1,0],[2,0],[0]]","16","0","","","","","","5","","","","","","","","",""
"","","","","","single-stim-button","293","994299","0.0-2.0-59.7-0.7","5a7f42215292b8000122c84a","D2","batch4","","4928","tol_tohand","","","","tol_peg_1","4928","4928","0","[[0,0,0],[1,0],[3]]","8","[[3,1,0],[2,0],[0]]","16","0","","","","","","5","","","","","","","","",""
"","","","","","single-stim-button","294","996276","0.0-2.0-59.7-1.7","5a7f42215292b8000122c84a","D2","batch4","","1976","tol_toboard","","","","tol_peg_2","1976","1976","0","[[0,0,0],[1,2],[3]]","8","[[3,1,0],[2,0],[0]]","16","0","","","","","","5","","","","","","","","",""
"","","","","","single-stim-button","295","997603","0.0-2.0-59.8-0.8","5a7f42215292b8000122c84a","D2","batch4","","1326","tol_tohand","","","","tol_peg_3","1326","1326","0","[[0,0,0],[1,2],[0]]","9","[[3,1,0],[2,0],[0]]","16","0","","","","","","5","","","","","","","","",""
"","","","","","single-stim-button","296","998738","0.0-2.0-59.8-1.8","5a7f42215292b8000122c84a","D2","batch4","","1134","tol_toboard","","","","tol_peg_1","1134","1134","0","[[3,0,0],[1,2],[0]]","9","[[3,1,0],[2,0],[0]]","16","0","","","","","","5","","","","","","","","",""
"","","","","","single-stim-button","297","999560","0.0-2.0-59.9-0.9","5a7f42215292b8000122c84a","D2","batch4","","820","tol_tohand","","","","tol_peg_2","820","820","0","[[3,0,0],[1,0],[0]]","10","[[3,1,0],[2,0],[0]]","16","0","","","","","","5","","","","","","","","",""
"","","","","","single-stim-button","298","1001016","0.0-2.0-59.9-1.9","5a7f42215292b8000122c84a","D2","batch4","","1456","tol_toboard","","","","tol_peg_3","1456","1456","0","[[3,0,0],[1,0],[2]]","10","[[3,1,0],[2,0],[0]]","16","0","","","","","","5","","","","","","","","",""
"","","","","","single-stim-button","299","1004472","0.0-2.0-59.10-0.10","5a7f42215292b8000122c84a","D2","batch4","","3455","tol_tohand","","","","tol_peg_2","3455","3455","0","[[3,0,0],[0,0],[2]]","11","[[3,1,0],[2,0],[0]]","16","0","","","","","","5","","","","","","","","",""
"","","","","","single-stim-button","300","1005604","0.0-2.0-59.10-1.10","5a7f42215292b8000122c84a","D2","batch4","","1131","tol_toboard","","","","tol_peg_1","1131","1131","0","[[3,1,0],[0,0],[2]]","11","[[3,1,0],[2,0],[0]]","16","0","","","","","","5","","","","","","","","",""
"","","","","","single-stim-button","301","1006582","0.0-2.0-59.11-0.11","5a7f42215292b8000122c84a","D2","batch4","","976","tol_tohand","","","","tol_peg_3","976","976","0","[[3,1,0],[0,0],[0]]","12","[[3,1,0],[2,0],[0]]","16","0","","","","","","5","","","","","","","","",""
"","","","","","single-stim-button","302","1008182","0.0-2.0-59.11-1.11","5a7f42215292b8000122c84a","D2","batch4","","1600","tol_toboard","","","","tol_peg_2","1600","1600","0","[[3,1,0],[2,0],[0]]","12","[[3,1,0],[2,0],[0]]","16","0","","","","","","5","","","","","","","","",""
"","","","","","poldrack-single-stim","303","1009183","0.0-2.0-60.0","5a7f42215292b8000122c84a","D2","batch4","","-1","tol_feedback","","","true","","1000","1000","500","","","","","","-1","none","true","18649","45457","","","","","","","","","",""
"","","","","","html-button-response","304","1009890","0.0-2.0-61.0","5a7f42215292b8000122c84a","D2","batch4","","705.7999999970198","tol_trial_num","<div class = centerbox><p class = center-block-text>problem <strong>18</strong> out of 25 problems</p></div>","0","","","","","","","","","","","","","","","","","","","","","","","","",""
"","","","","","single-stim-button","305","1031670","0.0-2.0-62.0-0.0","5a7f42215292b8000122c84a","D2","batch4","","21779","tol_tohand","","","","tol_peg_2","21779","21779","0","[[1,2,0],[0,0],[0]]","1","[[3,0,0],[2,0],[1]]","17","0","","","","","","5","","","","","","","","",""
"","","","","","single-stim-button","306","1033623","0.0-2.0-62.0-1.0","5a7f42215292b8000122c84a","D2","batch4","","1952","tol_toboard","","","","tol_peg_3","1952","1952","0","[[1,2,0],[0,0],[3]]","1","[[3,0,0],[2,0],[1]]","17","0","","","","","","5","","","","","","","","",""
"","","","","","single-stim-button","307","1035435","0.0-2.0-62.1-0.1","5a7f42215292b8000122c84a","D2","batch4","","1811","tol_tohand","","","","tol_peg_1","1811","1811","0","[[1,0,0],[0,0],[3]]","2","[[3,0,0],[2,0],[1]]","17","0","","","","","","5","","","","","","","","",""
"","","","","","single-stim-button","308","1037197","0.0-2.0-62.1-1.1","5a7f42215292b8000122c84a","D2","batch4","","1760","tol_toboard","","","","tol_peg_2","1760","1760","0","[[1,0,0],[2,0],[3]]","2","[[3,0,0],[2,0],[1]]","17","0","","","","","","5","","","","","","","","",""
"","","","","","single-stim-button","309","1038343","0.0-2.0-62.2-0.2","5a7f42215292b8000122c84a","D2","batch4","","1146","tol_tohand","","","","tol_peg_1","1146","1146","0","[[0,0,0],[2,0],[3]]","3","[[3,0,0],[2,0],[1]]","17","0","","","","","","5","","","","","","","","",""
"","","","","","single-stim-button","310","1039497","0.0-2.0-62.2-1.2","5a7f42215292b8000122c84a","D2","batch4","","1153","tol_toboard","","","","tol_peg_2","1153","1153","0","[[0,0,0],[2,1],[3]]","3","[[3,0,0],[2,0],[1]]","17","0","","","","","","5","","","","","","","","",""
"","","","","","single-stim-button","311","1040515","0.0-2.0-62.3-0.3","5a7f42215292b8000122c84a","D2","batch4","","1017","tol_tohand","","","","tol_peg_3","1017","1017","0","[[0,0,0],[2,1],[0]]","4","[[3,0,0],[2,0],[1]]","17","0","","","","","","5","","","","","","","","",""
"","","","","","single-stim-button","312","1041485","0.0-2.0-62.3-1.3","5a7f42215292b8000122c84a","D2","batch4","","969","tol_toboard","","","","tol_peg_1","969","969","0","[[3,0,0],[2,1],[0]]","4","[[3,0,0],[2,0],[1]]","17","0","","","","","","5","","","","","","","","",""
"","","","","","single-stim-button","313","1042443","0.0-2.0-62.4-0.4","5a7f42215292b8000122c84a","D2","batch4","","958","tol_tohand","","","","tol_peg_2","958","958","0","[[3,0,0],[2,0],[0]]","5","[[3,0,0],[2,0],[1]]","17","0","","","","","","5","","","","","","","","",""
"","","","","","single-stim-button","314","1043690","0.0-2.0-62.4-1.4","5a7f42215292b8000122c84a","D2","batch4","","1246","tol_toboard","","","","tol_peg_3","1246","1246","0","[[3,0,0],[2,0],[1]]","5","[[3,0,0],[2,0],[1]]","17","0","","","","","","5","","","","","","","","",""
"","","","","","poldrack-single-stim","315","1044692","0.0-2.0-63.0","5a7f42215292b8000122c84a","D2","batch4","","-1","tol_feedback","","","true","","1000","1000","500","","","","","","-1","none","true","21779","26711","","","","","","","","","",""
"","","","","","html-button-response","316","1045666","0.0-2.0-64.0","5a7f42215292b8000122c84a","D2","batch4","","973.3999999910593","tol_trial_num","<div class = centerbox><p class = center-block-text>problem <strong>19</strong> out of 25 problems</p></div>","0","","","","","","","","","","","","","","","","","","","","","","","","",""
"","","","","","single-stim-button","317","1055712","0.0-2.0-65.0-0.0","5a7f42215292b8000122c84a","D2","batch4","","10045","tol_tohand","","","","tol_peg_1","10045","10045","0","[[1,0,0],[3,0],[0]]","1","[[0,0,0],[1,2],[3]]","18","0","","","","","","7","","","","","","","","",""
"","","","","","single-stim-button","318","1056787","0.0-2.0-65.0-1.0","5a7f42215292b8000122c84a","D2","batch4","","1074","tol_toboard","","","","tol_peg_3","1074","1074","0","[[1,0,0],[3,0],[2]]","1","[[0,0,0],[1,2],[3]]","18","0","","","","","","7","","","","","","","","",""
"","","","","","single-stim-button","319","1060065","0.0-2.0-65.1-0.1","5a7f42215292b8000122c84a","D2","batch4","","3276","tol_tohand","","","","tol_peg_1","3276","3276","0","[[0,0,0],[3,0],[2]]","2","[[0,0,0],[1,2],[3]]","18","0","","","","","","7","","","","","","","","",""
"","","","","","single-stim-button","320","1061804","0.0-2.0-65.1-1.1","5a7f42215292b8000122c84a","D2","batch4","","1739","tol_toboard","","","","tol_peg_2","1739","1739","0","[[0,0,0],[3,1],[2]]","2","[[0,0,0],[1,2],[3]]","18","0","","","","","","7","","","","","","","","",""
"","","","","","single-stim-button","321","1063663","0.0-2.0-65.2-0.2","5a7f42215292b8000122c84a","D2","batch4","","1857","tol_tohand","","","","tol_peg_3","1857","1857","0","[[0,0,0],[3,1],[0]]","3","[[0,0,0],[1,2],[3]]","18","0","","","","","","7","","","","","","","","",""
"","","","","","single-stim-button","322","1065219","0.0-2.0-65.2-1.2","5a7f42215292b8000122c84a","D2","batch4","","1556","tol_toboard","","","","tol_peg_1","1556","1556","0","[[2,0,0],[3,1],[0]]","3","[[0,0,0],[1,2],[3]]","18","0","","","","","","7","","","","","","","","",""
"","","","","","single-stim-button","323","1067639","0.0-2.0-65.3-0.3","5a7f42215292b8000122c84a","D2","batch4","","2420","tol_tohand","","","","tol_peg_2","2420","2420","0","[[2,0,0],[3,0],[0]]","4","[[0,0,0],[1,2],[3]]","18","0","","","","","","7","","","","","","","","",""
"","","","","","single-stim-button","324","1068713","0.0-2.0-65.3-1.3","5a7f42215292b8000122c84a","D2","batch4","","1073","tol_toboard","","","","tol_peg_3","1073","1073","0","[[2,0,0],[3,0],[1]]","4","[[0,0,0],[1,2],[3]]","18","0","","","","","","7","","","","","","","","",""
"","","","","","single-stim-button","325","1069551","0.0-2.0-65.4-0.4","5a7f42215292b8000122c84a","D2","batch4","","837","tol_tohand","","","","tol_peg_2","837","837","0","[[2,0,0],[0,0],[1]]","5","[[0,0,0],[1,2],[3]]","18","0","","","","","","7","","","","","","","","",""
"","","","","","single-stim-button","326","1070611","0.0-2.0-65.4-1.4","5a7f42215292b8000122c84a","D2","batch4","","1059","tol_toboard","","","","tol_peg_1","1059","1059","0","[[2,3,0],[0,0],[1]]","5","[[0,0,0],[1,2],[3]]","18","0","","","","","","7","","","","","","","","",""
"","","","","","single-stim-button","327","1072391","0.0-2.0-65.5-0.5","5a7f42215292b8000122c84a","D2","batch4","","1779","tol_tohand","","","","tol_peg_3","1779","1779","0","[[2,3,0],[0,0],[0]]","6","[[0,0,0],[1,2],[3]]","18","0","","","","","","7","","","","","","","","",""
"","","","","","single-stim-button","328","1073922","0.0-2.0-65.5-1.5","5a7f42215292b8000122c84a","D2","batch4","","1531","tol_toboard","","","","tol_peg_2","1531","1531","0","[[2,3,0],[1,0],[0]]","6","[[0,0,0],[1,2],[3]]","18","0","","","","","","7","","","","","","","","",""
"","","","","","single-stim-button","329","1074900","0.0-2.0-65.6-0.6","5a7f42215292b8000122c84a","D2","batch4","","976","tol_tohand","","","","tol_peg_1","976","976","0","[[2,0,0],[1,0],[0]]","7","[[0,0,0],[1,2],[3]]","18","0","","","","","","7","","","","","","","","",""
"","","","","","single-stim-button","330","1076121","0.0-2.0-65.6-1.6","5a7f42215292b8000122c84a","D2","batch4","","1221","tol_toboard","","","","tol_peg_3","1221","1221","0","[[2,0,0],[1,0],[3]]","7","[[0,0,0],[1,2],[3]]","18","0","","","","","","7","","","","","","","","",""
"","","","","","single-stim-button","331","1077214","0.0-2.0-65.7-0.7","5a7f42215292b8000122c84a","D2","batch4","","1092","tol_tohand","","","","tol_peg_1","1092","1092","0","[[0,0,0],[1,0],[3]]","8","[[0,0,0],[1,2],[3]]","18","0","","","","","","7","","","","","","","","",""
"","","","","","single-stim-button","332","1078036","0.0-2.0-65.7-1.7","5a7f42215292b8000122c84a","D2","batch4","","821","tol_toboard","","","","tol_peg_2","821","821","0","[[0,0,0],[1,2],[3]]","8","[[0,0,0],[1,2],[3]]","18","0","","","","","","7","","","","","","","","",""
"","","","","","poldrack-single-stim","333","1079048","0.0-2.0-66.0","5a7f42215292b8000122c84a","D2","batch4","","-1","tol_feedback","","","true","","1000","1000","500","","","","","","-1","none","true","10045","22282","","","","","","","","","",""
"","","","","","html-button-response","334","1080151","0.0-2.0-67.0","5a7f42215292b8000122c84a","D2","batch4","","1101.9000000059605","tol_trial_num","<div class = centerbox><p class = center-block-text>problem <strong>20</strong> out of 25 problems</p></div>","0","","","","","","","","","","","","","","","","","","","","","","","","",""
"","","","","","single-stim-button","335","1087843","0.0-2.0-68.0-0.0","5a7f42215292b8000122c84a","D2","batch4","","7691","tol_tohand","","","","tol_peg_1","7691","7691","0","[[1,0,0],[3,0],[0]]","1","[[2,1,0],[0,0],[3]]","19","0","","","","","","5","","","","","","","","",""
"","","","","","single-stim-button","336","1089472","0.0-2.0-68.0-1.0","5a7f42215292b8000122c84a","D2","batch4","","1627","tol_toboard","","","","tol_peg_3","1627","1627","0","[[1,0,0],[3,0],[2]]","1","[[2,1,0],[0,0],[3]]","19","0","","","","","","5","","","","","","","","",""
"","","","","","single-stim-button","337","1090448","0.0-2.0-68.1-0.1","5a7f42215292b8000122c84a","D2","batch4","","976","tol_tohand","","","","tol_peg_1","976","976","0","[[0,0,0],[3,0],[2]]","2","[[2,1,0],[0,0],[3]]","19","0","","","","","","5","","","","","","","","",""
"","","","","","single-stim-button","338","1091555","0.0-2.0-68.1-1.1","5a7f42215292b8000122c84a","D2","batch4","","1106","tol_toboard","","","","tol_peg_2","1106","1106","0","[[0,0,0],[3,1],[2]]","2","[[2,1,0],[0,0],[3]]","19","0","","","","","","5","","","","","","","","",""
"","","","","","single-stim-button","339","1092705","0.0-2.0-68.2-0.2","5a7f42215292b8000122c84a","D2","batch4","","1148","tol_tohand","","","","tol_peg_3","1148","1148","0","[[0,0,0],[3,1],[0]]","3","[[2,1,0],[0,0],[3]]","19","0","","","","","","5","","","","","","","","",""
"","","","","","single-stim-button","340","1094325","0.0-2.0-68.2-1.2","5a7f42215292b8000122c84a","D2","batch4","","1620","tol_toboard","","","","tol_peg_1","1620","1620","0","[[2,0,0],[3,1],[0]]","3","[[2,1,0],[0,0],[3]]","19","0","","","","","","5","","","","","","","","",""
"","","","","","single-stim-button","341","1095379","0.0-2.0-68.3-0.3","5a7f42215292b8000122c84a","D2","batch4","","1052","tol_tohand","","","","tol_peg_2","1052","1052","0","[[2,0,0],[3,0],[0]]","4","[[2,1,0],[0,0],[3]]","19","0","","","","","","5","","","","","","","","",""
"","","","","","single-stim-button","342","1096178","0.0-2.0-68.3-1.3","5a7f42215292b8000122c84a","D2","batch4","","799","tol_toboard","","","","tol_peg_1","799","799","0","[[2,1,0],[3,0],[0]]","4","[[2,1,0],[0,0],[3]]","19","0","","","","","","5","","","","","","","","",""
"","","","","","single-stim-button","343","1097104","0.0-2.0-68.4-0.4","5a7f42215292b8000122c84a","D2","batch4","","924","tol_tohand","","","","tol_peg_2","924","924","0","[[2,1,0],[0,0],[0]]","5","[[2,1,0],[0,0],[3]]","19","0","","","","","","5","","","","","","","","",""
"","","","","","single-stim-button","344","1098097","0.0-2.0-68.4-1.4","5a7f42215292b8000122c84a","D2","batch4","","993","tol_toboard","","","","tol_peg_3","993","993","0","[[2,1,0],[0,0],[3]]","5","[[2,1,0],[0,0],[3]]","19","0","","","","","","5","","","","","","","","",""
"","","","","","poldrack-single-stim","345","1099102","0.0-2.0-69.0","5a7f42215292b8000122c84a","D2","batch4","","-1","tol_feedback","","","true","","1000","1000","500","","","","","","-1","none","true","7691","11791","","","","","","","","","",""
"","","","","","html-button-response","346","1100131","0.0-2.0-70.0","5a7f42215292b8000122c84a","D2","batch4","","1028.7999999970198","tol_trial_num","<div class = centerbox><p class = center-block-text>problem <strong>21</strong> out of 25 problems</p></div>","0","","","","","","","","","","","","","","","","","","","","","","","","",""
"","","","","","single-stim-button","347","1109091","0.0-2.0-71.0-0.0","5a7f42215292b8000122c84a","D2","batch4","","8959","tol_tohand","","","","tol_peg_1","8959","8959","0","[[1,0,0],[3,0],[0]]","1","[[3,2,0],[0,0],[1]]","20","0","","","","","","6","","","","","","","","",""
"","","","","","single-stim-button","348","1110674","0.0-2.0-71.0-1.0","5a7f42215292b8000122c84a","D2","batch4","","1582","tol_toboard","","","","tol_peg_2","1582","1582","0","[[1,0,0],[3,2],[0]]","1","[[3,2,0],[0,0],[1]]","20","0","","","","","","6","","","","","","","","",""
"","","","","","single-stim-button","349","1111876","0.0-2.0-71.1-0.1","5a7f42215292b8000122c84a","D2","batch4","","1201","tol_tohand","","","","tol_peg_1","1201","1201","0","[[0,0,0],[3,2],[0]]","2","[[3,2,0],[0,0],[1]]","20","0","","","","","","6","","","","","","","","",""
"","","","","","single-stim-button","350","1113475","0.0-2.0-71.1-1.1","5a7f42215292b8000122c84a","D2","batch4","","1598","tol_toboard","","","","tol_peg_3","1598","1598","0","[[0,0,0],[3,2],[1]]","2","[[3,2,0],[0,0],[1]]","20","0","","","","","","6","","","","","","","","",""
"","","","","","single-stim-button","351","1118750","0.0-2.0-71.2-0.2","5a7f42215292b8000122c84a","D2","batch4","","5273","tol_tohand","","","","tol_peg_3","5273","5273","0","[[0,0,0],[3,2],[0]]","3","[[3,2,0],[0,0],[1]]","20","0","","","","","","6","","","","","","","","",""
"","","","","","single-stim-button","352","1124797","0.0-2.0-71.2-1.2","5a7f42215292b8000122c84a","D2","batch4","","6046","tol_toboard","","","","tol_peg_1","6046","6046","0","[[1,0,0],[3,2],[0]]","3","[[3,2,0],[0,0],[1]]","20","0","","","","","","6","","","","","","","","",""
"","","","","","single-stim-button","353","1125926","0.0-2.0-71.3-0.3","5a7f42215292b8000122c84a","D2","batch4","","1129","tol_tohand","","","","tol_peg_2","1129","1129","0","[[1,0,0],[3,0],[0]]","4","[[3,2,0],[0,0],[1]]","20","0","","","","","","6","","","","","","","","",""
"","","","","","single-stim-button","354","1131856","0.0-2.0-71.3-1.3","5a7f42215292b8000122c84a","D2","batch4","","5930","tol_toboard","","","","tol_peg_3","5930","5930","0","[[1,0,0],[3,0],[2]]","4","[[3,2,0],[0,0],[1]]","20","0","","","","","","6","","","","","","","","",""
