"success","timeout","failed_images","failed_audio","failed_video","trial_type","trial_index","time_elapsed","internal_node_id","subject_id","study_id","session_id","view_history","rt","stimulus","response","task","correct","answer","item","fiar_detect_rt","fiar_detect_correct","total_correct_fiar_detect","post_trial_gap","choices","mouse_click","stim_duration","block_duration","timing_post_trial","current_position","tol_num_moves_made","tol_target","tol_problem_id","tol_rt","key_press","possible_responses","tol_correct","preplanning","tol_rt_per_trial","tol_min_moves","spm_correct","spm_rt"
"true","false","[]","[]","[]","preload","0","939","0.0-0.0","5a92e1eeb5e2110001c670f0","A3","batch1","","","","","","","","","","","","","","","","","","","","","","","","","","","","","",""
"true","","","","","fullscreen","1","10672","0.0-1.0-0.0","5a92e1eeb5e2110001c670f0","A3","batch1","","","","","","","","","","","","","","","","","","","","","","","","","","","","","",""
"true","","","","","fullscreen","2","15447","0.0-2.0-0.0","5a92e1eeb5e2110001c670f0","A3","batch1","","","","","","","","","","","","","","","","","","","","","","","","","","","","","",""
"","","","","","instructions","3","31797","0.0-2.0-1.0-0.0","5a92e1eeb5e2110001c670f0","A3","batch1","[{""page_index"":0,""viewing_time"":7720.799999952316},{""page_index"":1,""viewing_time"":8625.599999904633}]","16346.899999856949","","","","","","","","","","","","","","","","","","","","","","","","","","","",""
"","","","","","html-button-response","4","33006","0.0-2.0-1.0-1.0-0.0","5a92e1eeb5e2110001c670f0","A3","batch1","","1206.2000000476837","<p class=block-text> Let's answer a few questions <br>","0","pattern_enter_quiz","","","","","","","","","","","","","","","","","","","","","","","","",""
"","","","","","html-button-response","5","34748","0.0-2.0-1.0-1.0-1.0","5a92e1eeb5e2110001c670f0","A3","batch1","","1739.7000000476837","<p class = block-text>True or False: You will have as much time as you want to make each choice. <br></p>","1","pattern_quiz","true","","","","","","","","","","","","","","","","","","","","","","","",""
"","","","","","html-button-response","6","35643","0.0-2.0-1.0-1.0-2.0","5a92e1eeb5e2110001c670f0","A3","batch1","","890.0999999046326","<p class = block-text>Correct! You should make your choice <strong> as fast as you can</strong>.</p>","0","pattern_quiz_feedback","","","","","","","","","","","","","","","","","","","","","","","","",""
"","","","","","html-button-response","7","38738","0.0-2.0-1.0-1.0-3.0","5a92e1eeb5e2110001c670f0","A3","batch1","","3092.2000000476837","<p class = block-text>True or False: You will look for 4 pieces in black or white color connected in a row either horizontally, vertically or diagonally. <br></p>","0","pattern_quiz","true","","","","","","","","","","","","","","","","","","","","","","","",""
"","","","","","html-button-response","8","39550","0.0-2.0-1.0-1.0-4.0","5a92e1eeb5e2110001c670f0","A3","batch1","","808.3999998569489","<p class = block-text>Correct! </p>","0","pattern_quiz_feedback","","","","","","","","","","","","","","","","","","","","","","","","",""
"","","","","","html-button-response","9","40791","0.0-2.0-2.0","5a92e1eeb5e2110001c670f0","A3","batch1","","1230.0999999046326","<p class=block-text> Now that you've understood the game, let's do a few practice trials before we start!<br> <br>","0","pattern_enter_practice","","","","","","","","","","","","","","","","","","","","","","","","",""
"","","","","","image-keyboard-response","10","42097","0.0-2.0-3.0-0.0","5a92e1eeb5e2110001c670f0","A3","batch1","","1291","stim/prac_no_18_1.png","j","pattern_practice","true","j","","","","","","","","","","","","","","","","","","","","","","",""
"","","","","","html-keyboard-response","11","43101","0.0-2.0-3.0-1.0","5a92e1eeb5e2110001c670f0","A3","batch1","","null","<p style=""font-size:30px;color:green;"">Correct!</p>","null","pattern_feedback","","","","","","","","","","","","","","","","","","","","","","","","",""
"","","","","","image-keyboard-response","12","45576","0.0-2.0-3.0-0.1","5a92e1eeb5e2110001c670f0","A3","batch1","","2471.399999856949","stim/prac_no_16_1.png","j","pattern_practice","true","j","","","","","","","","","","","","","","","","","","","","","","",""
"","","","","","html-keyboard-response","13","46581","0.0-2.0-3.0-1.1","5a92e1eeb5e2110001c670f0","A3","batch1","","null","<p style=""font-size:30px;color:green;"">Correct!</p>","null","pattern_feedback","","","","","","","","","","","","","","","","","","","","","","","","",""
"","","","","","image-keyboard-response","14","48128","0.0-2.0-3.0-0.2","5a92e1eeb5e2110001c670f0","A3","batch1","","1543.4000000953674","stim/prac_yes_20_dia_b1.png","f","pattern_practice","true","f","","","","","","","","","","","","","","","","","","","","","","",""
"","","","","","html-keyboard-response","15","49132","0.0-2.0-3.0-1.2","5a92e1eeb5e2110001c670f0","A3","batch1","","null","<p style=""font-size:30px;color:green;"">Correct!</p>","null","pattern_feedback","","","","","","","","","","","","","","","","","","","","","","","","",""
"","","","","","image-keyboard-response","16","49989","0.0-2.0-3.0-0.3","5a92e1eeb5e2110001c670f0","A3","batch1","","853.2999999523163","stim/prac_yes_16_ver_w1.png","f","pattern_practice","true","f","","","","","","","","","","","","","","","","","","","","","","",""
"","","","","","html-keyboard-response","17","50992","0.0-2.0-3.0-1.3","5a92e1eeb5e2110001c670f0","A3","batch1","","null","<p style=""font-size:30px;color:green;"">Correct!</p>","null","pattern_feedback","","","","","","","","","","","","","","","","","","","","","","","","",""
"","","","","","image-keyboard-response","18","52425","0.0-2.0-3.0-0.4","5a92e1eeb5e2110001c670f0","A3","batch1","","1428.2000000476837","stim/prac_yes_18_hor_w1.png","f","pattern_practice","true","f","","","","","","","","","","","","","","","","","","","","","","",""
"","","","","","html-keyboard-response","19","53429","0.0-2.0-3.0-1.4","5a92e1eeb5e2110001c670f0","A3","batch1","","null","<p style=""font-size:30px;color:green;"">Correct!</p>","null","pattern_feedback","","","","","","","","","","","","","","","","","","","","","","","","",""
"","","","","","html-button-response","20","55681","0.0-2.0-4.0","5a92e1eeb5e2110001c670f0","A3","batch1","","2249.5","<p class=block-text> Good job! You are done with practice trials!<br>
        You responded correctly on 100% of the trials.<br>
        Press the button below to start official trials. Now you won't see any feedback about your response</p>","0","pattern_enter_official_trials","","","","","","","","","","","","","","","","","","","","","","","","",""
"","","","","","html-keyboard-response","21","56483","0.0-2.0-5.0-0.0","5a92e1eeb5e2110001c670f0","A3","batch1","","null","<p class=block-text>Trial 1 out of 78</p>","null","pattern_show_trial_num","","","","","","","","","","","","","","","","","","","","","","","","",""
"","","","","","image-keyboard-response","22","57508","0.0-2.0-5.0-1.0","5a92e1eeb5e2110001c670f0","A3","batch1","","1022","stim/yes_53_ver_b1_b.png","f","pattern_response","true","f","pattern_74","1022","true","1","","","","","","","","","","","","","","","","","","",""
"","","","","","html-keyboard-response","23","58812","0.0-2.0-5.0-0.1","5a92e1eeb5e2110001c670f0","A3","batch1","","null","<p class=block-text>Trial 2 out of 78</p>","null","pattern_show_trial_num","","","","","","","","","","","","","","","","","","","","","","","","",""
"","","","","","image-keyboard-response","24","60012","0.0-2.0-5.0-1.1","5a92e1eeb5e2110001c670f0","A3","batch1","","1196.0999999046326","stim/yes_51_dia_b1.png","j","pattern_response","false","f","pattern_72","1196.0999999046326","false","1","","","","","","","","","","","","","","","","","","",""
"","","","","","html-keyboard-response","25","61315","0.0-2.0-5.0-0.2","5a92e1eeb5e2110001c670f0","A3","batch1","","null","<p class=block-text>Trial 3 out of 78</p>","null","pattern_show_trial_num","","","","","","","","","","","","","","","","","","","","","","","","",""
"","","","","","image-keyboard-response","26","63209","0.0-2.0-5.0-1.2","5a92e1eeb5e2110001c670f0","A3","batch1","","1891.7000000476837","stim/no_58_1_w.png","j","pattern_response","true","j","pattern_35","1891.7000000476837","true","2","","","","","","","","","","","","","","","","","","",""
"","","","","","html-keyboard-response","27","64515","0.0-2.0-5.0-0.3","5a92e1eeb5e2110001c670f0","A3","batch1","","null","<p class=block-text>Trial 4 out of 78</p>","null","pattern_show_trial_num","","","","","","","","","","","","","","","","","","","","","","","","",""
"","","","","","image-keyboard-response","28","65244","0.0-2.0-5.0-1.3","5a92e1eeb5e2110001c670f0","A3","batch1","","723.7000000476837","stim/yes_29_hor_b1_b.png","f","pattern_response","true","f","pattern_52","723.7000000476837","true","3","","","","","","","","","","","","","","","","","","",""
"","","","","","html-keyboard-response","29","66552","0.0-2.0-5.0-0.4","5a92e1eeb5e2110001c670f0","A3","batch1","","null","<p class=block-text>Trial 5 out of 78</p>","null","pattern_show_trial_num","","","","","","","","","","","","","","","","","","","","","","","","",""
"","","","","","image-keyboard-response","30","67350","0.0-2.0-5.0-1.4","5a92e1eeb5e2110001c670f0","A3","batch1","","792.7000000476837","stim/yes_39_hor_w1_w.png","f","pattern_response","true","f","pattern_62","792.7000000476837","true","4","","","","","","","","","","","","","","","","","","",""
"","","","","","html-keyboard-response","31","68664","0.0-2.0-5.0-0.5","5a92e1eeb5e2110001c670f0","A3","batch1","","null","<p class=block-text>Trial 6 out of 78</p>","null","pattern_show_trial_num","","","","","","","","","","","","","","","","","","","","","","","","",""
"","","","","","image-keyboard-response","32","70155","0.0-2.0-5.0-1.5","5a92e1eeb5e2110001c670f0","A3","batch1","","1481","stim/no_67_1.png","j","pattern_response","true","j","pattern_39","1481","true","5","","","","","","","","","","","","","","","","","","",""
"","","","","","html-keyboard-response","33","71460","0.0-2.0-5.0-0.6","5a92e1eeb5e2110001c670f0","A3","batch1","","null","<p class=block-text>Trial 7 out of 78</p>","null","pattern_show_trial_num","","","","","","","","","","","","","","","","","","","","","","","","",""
"","","","","","image-keyboard-response","34","72217","0.0-2.0-5.0-1.6","5a92e1eeb5e2110001c670f0","A3","batch1","","754.2000000476837","stim/yes_12_hor_w1_w.png","f","pattern_response","true","f","pattern_42","754.2000000476837","true","6","","","","","","","","","","","","","","","","","","",""
"","","","","","html-keyboard-response","35","73520","0.0-2.0-5.0-0.7","5a92e1eeb5e2110001c670f0","A3","batch1","","null","<p class=block-text>Trial 8 out of 78</p>","null","pattern_show_trial_num","","","","","","","","","","","","","","","","","","","","","","","","",""
"","","","","","image-keyboard-response","36","74242","0.0-2.0-5.0-1.7","5a92e1eeb5e2110001c670f0","A3","batch1","","718.2000000476837","stim/yes_17_ver_b1_b.png","f","pattern_response","true","f","pattern_46","718.2000000476837","true","7","","","","","","","","","","","","","","","","","","",""
"","","","","","html-keyboard-response","37","75545","0.0-2.0-5.0-0.8","5a92e1eeb5e2110001c670f0","A3","batch1","","null","<p class=block-text>Trial 9 out of 78</p>","null","pattern_show_trial_num","","","","","","","","","","","","","","","","","","","","","","","","",""
"","","","","","image-keyboard-response","38","77784","0.0-2.0-5.0-1.8","5a92e1eeb5e2110001c670f0","A3","batch1","","2236","stim/yes_58_dia_w1_w.png","j","pattern_response","false","f","pattern_76","2236","false","7","","","","","","","","","","","","","","","","","","",""
"","","","","","html-keyboard-response","39","79091","0.0-2.0-5.0-0.9","5a92e1eeb5e2110001c670f0","A3","batch1","","null","<p class=block-text>Trial 10 out of 78</p>","null","pattern_show_trial_num","","","","","","","","","","","","","","","","","","","","","","","","",""
"","","","","","image-keyboard-response","40","80029","0.0-2.0-5.0-1.9","5a92e1eeb5e2110001c670f0","A3","batch1","","931.1000001430511","stim/yes_23_ver_b1.png","j","pattern_response","false","f","pattern_48","931.1000001430511","false","7","","","","","","","","","","","","","","","","","","",""
"","","","","","html-keyboard-response","41","81334","0.0-2.0-5.0-0.10","5a92e1eeb5e2110001c670f0","A3","batch1","","null","<p class=block-text>Trial 11 out of 78</p>","null","pattern_show_trial_num","","","","","","","","","","","","","","","","","","","","","","","","",""
"","","","","","image-keyboard-response","42","82375","0.0-2.0-5.0-1.10","5a92e1eeb5e2110001c670f0","A3","batch1","","1037.7999999523163","stim/no_30_1_b.png","j","pattern_response","true","j","pattern_13","1037.7999999523163","true","8","","","","","","","","","","","","","","","","","","",""
"","","","","","html-keyboard-response","43","83678","0.0-2.0-5.0-0.11","5a92e1eeb5e2110001c670f0","A3","batch1","","null","<p class=block-text>Trial 12 out of 78</p>","null","pattern_show_trial_num","","","","","","","","","","","","","","","","","","","","","","","","",""
"","","","","","image-keyboard-response","44","85665","0.0-2.0-5.0-1.11","5a92e1eeb5e2110001c670f0","A3","batch1","","1983.7000000476837","stim/no_37_2_w.png","j","pattern_response","true","j","pattern_19","1983.7000000476837","true","9","","","","","","","","","","","","","","","","","","",""
"","","","","","html-keyboard-response","45","86969","0.0-2.0-5.0-0.12","5a92e1eeb5e2110001c670f0","A3","batch1","","null","<p class=block-text>Trial 13 out of 78</p>","null","pattern_show_trial_num","","","","","","","","","","","","","","","","","","","","","","","","",""
"","","","","","image-keyboard-response","46","88427","0.0-2.0-5.0-1.12","5a92e1eeb5e2110001c670f0","A3","batch1","","1456.1999998092651","stim/no_53_1_b.png","j","pattern_response","true","j","pattern_33","1456.1999998092651","true","10","","","","","","","","","","","","","","","","","","",""
"","","","","","html-keyboard-response","47","89732","0.0-2.0-5.0-0.13","5a92e1eeb5e2110001c670f0","A3","batch1","","null","<p class=block-text>Trial 14 out of 78</p>","null","pattern_show_trial_num","","","","","","","","","","","","","","","","","","","","","","","","",""
"","","","","","image-keyboard-response","48","90806","0.0-2.0-5.0-1.13","5a92e1eeb5e2110001c670f0","A3","batch1","","1069.2999999523163","stim/no_22_1_b.png","j","pattern_response","true","j","pattern_07","1069.2999999523163","true","11","","","","","","","","","","","","","","","","","","",""
"","","","","","html-keyboard-response","49","92111","0.0-2.0-5.0-0.14","5a92e1eeb5e2110001c670f0","A3","batch1","","null","<p class=block-text>Trial 15 out of 78</p>","null","pattern_show_trial_num","","","","","","","","","","","","","","","","","","","","","","","","",""
"","","","","","image-keyboard-response","50","93777","0.0-2.0-5.0-1.14","5a92e1eeb5e2110001c670f0","A3","batch1","","1659","stim/yes_46_ver_b1_b.png","j","pattern_response","false","f","pattern_68","1659","false","11","","","","","","","","","","","","","","","","","","",""
"","","","","","html-keyboard-response","51","95081","0.0-2.0-5.0-0.15","5a92e1eeb5e2110001c670f0","A3","batch1","","null","<p class=block-text>Trial 16 out of 78</p>","null","pattern_show_trial_num","","","","","","","","","","","","","","","","","","","","","","","","",""
"","","","","","image-keyboard-response","52","97056","0.0-2.0-5.0-1.15","5a92e1eeb5e2110001c670f0","A3","batch1","","1972.4000000953674","stim/no_28_2.png","j","pattern_response","true","j","pattern_11","1972.4000000953674","true","12","","","","","","","","","","","","","","","","","","",""
"","","","","","html-keyboard-response","53","98359","0.0-2.0-5.0-0.16","5a92e1eeb5e2110001c670f0","A3","batch1","","null","<p class=block-text>Trial 17 out of 78</p>","null","pattern_show_trial_num","","","","","","","","","","","","","","","","","","","","","","","","",""
"","","","","","image-keyboard-response","54","99619","0.0-2.0-5.0-1.16","5a92e1eeb5e2110001c670f0","A3","batch1","","1254.7999999523163","stim/yes_15_dia_b1u_b.png","f","pattern_response","true","f","pattern_44","1254.7999999523163","true","13","","","","","","","","","","","","","","","","","","",""
"","","","","","html-keyboard-response","55","100923","0.0-2.0-5.0-0.17","5a92e1eeb5e2110001c670f0","A3","batch1","","null","<p class=block-text>Trial 18 out of 78</p>","null","pattern_show_trial_num","","","","","","","","","","","","","","","","","","","","","","","","",""
"","","","","","image-keyboard-response","56","101950","0.0-2.0-5.0-1.17","5a92e1eeb5e2110001c670f0","A3","batch1","","1022.5","stim/yes_49_hor_w1_b.png","f","pattern_response","true","f","pattern_70","1022.5","true","14","","","","","","","","","","","","","","","","","","",""
"","","","","","html-keyboard-response","57","103255","0.0-2.0-5.0-0.18","5a92e1eeb5e2110001c670f0","A3","batch1","","null","<p class=block-text>Trial 19 out of 78</p>","null","pattern_show_trial_num","","","","","","","","","","","","","","","","","","","","","","","","",""
"","","","","","image-keyboard-response","58","105300","0.0-2.0-5.0-1.18","5a92e1eeb5e2110001c670f0","A3","batch1","","2043","stim/no_39_1_w.png","j","pattern_response","true","j","pattern_21","2043","true","15","","","","","","","","","","","","","","","","","","",""
"","","","","","html-keyboard-response","59","106605","0.0-2.0-5.0-0.19","5a92e1eeb5e2110001c670f0","A3","batch1","","null","<p class=block-text>Trial 20 out of 78</p>","null","pattern_show_trial_num","","","","","","","","","","","","","","","","","","","","","","","","",""
"","","","","","image-keyboard-response","60","107733","0.0-2.0-5.0-1.19","5a92e1eeb5e2110001c670f0","A3","batch1","","1123.2000000476837","stim/yes_30_ver_b1_b.png","f","pattern_response","true","f","pattern_54","1123.2000000476837","true","16","","","","","","","","","","","","","","","","","","",""
"","","","","","html-keyboard-response","61","109039","0.0-2.0-5.0-0.20","5a92e1eeb5e2110001c670f0","A3","batch1","","null","<p class=block-text>Trial 21 out of 78</p>","null","pattern_show_trial_num","","","","","","","","","","","","","","","","","","","","","","","","",""
"","","","","","image-keyboard-response","62","110953","0.0-2.0-5.0-1.20","5a92e1eeb5e2110001c670f0","A3","batch1","","1909.9000000953674","stim/no_47_1_b.png","j","pattern_response","true","j","pattern_27","1909.9000000953674","true","17","","","","","","","","","","","","","","","","","","",""
"","","","","","html-keyboard-response","63","112258","0.0-2.0-5.0-0.21","5a92e1eeb5e2110001c670f0","A3","batch1","","null","<p class=block-text>Trial 22 out of 78</p>","null","pattern_show_trial_num","","","","","","","","","","","","","","","","","","","","","","","","",""
"","","","","","image-keyboard-response","64","114816","0.0-2.0-5.0-1.21","5a92e1eeb5e2110001c670f0","A3","batch1","","2553.7000000476837","stim/yes_70_ver_b1.png","j","pattern_response","false","f","pattern_80","2553.7000000476837","false","17","","","","","","","","","","","","","","","","","","",""
"","","","","","html-keyboard-response","65","116121","0.0-2.0-5.0-0.22","5a92e1eeb5e2110001c670f0","A3","batch1","","null","<p class=block-text>Trial 23 out of 78</p>","null","pattern_show_trial_num","","","","","","","","","","","","","","","","","","","","","","","","",""
"","","","","","image-keyboard-response","66","117615","0.0-2.0-5.0-1.22","5a92e1eeb5e2110001c670f0","A3","batch1","","1489.7000000476837","stim/no_51_1.png","j","pattern_response","true","j","pattern_31","1489.7000000476837","true","18","","","","","","","","","","","","","","","","","","",""
"","","","","","html-keyboard-response","67","118919","0.0-2.0-5.0-0.23","5a92e1eeb5e2110001c670f0","A3","batch1","","null","<p class=block-text>Trial 24 out of 78</p>","null","pattern_show_trial_num","","","","","","","","","","","","","","","","","","","","","","","","",""
"","","","","","image-keyboard-response","68","119754","0.0-2.0-5.0-1.23","5a92e1eeb5e2110001c670f0","A3","batch1","","830.8999998569489","stim/no_12_1.png","j","pattern_response","true","j","pattern_01","830.8999998569489","true","19","","","","","","","","","","","","","","","","","","",""
"","","","","","html-keyboard-response","69","121058","0.0-2.0-5.0-0.24","5a92e1eeb5e2110001c670f0","A3","batch1","","null","<p class=block-text>Trial 25 out of 78</p>","null","pattern_show_trial_num","","","","","","","","","","","","","","","","","","","","","","","","",""
"","","","","","image-keyboard-response","70","123047","0.0-2.0-5.0-1.24","5a92e1eeb5e2110001c670f0","A3","batch1","","1985.4000000953674","stim/yes_44_ver_w1_w.png","j","pattern_response","false","f","pattern_66","1985.4000000953674","false","19","","","","","","","","","","","","","","","","","","",""
"","","","","","html-keyboard-response","71","124353","0.0-2.0-5.0-0.25","5a92e1eeb5e2110001c670f0","A3","batch1","","null","<p class=block-text>Trial 26 out of 78</p>","null","pattern_show_trial_num","","","","","","","","","","","","","","","","","","","","","","","","",""
"","","","","","image-keyboard-response","72","126340","0.0-2.0-5.0-1.25","5a92e1eeb5e2110001c670f0","A3","batch1","","1984.2999999523163","stim/no_36_1_b.png","j","pattern_response","true","j","pattern_17","1984.2999999523163","true","20","","","","","","","","","","","","","","","","","","",""
"","","","","","html-keyboard-response","73","127644","0.0-2.0-5.0-0.26","5a92e1eeb5e2110001c670f0","A3","batch1","","null","<p class=block-text>Trial 27 out of 78</p>","null","pattern_show_trial_num","","","","","","","","","","","","","","","","","","","","","","","","",""
"","","","","","image-keyboard-response","74","129060","0.0-2.0-5.0-1.26","5a92e1eeb5e2110001c670f0","A3","batch1","","1412.0999999046326","stim/no_25_1_b.png","j","pattern_response","true","j","pattern_09","1412.0999999046326","true","21","","","","","","","","","","","","","","","","","","",""
"","","","","","html-keyboard-response","75","130363","0.0-2.0-5.0-0.27","5a92e1eeb5e2110001c670f0","A3","batch1","","null","<p class=block-text>Trial 28 out of 78</p>","null","pattern_show_trial_num","","","","","","","","","","","","","","","","","","","","","","","","",""
"","","","","","image-keyboard-response","76","132376","0.0-2.0-5.0-1.27","5a92e1eeb5e2110001c670f0","A3","batch1","","2010","stim/yes_42_dia_w1_w.png","j","pattern_response","false","f","pattern_64","2010","false","21","","","","","","","","","","","","","","","","","","",""
"","","","","","html-keyboard-response","77","133680","0.0-2.0-5.0-0.28","5a92e1eeb5e2110001c670f0","A3","batch1","","null","<p class=block-text>Trial 29 out of 78</p>","null","pattern_show_trial_num","","","","","","","","","","","","","","","","","","","","","","","","",""
"","","","","","image-keyboard-response","78","134656","0.0-2.0-5.0-1.28","5a92e1eeb5e2110001c670f0","A3","batch1","","972","stim/yes_26_dia_w2_w.png","f","pattern_response","true","f","pattern_50","972","true","22","","","","","","","","","","","","","","","","","","",""
"","","","","","html-keyboard-response","79","135960","0.0-2.0-5.0-0.29","5a92e1eeb5e2110001c670f0","A3","batch1","","null","<p class=block-text>Trial 30 out of 78</p>","null","pattern_show_trial_num","","","","","","","","","","","","","","","","","","","","","","","","",""
"","","","","","image-keyboard-response","80","137808","0.0-2.0-5.0-1.29","5a92e1eeb5e2110001c670f0","A3","batch1","","1837.9000000953674","stim/no_49_2_b.png","j","pattern_response","true","j","pattern_29","1837.9000000953674","true","23","","","","","","","","","","","","","","","","","","",""
"","","","","","html-keyboard-response","81","139114","0.0-2.0-5.0-0.30","5a92e1eeb5e2110001c670f0","A3","batch1","","null","<p class=block-text>Trial 31 out of 78</p>","null","pattern_show_trial_num","","","","","","","","","","","","","","","","","","","","","","","","",""
"","","","","","image-keyboard-response","82","140770","0.0-2.0-5.0-1.30","5a92e1eeb5e2110001c670f0","A3","batch1","","1651.5","stim/yes_63_dia_b1.png","j","pattern_response","false","f","pattern_78","1651.5","false","23","","","","","","","","","","","","","","","","","","",""
"","","","","","html-keyboard-response","83","142074","0.0-2.0-5.0-0.31","5a92e1eeb5e2110001c670f0","A3","batch1","","null","<p class=block-text>Trial 32 out of 78</p>","null","pattern_show_trial_num","","","","","","","","","","","","","","","","","","","","","","","","",""
"","","","","","image-keyboard-response","84","143222","0.0-2.0-5.0-1.31","5a92e1eeb5e2110001c670f0","A3","batch1","","1142.5999999046326","stim/yes_33_dia_w1_w.png","f","pattern_response","true","f","pattern_56","1142.5999999046326","true","24","","","","","","","","","","","","","","","","","","",""
"","","","","","html-keyboard-response","85","144526","0.0-2.0-5.0-0.32","5a92e1eeb5e2110001c670f0","A3","batch1","","null","<p class=block-text>Trial 33 out of 78</p>","null","pattern_show_trial_num","","","","","","","","","","","","","","","","","","","","","","","","",""
"","","","","","image-keyboard-response","86","146164","0.0-2.0-5.0-1.32","5a92e1eeb5e2110001c670f0","A3","batch1","","1633.5","stim/no_43_2_b.png","j","pattern_response","true","j","pattern_23","1633.5","true","25","","","","","","","","","","","","","","","","","","",""
"","","","","","html-keyboard-response","87","147465","0.0-2.0-5.0-0.33","5a92e1eeb5e2110001c670f0","A3","batch1","","null","<p class=block-text>Trial 34 out of 78</p>","null","pattern_show_trial_num","","","","","","","","","","","","","","","","","","","","","","","","",""
"","","","","","image-keyboard-response","88","148485","0.0-2.0-5.0-1.33","5a92e1eeb5e2110001c670f0","A3","batch1","","1016.1000001430511","stim/yes_37_hor_w1_w.png","f","pattern_response","true","f","pattern_60","1016.1000001430511","true","26","","","","","","","","","","","","","","","","","","",""
"","","","","","html-keyboard-response","89","149790","0.0-2.0-5.0-0.34","5a92e1eeb5e2110001c670f0","A3","batch1","","null","<p class=block-text>Trial 35 out of 78</p>","null","pattern_show_trial_num","","","","","","","","","","","","","","","","","","","","","","","","",""
"","","","","","image-keyboard-response","90","151047","0.0-2.0-5.0-1.34","5a92e1eeb5e2110001c670f0","A3","batch1","","1254.7000000476837","stim/yes_36_ver_w1_w.png","j","pattern_response","false","f","pattern_58","1254.7000000476837","false","26","","","","","","","","","","","","","","","","","","",""
"","","","","","html-keyboard-response","91","152353","0.0-2.0-5.0-0.35","5a92e1eeb5e2110001c670f0","A3","batch1","","null","<p class=block-text>Trial 36 out of 78</p>","null","pattern_show_trial_num","","","","","","","","","","","","","","","","","","","","","","","","",""
"","","","","","image-keyboard-response","92","154263","0.0-2.0-5.0-1.35","5a92e1eeb5e2110001c670f0","A3","batch1","","1906.3000001907349","stim/no_18_1_b.png","j","pattern_response","true","j","pattern_05","1906.3000001907349","true","27","","","","","","","","","","","","","","","","","","",""
"","","","","","html-keyboard-response","93","155569","0.0-2.0-5.0-0.36","5a92e1eeb5e2110001c670f0","A3","batch1","","null","<p class=block-text>Trial 37 out of 78</p>","null","pattern_show_trial_num","","","","","","","","","","","","","","","","","","","","","","","","",""
"","","","","","image-keyboard-response","94","157265","0.0-2.0-5.0-1.36","5a92e1eeb5e2110001c670f0","A3","batch1","","1692.0999999046326","stim/no_45_1_w.png","j","pattern_response","true","j","pattern_25","1692.0999999046326","true","28","","","","","","","","","","","","","","","","","","",""
"","","","","","html-keyboard-response","95","158571","0.0-2.0-5.0-0.37","5a92e1eeb5e2110001c670f0","A3","batch1","","null","<p class=block-text>Trial 38 out of 78</p>","null","pattern_show_trial_num","","","","","","","","","","","","","","","","","","","","","","","","",""
"","","","","","image-keyboard-response","96","159954","0.0-2.0-5.0-1.37","5a92e1eeb5e2110001c670f0","A3","batch1","","1374.7999999523163","stim/no_33_1_b.png","j","pattern_response","true","j","pattern_15","1374.7999999523163","true","29","","","","","","","","","","","","","","","","","","",""
"","","","","","html-keyboard-response","97","161257","0.0-2.0-5.0-0.38","5a92e1eeb5e2110001c670f0","A3","batch1","","null","<p class=block-text>Trial 39 out of 78</p>","null","pattern_show_trial_num","","","","","","","","","","","","","","","","","","","","","","","","",""
"","","","","","image-keyboard-response","98","162254","0.0-2.0-5.0-1.38","5a92e1eeb5e2110001c670f0","A3","batch1","","993.5","stim/no_15_1_w.png","j","pattern_response","true","j","pattern_03","993.5","true","30","","","","","","","","","","","","","","","","","","",""
"","","","","","image-keyboard-response","99","164891","0.0-2.0-6.0","5a92e1eeb5e2110001c670f0","A3","batch1","","2133","stim/empty_board.png","j","attention_check","true","j","","","","","500","[""f"",""j""]","","","","","","","","","","","","","","","","",""
"","","","","","html-keyboard-response","100","165692","0.0-2.0-7.0-0.0","5a92e1eeb5e2110001c670f0","A3","batch1","","null","<p class=block-text>Trial 40 out of 78</p>","null","pattern_show_trial_num","","","","","","","","","","","","","","","","","","","","","","","","",""
"","","","","","image-keyboard-response","101","167731","0.0-2.0-7.0-1.0","5a92e1eeb5e2110001c670f0","A3","batch1","","2034.0999999046326","stim/no_42_1_w.png","j","pattern_response","true","j","pattern_22","2034.0999999046326","true","31","","","","","","","","","","","","","","","","","","",""
"","","","","","html-keyboard-response","102","169036","0.0-2.0-7.0-0.1","5a92e1eeb5e2110001c670f0","A3","batch1","","null","<p class=block-text>Trial 41 out of 78</p>","null","pattern_show_trial_num","","","","","","","","","","","","","","","","","","","","","","","","",""
"","","","","","image-keyboard-response","103","170715","0.0-2.0-7.0-1.1","5a92e1eeb5e2110001c670f0","A3","batch1","","1588.7999999523163","stim/no_36_2_w.png","j","pattern_response","true","j","pattern_18","1588.7999999523163","true","32","","","","","","","","","","","","","","","","","","",""
"","","","","","html-keyboard-response","104","172019","0.0-2.0-7.0-0.2","5a92e1eeb5e2110001c670f0","A3","batch1","","null","<p class=block-text>Trial 42 out of 78</p>","null","pattern_show_trial_num","","","","","","","","","","","","","","","","","","","","","","","","",""
"","","","","","image-keyboard-response","105","173635","0.0-2.0-7.0-1.2","5a92e1eeb5e2110001c670f0","A3","batch1","","1611.0999999046326","stim/yes_40_dia_b1_b.png","j","pattern_response","false","f","pattern_63","1611.0999999046326","false","32","","","","","","","","","","","","","","","","","","",""
"","","","","","html-keyboard-response","106","174942","0.0-2.0-7.0-0.3","5a92e1eeb5e2110001c670f0","A3","batch1","","null","<p class=block-text>Trial 43 out of 78</p>","null","pattern_show_trial_num","","","","","","","","","","","","","","","","","","","","","","","","",""
"","","","","","image-keyboard-response","107","179344","0.0-2.0-7.0-1.3","5a92e1eeb5e2110001c670f0","A3","batch1","","4399.200000047684","stim/no_65_1_b.png","j","pattern_response","true","j","pattern_38","4399.200000047684","true","33","","","","","","","","","","","","","","","","","","",""
"","","","","","html-keyboard-response","108","180650","0.0-2.0-7.0-0.4","5a92e1eeb5e2110001c670f0","A3","batch1","","null","<p class=block-text>Trial 44 out of 78</p>","null","pattern_show_trial_num","","","","","","","","","","","","","","","","","","","","","","","","",""
"","","","","","image-keyboard-response","109","183570","0.0-2.0-7.0-1.4","5a92e1eeb5e2110001c670f0","A3","batch1","","2914.100000143051","stim/no_62_1_w.png","j","pattern_response","true","j","pattern_36","2914.100000143051","true","34","","","","","","","","","","","","","","","","","","",""
"","","","","","html-keyboard-response","110","184876","0.0-2.0-7.0-0.5","5a92e1eeb5e2110001c670f0","A3","batch1","","null","<p class=block-text>Trial 45 out of 78</p>","null","pattern_show_trial_num","","","","","","","","","","","","","","","","","","","","","","","","",""
"","","","","","image-keyboard-response","111","186778","0.0-2.0-7.0-1.5","5a92e1eeb5e2110001c670f0","A3","batch1","","1896.6000001430511","stim/yes_37_dia_w1.png","j","pattern_response","false","f","pattern_59","1896.6000001430511","false","34","","","","","","","","","","","","","","","","","","",""
"","","","","","html-keyboard-response","112","188088","0.0-2.0-7.0-0.6","5a92e1eeb5e2110001c670f0","A3","batch1","","null","<p class=block-text>Trial 46 out of 78</p>","null","pattern_show_trial_num","","","","","","","","","","","","","","","","","","","","","","","","",""
"","","","","","image-keyboard-response","113","189688","0.0-2.0-7.0-1.6","5a92e1eeb5e2110001c670f0","A3","batch1","","1594","stim/no_26_1_w.png","j","pattern_response","true","j","pattern_10","1594","true","35","","","","","","","","","","","","","","","","","","",""
"","","","","","html-keyboard-response","114","190995","0.0-2.0-7.0-0.7","5a92e1eeb5e2110001c670f0","A3","batch1","","null","<p class=block-text>Trial 47 out of 78</p>","null","pattern_show_trial_num","","","","","","","","","","","","","","","","","","","","","","","","",""
"","","","","","image-keyboard-response","115","193210","0.0-2.0-7.0-1.7","5a92e1eeb5e2110001c670f0","A3","batch1","","2210.7000000476837","stim/no_44_1.png","j","pattern_response","true","j","pattern_24","2210.7000000476837","true","36","","","","","","","","","","","","","","","","","","",""
"","","","","","html-keyboard-response","116","194515","0.0-2.0-7.0-0.8","5a92e1eeb5e2110001c670f0","A3","batch1","","null","<p class=block-text>Trial 48 out of 78</p>","null","pattern_show_trial_num","","","","","","","","","","","","","","","","","","","","","","","","",""
"","","","","","image-keyboard-response","117","195778","0.0-2.0-7.0-1.8","5a92e1eeb5e2110001c670f0","A3","batch1","","1259.4000000953674","stim/yes_45_hor_b2_b.png","f","pattern_response","true","f","pattern_67","1259.4000000953674","true","37","","","","","","","","","","","","","","","","","","",""
"","","","","","html-keyboard-response","118","197084","0.0-2.0-7.0-0.9","5a92e1eeb5e2110001c670f0","A3","batch1","","null","<p class=block-text>Trial 49 out of 78</p>","null","pattern_show_trial_num","","","","","","","","","","","","","","","","","","","","","","","","",""
"","","","","","image-keyboard-response","119","198043","0.0-2.0-7.0-1.9","5a92e1eeb5e2110001c670f0","A3","batch1","","954","stim/yes_22_ver_w1.png","f","pattern_response","true","f","pattern_47","954","true","38","","","","","","","","","","","","","","","","","","",""
"","","","","","html-keyboard-response","120","199346","0.0-2.0-7.0-0.10","5a92e1eeb5e2110001c670f0","A3","batch1","","null","<p class=block-text>Trial 50 out of 78</p>","null","pattern_show_trial_num","","","","","","","","","","","","","","","","","","","","","","","","",""
"","","","","","image-keyboard-response","121","200463","0.0-2.0-7.0-1.10","5a92e1eeb5e2110001c670f0","A3","batch1","","1110.7000000476837","stim/no_17_1_w.png","j","pattern_response","true","j","pattern_04","1110.7000000476837","true","39","","","","","","","","","","","","","","","","","","",""
"","","","","","html-keyboard-response","122","201768","0.0-2.0-7.0-0.11","5a92e1eeb5e2110001c670f0","A3","batch1","","null","<p class=block-text>Trial 51 out of 78</p>","null","pattern_show_trial_num","","","","","","","","","","","","","","","","","","","","","","","","",""
"","","","","","image-keyboard-response","123","203208","0.0-2.0-7.0-1.11","5a92e1eeb5e2110001c670f0","A3","batch1","","1433.0999999046326","stim/yes_35_dia_b1.png","f","pattern_response","true","f","pattern_57","1433.0999999046326","true","40","","","","","","","","","","","","","","","","","","",""
"","","","","","html-keyboard-response","124","204517","0.0-2.0-7.0-0.12","5a92e1eeb5e2110001c670f0","A3","batch1","","null","<p class=block-text>Trial 52 out of 78</p>","null","pattern_show_trial_num","","","","","","","","","","","","","","","","","","","","","","","","",""
"","","","","","image-keyboard-response","125","205479","0.0-2.0-7.0-1.12","5a92e1eeb5e2110001c670f0","A3","batch1","","960","stim/no_13_2_b.png","j","pattern_response","true","j","pattern_02","960","true","41","","","","","","","","","","","","","","","","","","",""
"","","","","","html-keyboard-response","126","206783","0.0-2.0-7.0-0.13","5a92e1eeb5e2110001c670f0","A3","batch1","","null","<p class=block-text>Trial 53 out of 78</p>","null","pattern_show_trial_num","","","","","","","","","","","","","","","","","","","","","","","","",""
"","","","","","image-keyboard-response","127","208399","0.0-2.0-7.0-1.13","5a92e1eeb5e2110001c670f0","A3","batch1","","1613.0999999046326","stim/yes_50_dia_w1.png","j","pattern_response","false","f","pattern_71","1613.0999999046326","false","41","","","","","","","","","","","","","","","","","","",""
"","","","","","html-keyboard-response","128","209703","0.0-2.0-7.0-0.14","5a92e1eeb5e2110001c670f0","A3","batch1","","null","<p class=block-text>Trial 54 out of 78</p>","null","pattern_show_trial_num","","","","","","","","","","","","","","","","","","","","","","","","",""
"","","","","","image-keyboard-response","129","211403","0.0-2.0-7.0-1.14","5a92e1eeb5e2110001c670f0","A3","batch1","","1697.9000000953674","stim/yes_67_hor_b1.png","f","pattern_response","true","f","pattern_79","1697.9000000953674","true","42","","","","","","","","","","","","","","","","","","",""
"","","","","","html-keyboard-response","130","212710","0.0-2.0-7.0-0.15","5a92e1eeb5e2110001c670f0","A3","batch1","","null","<p class=block-text>Trial 55 out of 78</p>","null","pattern_show_trial_num","","","","","","","","","","","","","","","","","","","","","","","","",""
"","","","","","image-keyboard-response","131","213614","0.0-2.0-7.0-1.15","5a92e1eeb5e2110001c670f0","A3","batch1","","902.4000000953674","stim/yes_25_hor_b1_b.png","f","pattern_response","true","f","pattern_49","902.4000000953674","true","43","","","","","","","","","","","","","","","","","","",""
"","","","","","html-keyboard-response","132","214918","0.0-2.0-7.0-0.16","5a92e1eeb5e2110001c670f0","A3","batch1","","null","<p class=block-text>Trial 56 out of 78</p>","null","pattern_show_trial_num","","","","","","","","","","","","","","","","","","","","","","","","",""
"","","","","","image-keyboard-response","133","216093","0.0-2.0-7.0-1.16","5a92e1eeb5e2110001c670f0","A3","batch1","","1172.4000000953674","stim/yes_43_ver_w1_w.png","f","pattern_response","true","f","pattern_65","1172.4000000953674","true","44","","","","","","","","","","","","","","","","","","",""
"","","","","","html-keyboard-response","134","217399","0.0-2.0-7.0-0.17","5a92e1eeb5e2110001c670f0","A3","batch1","","null","<p class=block-text>Trial 57 out of 78</p>","null","pattern_show_trial_num","","","","","","","","","","","","","","","","","","","","","","","","",""
"","","","","","image-keyboard-response","135","218176","0.0-2.0-7.0-1.17","5a92e1eeb5e2110001c670f0","A3","batch1","","773.6999998092651","stim/yes_14_hor_b1_w.png","f","pattern_response","true","f","pattern_43","773.6999998092651","true","45","","","","","","","","","","","","","","","","","","",""
"","","","","","html-keyboard-response","136","219480","0.0-2.0-7.0-0.18","5a92e1eeb5e2110001c670f0","A3","batch1","","null","<p class=block-text>Trial 58 out of 78</p>","null","pattern_show_trial_num","","","","","","","","","","","","","","","","","","","","","","","","",""
"","","","","","image-keyboard-response","137","221629","0.0-2.0-7.0-1.18","5a92e1eeb5e2110001c670f0","A3","batch1","","2145.399999856949","stim/no_29_1_b.png","j","pattern_response","true","j","pattern_12","2145.399999856949","true","46","","","","","","","","","","","","","","","","","","",""
"","","","","","html-keyboard-response","138","222936","0.0-2.0-7.0-0.19","5a92e1eeb5e2110001c670f0","A3","batch1","","null","<p class=block-text>Trial 59 out of 78</p>","null","pattern_show_trial_num","","","","","","","","","","","","","","","","","","","","","","","","",""
"","","","","","image-keyboard-response","139","224016","0.0-2.0-7.0-1.19","5a92e1eeb5e2110001c670f0","A3","batch1","","1076.7000000476837","stim/yes_31_hor_b1.png","f","pattern_response","true","f","pattern_55","1076.7000000476837","true","47","","","","","","","","","","","","","","","","","","",""
"","","","","","html-keyboard-response","140","225320","0.0-2.0-7.0-0.20","5a92e1eeb5e2110001c670f0","A3","batch1","","null","<p class=block-text>Trial 60 out of 78</p>","null","pattern_show_trial_num","","","","","","","","","","","","","","","","","","","","","","","","",""
"","","","","","image-keyboard-response","141","226297","0.0-2.0-7.0-1.20","5a92e1eeb5e2110001c670f0","A3","batch1","","972.5999999046326","stim/yes_28_ver_b1.png","f","pattern_response","true","f","pattern_51","972.5999999046326","true","48","","","","","","","","","","","","","","","","","","",""
"","","","","","html-keyboard-response","142","227601","0.0-2.0-7.0-0.21","5a92e1eeb5e2110001c670f0","A3","batch1","","null","<p class=block-text>Trial 61 out of 78</p>","null","pattern_show_trial_num","","","","","","","","","","","","","","","","","","","","","","","","",""
"","","","","","image-keyboard-response","143","229318","0.0-2.0-7.0-1.21","5a92e1eeb5e2110001c670f0","A3","batch1","","1713.1000001430511","stim/no_48_1_w.png","j","pattern_response","true","j","pattern_28","1713.1000001430511","true","49","","","","","","","","","","","","","","","","","","",""
"","","","","","html-keyboard-response","144","230621","0.0-2.0-7.0-0.22","5a92e1eeb5e2110001c670f0","A3","batch1","","null","<p class=block-text>Trial 62 out of 78</p>","null","pattern_show_trial_num","","","","","","","","","","","","","","","","","","","","","","","","",""
"","","","","","image-keyboard-response","145","233124","0.0-2.0-7.0-1.22","5a92e1eeb5e2110001c670f0","A3","batch1","","2499.7000000476837","stim/yes_52_ver_w1.png","f","pattern_response","true","f","pattern_73","2499.7000000476837","true","50","","","","","","","","","","","","","","","","","","",""
"","","","","","html-keyboard-response","146","234430","0.0-2.0-7.0-0.23","5a92e1eeb5e2110001c670f0","A3","batch1","","null","<p class=block-text>Trial 63 out of 78</p>","null","pattern_show_trial_num","","","","","","","","","","","","","","","","","","","","","","","","",""
"","","","","","image-keyboard-response","147","236658","0.0-2.0-7.0-1.23","5a92e1eeb5e2110001c670f0","A3","batch1","","2222.800000190735","stim/no_50_1.png","j","pattern_response","true","j","pattern_30","2222.800000190735","true","51","","","","","","","","","","","","","","","","","","",""
"","","","","","html-keyboard-response","148","237962","0.0-2.0-7.0-0.24","5a92e1eeb5e2110001c670f0","A3","batch1","","null","<p class=block-text>Trial 64 out of 78</p>","null","pattern_show_trial_num","","","","","","","","","","","","","","","","","","","","","","","","",""
"","","","","","image-keyboard-response","149","239499","0.0-2.0-7.0-1.24","5a92e1eeb5e2110001c670f0","A3","batch1","","1533.4000000953674","stim/no_46_1_b.png","j","pattern_response","true","j","pattern_26","1533.4000000953674","true","52","","","","","","","","","","","","","","","","","","",""
"","","","","","html-keyboard-response","150","240805","0.0-2.0-7.0-0.25","5a92e1eeb5e2110001c670f0","A3","batch1","","null","<p class=block-text>Trial 65 out of 78</p>","null","pattern_show_trial_num","","","","","","","","","","","","","","","","","","","","","","","","",""
"","","","","","image-keyboard-response","151","242038","0.0-2.0-7.0-1.25","5a92e1eeb5e2110001c670f0","A3","batch1","","1227.2000000476837","stim/no_20_1_w.png","j","pattern_response","true","j","pattern_06","1227.2000000476837","true","53","","","","","","","","","","","","","","","","","","",""
"","","","","","html-keyboard-response","152","243344","0.0-2.0-7.0-0.26","5a92e1eeb5e2110001c670f0","A3","batch1","","null","<p class=block-text>Trial 66 out of 78</p>","null","pattern_show_trial_num","","","","","","","","","","","","","","","","","","","","","","","","",""
"","","","","","image-keyboard-response","153","244304","0.0-2.0-7.0-1.26","5a92e1eeb5e2110001c670f0","A3","batch1","","950.7999999523163","stim/yes_55_hor_w1_w.png","f","pattern_response","true","f","pattern_75","950.7999999523163","true","54","","","","","","","","","","","","","","","","","","",""
"","","","","","html-keyboard-response","154","245606","0.0-2.0-7.0-0.27","5a92e1eeb5e2110001c670f0","A3","batch1","","null","<p class=block-text>Trial 67 out of 78</p>","null","pattern_show_trial_num","","","","","","","","","","","","","","","","","","","","","","","","",""
"","","","","","image-keyboard-response","155","247311","0.0-2.0-7.0-1.27","5a92e1eeb5e2110001c670f0","A3","batch1","","1695.3999998569489","stim/yes_48_dia_w1_w.png","j","pattern_response","false","f","pattern_69","1695.3999998569489","false","54","","","","","","","","","","","","","","","","","","",""
"","","","","","html-keyboard-response","156","248615","0.0-2.0-7.0-0.28","5a92e1eeb5e2110001c670f0","A3","batch1","","null","<p class=block-text>Trial 68 out of 78</p>","null","pattern_show_trial_num","","","","","","","","","","","","","","","","","","","","","","","","",""
"","","","","","image-keyboard-response","157","250148","0.0-2.0-7.0-1.28","5a92e1eeb5e2110001c670f0","A3","batch1","","1525.1999998092651","stim/no_38_1_b.png","j","pattern_response","true","j","pattern_20","1525.1999998092651","true","55","","","","","","","","","","","","","","","","","","",""
"","","","","","html-keyboard-response","158","251452","0.0-2.0-7.0-0.29","5a92e1eeb5e2110001c670f0","A3","batch1","","null","<p class=block-text>Trial 69 out of 78</p>","null","pattern_show_trial_num","","","","","","","","","","","","","","","","","","","","","","","","",""
"","","","","","image-keyboard-response","159","253280","0.0-2.0-7.0-1.29","5a92e1eeb5e2110001c670f0","A3","batch1","","1824.7999999523163","stim/no_70_2.png","j","pattern_response","true","j","pattern_40","1824.7999999523163","true","56","","","","","","","","","","","","","","","","","","",""
"","","","","","html-keyboard-response","160","254583","0.0-2.0-7.0-0.30","5a92e1eeb5e2110001c670f0","A3","batch1","","null","<p class=block-text>Trial 70 out of 78</p>","null","pattern_show_trial_num","","","","","","","","","","","","","","","","","","","","","","","","",""
"","","","","","image-keyboard-response","161","255949","0.0-2.0-7.0-1.30","5a92e1eeb5e2110001c670f0","A3","batch1","","1360","stim/no_32_1_w.png","j","pattern_response","true","j","pattern_14","1360","true","57","","","","","","","","","","","","","","","","","","",""
"","","","","","html-keyboard-response","162","257255","0.0-2.0-7.0-0.31","5a92e1eeb5e2110001c670f0","A3","batch1","","null","<p class=block-text>Trial 71 out of 78</p>","null","pattern_show_trial_num","","","","","","","","","","","","","","","","","","","","","","","","",""
"","","","","","image-keyboard-response","163","258333","0.0-2.0-7.0-1.31","5a92e1eeb5e2110001c670f0","A3","batch1","","1073.2000000476837","stim/yes_17_dia_w1.png","f","pattern_response","true","f","pattern_45","1073.2000000476837","true","58","","","","","","","","","","","","","","","","","","",""
"","","","","","html-keyboard-response","164","259641","0.0-2.0-7.0-0.32","5a92e1eeb5e2110001c670f0","A3","batch1","","null","<p class=block-text>Trial 72 out of 78</p>","null","pattern_show_trial_num","","","","","","","","","","","","","","","","","","","","","","","","",""
"","","","","","image-keyboard-response","165","261103","0.0-2.0-7.0-1.32","5a92e1eeb5e2110001c670f0","A3","batch1","","1458.3999998569489","stim/no_52_1.png","j","pattern_response","true","j","pattern_32","1458.3999998569489","true","59","","","","","","","","","","","","","","","","","","",""
"","","","","","html-keyboard-response","166","262406","0.0-2.0-7.0-0.33","5a92e1eeb5e2110001c670f0","A3","batch1","","null","<p class=block-text>Trial 73 out of 78</p>","null","pattern_show_trial_num","","","","","","","","","","","","","","","","","","","","","","","","",""
"","","","","","image-keyboard-response","167","264199","0.0-2.0-7.0-1.33","5a92e1eeb5e2110001c670f0","A3","batch1","","1787.7000000476837","stim/no_34_1_b.png","j","pattern_response","true","j","pattern_16","1787.7000000476837","true","60","","","","","","","","","","","","","","","","","","",""
"","","","","","html-keyboard-response","168","265504","0.0-2.0-7.0-0.34","5a92e1eeb5e2110001c670f0","A3","batch1","","null","<p class=block-text>Trial 74 out of 78</p>","null","pattern_show_trial_num","","","","","","","","","","","","","","","","","","","","","","","","",""
"","","","","","image-keyboard-response","169","266446","0.0-2.0-7.0-1.34","5a92e1eeb5e2110001c670f0","A3","batch1","","936.4000000953674","stim/yes_29_ver_w1.png","f","pattern_response","true","f","pattern_53","936.4000000953674","true","61","","","","","","","","","","","","","","","","","","",""
"","","","","","html-keyboard-response","170","267750","0.0-2.0-7.0-0.35","5a92e1eeb5e2110001c670f0","A3","batch1","","null","<p class=block-text>Trial 75 out of 78</p>","null","pattern_show_trial_num","","","","","","","","","","","","","","","","","","","","","","","","",""
"","","","","","image-keyboard-response","171","269395","0.0-2.0-7.0-1.35","5a92e1eeb5e2110001c670f0","A3","batch1","","1641","stim/yes_60_ver_b1_b.png","j","pattern_response","false","f","pattern_77","1641","false","61","","","","","","","","","","","","","","","","","","",""
"","","","","","html-keyboard-response","172","270701","0.0-2.0-7.0-0.36","5a92e1eeb5e2110001c670f0","A3","batch1","","null","<p class=block-text>Trial 76 out of 78</p>","null","pattern_show_trial_num","","","","","","","","","","","","","","","","","","","","","","","","",""
"","","","","","image-keyboard-response","173","272486","0.0-2.0-7.0-1.36","5a92e1eeb5e2110001c670f0","A3","batch1","","1779.7999999523163","stim/no_55_1_w.png","j","pattern_response","true","j","pattern_34","1779.7999999523163","true","62","","","","","","","","","","","","","","","","","","",""
"","","","","","html-keyboard-response","174","273790","0.0-2.0-7.0-0.37","5a92e1eeb5e2110001c670f0","A3","batch1","","null","<p class=block-text>Trial 77 out of 78</p>","null","pattern_show_trial_num","","","","","","","","","","","","","","","","","","","","","","","","",""
"","","","","","image-keyboard-response","175","275084","0.0-2.0-7.0-1.37","5a92e1eeb5e2110001c670f0","A3","batch1","","1288.7999999523163","stim/no_23_1.png","j","pattern_response","true","j","pattern_08","1288.7999999523163","true","63","","","","","","","","","","","","","","","","","","",""
"","","","","","html-keyboard-response","176","276390","0.0-2.0-7.0-0.38","5a92e1eeb5e2110001c670f0","A3","batch1","","null","<p class=block-text>Trial 78 out of 78</p>","null","pattern_show_trial_num","","","","","","","","","","","","","","","","","","","","","","","","",""
"","","","","","image-keyboard-response","177","277332","0.0-2.0-7.0-1.38","5a92e1eeb5e2110001c670f0","A3","batch1","","940.2999999523163","stim/yes_38_hor_b1_b.png","f","pattern_response","true","f","pattern_61","940.2999999523163","true","64","","","","","","","","","","","","","","","","","","",""
"","","","","","html-button-response","178","281834","0.0-2.0-8.0","5a92e1eeb5e2110001c670f0","A3","batch1","","3996.100000143051","<p class = block-text>This concludes the 4-in-a-row detection game.Thank you for your responses!<br>
            You responded correctly on 82% of the trials.<br>
            When you are ready, press ""Continue"" button to continue </p>","0","","","","","","","","","","","","","","","","","","","","","","","","","",""
"true","","","","","fullscreen","179","284555","0.0-3.0-0.0","5a92e1eeb5e2110001c670f0","A3","batch1","","","","","","","","","","","","","","","","","","","","","","","","","","","","","",""
"","","","","","instructions","180","343772","0.0-3.0-1.0-0.0-0.0","5a92e1eeb5e2110001c670f0","A3","batch1","[{""page_index"":0,""viewing_time"":12834.900000095367},{""page_index"":1,""viewing_time"":5442.299999952316},{""page_index"":2,""viewing_time"":4785.900000095367},{""page_index"":3,""viewing_time"":11356},{""page_index"":4,""viewing_time"":10293.599999904633},{""page_index"":5,""viewing_time"":12553.599999904633},{""page_index"":6,""viewing_time"":1948.6000001430511}]","59215.299999952316","","","tol-instructions","","","","","","","","","","","","","","","","","","","","","","","","",""
"","","","","","html-button-response","181","344881","0.0-3.0-1.0-1.0-0.0","5a92e1eeb5e2110001c670f0","A3","batch1","","1106","<p class=block-text> Let's answer a few questions <br>","0","tol_enter_quiz","","","","","","","","","","","","","","","","","","","","","","","","",""
"","","","","","html-button-response","182","347231","0.0-3.0-1.0-1.0-1.0","5a92e1eeb5e2110001c670f0","A3","batch1","","2346.899999856949","<p class = block-text>True or False: You can only move the ball on top of a peg. <br></p>","0","tol_quiz","true","","","","","","","","","","","","","","","","","","","","","","","",""
"","","","","","html-button-response","183","348168","0.0-3.0-1.0-1.0-2.0","5a92e1eeb5e2110001c670f0","A3","batch1","","933.5999999046326","<p class = block-text>Correct! You can only move the ball on top of a peg.</p>","0","tol_quiz_feedback","","","","","","","","","","","","","","","","","","","","","","","","",""
"","","","","","html-button-response","184","349993","0.0-3.0-1.0-1.0-3.0","5a92e1eeb5e2110001c670f0","A3","batch1","","1823.5","<p class = block-text>True or False: You should try to match your board with the target board with fewest moves possible. <br></p>","0","tol_quiz","true","","","","","","","","","","","","","","","","","","","","","","","",""
"","","","","","html-button-response","185","350669","0.0-3.0-1.0-1.0-4.0","5a92e1eeb5e2110001c670f0","A3","batch1","","674.2999999523163","<p class = block-text>Correct! </p>","0","tol_quiz_feedback","","","","","","","","","","","","","","","","","","","","","","","","",""
"","","","","","html-button-response","186","351842","0.0-3.0-2.0","5a92e1eeb5e2110001c670f0","A3","batch1","","1169.7000000476837","<p class=block-text> Now that you've understood the game, let's practice a few easier examples before we start!<br> <br>","0","","","","","","","","","","","","","","","","","","","","","","","","","",""
"","","","","","single-stim-button","187","355267","0.0-3.0-3.0-0.0","5a92e1eeb5e2110001c670f0","A3","batch1","","3422","","","tol_practice","","","","","","","","","tol_peg_2","3422","3422","0","[[1,2,0],[0,0],[0]]","1","[[1,2,0],[0,0],[3]]","practice","3422","","","","","","","",""
"","","","","","single-stim-button","188","358516","0.0-3.0-3.0-1.0","5a92e1eeb5e2110001c670f0","A3","batch1","","3246","","","tol_practice","","","","","","","","","tol_peg_3","3246","3246","0","[[1,2,0],[0,0],[3]]","1","[[1,2,0],[0,0],[3]]","practice","3246","","","","","","","",""
"","","","","","poldrack-single-stim","189","359521","0.0-3.0-4.0","5a92e1eeb5e2110001c670f0","A3","batch1","","-1","","","tol_feedback","true","","","","","","","","","1000","1000","500","","","","","","-1","none","true","","0","","",""
"","","","","","single-stim-button","190","361827","0.0-3.0-5.0-0.0","5a92e1eeb5e2110001c670f0","A3","batch1","","2303","","","tol_practice","","","","","","","","","tol_peg_1","2303","2303","0","[[1,0,0],[3,0],[0]]","2","[[0,0,0],[3,1],[2]]","practice","2303","","","","","","","",""
"","","","","","single-stim-button","191","362893","0.0-3.0-5.0-1.0","5a92e1eeb5e2110001c670f0","A3","batch1","","1065","","","tol_practice","","","","","","","","","tol_peg_3","1065","1065","0","[[1,0,0],[3,0],[2]]","2","[[0,0,0],[3,1],[2]]","practice","1065","","","","","","","",""
"","","","","","single-stim-button","192","366605","0.0-3.0-5.1-0.1","5a92e1eeb5e2110001c670f0","A3","batch1","","3710","","","tol_practice","","","","","","","","","tol_peg_1","3710","3710","0","[[0,0,0],[3,0],[2]]","3","[[0,0,0],[3,1],[2]]","practice","3710","","","","","","","",""
"","","","","","single-stim-button","193","367434","0.0-3.0-5.1-1.1","5a92e1eeb5e2110001c670f0","A3","batch1","","827","","","tol_practice","","","","","","","","","tol_peg_2","827","827","0","[[0,0,0],[3,1],[2]]","3","[[0,0,0],[3,1],[2]]","practice","827","","","","","","","",""
"","","","","","poldrack-single-stim","194","368439","0.0-3.0-6.0","5a92e1eeb5e2110001c670f0","A3","batch1","","-1","","","tol_feedback","true","","","","","","","","","1000","1000","500","","","","","","-1","none","true","","0","","",""
"","","","","","single-stim-button","195","370939","0.0-3.0-7.0-0.0","5a92e1eeb5e2110001c670f0","A3","batch1","","2498","","","tol_practice","","","","","","","","","tol_peg_2","2498","2498","0","[[1,2,0],[0,0],[0]]","4","[[1,0,0],[2,0],[3]]","practice","2498","","","","","","","",""
"","","","","","single-stim-button","196","371800","0.0-3.0-7.0-1.0","5a92e1eeb5e2110001c670f0","A3","batch1","","858","","","tol_practice","","","","","","","","","tol_peg_3","858","858","0","[[1,2,0],[0,0],[3]]","4","[[1,0,0],[2,0],[3]]","practice","858","","","","","","","",""
"","","","","","single-stim-button","197","372973","0.0-3.0-7.1-0.1","5a92e1eeb5e2110001c670f0","A3","batch1","","1172","","","tol_practice","","","","","","","","","tol_peg_1","1172","1172","0","[[1,0,0],[0,0],[3]]","5","[[1,0,0],[2,0],[3]]","practice","1172","","","","","","","",""
"","","","","","single-stim-button","198","373844","0.0-3.0-7.1-1.1","5a92e1eeb5e2110001c670f0","A3","batch1","","869","","","tol_practice","","","","","","","","","tol_peg_2","869","869","0","[[1,0,0],[2,0],[3]]","5","[[1,0,0],[2,0],[3]]","practice","869","","","","","","","",""
"","","","","","poldrack-single-stim","199","374849","0.0-3.0-8.0","5a92e1eeb5e2110001c670f0","A3","batch1","","-1","","","tol_feedback","true","","","","","","","","","1000","1000","500","","","","","","-1","none","true","","0","","",""
"","","","","","html-button-response","200","376875","0.0-3.0-9.0","5a92e1eeb5e2110001c670f0","A3","batch1","","2023.8999998569489","<div class = centerbox><p class = center-block-text>Great job! You are done with practice trials<br>You are about to start official trials.<br> <br> Problem <strong>1</strong> out of 25 problems</p></div>","0","tol_instruction","","","","","","","","","","","","","","","","","","","","","","","","",""
"","","","","","single-stim-button","201","381778","0.0-3.0-10.0-0.0","5a92e1eeb5e2110001c670f0","A3","batch1","","3898","","","tol_tohand","","","","","","","","","tol_peg_1","3898","3898","0","[[1,0,0],[3,0],[0]]","1","[[1,3,0],[2,0],[0]]","0","0","","","","","","3","",""
"","","","","","single-stim-button","202","382678","0.0-3.0-10.0-1.0","5a92e1eeb5e2110001c670f0","A3","batch1","","897","","","tol_toboard","","","","","","","","","tol_peg_3","897","897","0","[[1,0,0],[3,0],[2]]","1","[[1,3,0],[2,0],[0]]","0","0","","","","","","3","",""
"","","","","","single-stim-button","203","384266","0.0-3.0-10.1-0.1","5a92e1eeb5e2110001c670f0","A3","batch1","","1585","","","tol_tohand","","","","","","","","","tol_peg_2","1585","1585","0","[[1,0,0],[0,0],[2]]","2","[[1,3,0],[2,0],[0]]","0","0","","","","","","3","",""
"","","","","","single-stim-button","204","385006","0.0-3.0-10.1-1.1","5a92e1eeb5e2110001c670f0","A3","batch1","","739","","","tol_toboard","","","","","","","","","tol_peg_1","739","739","0","[[1,3,0],[0,0],[2]]","2","[[1,3,0],[2,0],[0]]","0","0","","","","","","3","",""
"","","","","","single-stim-button","205","391663","0.0-3.0-10.2-0.2","5a92e1eeb5e2110001c670f0","A3","batch1","","6655","","","tol_tohand","","","","","","","","","tol_peg_3","6655","6655","0","[[1,3,0],[0,0],[0]]","3","[[1,3,0],[2,0],[0]]","0","0","","","","","","3","",""
"","","","","","single-stim-button","206","392420","0.0-3.0-10.2-1.2","5a92e1eeb5e2110001c670f0","A3","batch1","","755","","","tol_toboard","","","","","","","","","tol_peg_2","755","755","0","[[1,3,0],[2,0],[0]]","3","[[1,3,0],[2,0],[0]]","0","0","","","","","","3","",""
"","","","","","poldrack-single-stim","207","393425","0.0-3.0-11.0","5a92e1eeb5e2110001c670f0","A3","batch1","","-1","","","tol_feedback","true","","","","","","","","","1000","1000","500","","","","","","-1","none","true","3898","12138","","",""
"","","","","","html-button-response","208","394464","0.0-3.0-12.0","5a92e1eeb5e2110001c670f0","A3","batch1","","1037.4000000953674","<div class = centerbox><p class = center-block-text>problem <strong>2</strong> out of 25 problems</p></div>","0","tol_trial_num","","","","","","","","","","","","","","","","","","","","","","","","",""
"","","","","","single-stim-button","209","397313","0.0-3.0-13.0-0.0","5a92e1eeb5e2110001c670f0","A3","batch1","","2847","","","tol_tohand","","","","","","","","","tol_peg_1","2847","2847","0","[[1,0,0],[3,0],[0]]","1","[[2,1,3],[0,0],[0]]","1","0","","","","","","5","",""
"","","","","","single-stim-button","210","398543","0.0-3.0-13.0-1.0","5a92e1eeb5e2110001c670f0","A3","batch1","","1228","","","tol_toboard","","","","","","","","","tol_peg_3","1228","1228","0","[[1,0,0],[3,0],[2]]","1","[[2,1,3],[0,0],[0]]","1","0","","","","","","5","",""
"","","","","","single-stim-button","211","399798","0.0-3.0-13.1-0.1","5a92e1eeb5e2110001c670f0","A3","batch1","","1253","","","tol_tohand","","","","","","","","","tol_peg_1","1253","1253","0","[[0,0,0],[3,0],[2]]","2","[[2,1,3],[0,0],[0]]","1","0","","","","","","5","",""
"","","","","","single-stim-button","212","401001","0.0-3.0-13.1-1.1","5a92e1eeb5e2110001c670f0","A3","batch1","","1202","","","tol_toboard","","","","","","","","","tol_peg_2","1202","1202","0","[[0,0,0],[3,1],[2]]","2","[[2,1,3],[0,0],[0]]","1","0","","","","","","5","",""
"","","","","","single-stim-button","213","402835","0.0-3.0-13.2-0.2","5a92e1eeb5e2110001c670f0","A3","batch1","","1831","","","tol_tohand","","","","","","","","","tol_peg_3","1831","1831","0","[[0,0,0],[3,1],[0]]","3","[[2,1,3],[0,0],[0]]","1","0","","","","","","5","",""
"","","","","","single-stim-button","214","403589","0.0-3.0-13.2-1.2","5a92e1eeb5e2110001c670f0","A3","batch1","","752","","","tol_toboard","","","","","","","","","tol_peg_1","752","752","0","[[2,0,0],[3,1],[0]]","3","[[2,1,3],[0,0],[0]]","1","0","","","","","","5","",""
"","","","","","single-stim-button","215","405134","0.0-3.0-13.3-0.3","5a92e1eeb5e2110001c670f0","A3","batch1","","1543","","","tol_tohand","","","","","","","","","tol_peg_2","1543","1543","0","[[2,0,0],[3,0],[0]]","4","[[2,1,3],[0,0],[0]]","1","0","","","","","","5","",""
"","","","","","single-stim-button","216","405881","0.0-3.0-13.3-1.3","5a92e1eeb5e2110001c670f0","A3","batch1","","744","","","tol_toboard","","","","","","","","","tol_peg_1","744","744","0","[[2,1,0],[3,0],[0]]","4","[[2,1,3],[0,0],[0]]","1","0","","","","","","5","",""
"","","","","","single-stim-button","217","406752","0.0-3.0-13.4-0.4","5a92e1eeb5e2110001c670f0","A3","batch1","","870","","","tol_tohand","","","","","","","","","tol_peg_2","870","870","0","[[2,1,0],[0,0],[0]]","5","[[2,1,3],[0,0],[0]]","1","0","","","","","","5","",""
"","","","","","single-stim-button","218","407557","0.0-3.0-13.4-1.4","5a92e1eeb5e2110001c670f0","A3","batch1","","804","","","tol_toboard","","","","","","","","","tol_peg_1","804","804","0","[[2,1,3],[0,0],[0]]","5","[[2,1,3],[0,0],[0]]","1","0","","","","","","5","",""
"","","","","","poldrack-single-stim","219","408560","0.0-3.0-14.0","5a92e1eeb5e2110001c670f0","A3","batch1","","-1","","","tol_feedback","true","","","","","","","","","1000","1000","500","","","","","","-1","none","true","2847","8344","","",""
"","","","","","html-button-response","220","409617","0.0-3.0-15.0","5a92e1eeb5e2110001c670f0","A3","batch1","","1054.0999999046326","<div class = centerbox><p class = center-block-text>problem <strong>3</strong> out of 25 problems</p></div>","0","tol_trial_num","","","","","","","","","","","","","","","","","","","","","","","","",""
"","","","","","single-stim-button","221","413933","0.0-3.0-16.0-0.0","5a92e1eeb5e2110001c670f0","A3","batch1","","4313","","","tol_tohand","","","","","","","","","tol_peg_1","4313","4313","0","[[2,0,0],[0,0],[1]]","1","[[1,2,0],[3,0],[0]]","2","0","","","","","","4","",""
"","","","","","single-stim-button","222","415082","0.0-3.0-16.0-1.0","5a92e1eeb5e2110001c670f0","A3","batch1","","1147","","","tol_toboard","","","","","","","","","tol_peg_2","1147","1147","0","[[2,0,0],[3,0],[1]]","1","[[1,2,0],[3,0],[0]]","2","0","","","","","","4","",""
"","","","","","single-stim-button","223","415963","0.0-3.0-16.1-0.1","5a92e1eeb5e2110001c670f0","A3","batch1","","880","","","tol_tohand","","","","","","","","","tol_peg_1","880","880","0","[[0,0,0],[3,0],[1]]","2","[[1,2,0],[3,0],[0]]","2","0","","","","","","4","",""
"","","","","","single-stim-button","224","416578","0.0-3.0-16.1-1.1","5a92e1eeb5e2110001c670f0","A3","batch1","","613","","","tol_toboard","","","","","","","","","tol_peg_2","613","613","0","[[0,0,0],[3,2],[1]]","2","[[1,2,0],[3,0],[0]]","2","0","","","","","","4","",""
"","","","","","single-stim-button","225","417778","0.0-3.0-16.2-0.2","5a92e1eeb5e2110001c670f0","A3","batch1","","1199","","","tol_tohand","","","","","","","","","tol_peg_3","1199","1199","0","[[0,0,0],[3,2],[0]]","3","[[1,2,0],[3,0],[0]]","2","0","","","","","","4","",""
"","","","","","single-stim-button","226","418873","0.0-3.0-16.2-1.2","5a92e1eeb5e2110001c670f0","A3","batch1","","1093","","","tol_toboard","","","","","","","","","tol_peg_1","1093","1093","0","[[1,0,0],[3,2],[0]]","3","[[1,2,0],[3,0],[0]]","2","0","","","","","","4","",""
"","","","","","single-stim-button","227","420694","0.0-3.0-16.3-0.3","5a92e1eeb5e2110001c670f0","A3","batch1","","1819","","","tol_tohand","","","","","","","","","tol_peg_2","1819","1819","0","[[1,0,0],[3,0],[0]]","4","[[1,2,0],[3,0],[0]]","2","0","","","","","","4","",""
"","","","","","single-stim-button","228","421632","0.0-3.0-16.3-1.3","5a92e1eeb5e2110001c670f0","A3","batch1","","936","","","tol_toboard","","","","","","","","","tol_peg_1","936","936","0","[[1,2,0],[3,0],[0]]","4","[[1,2,0],[3,0],[0]]","2","0","","","","","","4","",""
"","","","","","poldrack-single-stim","229","422635","0.0-3.0-17.0","5a92e1eeb5e2110001c670f0","A3","batch1","","-1","","","tol_feedback","true","","","","","","","","","1000","1000","500","","","","","","-1","none","true","4313","8211","","",""
"","","","","","html-button-response","230","423540","0.0-3.0-18.0","5a92e1eeb5e2110001c670f0","A3","batch1","","903.2999999523163","<div class = centerbox><p class = center-block-text>problem <strong>4</strong> out of 25 problems</p></div>","0","tol_trial_num","","","","","","","","","","","","","","","","","","","","","","","","",""
"","","","","","single-stim-button","231","427939","0.0-3.0-19.0-0.0","5a92e1eeb5e2110001c670f0","A3","batch1","","4398","","","tol_tohand","","","","","","","","","tol_peg_2","4398","4398","0","[[3,0,0],[2,0],[0]]","1","[[3,0,0],[1,0],[2]]","3","0","","","","","","3","",""
"","","","","","single-stim-button","232","428793","0.0-3.0-19.0-1.0","5a92e1eeb5e2110001c670f0","A3","batch1","","853","","","tol_toboard","","","","","","","","","tol_peg_3","853","853","0","[[3,0,0],[2,0],[1]]","1","[[3,0,0],[1,0],[2]]","3","0","","","","","","3","",""
"","","","","","single-stim-button","233","430612","0.0-3.0-19.1-0.1","5a92e1eeb5e2110001c670f0","A3","batch1","","1817","","","tol_tohand","","","","","","","","","tol_peg_2","1817","1817","0","[[3,0,0],[0,0],[1]]","2","[[3,0,0],[1,0],[2]]","3","0","","","","","","3","",""
"","","","","","single-stim-button","234","431353","0.0-3.0-19.1-1.1","5a92e1eeb5e2110001c670f0","A3","batch1","","739","","","tol_toboard","","","","","","","","","tol_peg_1","739","739","0","[[3,2,0],[0,0],[1]]","2","[[3,0,0],[1,0],[2]]","3","0","","","","","","3","",""
"","","","","","single-stim-button","235","432610","0.0-3.0-19.2-0.2","5a92e1eeb5e2110001c670f0","A3","batch1","","1255","","","tol_tohand","","","","","","","","","tol_peg_3","1255","1255","0","[[3,2,0],[0,0],[0]]","3","[[3,0,0],[1,0],[2]]","3","0","","","","","","3","",""
"","","","","","single-stim-button","236","433459","0.0-3.0-19.2-1.2","5a92e1eeb5e2110001c670f0","A3","batch1","","848","","","tol_toboard","","","","","","","","","tol_peg_2","848","848","0","[[3,2,0],[1,0],[0]]","3","[[3,0,0],[1,0],[2]]","3","0","","","","","","3","",""
"","","","","","single-stim-button","237","434405","0.0-3.0-19.3-0.3","5a92e1eeb5e2110001c670f0","A3","batch1","","944","","","tol_tohand","","","","","","","","","tol_peg_1","944","944","0","[[3,0,0],[1,0],[0]]","4","[[3,0,0],[1,0],[2]]","3","0","","","","","","3","",""
"","","","","","single-stim-button","238","435226","0.0-3.0-19.3-1.3","5a92e1eeb5e2110001c670f0","A3","batch1","","820","","","tol_toboard","","","","","","","","","tol_peg_3","820","820","0","[[3,0,0],[1,0],[2]]","4","[[3,0,0],[1,0],[2]]","3","0","","","","","","3","",""
"","","","","","poldrack-single-stim","239","436230","0.0-3.0-20.0","5a92e1eeb5e2110001c670f0","A3","batch1","","-1","","","tol_feedback","true","","","","","","","","","1000","1000","500","","","","","","-1","none","true","4398","8414","","",""
"","","","","","html-button-response","240","437292","0.0-3.0-21.0","5a92e1eeb5e2110001c670f0","A3","batch1","","1059.7999999523163","<div class = centerbox><p class = center-block-text>problem <strong>5</strong> out of 25 problems</p></div>","0","tol_trial_num","","","","","","","","","","","","","","","","","","","","","","","","",""
"","","","","","single-stim-button","241","441477","0.0-3.0-22.0-0.0","5a92e1eeb5e2110001c670f0","A3","batch1","","4183","","","tol_tohand","","","","","","","","","tol_peg_2","4183","4183","0","[[1,0,0],[0,0],[3]]","1","[[0,0,0],[1,2],[3]]","4","0","","","","","","7","",""
"","","","","","single-stim-button","242","443804","0.0-3.0-22.0-1.0","5a92e1eeb5e2110001c670f0","A3","batch1","","2325","","","tol_toboard","","","","","","","","","tol_peg_1","2325","2325","0","[[1,2,0],[0,0],[3]]","1","[[0,0,0],[1,2],[3]]","4","0","","","","","","7","",""
"","","","","","single-stim-button","243","446593","0.0-3.0-22.1-0.1","5a92e1eeb5e2110001c670f0","A3","batch1","","2787","","","tol_tohand","","","","","","","","","tol_peg_1","2787","2787","0","[[1,0,0],[0,0],[3]]","2","[[0,0,0],[1,2],[3]]","4","0","","","","","","7","",""
"","","","","","single-stim-button","244","453697","0.0-3.0-22.1-1.1","5a92e1eeb5e2110001c670f0","A3","batch1","","7103","","","tol_toboard","","","","","","","","","tol_peg_2","7103","7103","0","[[1,0,0],[2,0],[3]]","2","[[0,0,0],[1,2],[3]]","4","0","","","","","","7","",""
"","","","","","single-stim-button","245","454505","0.0-3.0-22.2-0.2","5a92e1eeb5e2110001c670f0","A3","batch1","","806","","","tol_tohand","","","","","","","","","tol_peg_3","806","806","0","[[1,0,0],[2,0],[0]]","3","[[0,0,0],[1,2],[3]]","4","0","","","","","","7","",""
"","","","","","single-stim-button","246","455322","0.0-3.0-22.2-1.2","5a92e1eeb5e2110001c670f0","A3","batch1","","816","","","tol_toboard","","","","","","","","","tol_peg_2","816","816","0","[[1,0,0],[2,3],[0]]","3","[[0,0,0],[1,2],[3]]","4","0","","","","","","7","",""
"","","","","","single-stim-button","247","456373","0.0-3.0-22.3-0.3","5a92e1eeb5e2110001c670f0","A3","batch1","","1049","","","tol_tohand","","","","","","","","","tol_peg_1","1049","1049","0","[[0,0,0],[2,3],[0]]","4","[[0,0,0],[1,2],[3]]","4","0","","","","","","7","",""
"","","","","","single-stim-button","248","457328","0.0-3.0-22.3-1.3","5a92e1eeb5e2110001c670f0","A3","batch1","","954","","","tol_toboard","","","","","","","","","tol_peg_3","954","954","0","[[0,0,0],[2,3],[1]]","4","[[0,0,0],[1,2],[3]]","4","0","","","","","","7","",""
"","","","","","single-stim-button","249","461397","0.0-3.0-22.4-0.4","5a92e1eeb5e2110001c670f0","A3","batch1","","4067","","","tol_tohand","","","","","","","","","tol_peg_2","4067","4067","0","[[0,0,0],[2,0],[1]]","5","[[0,0,0],[1,2],[3]]","4","0","","","","","","7","",""
"","","","","","single-stim-button","250","462199","0.0-3.0-22.4-1.4","5a92e1eeb5e2110001c670f0","A3","batch1","","800","","","tol_toboard","","","","","","","","","tol_peg_1","800","800","0","[[3,0,0],[2,0],[1]]","5","[[0,0,0],[1,2],[3]]","4","0","","","","","","7","",""
"","","","","","single-stim-button","251","462928","0.0-3.0-22.5-0.5","5a92e1eeb5e2110001c670f0","A3","batch1","","727","","","tol_tohand","","","","","","","","","tol_peg_2","727","727","0","[[3,0,0],[0,0],[1]]","6","[[0,0,0],[1,2],[3]]","4","0","","","","","","7","",""
"","","","","","single-stim-button","252","463857","0.0-3.0-22.5-1.5","5a92e1eeb5e2110001c670f0","A3","batch1","","928","","","tol_toboard","","","","","","","","","tol_peg_1","928","928","0","[[3,2,0],[0,0],[1]]","6","[[0,0,0],[1,2],[3]]","4","0","","","","","","7","",""
"","","","","","single-stim-button","253","464925","0.0-3.0-22.6-0.6","5a92e1eeb5e2110001c670f0","A3","batch1","","1067","","","tol_tohand","","","","","","","","","tol_peg_3","1067","1067","0","[[3,2,0],[0,0],[0]]","7","[[0,0,0],[1,2],[3]]","4","0","","","","","","7","",""
"","","","","","single-stim-button","254","465863","0.0-3.0-22.6-1.6","5a92e1eeb5e2110001c670f0","A3","batch1","","937","","","tol_toboard","","","","","","","","","tol_peg_2","937","937","0","[[3,2,0],[1,0],[0]]","7","[[0,0,0],[1,2],[3]]","4","0","","","","","","7","",""
"","","","","","single-stim-button","255","467175","0.0-3.0-22.7-0.7","5a92e1eeb5e2110001c670f0","A3","batch1","","1310","","","tol_tohand","","","","","","","","","tol_peg_1","1310","1310","0","[[3,0,0],[1,0],[0]]","8","[[0,0,0],[1,2],[3]]","4","0","","","","","","7","",""
"","","","","","single-stim-button","256","467885","0.0-3.0-22.7-1.7","5a92e1eeb5e2110001c670f0","A3","batch1","","709","","","tol_toboard","","","","","","","","","tol_peg_2","709","709","0","[[3,0,0],[1,2],[0]]","8","[[0,0,0],[1,2],[3]]","4","0","","","","","","7","",""
"","","","","","single-stim-button","257","468929","0.0-3.0-22.8-0.8","5a92e1eeb5e2110001c670f0","A3","batch1","","1042","","","tol_tohand","","","","","","","","","tol_peg_1","1042","1042","0","[[0,0,0],[1,2],[0]]","9","[[0,0,0],[1,2],[3]]","4","0","","","","","","7","",""
"","","","","","single-stim-button","258","469799","0.0-3.0-22.8-1.8","5a92e1eeb5e2110001c670f0","A3","batch1","","867","","","tol_toboard","","","","","","","","","tol_peg_3","867","867","0","[[0,0,0],[1,2],[3]]","9","[[0,0,0],[1,2],[3]]","4","0","","","","","","7","",""
"","","","","","poldrack-single-stim","259","470804","0.0-3.0-23.0","5a92e1eeb5e2110001c670f0","A3","batch1","","-1","","","tol_feedback","true","","","","","","","","","1000","1000","500","","","","","","-1","none","true","4183","17038","","",""
"","","","","","html-button-response","260","472059","0.0-3.0-24.0","5a92e1eeb5e2110001c670f0","A3","batch1","","1252.2999999523163","<div class = centerbox><p class = center-block-text>problem <strong>6</strong> out of 25 problems</p></div>","0","tol_trial_num","","","","","","","","","","","","","","","","","","","","","","","","",""
"","","","","","single-stim-button","261","476994","0.0-3.0-25.0-0.0","5a92e1eeb5e2110001c670f0","A3","batch1","","4932","","","tol_tohand","","","","","","","","","tol_peg_2","4932","4932","0","[[0,0,0],[1,0],[3]]","1","[[1,0,0],[2,3],[0]]","5","0","","","","","","6","",""
"","","","","","single-stim-button","262","477907","0.0-3.0-25.0-1.0","5a92e1eeb5e2110001c670f0","A3","batch1","","911","","","tol_toboard","","","","","","","","","tol_peg_1","911","911","0","[[2,0,0],[1,0],[3]]","1","[[1,0,0],[2,3],[0]]","5","0","","","","","","6","",""
"","","","","","single-stim-button","263","478648","0.0-3.0-25.1-0.1","5a92e1eeb5e2110001c670f0","A3","batch1","","740","","","tol_tohand","","","","","","","","","tol_peg_2","740","740","0","[[2,0,0],[0,0],[3]]","2","[[1,0,0],[2,3],[0]]","5","0","","","","","","6","",""
"","","","","","single-stim-button","264","479334","0.0-3.0-25.1-1.1","5a92e1eeb5e2110001c670f0","A3","batch1","","684","","","tol_toboard","","","","","","","","","tol_peg_1","684","684","0","[[2,1,0],[0,0],[3]]","2","[[1,0,0],[2,3],[0]]","5","0","","","","","","6","",""
"","","","","","single-stim-button","265","482358","0.0-3.0-25.2-0.2","5a92e1eeb5e2110001c670f0","A3","batch1","","3023","","","tol_tohand","","","","","","","","","tol_peg_3","3023","3023","0","[[2,1,0],[0,0],[0]]","3","[[1,0,0],[2,3],[0]]","5","0","","","","","","6","",""
"","","","","","single-stim-button","266","484761","0.0-3.0-25.2-1.2","5a92e1eeb5e2110001c670f0","A3","batch1","","2401","","","tol_toboard","","","","","","","","","tol_peg_2","2401","2401","0","[[2,1,0],[3,0],[0]]","3","[[1,0,0],[2,3],[0]]","5","0","","","","","","6","",""
"","","","","","single-stim-button","267","486706","0.0-3.0-25.3-0.3","5a92e1eeb5e2110001c670f0","A3","batch1","","1943","","","tol_tohand","","","","","","","","","tol_peg_1","1943","1943","0","[[2,0,0],[3,0],[0]]","4","[[1,0,0],[2,3],[0]]","5","0","","","","","","6","",""
"","","","","","single-stim-button","268","487550","0.0-3.0-25.3-1.3","5a92e1eeb5e2110001c670f0","A3","batch1","","842","","","tol_toboard","","","","","","","","","tol_peg_3","842","842","0","[[2,0,0],[3,0],[1]]","4","[[1,0,0],[2,3],[0]]","5","0","","","","","","6","",""
"","","","","","single-stim-button","269","490081","0.0-3.0-25.4-0.4","5a92e1eeb5e2110001c670f0","A3","batch1","","2529","","","tol_tohand","","","","","","","","","tol_peg_1","2529","2529","0","[[0,0,0],[3,0],[1]]","5","[[1,0,0],[2,3],[0]]","5","0","","","","","","6","",""
"","","","","","single-stim-button","270","491704","0.0-3.0-25.4-1.4","5a92e1eeb5e2110001c670f0","A3","batch1","","1621","","","tol_toboard","","","","","","","","","tol_peg_2","1621","1621","0","[[0,0,0],[3,2],[1]]","5","[[1,0,0],[2,3],[0]]","5","0","","","","","","6","",""
"","","","","","single-stim-button","271","492777","0.0-3.0-25.5-0.5","5a92e1eeb5e2110001c670f0","A3","batch1","","1071","","","tol_tohand","","","","","","","","","tol_peg_3","1071","1071","0","[[0,0,0],[3,2],[0]]","6","[[1,0,0],[2,3],[0]]","5","0","","","","","","6","",""
"","","","","","single-stim-button","272","493719","0.0-3.0-25.5-1.5","5a92e1eeb5e2110001c670f0","A3","batch1","","940","","","tol_toboard","","","","","","","","","tol_peg_1","940","940","0","[[1,0,0],[3,2],[0]]","6","[[1,0,0],[2,3],[0]]","5","0","","","","","","6","",""
"","","","","","single-stim-button","273","495035","0.0-3.0-25.6-0.6","5a92e1eeb5e2110001c670f0","A3","batch1","","1314","","","tol_tohand","","","","","","","","","tol_peg_2","1314","1314","0","[[1,0,0],[3,0],[0]]","7","[[1,0,0],[2,3],[0]]","5","0","","","","","","6","",""
"","","","","","single-stim-button","274","495967","0.0-3.0-25.6-1.6","5a92e1eeb5e2110001c670f0","A3","batch1","","931","","","tol_toboard","","","","","","","","","tol_peg_3","931","931","0","[[1,0,0],[3,0],[2]]","7","[[1,0,0],[2,3],[0]]","5","0","","","","","","6","",""
"","","","","","single-stim-button","275","496606","0.0-3.0-25.7-0.7","5a92e1eeb5e2110001c670f0","A3","batch1","","637","","","tol_tohand","","","","","","","","","tol_peg_2","637","637","0","[[1,0,0],[0,0],[2]]","8","[[1,0,0],[2,3],[0]]","5","0","","","","","","6","",""
"","","","","","single-stim-button","276","497295","0.0-3.0-25.7-1.7","5a92e1eeb5e2110001c670f0","A3","batch1","","687","","","tol_toboard","","","","","","","","","tol_peg_1","687","687","0","[[1,3,0],[0,0],[2]]","8","[[1,0,0],[2,3],[0]]","5","0","","","","","","6","",""
"","","","","","single-stim-button","277","499867","0.0-3.0-25.8-0.8","5a92e1eeb5e2110001c670f0","A3","batch1","","2571","","","tol_tohand","","","","","","","","","tol_peg_3","2571","2571","0","[[1,3,0],[0,0],[0]]","9","[[1,0,0],[2,3],[0]]","5","0","","","","","","6","",""
"","","","","","single-stim-button","278","500788","0.0-3.0-25.8-1.8","5a92e1eeb5e2110001c670f0","A3","batch1","","920","","","tol_toboard","","","","","","","","","tol_peg_2","920","920","0","[[1,3,0],[2,0],[0]]","9","[[1,0,0],[2,3],[0]]","5","0","","","","","","6","",""
"","","","","","single-stim-button","279","501708","0.0-3.0-25.9-0.9","5a92e1eeb5e2110001c670f0","A3","batch1","","919","","","tol_tohand","","","","","","","","","tol_peg_1","919","919","0","[[1,0,0],[2,0],[0]]","10","[[1,0,0],[2,3],[0]]","5","0","","","","","","6","",""
"","","","","","single-stim-button","280","502492","0.0-3.0-25.9-1.9","5a92e1eeb5e2110001c670f0","A3","batch1","","782","","","tol_toboard","","","","","","","","","tol_peg_2","782","782","0","[[1,0,0],[2,3],[0]]","10","[[1,0,0],[2,3],[0]]","5","0","","","","","","6","",""
"","","","","","poldrack-single-stim","281","503495","0.0-3.0-26.0","5a92e1eeb5e2110001c670f0","A3","batch1","","-1","","","tol_feedback","true","","","","","","","","","1000","1000","500","","","","","","-1","none","true","4932","19679","","",""
"","","","","","html-button-response","282","504398","0.0-3.0-27.0","5a92e1eeb5e2110001c670f0","A3","batch1","","899.9000000953674","<div class = centerbox><p class = center-block-text>problem <strong>7</strong> out of 25 problems</p></div>","0","tol_trial_num","","","","","","","","","","","","","","","","","","","","","","","","",""
"","","","","","single-stim-button","283","510464","0.0-3.0-28.0-0.0","5a92e1eeb5e2110001c670f0","A3","batch1","","6063","","","tol_tohand","","","","","","","","","tol_peg_3","6063","6063","0","[[2,1,0],[0,0],[0]]","1","[[1,2,0],[3,0],[0]]","6","0","","","","","","5","",""
"","","","","","single-stim-button","284","511206","0.0-3.0-28.0-1.0","5a92e1eeb5e2110001c670f0","A3","batch1","","741","","","tol_toboard","","","","","","","","","tol_peg_2","741","741","0","[[2,1,0],[3,0],[0]]","1","[[1,2,0],[3,0],[0]]","6","0","","","","","","5","",""
"","","","","","single-stim-button","285","513833","0.0-3.0-28.1-0.1","5a92e1eeb5e2110001c670f0","A3","batch1","","2625","","","tol_tohand","","","","","","","","","tol_peg_1","2625","2625","0","[[2,0,0],[3,0],[0]]","2","[[1,2,0],[3,0],[0]]","6","0","","","","","","5","",""
"","","","","","single-stim-button","286","515041","0.0-3.0-28.1-1.1","5a92e1eeb5e2110001c670f0","A3","batch1","","1206","","","tol_toboard","","","","","","","","","tol_peg_3","1206","1206","0","[[2,0,0],[3,0],[1]]","2","[[1,2,0],[3,0],[0]]","6","0","","","","","","5","",""
"","","","","","single-stim-button","287","515789","0.0-3.0-28.2-0.2","5a92e1eeb5e2110001c670f0","A3","batch1","","747","","","tol_tohand","","","","","","","","","tol_peg_1","747","747","0","[[0,0,0],[3,0],[1]]","3","[[1,2,0],[3,0],[0]]","6","0","","","","","","5","",""
"","","","","","single-stim-button","288","516582","0.0-3.0-28.2-1.2","5a92e1eeb5e2110001c670f0","A3","batch1","","791","","","tol_toboard","","","","","","","","","tol_peg_2","791","791","0","[[0,0,0],[3,2],[1]]","3","[[1,2,0],[3,0],[0]]","6","0","","","","","","5","",""
"","","","","","single-stim-button","289","518061","0.0-3.0-28.3-0.3","5a92e1eeb5e2110001c670f0","A3","batch1","","1477","","","tol_tohand","","","","","","","","","tol_peg_3","1477","1477","0","[[0,0,0],[3,2],[0]]","4","[[1,2,0],[3,0],[0]]","6","0","","","","","","5","",""
"","","","","","single-stim-button","290","519277","0.0-3.0-28.3-1.3","5a92e1eeb5e2110001c670f0","A3","batch1","","1213","","","tol_toboard","","","","","","","","","tol_peg_1","1213","1213","0","[[1,0,0],[3,2],[0]]","4","[[1,2,0],[3,0],[0]]","6","0","","","","","","5","",""
"","","","","","single-stim-button","291","520001","0.0-3.0-28.4-0.4","5a92e1eeb5e2110001c670f0","A3","batch1","","722","","","tol_tohand","","","","","","","","","tol_peg_2","722","722","0","[[1,0,0],[3,0],[0]]","5","[[1,2,0],[3,0],[0]]","6","0","","","","","","5","",""
"","","","","","single-stim-button","292","520859","0.0-3.0-28.4-1.4","5a92e1eeb5e2110001c670f0","A3","batch1","","856","","","tol_toboard","","","","","","","","","tol_peg_1","856","856","0","[[1,2,0],[3,0],[0]]","5","[[1,2,0],[3,0],[0]]","6","0","","","","","","5","",""
"","","","","","poldrack-single-stim","293","521862","0.0-3.0-29.0","5a92e1eeb5e2110001c670f0","A3","batch1","","-1","","","tol_feedback","true","","","","","","","","","1000","1000","500","","","","","","-1","none","true","6063","11634","","",""
"","","","","","html-button-response","294","522764","0.0-3.0-30.0","5a92e1eeb5e2110001c670f0","A3","batch1","","899.2000000476837","<div class = centerbox><p class = center-block-text>problem <strong>8</strong> out of 25 problems</p></div>","0","tol_trial_num","","","","","","","","","","","","","","","","","","","","","","","","",""
"","","","","","single-stim-button","295","528447","0.0-3.0-31.0-0.0","5a92e1eeb5e2110001c670f0","A3","batch1","","5680","","","tol_tohand","","","","","","","","","tol_peg_2","5680","5680","0","[[0,0,0],[2,0],[1]]","1","[[1,2,0],[3,0],[0]]","7","0","","","","","","4","",""
"","","","","","single-stim-button","296","529236","0.0-3.0-31.0-1.0","5a92e1eeb5e2110001c670f0","A3","batch1","","788","","","tol_toboard","","","","","","","","","tol_peg_1","788","788","0","[[3,0,0],[2,0],[1]]","1","[[1,2,0],[3,0],[0]]","7","0","","","","","","4","",""
"","","","","","single-stim-button","297","530870","0.0-3.0-31.1-0.1","5a92e1eeb5e2110001c670f0","A3","batch1","","1632","","","tol_tohand","","","","","","","","","tol_peg_2","1632","1632","0","[[3,0,0],[0,0],[1]]","2","[[1,2,0],[3,0],[0]]","7","0","","","","","","4","",""
"","","","","","single-stim-button","298","533186","0.0-3.0-31.1-1.1","5a92e1eeb5e2110001c670f0","A3","batch1","","2314","","","tol_toboard","","","","","","","","","tol_peg_1","2314","2314","0","[[3,2,0],[0,0],[1]]","2","[[1,2,0],[3,0],[0]]","7","0","","","","","","4","",""
"","","","","","single-stim-button","299","535247","0.0-3.0-31.2-0.2","5a92e1eeb5e2110001c670f0","A3","batch1","","2060","","","tol_tohand","","","","","","","","","tol_peg_3","2060","2060","0","[[3,2,0],[0,0],[0]]","3","[[1,2,0],[3,0],[0]]","7","0","","","","","","4","",""
"","","","","","single-stim-button","300","536711","0.0-3.0-31.2-1.2","5a92e1eeb5e2110001c670f0","A3","batch1","","1463","","","tol_toboard","","","","","","","","","tol_peg_2","1463","1463","0","[[3,2,0],[1,0],[0]]","3","[[1,2,0],[3,0],[0]]","7","0","","","","","","4","",""
"","","","","","single-stim-button","301","539408","0.0-3.0-31.3-0.3","5a92e1eeb5e2110001c670f0","A3","batch1","","2695","","","tol_tohand","","","","","","","","","tol_peg_1","2695","2695","0","[[3,0,0],[1,0],[0]]","4","[[1,2,0],[3,0],[0]]","7","0","","","","","","4","",""
"","","","","","single-stim-button","302","540403","0.0-3.0-31.3-1.3","5a92e1eeb5e2110001c670f0","A3","batch1","","993","","","tol_toboard","","","","","","","","","tol_peg_3","993","993","0","[[3,0,0],[1,0],[2]]","4","[[1,2,0],[3,0],[0]]","7","0","","","","","","4","",""
"","","","","","single-stim-button","303","543470","0.0-3.0-31.4-0.4","5a92e1eeb5e2110001c670f0","A3","batch1","","3065","","","tol_tohand","","","","","","","","","tol_peg_1","3065","3065","0","[[0,0,0],[1,0],[2]]","5","[[1,2,0],[3,0],[0]]","7","0","","","","","","4","",""
"","","","","","single-stim-button","304","544290","0.0-3.0-31.4-1.4","5a92e1eeb5e2110001c670f0","A3","batch1","","818","","","tol_toboard","","","","","","","","","tol_peg_2","818","818","0","[[0,0,0],[1,3],[2]]","5","[[1,2,0],[3,0],[0]]","7","0","","","","","","4","",""
"","","","","","single-stim-button","305","551188","0.0-3.0-31.5-0.5","5a92e1eeb5e2110001c670f0","A3","batch1","","6896","","","tol_tohand","","","","","","","","","tol_peg_3","6896","6896","0","[[0,0,0],[1,3],[0]]","6","[[1,2,0],[3,0],[0]]","7","0","","","","","","4","",""
"","","","","","single-stim-button","306","552304","0.0-3.0-31.5-1.5","5a92e1eeb5e2110001c670f0","A3","batch1","","1113","","","tol_toboard","","","","","","","","","tol_peg_1","1113","1113","0","[[2,0,0],[1,3],[0]]","6","[[1,2,0],[3,0],[0]]","7","0","","","","","","4","",""
"","","","","","single-stim-button","307","553054","0.0-3.0-31.6-0.6","5a92e1eeb5e2110001c670f0","A3","batch1","","749","","","tol_tohand","","","","","","","","","tol_peg_2","749","749","0","[[2,0,0],[1,0],[0]]","7","[[1,2,0],[3,0],[0]]","7","0","","","","","","4","",""
"","","","","","single-stim-button","308","553979","0.0-3.0-31.6-1.6","5a92e1eeb5e2110001c670f0","A3","batch1","","923","","","tol_toboard","","","","","","","","","tol_peg_3","923","923","0","[[2,0,0],[1,0],[3]]","7","[[1,2,0],[3,0],[0]]","7","0","","","","","","4","",""
"","","","","","single-stim-button","309","555526","0.0-3.0-31.7-0.7","5a92e1eeb5e2110001c670f0","A3","batch1","","1546","","","tol_tohand","","","","","","","","","tol_peg_1","1546","1546","0","[[0,0,0],[1,0],[3]]","8","[[1,2,0],[3,0],[0]]","7","0","","","","","","4","",""
"","","","","","single-stim-button","310","557022","0.0-3.0-31.7-1.7","5a92e1eeb5e2110001c670f0","A3","batch1","","1494","","","tol_toboard","","","","","","","","","tol_peg_2","1494","1494","0","[[0,0,0],[1,2],[3]]","8","[[1,2,0],[3,0],[0]]","7","0","","","","","","4","",""
"","","","","","single-stim-button","311","561124","0.0-3.0-31.8-0.8","5a92e1eeb5e2110001c670f0","A3","batch1","","4100","","","tol_tohand","","","","","","","","","tol_peg_3","4100","4100","0","[[0,0,0],[1,2],[0]]","9","[[1,2,0],[3,0],[0]]","7","0","","","","","","4","",""
"","","","","","single-stim-button","312","563848","0.0-3.0-31.8-1.8","5a92e1eeb5e2110001c670f0","A3","batch1","","2721","","","tol_toboard","","","","","","","","","tol_peg_1","2721","2721","0","[[3,0,0],[1,2],[0]]","9","[[1,2,0],[3,0],[0]]","7","0","","","","","","4","",""
"","","","","","single-stim-button","313","564592","0.0-3.0-31.9-0.9","5a92e1eeb5e2110001c670f0","A3","batch1","","743","","","tol_tohand","","","","","","","","","tol_peg_2","743","743","0","[[3,0,0],[1,0],[0]]","10","[[1,2,0],[3,0],[0]]","7","0","","","","","","4","",""
"","","","","","single-stim-button","314","565558","0.0-3.0-31.9-1.9","5a92e1eeb5e2110001c670f0","A3","batch1","","965","","","tol_toboard","","","","","","","","","tol_peg_3","965","965","0","[[3,0,0],[1,0],[2]]","10","[[1,2,0],[3,0],[0]]","7","0","","","","","","4","",""
"","","","","","single-stim-button","315","566654","0.0-3.0-31.10-0.10","5a92e1eeb5e2110001c670f0","A3","batch1","","1094","","","tol_tohand","","","","","","","","","tol_peg_1","1094","1094","0","[[0,0,0],[1,0],[2]]","11","[[1,2,0],[3,0],[0]]","7","0","","","","","","4","",""
"","","","","","single-stim-button","316","569865","0.0-3.0-31.10-1.10","5a92e1eeb5e2110001c670f0","A3","batch1","","3209","","","tol_toboard","","","","","","","","","tol_peg_2","3209","3209","0","[[0,0,0],[1,3],[2]]","11","[[1,2,0],[3,0],[0]]","7","0","","","","","","4","",""
"","","","","","single-stim-button","317","571537","0.0-3.0-31.11-0.11","5a92e1eeb5e2110001c670f0","A3","batch1","","1671","","","tol_tohand","","","","","","","","","tol_peg_3","1671","1671","0","[[0,0,0],[1,3],[0]]","12","[[1,2,0],[3,0],[0]]","7","0","","","","","","4","",""
"","","","","","single-stim-button","318","572542","0.0-3.0-31.11-1.11","5a92e1eeb5e2110001c670f0","A3","batch1","","1003","","","tol_toboard","","","","","","","","","tol_peg_1","1003","1003","0","[[2,0,0],[1,3],[0]]","12","[[1,2,0],[3,0],[0]]","7","0","","","","","","4","",""
"","","","","","single-stim-button","319","573254","0.0-3.0-31.12-0.12","5a92e1eeb5e2110001c670f0","A3","batch1","","710","","","tol_tohand","","","","","","","","","tol_peg_2","710","710","0","[[2,0,0],[1,0],[0]]","13","[[1,2,0],[3,0],[0]]","7","0","","","","","","4","",""
"","","","","","single-stim-button","320","573948","0.0-3.0-31.12-1.12","5a92e1eeb5e2110001c670f0","A3","batch1","","694","","","tol_toboard","","","","","","","","","tol_peg_3","694","694","0","[[2,0,0],[1,0],[3]]","13","[[1,2,0],[3,0],[0]]","7","0","","","","","","4","",""
"","","","","","single-stim-button","321","578508","0.0-3.0-31.13-0.13","5a92e1eeb5e2110001c670f0","A3","batch1","","4558","","","tol_tohand","","","","","","","","","tol_peg_1","4558","4558","0","[[0,0,0],[1,0],[3]]","14","[[1,2,0],[3,0],[0]]","7","0","","","","","","4","",""
"","","","","","single-stim-button","322","579849","0.0-3.0-31.13-1.13","5a92e1eeb5e2110001c670f0","A3","batch1","","1340","","","tol_toboard","","","","","","","","","tol_peg_2","1340","1340","0","[[0,0,0],[1,2],[3]]","14","[[1,2,0],[3,0],[0]]","7","0","","","","","","4","",""
"","","","","","single-stim-button","323","581130","0.0-3.0-31.14-0.14","5a92e1eeb5e2110001c670f0","A3","batch1","","1279","","","tol_tohand","","","","","","","","","tol_peg_3","1279","1279","0","[[0,0,0],[1,2],[0]]","15","[[1,2,0],[3,0],[0]]","7","0","","","","","","4","",""
"","","","","","single-stim-button","324","582065","0.0-3.0-31.14-1.14","5a92e1eeb5e2110001c670f0","A3","batch1","","933","","","tol_toboard","","","","","","","","","tol_peg_1","933","933","0","[[3,0,0],[1,2],[0]]","15","[[1,2,0],[3,0],[0]]","7","0","","","","","","4","",""
"","","","","","single-stim-button","325","582991","0.0-3.0-31.15-0.15","5a92e1eeb5e2110001c670f0","A3","batch1","","925","","","tol_tohand","","","","","","","","","tol_peg_2","925","925","0","[[3,0,0],[1,0],[0]]","16","[[1,2,0],[3,0],[0]]","7","0","","","","","","4","",""
"","","","","","single-stim-button","326","583846","0.0-3.0-31.15-1.15","5a92e1eeb5e2110001c670f0","A3","batch1","","854","","","tol_toboard","","","","","","","","","tol_peg_3","854","854","0","[[3,0,0],[1,0],[2]]","16","[[1,2,0],[3,0],[0]]","7","0","","","","","","4","",""
"","","","","","single-stim-button","327","584907","0.0-3.0-31.16-0.16","5a92e1eeb5e2110001c670f0","A3","batch1","","1059","","","tol_tohand","","","","","","","","","tol_peg_1","1059","1059","0","[[0,0,0],[1,0],[2]]","17","[[1,2,0],[3,0],[0]]","7","0","","","","","","4","",""
"","","","","","single-stim-button","328","586455","0.0-3.0-31.16-1.16","5a92e1eeb5e2110001c670f0","A3","batch1","","1545","","","tol_toboard","","","","","","","","","tol_peg_2","1545","1545","0","[[0,0,0],[1,3],[2]]","17","[[1,2,0],[3,0],[0]]","7","0","","","","","","4","",""
"","","","","","single-stim-button","329","591450","0.0-3.0-31.17-0.17","5a92e1eeb5e2110001c670f0","A3","batch1","","4993","","","tol_tohand","","","","","","","","","tol_peg_3","4993","4993","0","[[0,0,0],[1,3],[0]]","18","[[1,2,0],[3,0],[0]]","7","0","","","","","","4","",""
"","","","","","single-stim-button","330","592368","0.0-3.0-31.17-1.17","5a92e1eeb5e2110001c670f0","A3","batch1","","916","","","tol_toboard","","","","","","","","","tol_peg_1","916","916","0","[[2,0,0],[1,3],[0]]","18","[[1,2,0],[3,0],[0]]","7","0","","","","","","4","",""
"","","","","","single-stim-button","331","593836","0.0-3.0-31.18-0.18","5a92e1eeb5e2110001c670f0","A3","batch1","","1466","","","tol_tohand","","","","","","","","","tol_peg_2","1466","1466","0","[[2,0,0],[1,0],[0]]","19","[[1,2,0],[3,0],[0]]","7","0","","","","","","4","",""
"","","","","","single-stim-button","332","595267","0.0-3.0-31.18-1.18","5a92e1eeb5e2110001c670f0","A3","batch1","","1429","","","tol_toboard","","","","","","","","","tol_peg_3","1429","1429","0","[[2,0,0],[1,0],[3]]","19","[[1,2,0],[3,0],[0]]","7","0","","","","","","4","",""
"","","","","","single-stim-button","333","597702","0.0-3.0-31.19-0.19","5a92e1eeb5e2110001c670f0","A3","batch1","","2433","","","tol_tohand","","","","","","","","","tol_peg_3","2433","2433","0","[[2,0,0],[1,0],[0]]","20","[[1,2,0],[3,0],[0]]","7","0","","","","","","4","",""
"","","","","","single-stim-button","334","599106","0.0-3.0-31.19-1.19","5a92e1eeb5e2110001c670f0","A3","batch1","","1404","","","tol_toboard","","","","","","","","","tol_peg_1","1404","1404","0","[[2,3,0],[1,0],[0]]","20","[[1,2,0],[3,0],[0]]","7","0","","","","","","4","",""
"","","","","","single-stim-button","335","600090","0.0-3.0-31.20-0.20","5a92e1eeb5e2110001c670f0","A3","batch1","","982","","","tol_tohand","","","","","","","","","tol_peg_1","982","982","0","[[2,0,0],[1,0],[0]]","21","[[1,2,0],[3,0],[0]]","7","0","","","","","","4","",""
"","","","","","single-stim-button","336","601156","0.0-3.0-31.20-1.20","5a92e1eeb5e2110001c670f0","A3","batch1","","1064","","","tol_toboard","","","","","","","","","tol_peg_3","1064","1064","0","[[2,0,0],[1,0],[3]]","21","[[1,2,0],[3,0],[0]]","7","0","","","","","","4","",""
"","","","","","single-stim-button","337","603067","0.0-3.0-31.21-0.21","5a92e1eeb5e2110001c670f0","A3","batch1","","1910","","","tol_tohand","","","","","","","","","tol_peg_1","1910","1910","0","[[0,0,0],[1,0],[3]]","22","[[1,2,0],[3,0],[0]]","7","0","","","","","","4","",""
"","","","","","single-stim-button","338","607165","0.0-3.0-31.21-1.21","5a92e1eeb5e2110001c670f0","A3","batch1","","4096","","","tol_toboard","","","","","","","","","tol_peg_2","4096","4096","0","[[0,0,0],[1,2],[3]]","22","[[1,2,0],[3,0],[0]]","7","0","","","","","","4","",""
"","","","","","single-stim-button","339","609163","0.0-3.0-31.22-0.22","5a92e1eeb5e2110001c670f0","A3","batch1","","1995","","","tol_tohand","","","","","","","","","tol_peg_3","1995","1995","0","[[0,0,0],[1,2],[0]]","23","[[1,2,0],[3,0],[0]]","7","0","","","","","","4","",""
"","","","","","single-stim-button","340","609843","0.0-3.0-31.22-1.22","5a92e1eeb5e2110001c670f0","A3","batch1","","678","","","tol_toboard","","","","","","","","","tol_peg_1","678","678","0","[[3,0,0],[1,2],[0]]","23","[[1,2,0],[3,0],[0]]","7","0","","","","","","4","",""
"","","","","","single-stim-button","341","610469","0.0-3.0-31.23-0.23","5a92e1eeb5e2110001c670f0","A3","batch1","","624","","","tol_tohand","","","","","","","","","tol_peg_2","624","624","0","[[3,0,0],[1,0],[0]]","24","[[1,2,0],[3,0],[0]]","7","0","","","","","","4","",""
"","","","","","single-stim-button","342","611724","0.0-3.0-31.23-1.23","5a92e1eeb5e2110001c670f0","A3","batch1","","1253","","","tol_toboard","","","","","","","","","tol_peg_1","1253","1253","0","[[3,2,0],[1,0],[0]]","24","[[1,2,0],[3,0],[0]]","7","0","","","","","","4","",""
"","","","","","single-stim-button","343","612470","0.0-3.0-31.24-0.24","5a92e1eeb5e2110001c670f0","A3","batch1","","744","","","tol_tohand","","","","","","","","","tol_peg_2","744","744","0","[[3,2,0],[0,0],[0]]","25","[[1,2,0],[3,0],[0]]","7","0","","","","","","4","",""
"","","","","","single-stim-button","344","613419","0.0-3.0-31.24-1.24","5a92e1eeb5e2110001c670f0","A3","batch1","","947","","","tol_toboard","","","","","","","","","tol_peg_3","947","947","0","[[3,2,0],[0,0],[1]]","25","[[1,2,0],[3,0],[0]]","7","0","","","","","","4","",""
"","","","","","single-stim-button","345","614115","0.0-3.0-31.25-0.25","5a92e1eeb5e2110001c670f0","A3","batch1","","693","","","tol_tohand","","","","","","","","","tol_peg_1","693","693","0","[[3,0,0],[0,0],[1]]","26","[[1,2,0],[3,0],[0]]","7","0","","","","","","4","",""
"","","","","","single-stim-button","346","614979","0.0-3.0-31.25-1.25","5a92e1eeb5e2110001c670f0","A3","batch1","","862","","","tol_toboard","","","","","","","","","tol_peg_2","862","862","0","[[3,0,0],[2,0],[1]]","26","[[1,2,0],[3,0],[0]]","7","0","","","","","","4","",""
"","","","","","single-stim-button","347","616633","0.0-3.0-31.26-0.26","5a92e1eeb5e2110001c670f0","A3","batch1","","1652","","","tol_tohand","","","","","","","","","tol_peg_1","1652","1652","0","[[0,0,0],[2,0],[1]]","27","[[1,2,0],[3,0],[0]]","7","0","","","","","","4","",""
"","","","","","single-stim-button","348","617128","0.0-3.0-31.26-1.26","5a92e1eeb5e2110001c670f0","A3","batch1","","492","","","tol_toboard","","","","","","","","","tol_peg_2","492","492","0","[[0,0,0],[2,3],[1]]","27","[[1,2,0],[3,0],[0]]","7","0","","","","","","4","",""
