"success","timeout","failed_images","failed_audio","failed_video","trial_type","trial_index","time_elapsed","internal_node_id","subject_id","study_id","session_id","task","rt","stimulus","response","item","answer","correct","spm_correct","spm_rt","view_history","fiar_detect_rt","fiar_detect_correct","total_correct_fiar_detect","post_trial_gap","choices","mouse_click","stim_duration","block_duration","timing_post_trial","current_position","tol_num_moves_made","tol_target","tol_problem_id","tol_rt","key_press","possible_responses","tol_correct","preplanning","tol_rt_per_trial","tol_min_moves"
"true","false","[]","[]","[]","preload","0","1381","0.0-0.0","5a98b39b89de8200013ef94f","C3","batch3","","","","","","","","","","","","","","","","","","","","","","","","","","","","","",""
"true","","","","","fullscreen","1","9372","0.0-1.0-0.0","5a98b39b89de8200013ef94f","C3","batch3","","","","","","","","","","","","","","","","","","","","","","","","","","","","","",""
"true","","","","","fullscreen","2","13970","0.0-2.0-0.0","5a98b39b89de8200013ef94f","C3","batch3","spm_fullscreen","","","","","","","","","","","","","","","","","","","","","","","","","","","","",""
"","","","","","html-button-response","3","24151","0.0-2.0-1.0","5a98b39b89de8200013ef94f","C3","batch3","","10179.600000023842","<p class = block-text><b>Instructions</b> <br>This is a widely used intelligence test in research. <br>In this test, a figure with a missing piece will be presented.<br>Below the figure are alternative pieces to complete the figure, only one of which is correct.<br> Different figures might involve different principles for obtaining the missing piece<br>Your job is to select the most logical piece to complete the figure.</p>","0","","","","","","","","","","","","","","","","","","","","","","","","","",""
"","","","","","html-keyboard-response","4","24955","0.0-2.0-2.0-0.0","5a98b39b89de8200013ef94f","C3","batch3","spm_show_trial_num","null","<p class=block-text>Trial 1 out of 60</p>","null","","","","","","","","","","","","","","","","","","","","","","","","","",""
"","","","","","image-button-response","5","30247","0.0-2.0-2.0-1.0","5a98b39b89de8200013ef94f","C3","batch3","spm_respsonse","5287.100000023842","img/question_1_1.jpeg","3","mat_01","4","1","1","5287.100000023842","","","","","","","","","","","","","","","","","","","","",""
"","","","","","html-keyboard-response","6","31306","0.0-2.0-2.0-0.1","5a98b39b89de8200013ef94f","C3","batch3","spm_show_trial_num","null","<p class=block-text>Trial 2 out of 60</p>","null","","","","","","","","","","","","","","","","","","","","","","","","","",""
"","","","","","image-button-response","7","35095","0.0-2.0-2.0-1.1","5a98b39b89de8200013ef94f","C3","batch3","spm_respsonse","3788.399999976158","img/question_1_2.jpeg","4","mat_02","5","1","1","3788.399999976158","","","","","","","","","","","","","","","","","","","","",""
"","","","","","html-keyboard-response","8","36154","0.0-2.0-2.0-0.2","5a98b39b89de8200013ef94f","C3","batch3","spm_show_trial_num","null","<p class=block-text>Trial 3 out of 60</p>","null","","","","","","","","","","","","","","","","","","","","","","","","","",""
"","","","","","image-button-response","9","38559","0.0-2.0-2.0-1.2","5a98b39b89de8200013ef94f","C3","batch3","spm_respsonse","2403.800000011921","img/question_1_3.jpeg","0","mat_03","1","1","1","2403.800000011921","","","","","","","","","","","","","","","","","","","","",""
"","","","","","html-keyboard-response","10","39612","0.0-2.0-2.0-0.3","5a98b39b89de8200013ef94f","C3","batch3","spm_show_trial_num","null","<p class=block-text>Trial 4 out of 60</p>","null","","","","","","","","","","","","","","","","","","","","","","","","","",""
"","","","","","image-button-response","11","44415","0.0-2.0-2.0-1.3","5a98b39b89de8200013ef94f","C3","batch3","spm_respsonse","4802.4000000059605","img/question_1_4.jpeg","1","mat_04","2","1","1","4802.4000000059605","","","","","","","","","","","","","","","","","","","","",""
"","","","","","html-keyboard-response","12","45479","0.0-2.0-2.0-0.4","5a98b39b89de8200013ef94f","C3","batch3","spm_show_trial_num","null","<p class=block-text>Trial 5 out of 60</p>","null","","","","","","","","","","","","","","","","","","","","","","","","","",""
"","","","","","image-button-response","13","50607","0.0-2.0-2.0-1.4","5a98b39b89de8200013ef94f","C3","batch3","spm_respsonse","5127.5","img/question_1_5.jpeg","5","mat_05","6","1","1","5127.5","","","","","","","","","","","","","","","","","","","","",""
"","","","","","html-keyboard-response","14","51669","0.0-2.0-2.0-0.5","5a98b39b89de8200013ef94f","C3","batch3","spm_show_trial_num","null","<p class=block-text>Trial 6 out of 60</p>","null","","","","","","","","","","","","","","","","","","","","","","","","","",""
"","","","","","image-button-response","15","57184","0.0-2.0-2.0-1.5","5a98b39b89de8200013ef94f","C3","batch3","spm_respsonse","5513.700000017881","img/question_1_6.jpeg","2","mat_06","3","1","1","5513.700000017881","","","","","","","","","","","","","","","","","","","","",""
"","","","","","html-keyboard-response","16","58244","0.0-2.0-2.0-0.6","5a98b39b89de8200013ef94f","C3","batch3","spm_show_trial_num","null","<p class=block-text>Trial 7 out of 60</p>","null","","","","","","","","","","","","","","","","","","","","","","","","","",""
"","","","","","image-button-response","17","62192","0.0-2.0-2.0-1.6","5a98b39b89de8200013ef94f","C3","batch3","spm_respsonse","3947","img/question_1_7.jpeg","5","mat_07","6","1","1","3947","","","","","","","","","","","","","","","","","","","","",""
"","","","","","html-keyboard-response","18","63252","0.0-2.0-2.0-0.7","5a98b39b89de8200013ef94f","C3","batch3","spm_show_trial_num","null","<p class=block-text>Trial 8 out of 60</p>","null","","","","","","","","","","","","","","","","","","","","","","","","","",""
"","","","","","image-button-response","19","68816","0.0-2.0-2.0-1.7","5a98b39b89de8200013ef94f","C3","batch3","spm_respsonse","5563.300000011921","img/question_1_8.jpeg","1","mat_08","2","1","1","5563.300000011921","","","","","","","","","","","","","","","","","","","","",""
"","","","","","html-keyboard-response","20","69872","0.0-2.0-2.0-0.8","5a98b39b89de8200013ef94f","C3","batch3","spm_show_trial_num","null","<p class=block-text>Trial 9 out of 60</p>","null","","","","","","","","","","","","","","","","","","","","","","","","","",""
"","","","","","image-button-response","21","74008","0.0-2.0-2.0-1.8","5a98b39b89de8200013ef94f","C3","batch3","spm_respsonse","4135.4000000059605","img/question_1_9.jpeg","0","mat_09","1","1","1","4135.4000000059605","","","","","","","","","","","","","","","","","","","","",""
"","","","","","html-keyboard-response","22","75069","0.0-2.0-2.0-0.9","5a98b39b89de8200013ef94f","C3","batch3","spm_show_trial_num","null","<p class=block-text>Trial 10 out of 60</p>","null","","","","","","","","","","","","","","","","","","","","","","","","","",""
"","","","","","image-button-response","23","82632","0.0-2.0-2.0-1.9","5a98b39b89de8200013ef94f","C3","batch3","spm_respsonse","7561.9000000059605","img/question_1_10.jpeg","2","mat_10","3","1","1","7561.9000000059605","","","","","","","","","","","","","","","","","","","","",""
"","","","","","html-keyboard-response","24","83693","0.0-2.0-2.0-0.10","5a98b39b89de8200013ef94f","C3","batch3","spm_show_trial_num","null","<p class=block-text>Trial 11 out of 60</p>","null","","","","","","","","","","","","","","","","","","","","","","","","","",""
"","","","","","image-button-response","25","94081","0.0-2.0-2.0-1.10","5a98b39b89de8200013ef94f","C3","batch3","spm_respsonse","10386.700000017881","img/question_1_11.jpeg","3","mat_11","4","1","1","10386.700000017881","","","","","","","","","","","","","","","","","","","","",""
"","","","","","html-keyboard-response","26","95142","0.0-2.0-2.0-0.11","5a98b39b89de8200013ef94f","C3","batch3","spm_show_trial_num","null","<p class=block-text>Trial 12 out of 60</p>","null","","","","","","","","","","","","","","","","","","","","","","","","","",""
"","","","","","image-button-response","27","103449","0.0-2.0-2.0-1.11","5a98b39b89de8200013ef94f","C3","batch3","spm_respsonse","8306","img/question_1_12.jpeg","4","mat_12","5","1","1","8306","","","","","","","","","","","","","","","","","","","","",""
"","","","","","html-keyboard-response","28","104513","0.0-2.0-2.0-0.12","5a98b39b89de8200013ef94f","C3","batch3","spm_show_trial_num","null","<p class=block-text>Trial 13 out of 60</p>","null","","","","","","","","","","","","","","","","","","","","","","","","","",""
"","","","","","image-button-response","29","106649","0.0-2.0-2.0-1.12","5a98b39b89de8200013ef94f","C3","batch3","spm_respsonse","2135.4000000059605","img/question_2_1.jpeg","1","mat_13","2","1","1","2135.4000000059605","","","","","","","","","","","","","","","","","","","","",""
"","","","","","html-keyboard-response","30","107711","0.0-2.0-2.0-0.13","5a98b39b89de8200013ef94f","C3","batch3","spm_show_trial_num","null","<p class=block-text>Trial 14 out of 60</p>","null","","","","","","","","","","","","","","","","","","","","","","","","","",""
"","","","","","image-button-response","31","112657","0.0-2.0-2.0-1.13","5a98b39b89de8200013ef94f","C3","batch3","spm_respsonse","4945.100000023842","img/question_2_2.jpeg","5","mat_14","6","1","1","4945.100000023842","","","","","","","","","","","","","","","","","","","","",""
"","","","","","html-keyboard-response","32","113721","0.0-2.0-2.0-0.14","5a98b39b89de8200013ef94f","C3","batch3","spm_show_trial_num","null","<p class=block-text>Trial 15 out of 60</p>","null","","","","","","","","","","","","","","","","","","","","","","","","","",""
"","","","","","image-button-response","33","118098","0.0-2.0-2.0-1.14","5a98b39b89de8200013ef94f","C3","batch3","spm_respsonse","4375.299999982119","img/question_2_3.jpeg","0","mat_15","1","1","1","4375.299999982119","","","","","","","","","","","","","","","","","","","","",""
"","","","","","html-keyboard-response","34","119158","0.0-2.0-2.0-0.15","5a98b39b89de8200013ef94f","C3","batch3","spm_show_trial_num","null","<p class=block-text>Trial 16 out of 60</p>","null","","","","","","","","","","","","","","","","","","","","","","","","","",""
"","","","","","image-button-response","35","124882","0.0-2.0-2.0-1.15","5a98b39b89de8200013ef94f","C3","batch3","spm_respsonse","5722.9000000059605","img/question_2_4.jpeg","1","mat_16","2","1","1","5722.9000000059605","","","","","","","","","","","","","","","","","","","","",""
"","","","","","html-keyboard-response","36","125942","0.0-2.0-2.0-0.16","5a98b39b89de8200013ef94f","C3","batch3","spm_show_trial_num","null","<p class=block-text>Trial 17 out of 60</p>","null","","","","","","","","","","","","","","","","","","","","","","","","","",""
"","","","","","image-button-response","37","131410","0.0-2.0-2.0-1.16","5a98b39b89de8200013ef94f","C3","batch3","spm_respsonse","5466.699999988079","img/question_2_5.jpeg","0","mat_17","1","1","1","5466.699999988079","","","","","","","","","","","","","","","","","","","","",""
"","","","","","html-keyboard-response","38","132471","0.0-2.0-2.0-0.17","5a98b39b89de8200013ef94f","C3","batch3","spm_show_trial_num","null","<p class=block-text>Trial 18 out of 60</p>","null","","","","","","","","","","","","","","","","","","","","","","","","","",""
"","","","","","image-button-response","39","138282","0.0-2.0-2.0-1.17","5a98b39b89de8200013ef94f","C3","batch3","spm_respsonse","5809.700000017881","img/question_2_6.jpeg","2","mat_18","3","1","1","5809.700000017881","","","","","","","","","","","","","","","","","","","","",""
"","","","","","html-keyboard-response","40","139341","0.0-2.0-2.0-0.18","5a98b39b89de8200013ef94f","C3","batch3","spm_show_trial_num","null","<p class=block-text>Trial 19 out of 60</p>","null","","","","","","","","","","","","","","","","","","","","","","","","","",""
"","","","","","image-button-response","41","144170","0.0-2.0-2.0-1.18","5a98b39b89de8200013ef94f","C3","batch3","spm_respsonse","4828","img/question_2_7.jpeg","4","mat_19","5","1","1","4828","","","","","","","","","","","","","","","","","","","","",""
"","","","","","html-keyboard-response","42","145233","0.0-2.0-2.0-0.19","5a98b39b89de8200013ef94f","C3","batch3","spm_show_trial_num","null","<p class=block-text>Trial 20 out of 60</p>","null","","","","","","","","","","","","","","","","","","","","","","","","","",""
"","","","","","image-button-response","43","154682","0.0-2.0-2.0-1.19","5a98b39b89de8200013ef94f","C3","batch3","spm_respsonse","9448.200000017881","img/question_2_8.jpeg","5","mat_20","6","1","1","9448.200000017881","","","","","","","","","","","","","","","","","","","","",""
"","","","","","html-keyboard-response","44","155746","0.0-2.0-2.0-0.20","5a98b39b89de8200013ef94f","C3","batch3","spm_show_trial_num","null","<p class=block-text>Trial 21 out of 60</p>","null","","","","","","","","","","","","","","","","","","","","","","","","","",""
"","","","","","image-button-response","45","162211","0.0-2.0-2.0-1.20","5a98b39b89de8200013ef94f","C3","batch3","spm_respsonse","6463.899999976158","img/question_2_9.jpeg","3","mat_21","4","1","1","6463.899999976158","","","","","","","","","","","","","","","","","","","","",""
"","","","","","html-keyboard-response","46","163273","0.0-2.0-2.0-0.21","5a98b39b89de8200013ef94f","C3","batch3","spm_show_trial_num","null","<p class=block-text>Trial 22 out of 60</p>","null","","","","","","","","","","","","","","","","","","","","","","","","","",""
"","","","","","image-button-response","47","170763","0.0-2.0-2.0-1.21","5a98b39b89de8200013ef94f","C3","batch3","spm_respsonse","7488.5","img/question_2_10.jpeg","2","mat_22","3","1","1","7488.5","","","","","","","","","","","","","","","","","","","","",""
"","","","","","html-keyboard-response","48","171823","0.0-2.0-2.0-0.22","5a98b39b89de8200013ef94f","C3","batch3","spm_show_trial_num","null","<p class=block-text>Trial 23 out of 60</p>","null","","","","","","","","","","","","","","","","","","","","","","","","","",""
"","","","","","image-button-response","49","181091","0.0-2.0-2.0-1.22","5a98b39b89de8200013ef94f","C3","batch3","spm_respsonse","9267.40000000596","img/question_2_11.jpeg","3","mat_23","4","1","1","9267.40000000596","","","","","","","","","","","","","","","","","","","","",""
"","","","","","html-keyboard-response","50","182153","0.0-2.0-2.0-0.23","5a98b39b89de8200013ef94f","C3","batch3","spm_show_trial_num","null","<p class=block-text>Trial 24 out of 60</p>","null","","","","","","","","","","","","","","","","","","","","","","","","","",""
"","","","","","image-button-response","51","202052","0.0-2.0-2.0-1.23","5a98b39b89de8200013ef94f","C3","batch3","spm_respsonse","19897.80000001192","img/question_2_12.jpeg","4","mat_24","5","1","1","19897.80000001192","","","","","","","","","","","","","","","","","","","","",""
"","","","","","html-button-response","52","204068","0.0-2.0-3.0","5a98b39b89de8200013ef94f","C3","batch3","attention_check","1763.800000011921","<p class = block-text>Attention check: Please choose 1<br></p>","0","","","true","","","","","","","","","","","","","","","","","","","","","","",""
"","","","","","html-keyboard-response","53","204872","0.0-2.0-4.0-0.0","5a98b39b89de8200013ef94f","C3","batch3","spm_show_trial_num","null","<p class=block-text>Trial 25 out of 60</p>","null","","","","","","","","","","","","","","","","","","","","","","","","","",""
"","","","","","image-button-response","54","211604","0.0-2.0-4.0-1.0","5a98b39b89de8200013ef94f","C3","batch3","spm_respsonse","6730.5999999940395","img/question_3_1.jpeg","7","mat_25","8","1","1","6730.5999999940395","","","","","","","","","","","","","","","","","","","","",""
"","","","","","html-keyboard-response","55","212665","0.0-2.0-4.0-0.1","5a98b39b89de8200013ef94f","C3","batch3","spm_show_trial_num","null","<p class=block-text>Trial 26 out of 60</p>","null","","","","","","","","","","","","","","","","","","","","","","","","","",""
"","","","","","image-button-response","56","227157","0.0-2.0-4.0-1.1","5a98b39b89de8200013ef94f","C3","batch3","spm_respsonse","14490.40000000596","img/question_3_2.jpeg","1","mat_26","2","1","1","14490.40000000596","","","","","","","","","","","","","","","","","","","","",""
"","","","","","html-keyboard-response","57","228216","0.0-2.0-4.0-0.2","5a98b39b89de8200013ef94f","C3","batch3","spm_show_trial_num","null","<p class=block-text>Trial 27 out of 60</p>","null","","","","","","","","","","","","","","","","","","","","","","","","","",""
"","","","","","image-button-response","58","232933","0.0-2.0-4.0-1.2","5a98b39b89de8200013ef94f","C3","batch3","spm_respsonse","4715.899999976158","img/question_3_3.jpeg","2","mat_27","3","1","1","4715.899999976158","","","","","","","","","","","","","","","","","","","","",""
"","","","","","html-keyboard-response","59","233995","0.0-2.0-4.0-0.3","5a98b39b89de8200013ef94f","C3","batch3","spm_show_trial_num","null","<p class=block-text>Trial 28 out of 60</p>","null","","","","","","","","","","","","","","","","","","","","","","","","","",""
"","","","","","image-button-response","60","243997","0.0-2.0-4.0-1.3","5a98b39b89de8200013ef94f","C3","batch3","spm_respsonse","10001.09999999404","img/question_3_4.jpeg","7","mat_28","8","1","1","10001.09999999404","","","","","","","","","","","","","","","","","","","","",""
"","","","","","html-keyboard-response","61","245061","0.0-2.0-4.0-0.4","5a98b39b89de8200013ef94f","C3","batch3","spm_show_trial_num","null","<p class=block-text>Trial 29 out of 60</p>","null","","","","","","","","","","","","","","","","","","","","","","","","","",""
"","","","","","image-button-response","62","259014","0.0-2.0-4.0-1.4","5a98b39b89de8200013ef94f","C3","batch3","spm_respsonse","13951.299999982119","img/question_3_5.jpeg","6","mat_29","7","1","1","13951.299999982119","","","","","","","","","","","","","","","","","","","","",""
"","","","","","html-keyboard-response","63","260075","0.0-2.0-4.0-0.5","5a98b39b89de8200013ef94f","C3","batch3","spm_show_trial_num","null","<p class=block-text>Trial 30 out of 60</p>","null","","","","","","","","","","","","","","","","","","","","","","","","","",""
"","","","","","image-button-response","64","266534","0.0-2.0-4.0-1.5","5a98b39b89de8200013ef94f","C3","batch3","spm_respsonse","6457.9000000059605","img/question_3_6.jpeg","3","mat_30","4","1","1","6457.9000000059605","","","","","","","","","","","","","","","","","","","","",""
"","","","","","html-keyboard-response","65","267594","0.0-2.0-4.0-0.6","5a98b39b89de8200013ef94f","C3","batch3","spm_show_trial_num","null","<p class=block-text>Trial 31 out of 60</p>","null","","","","","","","","","","","","","","","","","","","","","","","","","",""
"","","","","","image-button-response","66","273430","0.0-2.0-4.0-1.6","5a98b39b89de8200013ef94f","C3","batch3","spm_respsonse","5835.299999982119","img/question_3_7.jpeg","4","mat_31","5","1","1","5835.299999982119","","","","","","","","","","","","","","","","","","","","",""
"","","","","","html-keyboard-response","67","274490","0.0-2.0-4.0-0.7","5a98b39b89de8200013ef94f","C3","batch3","spm_show_trial_num","null","<p class=block-text>Trial 32 out of 60</p>","null","","","","","","","","","","","","","","","","","","","","","","","","","",""
"","","","","","image-button-response","68","285702","0.0-2.0-4.0-1.7","5a98b39b89de8200013ef94f","C3","batch3","spm_respsonse","11210.90000000596","img/question_3_8.jpeg","0","mat_32","1","1","1","11210.90000000596","","","","","","","","","","","","","","","","","","","","",""
"","","","","","html-keyboard-response","69","286761","0.0-2.0-4.0-0.8","5a98b39b89de8200013ef94f","C3","batch3","spm_show_trial_num","null","<p class=block-text>Trial 33 out of 60</p>","null","","","","","","","","","","","","","","","","","","","","","","","","","",""
"","","","","","image-button-response","70","298095","0.0-2.0-4.0-1.8","5a98b39b89de8200013ef94f","C3","batch3","spm_respsonse","11332.299999982119","img/question_3_9.jpeg","6","mat_33","7","1","1","11332.299999982119","","","","","","","","","","","","","","","","","","","","",""
"","","","","","html-keyboard-response","71","299156","0.0-2.0-4.0-0.9","5a98b39b89de8200013ef94f","C3","batch3","spm_show_trial_num","null","<p class=block-text>Trial 34 out of 60</p>","null","","","","","","","","","","","","","","","","","","","","","","","","","",""
"","","","","","image-button-response","72","308975","0.0-2.0-4.0-1.9","5a98b39b89de8200013ef94f","C3","batch3","spm_respsonse","9817.59999999404","img/question_3_10.jpeg","5","mat_34","6","1","1","9817.59999999404","","","","","","","","","","","","","","","","","","","","",""
"","","","","","html-keyboard-response","73","310035","0.0-2.0-4.0-0.10","5a98b39b89de8200013ef94f","C3","batch3","spm_show_trial_num","null","<p class=block-text>Trial 35 out of 60</p>","null","","","","","","","","","","","","","","","","","","","","","","","","","",""
"","","","","","image-button-response","74","341760","0.0-2.0-4.0-1.10","5a98b39b89de8200013ef94f","C3","batch3","spm_respsonse","31723","img/question_3_11.jpeg","0","mat_35","1","1","1","31723","","","","","","","","","","","","","","","","","","","","",""
"","","","","","html-keyboard-response","75","342820","0.0-2.0-4.0-0.11","5a98b39b89de8200013ef94f","C3","batch3","spm_show_trial_num","null","<p class=block-text>Trial 36 out of 60</p>","null","","","","","","","","","","","","","","","","","","","","","","","","","",""
"","","","","","image-button-response","76","366017","0.0-2.0-4.0-1.11","5a98b39b89de8200013ef94f","C3","batch3","spm_respsonse","23194.59999999404","img/question_3_12.jpeg","1","mat_36","2","1","1","23194.59999999404","","","","","","","","","","","","","","","","","","","","",""
"","","","","","html-keyboard-response","77","367078","0.0-2.0-4.0-0.12","5a98b39b89de8200013ef94f","C3","batch3","spm_show_trial_num","null","<p class=block-text>Trial 37 out of 60</p>","null","","","","","","","","","","","","","","","","","","","","","","","","","",""
"","","","","","image-button-response","78","371337","0.0-2.0-4.0-1.12","5a98b39b89de8200013ef94f","C3","batch3","spm_respsonse","4258","img/question_4_1.jpeg","2","mat_37","3","1","1","4258","","","","","","","","","","","","","","","","","","","","",""
"","","","","","html-keyboard-response","79","372397","0.0-2.0-4.0-0.13","5a98b39b89de8200013ef94f","C3","batch3","spm_show_trial_num","null","<p class=block-text>Trial 38 out of 60</p>","null","","","","","","","","","","","","","","","","","","","","","","","","","",""
"","","","","","image-button-response","80","380161","0.0-2.0-4.0-1.13","5a98b39b89de8200013ef94f","C3","batch3","spm_respsonse","7763.299999982119","img/question_4_2.jpeg","3","mat_38","4","1","1","7763.299999982119","","","","","","","","","","","","","","","","","","","","",""
"","","","","","html-keyboard-response","81","381221","0.0-2.0-4.0-0.14","5a98b39b89de8200013ef94f","C3","batch3","spm_show_trial_num","null","<p class=block-text>Trial 39 out of 60</p>","null","","","","","","","","","","","","","","","","","","","","","","","","","",""
"","","","","","image-button-response","82","391154","0.0-2.0-4.0-1.14","5a98b39b89de8200013ef94f","C3","batch3","spm_respsonse","9931.199999988079","img/question_4_3.jpeg","2","mat_39","3","1","1","9931.199999988079","","","","","","","","","","","","","","","","","","","","",""
"","","","","","html-keyboard-response","83","392213","0.0-2.0-4.0-0.15","5a98b39b89de8200013ef94f","C3","batch3","spm_show_trial_num","null","<p class=block-text>Trial 40 out of 60</p>","null","","","","","","","","","","","","","","","","","","","","","","","","","",""
"","","","","","image-button-response","84","399970","0.0-2.0-4.0-1.15","5a98b39b89de8200013ef94f","C3","batch3","spm_respsonse","7756","img/question_4_4.jpeg","6","mat_40","7","1","1","7756","","","","","","","","","","","","","","","","","","","","",""
"","","","","","html-keyboard-response","85","401032","0.0-2.0-4.0-0.16","5a98b39b89de8200013ef94f","C3","batch3","spm_show_trial_num","null","<p class=block-text>Trial 41 out of 60</p>","null","","","","","","","","","","","","","","","","","","","","","","","","","",""
"","","","","","image-button-response","86","409474","0.0-2.0-4.0-1.16","5a98b39b89de8200013ef94f","C3","batch3","spm_respsonse","8441","img/question_4_5.jpeg","7","mat_41","8","1","1","8441","","","","","","","","","","","","","","","","","","","","",""
"","","","","","html-keyboard-response","87","410534","0.0-2.0-4.0-0.17","5a98b39b89de8200013ef94f","C3","batch3","spm_show_trial_num","null","<p class=block-text>Trial 42 out of 60</p>","null","","","","","","","","","","","","","","","","","","","","","","","","","",""
"","","","","","image-button-response","88","425107","0.0-2.0-4.0-1.17","5a98b39b89de8200013ef94f","C3","batch3","spm_respsonse","14571","img/question_4_6.jpeg","5","mat_42","6","1","1","14571","","","","","","","","","","","","","","","","","","","","",""
"","","","","","html-keyboard-response","89","426167","0.0-2.0-4.0-0.18","5a98b39b89de8200013ef94f","C3","batch3","spm_show_trial_num","null","<p class=block-text>Trial 43 out of 60</p>","null","","","","","","","","","","","","","","","","","","","","","","","","","",""
"","","","","","image-button-response","90","435683","0.0-2.0-4.0-1.18","5a98b39b89de8200013ef94f","C3","batch3","spm_respsonse","9514.399999976158","img/question_4_7.jpeg","4","mat_43","5","1","1","9514.399999976158","","","","","","","","","","","","","","","","","","","","",""
"","","","","","html-keyboard-response","91","436742","0.0-2.0-4.0-0.19","5a98b39b89de8200013ef94f","C3","batch3","spm_show_trial_num","null","<p class=block-text>Trial 44 out of 60</p>","null","","","","","","","","","","","","","","","","","","","","","","","","","",""
"","","","","","image-button-response","92","460420","0.0-2.0-4.0-1.19","5a98b39b89de8200013ef94f","C3","batch3","spm_respsonse","23676.30000001192","img/question_4_8.jpeg","3","mat_44","4","1","1","23676.30000001192","","","","","","","","","","","","","","","","","","","","",""
"","","","","","html-keyboard-response","93","461482","0.0-2.0-4.0-0.20","5a98b39b89de8200013ef94f","C3","batch3","spm_show_trial_num","null","<p class=block-text>Trial 45 out of 60</p>","null","","","","","","","","","","","","","","","","","","","","","","","","","",""
"","","","","","image-button-response","94","480892","0.0-2.0-4.0-1.20","5a98b39b89de8200013ef94f","C3","batch3","spm_respsonse","19408.79999998212","img/question_4_9.jpeg","4","mat_45","1","0","0","19408.79999998212","","","","","","","","","","","","","","","","","","","","",""
"","","","","","html-keyboard-response","95","481955","0.0-2.0-4.0-0.21","5a98b39b89de8200013ef94f","C3","batch3","spm_show_trial_num","null","<p class=block-text>Trial 46 out of 60</p>","null","","","","","","","","","","","","","","","","","","","","","","","","","",""
"","","","","","image-button-response","96","505733","0.0-2.0-4.0-1.21","5a98b39b89de8200013ef94f","C3","batch3","spm_respsonse","23776","img/question_4_10.jpeg","1","mat_46","2","1","1","23776","","","","","","","","","","","","","","","","","","","","",""
"","","","","","html-keyboard-response","97","506793","0.0-2.0-4.0-0.22","5a98b39b89de8200013ef94f","C3","batch3","spm_show_trial_num","null","<p class=block-text>Trial 47 out of 60</p>","null","","","","","","","","","","","","","","","","","","","","","","","","","",""
"","","","","","image-button-response","98","531094","0.0-2.0-4.0-1.22","5a98b39b89de8200013ef94f","C3","batch3","spm_respsonse","24299.19999998808","img/question_4_11.jpeg","5","mat_47","5","0","0","24299.19999998808","","","","","","","","","","","","","","","","","","","","",""
"","","","","","html-keyboard-response","99","532153","0.0-2.0-4.0-0.23","5a98b39b89de8200013ef94f","C3","batch3","spm_show_trial_num","null","<p class=block-text>Trial 48 out of 60</p>","null","","","","","","","","","","","","","","","","","","","","","","","","","",""
"","","","","","image-button-response","100","562415","0.0-2.0-4.0-1.23","5a98b39b89de8200013ef94f","C3","batch3","spm_respsonse","30260","img/question_4_12.jpeg","3","mat_48","6","0","0","30260","","","","","","","","","","","","","","","","","","","","",""
"","","","","","html-keyboard-response","101","563478","0.0-2.0-4.0-0.24","5a98b39b89de8200013ef94f","C3","batch3","spm_show_trial_num","null","<p class=block-text>Trial 49 out of 60</p>","null","","","","","","","","","","","","","","","","","","","","","","","","","",""
"","","","","","image-button-response","102","572183","0.0-2.0-4.0-1.24","5a98b39b89de8200013ef94f","C3","batch3","spm_respsonse","8703.699999988079","img/question_5_1.jpeg","6","mat_49","7","1","1","8703.699999988079","","","","","","","","","","","","","","","","","","","","",""
"","","","","","html-keyboard-response","103","573244","0.0-2.0-4.0-0.25","5a98b39b89de8200013ef94f","C3","batch3","spm_show_trial_num","null","<p class=block-text>Trial 50 out of 60</p>","null","","","","","","","","","","","","","","","","","","","","","","","","","",""
"","","","","","image-button-response","104","585031","0.0-2.0-4.0-1.25","5a98b39b89de8200013ef94f","C3","batch3","spm_respsonse","11786.199999988079","img/question_5_2.jpeg","5","mat_50","6","1","1","11786.199999988079","","","","","","","","","","","","","","","","","","","","",""
"","","","","","html-keyboard-response","105","586095","0.0-2.0-4.0-0.26","5a98b39b89de8200013ef94f","C3","batch3","spm_show_trial_num","null","<p class=block-text>Trial 51 out of 60</p>","null","","","","","","","","","","","","","","","","","","","","","","","","","",""
"","","","","","image-button-response","106","594768","0.0-2.0-4.0-1.26","5a98b39b89de8200013ef94f","C3","batch3","spm_respsonse","8671.300000011921","img/question_5_3.jpeg","7","mat_51","8","1","1","8671.300000011921","","","","","","","","","","","","","","","","","","","","",""
"","","","","","html-keyboard-response","107","595827","0.0-2.0-4.0-0.27","5a98b39b89de8200013ef94f","C3","batch3","spm_show_trial_num","null","<p class=block-text>Trial 52 out of 60</p>","null","","","","","","","","","","","","","","","","","","","","","","","","","",""
"","","","","","image-button-response","108","604784","0.0-2.0-4.0-1.27","5a98b39b89de8200013ef94f","C3","batch3","spm_respsonse","8955.299999982119","img/question_5_4.jpeg","1","mat_52","2","1","1","8955.299999982119","","","","","","","","","","","","","","","","","","","","",""
"","","","","","html-keyboard-response","109","605845","0.0-2.0-4.0-0.28","5a98b39b89de8200013ef94f","C3","batch3","spm_show_trial_num","null","<p class=block-text>Trial 53 out of 60</p>","null","","","","","","","","","","","","","","","","","","","","","","","","","",""
"","","","","","image-button-response","110","616120","0.0-2.0-4.0-1.28","5a98b39b89de8200013ef94f","C3","batch3","spm_respsonse","10273.300000011921","img/question_5_5.jpeg","0","mat_53","1","1","1","10273.300000011921","","","","","","","","","","","","","","","","","","","","",""
"","","","","","html-keyboard-response","111","617180","0.0-2.0-4.0-0.29","5a98b39b89de8200013ef94f","C3","batch3","spm_show_trial_num","null","<p class=block-text>Trial 54 out of 60</p>","null","","","","","","","","","","","","","","","","","","","","","","","","","",""
"","","","","","image-button-response","112","650921","0.0-2.0-4.0-1.29","5a98b39b89de8200013ef94f","C3","batch3","spm_respsonse","33739","img/question_5_6.jpeg","4","mat_54","5","1","1","33739","","","","","","","","","","","","","","","","","","","","",""
"","","","","","html-keyboard-response","113","651985","0.0-2.0-4.0-0.30","5a98b39b89de8200013ef94f","C3","batch3","spm_show_trial_num","null","<p class=block-text>Trial 55 out of 60</p>","null","","","","","","","","","","","","","","","","","","","","","","","","","",""
"","","","","","image-button-response","114","677834","0.0-2.0-4.0-1.30","5a98b39b89de8200013ef94f","C3","batch3","spm_respsonse","25847.29999998212","img/question_5_7.jpeg","4","mat_55","1","0","0","25847.29999998212","","","","","","","","","","","","","","","","","","","","",""
"","","","","","html-keyboard-response","115","678894","0.0-2.0-4.0-0.31","5a98b39b89de8200013ef94f","C3","batch3","spm_show_trial_num","null","<p class=block-text>Trial 56 out of 60</p>","null","","","","","","","","","","","","","","","","","","","","","","","","","",""
"","","","","","image-button-response","116","693139","0.0-2.0-4.0-1.31","5a98b39b89de8200013ef94f","C3","batch3","spm_respsonse","14243.5","img/question_5_8.jpeg","5","mat_56","6","1","1","14243.5","","","","","","","","","","","","","","","","","","","","",""
"","","","","","html-keyboard-response","117","694194","0.0-2.0-4.0-0.32","5a98b39b89de8200013ef94f","C3","batch3","spm_show_trial_num","null","<p class=block-text>Trial 57 out of 60</p>","null","","","","","","","","","","","","","","","","","","","","","","","","","",""
"","","","","","image-button-response","118","704115","0.0-2.0-4.0-1.32","5a98b39b89de8200013ef94f","C3","batch3","spm_respsonse","9919.700000017881","img/question_5_9.jpeg","2","mat_57","3","1","1","9919.700000017881","","","","","","","","","","","","","","","","","","","","",""
"","","","","","html-keyboard-response","119","705179","0.0-2.0-4.0-0.33","5a98b39b89de8200013ef94f","C3","batch3","spm_show_trial_num","null","<p class=block-text>Trial 58 out of 60</p>","null","","","","","","","","","","","","","","","","","","","","","","","","","",""
"","","","","","image-button-response","120","746764","0.0-2.0-4.0-1.33","5a98b39b89de8200013ef94f","C3","batch3","spm_respsonse","41583.39999997616","img/question_5_10.jpeg","1","mat_58","2","1","1","41583.39999997616","","","","","","","","","","","","","","","","","","","","",""
"","","","","","html-keyboard-response","121","747819","0.0-2.0-4.0-0.34","5a98b39b89de8200013ef94f","C3","batch3","spm_show_trial_num","null","<p class=block-text>Trial 59 out of 60</p>","null","","","","","","","","","","","","","","","","","","","","","","","","","",""
"","","","","","image-button-response","122","803798","0.0-2.0-4.0-1.34","5a98b39b89de8200013ef94f","C3","batch3","spm_respsonse","55975.79999998212","img/question_5_11.jpeg","1","mat_59","4","0","0","55975.79999998212","","","","","","","","","","","","","","","","","","","","",""
"","","","","","html-keyboard-response","123","804857","0.0-2.0-4.0-0.35","5a98b39b89de8200013ef94f","C3","batch3","spm_show_trial_num","null","<p class=block-text>Trial 60 out of 60</p>","null","","","","","","","","","","","","","","","","","","","","","","","","","",""
"","","","","","image-button-response","124","840143","0.0-2.0-4.0-1.35","5a98b39b89de8200013ef94f","C3","batch3","spm_respsonse","35283.79999998212","img/question_5_12.jpeg","4","mat_60","5","1","1","35283.79999998212","","","","","","","","","","","","","","","","","","","","",""
"","","","","","html-button-response","125","842407","0.0-2.0-5.0","5a98b39b89de8200013ef94f","C3","batch3","spm_goodbye","2012.800000011921","<p class= block-text>This concludes the Standard Progressive Matrix game. Thank you for your responses!<br> When you are ready, click the button continue</p>","0","","","","","","","","","","","","","","","","","","","","","","","","","",""
"true","","","","","fullscreen","126","847179","0.0-3.0-0.0","5a98b39b89de8200013ef94f","C3","batch3","","","","","","","","","","","","","","","","","","","","","","","","","","","","","",""
"","","","","","instructions","127","864224","0.0-3.0-1.0-0.0","5a98b39b89de8200013ef94f","C3","batch3","","17043.5","","","","","","","","[{""page_index"":0,""viewing_time"":13667.5},{""page_index"":1,""viewing_time"":3375.7999999821186}]","","","","","","","","","","","","","","","","","","","",""
"","","","","","html-button-response","128","865360","0.0-3.0-1.0-1.0-0.0","5a98b39b89de8200013ef94f","C3","batch3","pattern_enter_quiz","1135.5999999940395","<p class=block-text> Let's answer a few questions <br>","0","","","","","","","","","","","","","","","","","","","","","","","","","",""
"","","","","","html-button-response","129","868232","0.0-3.0-1.0-1.0-1.0","5a98b39b89de8200013ef94f","C3","batch3","pattern_quiz","2871.600000023842","<p class = block-text>True or False: You will have as much time as you want to make each choice. <br></p>","1","","","true","","","","","","","","","","","","","","","","","","","","","","",""
"","","","","","html-button-response","130","869368","0.0-3.0-1.0-1.0-2.0","5a98b39b89de8200013ef94f","C3","batch3","pattern_quiz_feedback","1135","<p class = block-text>Correct! You should make your choice <strong> as fast as you can</strong>.</p>","0","","","","","","","","","","","","","","","","","","","","","","","","","",""
"","","","","","html-button-response","131","872872","0.0-3.0-1.0-1.0-3.0","5a98b39b89de8200013ef94f","C3","batch3","pattern_quiz","3503.5999999940395","<p class = block-text>True or False: You will look for 4 pieces in black or white color connected in a row either horizontally, vertically or diagonally. <br></p>","0","","","true","","","","","","","","","","","","","","","","","","","","","","",""
"","","","","","html-button-response","132","873592","0.0-3.0-1.0-1.0-4.0","5a98b39b89de8200013ef94f","C3","batch3","pattern_quiz_feedback","719.3999999761581","<p class = block-text>Correct! </p>","0","","","","","","","","","","","","","","","","","","","","","","","","","",""
"","","","","","html-button-response","133","875976","0.0-3.0-2.0","5a98b39b89de8200013ef94f","C3","batch3","pattern_enter_practice","2383.2000000178814","<p class=block-text> Now that you've understood the game, let's do a few practice trials before we start!<br> <br>","0","","","","","","","","","","","","","","","","","","","","","","","","","",""
"","","","","","image-keyboard-response","134","877081","0.0-3.0-3.0-0.0","5a98b39b89de8200013ef94f","C3","batch3","pattern_practice","1103.6000000238419","stim/prac_yes_16_ver_w1.png","f","","f","true","","","","","","","","","","","","","","","","","","","","","","",""
"","","","","","html-keyboard-response","135","878104","0.0-3.0-3.0-1.0","5a98b39b89de8200013ef94f","C3","batch3","pattern_feedback","null","<p style=""font-size:30px;color:green;"">Correct!</p>","null","","","","","","","","","","","","","","","","","","","","","","","","","",""
"","","","","","image-keyboard-response","136","879801","0.0-3.0-3.0-0.1","5a98b39b89de8200013ef94f","C3","batch3","pattern_practice","1695.9000000059605","stim/prac_yes_20_dia_b1.png","j","","f","false","","","","","","","","","","","","","","","","","","","","","","",""
"","","","","","html-keyboard-response","137","880822","0.0-3.0-3.0-1.1","5a98b39b89de8200013ef94f","C3","batch3","pattern_feedback","null","<p style=""font-size:30px;color:red;"">Wrong.</p>","null","","","","","","","","","","","","","","","","","","","","","","","","","",""
"","","","","","image-keyboard-response","138","884289","0.0-3.0-3.0-0.2","5a98b39b89de8200013ef94f","C3","batch3","pattern_practice","3465.9000000059605","stim/prac_no_16_1.png","j","","j","true","","","","","","","","","","","","","","","","","","","","","","",""
"","","","","","html-keyboard-response","139","885300","0.0-3.0-3.0-1.2","5a98b39b89de8200013ef94f","C3","batch3","pattern_feedback","null","<p style=""font-size:30px;color:green;"">Correct!</p>","null","","","","","","","","","","","","","","","","","","","","","","","","","",""
"","","","","","image-keyboard-response","140","887849","0.0-3.0-3.0-0.3","5a98b39b89de8200013ef94f","C3","batch3","pattern_practice","2547.7999999821186","stim/prac_no_18_1.png","j","","j","true","","","","","","","","","","","","","","","","","","","","","","",""
"","","","","","html-keyboard-response","141","888864","0.0-3.0-3.0-1.3","5a98b39b89de8200013ef94f","C3","batch3","pattern_feedback","null","<p style=""font-size:30px;color:green;"">Correct!</p>","null","","","","","","","","","","","","","","","","","","","","","","","","","",""
"","","","","","image-keyboard-response","142","890065","0.0-3.0-3.0-0.4","5a98b39b89de8200013ef94f","C3","batch3","pattern_practice","1199.7999999821186","stim/prac_yes_18_hor_w1.png","f","","f","true","","","","","","","","","","","","","","","","","","","","","","",""
"","","","","","html-keyboard-response","143","891080","0.0-3.0-3.0-1.4","5a98b39b89de8200013ef94f","C3","batch3","pattern_feedback","null","<p style=""font-size:30px;color:green;"">Correct!</p>","null","","","","","","","","","","","","","","","","","","","","","","","","","",""
"","","","","","html-button-response","144","896185","0.0-3.0-4.0","5a98b39b89de8200013ef94f","C3","batch3","pattern_enter_official_trials","5103.600000023842","<p class=block-text> Good job! You are done with practice trials!<br>
        You responded correctly on 80% of the trials.<br>
        Press the button below to start official trials. Now you won't see any feedback about your response</p>","0","","","","","","","","","","","","","","","","","","","","","","","","","",""
"","","","","","html-keyboard-response","145","896988","0.0-3.0-5.0-0.0","5a98b39b89de8200013ef94f","C3","batch3","pattern_show_trial_num","null","<p class=block-text>Trial 1 out of 78</p>","null","","","","","","","","","","","","","","","","","","","","","","","","","",""
"","","","","","image-keyboard-response","146","898801","0.0-3.0-5.0-1.0","5a98b39b89de8200013ef94f","C3","batch3","pattern_response","1812.4000000059605","stim/yes_26_dia_w2_w.png","f","pattern_50","f","true","","","","1812.4000000059605","true","1","","","","","","","","","","","","","","","","",""
"","","","","","html-keyboard-response","147","900117","0.0-3.0-5.0-0.1","5a98b39b89de8200013ef94f","C3","batch3","pattern_show_trial_num","null","<p class=block-text>Trial 2 out of 78</p>","null","","","","","","","","","","","","","","","","","","","","","","","","","",""
"","","","","","image-keyboard-response","148","901145","0.0-3.0-5.0-1.1","5a98b39b89de8200013ef94f","C3","batch3","pattern_response","1027.7999999821186","stim/yes_46_ver_b1_b.png","f","pattern_68","f","true","","","","1027.7999999821186","true","2","","","","","","","","","","","","","","","","",""
"","","","","","html-keyboard-response","149","902462","0.0-3.0-5.0-0.2","5a98b39b89de8200013ef94f","C3","batch3","pattern_show_trial_num","null","<p class=block-text>Trial 3 out of 78</p>","null","","","","","","","","","","","","","","","","","","","","","","","","","",""
"","","","","","image-keyboard-response","150","905545","0.0-3.0-5.0-1.2","5a98b39b89de8200013ef94f","C3","batch3","pattern_response","3083","stim/no_58_1_w.png","j","pattern_35","j","true","","","","3083","true","3","","","","","","","","","","","","","","","","",""
"","","","","","html-keyboard-response","151","906863","0.0-3.0-5.0-0.3","5a98b39b89de8200013ef94f","C3","batch3","pattern_show_trial_num","null","<p class=block-text>Trial 4 out of 78</p>","null","","","","","","","","","","","","","","","","","","","","","","","","","",""
"","","","","","image-keyboard-response","152","911090","0.0-3.0-5.0-1.3","5a98b39b89de8200013ef94f","C3","batch3","pattern_response","4225.800000011921","stim/yes_51_dia_b1.png","f","pattern_72","f","true","","","","4225.800000011921","true","4","","","","","","","","","","","","","","","","",""
"","","","","","html-keyboard-response","153","912406","0.0-3.0-5.0-0.4","5a98b39b89de8200013ef94f","C3","batch3","pattern_show_trial_num","null","<p class=block-text>Trial 5 out of 78</p>","null","","","","","","","","","","","","","","","","","","","","","","","","","",""
"","","","","","image-keyboard-response","154","914074","0.0-3.0-5.0-1.4","5a98b39b89de8200013ef94f","C3","batch3","pattern_response","1667.199999988079","stim/yes_36_ver_w1_w.png","f","pattern_58","f","true","","","","1667.199999988079","true","5","","","","","","","","","","","","","","","","",""
"","","","","","html-keyboard-response","155","915393","0.0-3.0-5.0-0.5","5a98b39b89de8200013ef94f","C3","batch3","pattern_show_trial_num","null","<p class=block-text>Trial 6 out of 78</p>","null","","","","","","","","","","","","","","","","","","","","","","","","","",""
"","","","","","image-keyboard-response","156","922666","0.0-3.0-5.0-1.5","5a98b39b89de8200013ef94f","C3","batch3","pattern_response","7272.700000017881","stim/no_67_1.png","j","pattern_39","j","true","","","","7272.700000017881","true","6","","","","","","","","","","","","","","","","",""
"","","","","","html-keyboard-response","157","923984","0.0-3.0-5.0-0.6","5a98b39b89de8200013ef94f","C3","batch3","pattern_show_trial_num","null","<p class=block-text>Trial 7 out of 78</p>","null","","","","","","","","","","","","","","","","","","","","","","","","","",""
"","","","","","image-keyboard-response","158","926410","0.0-3.0-5.0-1.6","5a98b39b89de8200013ef94f","C3","batch3","pattern_response","2424.899999976158","stim/yes_49_hor_w1_b.png","f","pattern_70","f","true","","","","2424.899999976158","true","7","","","","","","","","","","","","","","","","",""
"","","","","","html-keyboard-response","159","927729","0.0-3.0-5.0-0.7","5a98b39b89de8200013ef94f","C3","batch3","pattern_show_trial_num","null","<p class=block-text>Trial 8 out of 78</p>","null","","","","","","","","","","","","","","","","","","","","","","","","","",""
"","","","","","image-keyboard-response","160","930010","0.0-3.0-5.0-1.7","5a98b39b89de8200013ef94f","C3","batch3","pattern_response","2280","stim/yes_42_dia_w1_w.png","f","pattern_64","f","true","","","","2280","true","8","","","","","","","","","","","","","","","","",""
"","","","","","html-keyboard-response","161","931325","0.0-3.0-5.0-0.8","5a98b39b89de8200013ef94f","C3","batch3","pattern_show_trial_num","null","<p class=block-text>Trial 9 out of 78</p>","null","","","","","","","","","","","","","","","","","","","","","","","","","",""
"","","","","","image-keyboard-response","162","935850","0.0-3.0-5.0-1.8","5a98b39b89de8200013ef94f","C3","batch3","pattern_response","4524.4000000059605","stim/no_49_2_b.png","j","pattern_29","j","true","","","","4524.4000000059605","true","9","","","","","","","","","","","","","","","","",""
"","","","","","html-keyboard-response","163","937168","0.0-3.0-5.0-0.9","5a98b39b89de8200013ef94f","C3","batch3","pattern_show_trial_num","null","<p class=block-text>Trial 10 out of 78</p>","null","","","","","","","","","","","","","","","","","","","","","","","","","",""
"","","","","","image-keyboard-response","164","940730","0.0-3.0-5.0-1.9","5a98b39b89de8200013ef94f","C3","batch3","pattern_response","3561","stim/no_39_1_w.png","j","pattern_21","j","true","","","","3561","true","10","","","","","","","","","","","","","","","","",""
"","","","","","html-keyboard-response","165","942050","0.0-3.0-5.0-0.10","5a98b39b89de8200013ef94f","C3","batch3","pattern_show_trial_num","null","<p class=block-text>Trial 11 out of 78</p>","null","","","","","","","","","","","","","","","","","","","","","","","","","",""
"","","","","","image-keyboard-response","166","943419","0.0-3.0-5.0-1.10","5a98b39b89de8200013ef94f","C3","batch3","pattern_response","1367.8999999761581","stim/no_15_1_w.png","j","pattern_03","j","true","","","","1367.8999999761581","true","11","","","","","","","","","","","","","","","","",""
"","","","","","html-keyboard-response","167","944734","0.0-3.0-5.0-0.11","5a98b39b89de8200013ef94f","C3","batch3","pattern_show_trial_num","null","<p class=block-text>Trial 12 out of 78</p>","null","","","","","","","","","","","","","","","","","","","","","","","","","",""
"","","","","","image-keyboard-response","168","945995","0.0-3.0-5.0-1.11","5a98b39b89de8200013ef94f","C3","batch3","pattern_response","1260.2000000178814","stim/yes_63_dia_b1.png","f","pattern_78","f","true","","","","1260.2000000178814","true","12","","","","","","","","","","","","","","","","",""
"","","","","","html-keyboard-response","169","947314","0.0-3.0-5.0-0.12","5a98b39b89de8200013ef94f","C3","batch3","pattern_show_trial_num","null","<p class=block-text>Trial 13 out of 78</p>","null","","","","","","","","","","","","","","","","","","","","","","","","","",""
"","","","","","image-keyboard-response","170","949059","0.0-3.0-5.0-1.12","5a98b39b89de8200013ef94f","C3","batch3","pattern_response","1743.9000000059605","stim/no_18_1_b.png","j","pattern_05","j","true","","","","1743.9000000059605","true","13","","","","","","","","","","","","","","","","",""
"","","","","","html-keyboard-response","171","950375","0.0-3.0-5.0-0.13","5a98b39b89de8200013ef94f","C3","batch3","pattern_show_trial_num","null","<p class=block-text>Trial 14 out of 78</p>","null","","","","","","","","","","","","","","","","","","","","","","","","","",""
"","","","","","image-keyboard-response","172","951379","0.0-3.0-5.0-1.13","5a98b39b89de8200013ef94f","C3","batch3","pattern_response","1002.8999999761581","stim/yes_33_dia_w1_w.png","f","pattern_56","f","true","","","","1002.8999999761581","true","14","","","","","","","","","","","","","","","","",""
"","","","","","html-keyboard-response","173","952694","0.0-3.0-5.0-0.14","5a98b39b89de8200013ef94f","C3","batch3","pattern_show_trial_num","null","<p class=block-text>Trial 15 out of 78</p>","null","","","","","","","","","","","","","","","","","","","","","","","","","",""
"","","","","","image-keyboard-response","174","955051","0.0-3.0-5.0-1.14","5a98b39b89de8200013ef94f","C3","batch3","pattern_response","2356.5","stim/no_22_1_b.png","j","pattern_07","j","true","","","","2356.5","true","15","","","","","","","","","","","","","","","","",""
"","","","","","html-keyboard-response","175","956366","0.0-3.0-5.0-0.15","5a98b39b89de8200013ef94f","C3","batch3","pattern_show_trial_num","null","<p class=block-text>Trial 16 out of 78</p>","null","","","","","","","","","","","","","","","","","","","","","","","","","",""
"","","","","","image-keyboard-response","176","961363","0.0-3.0-5.0-1.15","5a98b39b89de8200013ef94f","C3","batch3","pattern_response","4996.4000000059605","stim/no_51_1.png","j","pattern_31","j","true","","","","4996.4000000059605","true","16","","","","","","","","","","","","","","","","",""
"","","","","","html-keyboard-response","177","962682","0.0-3.0-5.0-0.16","5a98b39b89de8200013ef94f","C3","batch3","pattern_show_trial_num","null","<p class=block-text>Trial 17 out of 78</p>","null","","","","","","","","","","","","","","","","","","","","","","","","","",""
"","","","","","image-keyboard-response","178","965059","0.0-3.0-5.0-1.16","5a98b39b89de8200013ef94f","C3","batch3","pattern_response","2375.899999976158","stim/no_28_2.png","j","pattern_11","j","true","","","","2375.899999976158","true","17","","","","","","","","","","","","","","","","",""
"","","","","","html-keyboard-response","179","966377","0.0-3.0-5.0-0.17","5a98b39b89de8200013ef94f","C3","batch3","pattern_show_trial_num","null","<p class=block-text>Trial 18 out of 78</p>","null","","","","","","","","","","","","","","","","","","","","","","","","","",""
"","","","","","image-keyboard-response","180","967867","0.0-3.0-5.0-1.17","5a98b39b89de8200013ef94f","C3","batch3","pattern_response","1489.7999999821186","stim/yes_23_ver_b1.png","f","pattern_48","f","true","","","","1489.7999999821186","true","18","","","","","","","","","","","","","","","","",""
"","","","","","html-keyboard-response","181","969183","0.0-3.0-5.0-0.18","5a98b39b89de8200013ef94f","C3","batch3","pattern_show_trial_num","null","<p class=block-text>Trial 19 out of 78</p>","null","","","","","","","","","","","","","","","","","","","","","","","","","",""
"","","","","","image-keyboard-response","182","975140","0.0-3.0-5.0-1.18","5a98b39b89de8200013ef94f","C3","batch3","pattern_response","5955.200000017881","stim/no_45_1_w.png","j","pattern_25","j","true","","","","5955.200000017881","true","19","","","","","","","","","","","","","","","","",""
"","","","","","html-keyboard-response","183","976455","0.0-3.0-5.0-0.19","5a98b39b89de8200013ef94f","C3","batch3","pattern_show_trial_num","null","<p class=block-text>Trial 20 out of 78</p>","null","","","","","","","","","","","","","","","","","","","","","","","","","",""
"","","","","","image-keyboard-response","184","980748","0.0-3.0-5.0-1.19","5a98b39b89de8200013ef94f","C3","batch3","pattern_response","4291.799999982119","stim/no_33_1_b.png","j","pattern_15","j","true","","","","4291.799999982119","true","20","","","","","","","","","","","","","","","","",""
"","","","","","html-keyboard-response","185","982071","0.0-3.0-5.0-0.20","5a98b39b89de8200013ef94f","C3","batch3","pattern_show_trial_num","null","<p class=block-text>Trial 21 out of 78</p>","null","","","","","","","","","","","","","","","","","","","","","","","","","",""
"","","","","","image-keyboard-response","186","982908","0.0-3.0-5.0-1.20","5a98b39b89de8200013ef94f","C3","batch3","pattern_response","835.6999999880791","stim/no_12_1.png","j","pattern_01","j","true","","","","835.6999999880791","true","21","","","","","","","","","","","","","","","","",""
"","","","","","html-keyboard-response","187","984223","0.0-3.0-5.0-0.21","5a98b39b89de8200013ef94f","C3","batch3","pattern_show_trial_num","null","<p class=block-text>Trial 22 out of 78</p>","null","","","","","","","","","","","","","","","","","","","","","","","","","",""
"","","","","","image-keyboard-response","188","985732","0.0-3.0-5.0-1.21","5a98b39b89de8200013ef94f","C3","batch3","pattern_response","1508.6000000238419","stim/yes_70_ver_b1.png","f","pattern_80","f","true","","","","1508.6000000238419","true","22","","","","","","","","","","","","","","","","",""
"","","","","","html-keyboard-response","189","987051","0.0-3.0-5.0-0.22","5a98b39b89de8200013ef94f","C3","batch3","pattern_show_trial_num","null","<p class=block-text>Trial 23 out of 78</p>","null","","","","","","","","","","","","","","","","","","","","","","","","","",""
"","","","","","image-keyboard-response","190","988004","0.0-3.0-5.0-1.22","5a98b39b89de8200013ef94f","C3","batch3","pattern_response","952.0999999940395","stim/yes_30_ver_b1_b.png","f","pattern_54","f","true","","","","952.0999999940395","true","23","","","","","","","","","","","","","","","","",""
"","","","","","html-keyboard-response","191","989323","0.0-3.0-5.0-0.23","5a98b39b89de8200013ef94f","C3","batch3","pattern_show_trial_num","null","<p class=block-text>Trial 24 out of 78</p>","null","","","","","","","","","","","","","","","","","","","","","","","","","",""
"","","","","","image-keyboard-response","192","990076","0.0-3.0-5.0-1.23","5a98b39b89de8200013ef94f","C3","batch3","pattern_response","752.0999999940395","stim/yes_12_hor_w1_w.png","f","pattern_42","f","true","","","","752.0999999940395","true","24","","","","","","","","","","","","","","","","",""
"","","","","","html-keyboard-response","193","991395","0.0-3.0-5.0-0.24","5a98b39b89de8200013ef94f","C3","batch3","pattern_show_trial_num","null","<p class=block-text>Trial 25 out of 78</p>","null","","","","","","","","","","","","","","","","","","","","","","","","","",""
"","","","","","image-keyboard-response","194","992108","0.0-3.0-5.0-1.24","5a98b39b89de8200013ef94f","C3","batch3","pattern_response","712.0999999940395","stim/yes_39_hor_w1_w.png","f","pattern_62","f","true","","","","712.0999999940395","true","25","","","","","","","","","","","","","","","","",""
"","","","","","html-keyboard-response","195","993427","0.0-3.0-5.0-0.25","5a98b39b89de8200013ef94f","C3","batch3","pattern_show_trial_num","null","<p class=block-text>Trial 26 out of 78</p>","null","","","","","","","","","","","","","","","","","","","","","","","","","",""
"","","","","","image-keyboard-response","196","994140","0.0-3.0-5.0-1.25","5a98b39b89de8200013ef94f","C3","batch3","pattern_response","712","stim/yes_15_dia_b1u_b.png","f","pattern_44","f","true","","","","712","true","26","","","","","","","","","","","","","","","","",""
"","","","","","html-keyboard-response","197","995455","0.0-3.0-5.0-0.26","5a98b39b89de8200013ef94f","C3","batch3","pattern_show_trial_num","null","<p class=block-text>Trial 27 out of 78</p>","null","","","","","","","","","","","","","","","","","","","","","","","","","",""
"","","","","","image-keyboard-response","198","996140","0.0-3.0-5.0-1.26","5a98b39b89de8200013ef94f","C3","batch3","pattern_response","684.6999999880791","stim/yes_17_ver_b1_b.png","f","pattern_46","f","true","","","","684.6999999880791","true","27","","","","","","","","","","","","","","","","",""
"","","","","","html-keyboard-response","199","997455","0.0-3.0-5.0-0.27","5a98b39b89de8200013ef94f","C3","batch3","pattern_show_trial_num","null","<p class=block-text>Trial 28 out of 78</p>","null","","","","","","","","","","","","","","","","","","","","","","","","","",""
"","","","","","image-keyboard-response","200","999716","0.0-3.0-5.0-1.27","5a98b39b89de8200013ef94f","C3","batch3","pattern_response","2260.199999988079","stim/no_30_1_b.png","j","pattern_13","j","true","","","","2260.199999988079","true","28","","","","","","","","","","","","","","","","",""
"","","","","","html-keyboard-response","201","1001031","0.0-3.0-5.0-0.28","5a98b39b89de8200013ef94f","C3","batch3","pattern_show_trial_num","null","<p class=block-text>Trial 29 out of 78</p>","null","","","","","","","","","","","","","","","","","","","","","","","","","",""
"","","","","","image-keyboard-response","202","1002156","0.0-3.0-5.0-1.28","5a98b39b89de8200013ef94f","C3","batch3","pattern_response","1124.4000000059605","stim/yes_37_hor_w1_w.png","f","pattern_60","f","true","","","","1124.4000000059605","true","29","","","","","","","","","","","","","","","","",""
"","","","","","html-keyboard-response","203","1003476","0.0-3.0-5.0-0.29","5a98b39b89de8200013ef94f","C3","batch3","pattern_show_trial_num","null","<p class=block-text>Trial 30 out of 78</p>","null","","","","","","","","","","","","","","","","","","","","","","","","","",""
"","","","","","image-keyboard-response","204","1008485","0.0-3.0-5.0-1.29","5a98b39b89de8200013ef94f","C3","batch3","pattern_response","5008.200000017881","stim/yes_44_ver_w1_w.png","f","pattern_66","f","true","","","","5008.200000017881","true","30","","","","","","","","","","","","","","","","",""
"","","","","","html-keyboard-response","205","1009802","0.0-3.0-5.0-0.30","5a98b39b89de8200013ef94f","C3","batch3","pattern_show_trial_num","null","<p class=block-text>Trial 31 out of 78</p>","null","","","","","","","","","","","","","","","","","","","","","","","","","",""
"","","","","","image-keyboard-response","206","1012333","0.0-3.0-5.0-1.30","5a98b39b89de8200013ef94f","C3","batch3","pattern_response","2529.5","stim/no_25_1_b.png","j","pattern_09","j","true","","","","2529.5","true","31","","","","","","","","","","","","","","","","",""
"","","","","","html-keyboard-response","207","1013651","0.0-3.0-5.0-0.31","5a98b39b89de8200013ef94f","C3","batch3","pattern_show_trial_num","null","<p class=block-text>Trial 32 out of 78</p>","null","","","","","","","","","","","","","","","","","","","","","","","","","",""
"","","","","","image-keyboard-response","208","1020397","0.0-3.0-5.0-1.31","5a98b39b89de8200013ef94f","C3","batch3","pattern_response","6745.100000023842","stim/no_53_1_b.png","j","pattern_33","j","true","","","","6745.100000023842","true","32","","","","","","","","","","","","","","","","",""
"","","","","","html-keyboard-response","209","1021712","0.0-3.0-5.0-0.32","5a98b39b89de8200013ef94f","C3","batch3","pattern_show_trial_num","null","<p class=block-text>Trial 33 out of 78</p>","null","","","","","","","","","","","","","","","","","","","","","","","","","",""
"","","","","","image-keyboard-response","210","1025509","0.0-3.0-5.0-1.32","5a98b39b89de8200013ef94f","C3","batch3","pattern_response","3795.7999999821186","stim/no_43_2_b.png","j","pattern_23","j","true","","","","3795.7999999821186","true","33","","","","","","","","","","","","","","","","",""
"","","","","","html-keyboard-response","211","1026824","0.0-3.0-5.0-0.33","5a98b39b89de8200013ef94f","C3","batch3","pattern_show_trial_num","null","<p class=block-text>Trial 34 out of 78</p>","null","","","","","","","","","","","","","","","","","","","","","","","","","",""
"","","","","","image-keyboard-response","212","1032517","0.0-3.0-5.0-1.33","5a98b39b89de8200013ef94f","C3","batch3","pattern_response","5692.4000000059605","stim/yes_58_dia_w1_w.png","j","pattern_76","f","false","","","","5692.4000000059605","false","33","","","","","","","","","","","","","","","","",""
"","","","","","html-keyboard-response","213","1033832","0.0-3.0-5.0-0.34","5a98b39b89de8200013ef94f","C3","batch3","pattern_show_trial_num","null","<p class=block-text>Trial 35 out of 78</p>","null","","","","","","","","","","","","","","","","","","","","","","","","","",""
"","","","","","image-keyboard-response","214","1038917","0.0-3.0-5.0-1.34","5a98b39b89de8200013ef94f","C3","batch3","pattern_response","5084.199999988079","stim/no_36_1_b.png","j","pattern_17","j","true","","","","5084.199999988079","true","34","","","","","","","","","","","","","","","","",""
"","","","","","html-keyboard-response","215","1040234","0.0-3.0-5.0-0.35","5a98b39b89de8200013ef94f","C3","batch3","pattern_show_trial_num","null","<p class=block-text>Trial 36 out of 78</p>","null","","","","","","","","","","","","","","","","","","","","","","","","","",""
"","","","","","image-keyboard-response","216","1045198","0.0-3.0-5.0-1.35","5a98b39b89de8200013ef94f","C3","batch3","pattern_response","4962.700000017881","stim/no_47_1_b.png","j","pattern_27","j","true","","","","4962.700000017881","true","35","","","","","","","","","","","","","","","","",""
"","","","","","html-keyboard-response","217","1046515","0.0-3.0-5.0-0.36","5a98b39b89de8200013ef94f","C3","batch3","pattern_show_trial_num","null","<p class=block-text>Trial 37 out of 78</p>","null","","","","","","","","","","","","","","","","","","","","","","","","","",""
"","","","","","image-keyboard-response","218","1051254","0.0-3.0-5.0-1.36","5a98b39b89de8200013ef94f","C3","batch3","pattern_response","4738.100000023842","stim/no_37_2_w.png","j","pattern_19","j","true","","","","4738.100000023842","true","36","","","","","","","","","","","","","","","","",""
"","","","","","html-keyboard-response","219","1052569","0.0-3.0-5.0-0.37","5a98b39b89de8200013ef94f","C3","batch3","pattern_show_trial_num","null","<p class=block-text>Trial 38 out of 78</p>","null","","","","","","","","","","","","","","","","","","","","","","","","","",""
"","","","","","image-keyboard-response","220","1053550","0.0-3.0-5.0-1.37","5a98b39b89de8200013ef94f","C3","batch3","pattern_response","979.8999999761581","stim/yes_53_ver_b1_b.png","f","pattern_74","f","true","","","","979.8999999761581","true","37","","","","","","","","","","","","","","","","",""
"","","","","","html-keyboard-response","221","1054865","0.0-3.0-5.0-0.38","5a98b39b89de8200013ef94f","C3","batch3","pattern_show_trial_num","null","<p class=block-text>Trial 39 out of 78</p>","null","","","","","","","","","","","","","","","","","","","","","","","","","",""
"","","","","","image-keyboard-response","222","1055862","0.0-3.0-5.0-1.38","5a98b39b89de8200013ef94f","C3","batch3","pattern_response","996.0999999940395","stim/yes_29_hor_b1_b.png","f","pattern_52","f","true","","","","996.0999999940395","true","38","","","","","","","","","","","","","","","","",""
"","","","","","image-keyboard-response","223","1058638","0.0-3.0-6.0","5a98b39b89de8200013ef94f","C3","batch3","attention_check","2268.5","stim/empty_board.png","j","","j","true","","","","","","","500","[""f"",""j""]","","","","","","","","","","","","","","",""
"","","","","","html-keyboard-response","224","1059441","0.0-3.0-7.0-0.0","5a98b39b89de8200013ef94f","C3","batch3","pattern_show_trial_num","null","<p class=block-text>Trial 40 out of 78</p>","null","","","","","","","","","","","","","","","","","","","","","","","","","",""
"","","","","","image-keyboard-response","225","1062134","0.0-3.0-7.0-1.0","5a98b39b89de8200013ef94f","C3","batch3","pattern_response","2692.5999999940395","stim/no_17_1_w.png","j","pattern_04","j","true","","","","2692.5999999940395","true","39","","","","","","","","","","","","","","","","",""
"","","","","","html-keyboard-response","226","1063454","0.0-3.0-7.0-0.1","5a98b39b89de8200013ef94f","C3","batch3","pattern_show_trial_num","null","<p class=block-text>Trial 41 out of 78</p>","null","","","","","","","","","","","","","","","","","","","","","","","","","",""
"","","","","","image-keyboard-response","227","1064982","0.0-3.0-7.0-1.1","5a98b39b89de8200013ef94f","C3","batch3","pattern_response","1527.8999999761581","stim/yes_43_ver_w1_w.png","f","pattern_65","f","true","","","","1527.8999999761581","true","40","","","","","","","","","","","","","","","","",""
"","","","","","html-keyboard-response","228","1066299","0.0-3.0-7.0-0.2","5a98b39b89de8200013ef94f","C3","batch3","pattern_show_trial_num","null","<p class=block-text>Trial 42 out of 78</p>","null","","","","","","","","","","","","","","","","","","","","","","","","","",""
"","","","","","image-keyboard-response","229","1071726","0.0-3.0-7.0-1.2","5a98b39b89de8200013ef94f","C3","batch3","pattern_response","5426.5999999940395","stim/no_44_1.png","j","pattern_24","j","true","","","","5426.5999999940395","true","41","","","","","","","","","","","","","","","","",""
"","","","","","html-keyboard-response","230","1073044","0.0-3.0-7.0-0.3","5a98b39b89de8200013ef94f","C3","batch3","pattern_show_trial_num","null","<p class=block-text>Trial 43 out of 78</p>","null","","","","","","","","","","","","","","","","","","","","","","","","","",""
"","","","","","image-keyboard-response","231","1076399","0.0-3.0-7.0-1.3","5a98b39b89de8200013ef94f","C3","batch3","pattern_response","3353.899999976158","stim/no_50_1.png","j","pattern_30","j","true","","","","3353.899999976158","true","42","","","","","","","","","","","","","","","","",""
"","","","","","html-keyboard-response","232","1077714","0.0-3.0-7.0-0.4","5a98b39b89de8200013ef94f","C3","batch3","pattern_show_trial_num","null","<p class=block-text>Trial 44 out of 78</p>","null","","","","","","","","","","","","","","","","","","","","","","","","","",""
"","","","","","image-keyboard-response","233","1084079","0.0-3.0-7.0-1.4","5a98b39b89de8200013ef94f","C3","batch3","pattern_response","6363.299999982119","stim/no_65_1_b.png","j","pattern_38","j","true","","","","6363.299999982119","true","43","","","","","","","","","","","","","","","","",""
"","","","","","html-keyboard-response","234","1085395","0.0-3.0-7.0-0.5","5a98b39b89de8200013ef94f","C3","batch3","pattern_show_trial_num","null","<p class=block-text>Trial 45 out of 78</p>","null","","","","","","","","","","","","","","","","","","","","","","","","","",""
"","","","","","image-keyboard-response","235","1086831","0.0-3.0-7.0-1.5","5a98b39b89de8200013ef94f","C3","batch3","pattern_response","1434.8999999761581","stim/yes_37_dia_w1.png","f","pattern_59","f","true","","","","1434.8999999761581","true","44","","","","","","","","","","","","","","","","",""
"","","","","","html-keyboard-response","236","1088148","0.0-3.0-7.0-0.6","5a98b39b89de8200013ef94f","C3","batch3","pattern_show_trial_num","null","<p class=block-text>Trial 46 out of 78</p>","null","","","","","","","","","","","","","","","","","","","","","","","","","",""
"","","","","","image-keyboard-response","237","1094911","0.0-3.0-7.0-1.6","5a98b39b89de8200013ef94f","C3","batch3","pattern_response","6762.4000000059605","stim/no_70_2.png","j","pattern_40","j","true","","","","6762.4000000059605","true","45","","","","","","","","","","","","","","","","",""
"","","","","","html-keyboard-response","238","1096228","0.0-3.0-7.0-0.7","5a98b39b89de8200013ef94f","C3","batch3","pattern_show_trial_num","null","<p class=block-text>Trial 47 out of 78</p>","null","","","","","","","","","","","","","","","","","","","","","","","","","",""
"","","","","","image-keyboard-response","239","1097511","0.0-3.0-7.0-1.7","5a98b39b89de8200013ef94f","C3","batch3","pattern_response","1282.5999999940395","stim/no_20_1_w.png","j","pattern_06","j","true","","","","1282.5999999940395","true","46","","","","","","","","","","","","","","","","",""
"","","","","","html-keyboard-response","240","1098831","0.0-3.0-7.0-0.8","5a98b39b89de8200013ef94f","C3","batch3","pattern_show_trial_num","null","<p class=block-text>Trial 48 out of 78</p>","null","","","","","","","","","","","","","","","","","","","","","","","","","",""
"","","","","","image-keyboard-response","241","1099687","0.0-3.0-7.0-1.8","5a98b39b89de8200013ef94f","C3","batch3","pattern_response","856","stim/yes_22_ver_w1.png","f","pattern_47","f","true","","","","856","true","47","","","","","","","","","","","","","","","","",""
"","","","","","html-keyboard-response","242","1101005","0.0-3.0-7.0-0.9","5a98b39b89de8200013ef94f","C3","batch3","pattern_show_trial_num","null","<p class=block-text>Trial 49 out of 78</p>","null","","","","","","","","","","","","","","","","","","","","","","","","","",""
"","","","","","image-keyboard-response","243","1105167","0.0-3.0-7.0-1.9","5a98b39b89de8200013ef94f","C3","batch3","pattern_response","4161.5","stim/no_48_1_w.png","j","pattern_28","j","true","","","","4161.5","true","48","","","","","","","","","","","","","","","","",""
"","","","","","html-keyboard-response","244","1106486","0.0-3.0-7.0-0.10","5a98b39b89de8200013ef94f","C3","batch3","pattern_show_trial_num","null","<p class=block-text>Trial 50 out of 78</p>","null","","","","","","","","","","","","","","","","","","","","","","","","","",""
"","","","","","image-keyboard-response","245","1108304","0.0-3.0-7.0-1.10","5a98b39b89de8200013ef94f","C3","batch3","pattern_response","1816.0999999940395","stim/no_26_1_w.png","j","pattern_10","j","true","","","","1816.0999999940395","true","49","","","","","","","","","","","","","","","","",""
"","","","","","html-keyboard-response","246","1109622","0.0-3.0-7.0-0.11","5a98b39b89de8200013ef94f","C3","batch3","pattern_show_trial_num","null","<p class=block-text>Trial 51 out of 78</p>","null","","","","","","","","","","","","","","","","","","","","","","","","","",""
"","","","","","image-keyboard-response","247","1116552","0.0-3.0-7.0-1.11","5a98b39b89de8200013ef94f","C3","batch3","pattern_response","6928.9000000059605","stim/no_62_1_w.png","j","pattern_36","j","true","","","","6928.9000000059605","true","50","","","","","","","","","","","","","","","","",""
"","","","","","html-keyboard-response","248","1117871","0.0-3.0-7.0-0.12","5a98b39b89de8200013ef94f","C3","batch3","pattern_show_trial_num","null","<p class=block-text>Trial 52 out of 78</p>","null","","","","","","","","","","","","","","","","","","","","","","","","","",""
"","","","","","image-keyboard-response","249","1119600","0.0-3.0-7.0-1.12","5a98b39b89de8200013ef94f","C3","batch3","pattern_response","1728.0999999940395","stim/yes_45_hor_b2_b.png","f","pattern_67","f","true","","","","1728.0999999940395","true","51","","","","","","","","","","","","","","","","",""
"","","","","","html-keyboard-response","250","1120915","0.0-3.0-7.0-0.13","5a98b39b89de8200013ef94f","C3","batch3","pattern_show_trial_num","null","<p class=block-text>Trial 53 out of 78</p>","null","","","","","","","","","","","","","","","","","","","","","","","","","",""
"","","","","","image-keyboard-response","251","1125744","0.0-3.0-7.0-1.13","5a98b39b89de8200013ef94f","C3","batch3","pattern_response","4828","stim/yes_50_dia_w1.png","j","pattern_71","f","false","","","","4828","false","51","","","","","","","","","","","","","","","","",""
"","","","","","html-keyboard-response","252","1127059","0.0-3.0-7.0-0.14","5a98b39b89de8200013ef94f","C3","batch3","pattern_show_trial_num","null","<p class=block-text>Trial 54 out of 78</p>","null","","","","","","","","","","","","","","","","","","","","","","","","","",""
"","","","","","image-keyboard-response","253","1129656","0.0-3.0-7.0-1.14","5a98b39b89de8200013ef94f","C3","batch3","pattern_response","2596.4000000059605","stim/yes_31_hor_b1.png","f","pattern_55","f","true","","","","2596.4000000059605","true","52","","","","","","","","","","","","","","","","",""
"","","","","","html-keyboard-response","254","1130970","0.0-3.0-7.0-0.15","5a98b39b89de8200013ef94f","C3","batch3","pattern_show_trial_num","null","<p class=block-text>Trial 55 out of 78</p>","null","","","","","","","","","","","","","","","","","","","","","","","","","",""
"","","","","","image-keyboard-response","255","1133360","0.0-3.0-7.0-1.15","5a98b39b89de8200013ef94f","C3","batch3","pattern_response","2388.5999999940395","stim/yes_17_dia_w1.png","f","pattern_45","f","true","","","","2388.5999999940395","true","53","","","","","","","","","","","","","","","","",""
"","","","","","html-keyboard-response","256","1134680","0.0-3.0-7.0-0.16","5a98b39b89de8200013ef94f","C3","batch3","pattern_show_trial_num","null","<p class=block-text>Trial 56 out of 78</p>","null","","","","","","","","","","","","","","","","","","","","","","","","","",""
"","","","","","image-keyboard-response","257","1136232","0.0-3.0-7.0-1.16","5a98b39b89de8200013ef94f","C3","batch3","pattern_response","1551.699999988079","stim/yes_38_hor_b1_b.png","f","pattern_61","f","true","","","","1551.699999988079","true","54","","","","","","","","","","","","","","","","",""
"","","","","","html-keyboard-response","258","1137552","0.0-3.0-7.0-0.17","5a98b39b89de8200013ef94f","C3","batch3","pattern_show_trial_num","null","<p class=block-text>Trial 57 out of 78</p>","null","","","","","","","","","","","","","","","","","","","","","","","","","",""
"","","","","","image-keyboard-response","259","1141729","0.0-3.0-7.0-1.17","5a98b39b89de8200013ef94f","C3","batch3","pattern_response","4176.100000023842","stim/no_55_1_w.png","j","pattern_34","j","true","","","","4176.100000023842","true","55","","","","","","","","","","","","","","","","",""
"","","","","","html-keyboard-response","260","1143044","0.0-3.0-7.0-0.18","5a98b39b89de8200013ef94f","C3","batch3","pattern_show_trial_num","null","<p class=block-text>Trial 58 out of 78</p>","null","","","","","","","","","","","","","","","","","","","","","","","","","",""
"","","","","","image-keyboard-response","261","1148073","0.0-3.0-7.0-1.18","5a98b39b89de8200013ef94f","C3","batch3","pattern_response","5028.199999988079","stim/yes_52_ver_w1.png","f","pattern_73","f","true","","","","5028.199999988079","true","56","","","","","","","","","","","","","","","","",""
"","","","","","html-keyboard-response","262","1149392","0.0-3.0-7.0-0.19","5a98b39b89de8200013ef94f","C3","batch3","pattern_show_trial_num","null","<p class=block-text>Trial 59 out of 78</p>","null","","","","","","","","","","","","","","","","","","","","","","","","","",""
"","","","","","image-keyboard-response","263","1153257","0.0-3.0-7.0-1.19","5a98b39b89de8200013ef94f","C3","batch3","pattern_response","3864.2000000178814","stim/yes_48_dia_w1_w.png","j","pattern_69","f","false","","","","3864.2000000178814","false","56","","","","","","","","","","","","","","","","",""
"","","","","","html-keyboard-response","264","1154574","0.0-3.0-7.0-0.20","5a98b39b89de8200013ef94f","C3","batch3","pattern_show_trial_num","null","<p class=block-text>Trial 60 out of 78</p>","null","","","","","","","","","","","","","","","","","","","","","","","","","",""
"","","","","","image-keyboard-response","265","1157569","0.0-3.0-7.0-1.20","5a98b39b89de8200013ef94f","C3","batch3","pattern_response","2993.699999988079","stim/no_36_2_w.png","j","pattern_18","j","true","","","","2993.699999988079","true","57","","","","","","","","","","","","","","","","",""
"","","","","","html-keyboard-response","266","1158885","0.0-3.0-7.0-0.21","5a98b39b89de8200013ef94f","C3","batch3","pattern_show_trial_num","null","<p class=block-text>Trial 61 out of 78</p>","null","","","","","","","","","","","","","","","","","","","","","","","","","",""
"","","","","","image-keyboard-response","267","1159865","0.0-3.0-7.0-1.21","5a98b39b89de8200013ef94f","C3","batch3","pattern_response","979.3999999761581","stim/yes_60_ver_b1_b.png","f","pattern_77","f","true","","","","979.3999999761581","true","58","","","","","","","","","","","","","","","","",""
"","","","","","html-keyboard-response","268","1161181","0.0-3.0-7.0-0.22","5a98b39b89de8200013ef94f","C3","batch3","pattern_show_trial_num","null","<p class=block-text>Trial 62 out of 78</p>","null","","","","","","","","","","","","","","","","","","","","","","","","","",""
"","","","","","image-keyboard-response","269","1161897","0.0-3.0-7.0-1.22","5a98b39b89de8200013ef94f","C3","batch3","pattern_response","715.8999999761581","stim/yes_25_hor_b1_b.png","f","pattern_49","f","true","","","","715.8999999761581","true","59","","","","","","","","","","","","","","","","",""
"","","","","","html-keyboard-response","270","1163216","0.0-3.0-7.0-0.23","5a98b39b89de8200013ef94f","C3","batch3","pattern_show_trial_num","null","<p class=block-text>Trial 63 out of 78</p>","null","","","","","","","","","","","","","","","","","","","","","","","","","",""
"","","","","","image-keyboard-response","271","1164161","0.0-3.0-7.0-1.23","5a98b39b89de8200013ef94f","C3","batch3","pattern_response","944.1000000238419","stim/no_23_1.png","j","pattern_08","j","true","","","","944.1000000238419","true","60","","","","","","","","","","","","","","","","",""
"","","","","","html-keyboard-response","272","1165477","0.0-3.0-7.0-0.24","5a98b39b89de8200013ef94f","C3","batch3","pattern_show_trial_num","null","<p class=block-text>Trial 64 out of 78</p>","null","","","","","","","","","","","","","","","","","","","","","","","","","",""
"","","","","","image-keyboard-response","273","1167161","0.0-3.0-7.0-1.24","5a98b39b89de8200013ef94f","C3","batch3","pattern_response","1683.2999999821186","stim/no_32_1_w.png","f","pattern_14","j","false","","","","1683.2999999821186","false","60","","","","","","","","","","","","","","","","",""
"","","","","","html-keyboard-response","274","1168477","0.0-3.0-7.0-0.25","5a98b39b89de8200013ef94f","C3","batch3","pattern_show_trial_num","null","<p class=block-text>Trial 65 out of 78</p>","null","","","","","","","","","","","","","","","","","","","","","","","","","",""
"","","","","","image-keyboard-response","275","1172585","0.0-3.0-7.0-1.25","5a98b39b89de8200013ef94f","C3","batch3","pattern_response","4107.5","stim/no_46_1_b.png","j","pattern_26","j","true","","","","4107.5","true","61","","","","","","","","","","","","","","","","",""
"","","","","","html-keyboard-response","276","1173905","0.0-3.0-7.0-0.26","5a98b39b89de8200013ef94f","C3","batch3","pattern_show_trial_num","null","<p class=block-text>Trial 66 out of 78</p>","null","","","","","","","","","","","","","","","","","","","","","","","","","",""
"","","","","","image-keyboard-response","277","1174865","0.0-3.0-7.0-1.26","5a98b39b89de8200013ef94f","C3","batch3","pattern_response","959.7999999821186","stim/yes_28_ver_b1.png","f","pattern_51","f","true","","","","959.7999999821186","true","62","","","","","","","","","","","","","","","","",""
"","","","","","html-keyboard-response","278","1176183","0.0-3.0-7.0-0.27","5a98b39b89de8200013ef94f","C3","batch3","pattern_show_trial_num","null","<p class=block-text>Trial 67 out of 78</p>","null","","","","","","","","","","","","","","","","","","","","","","","","","",""
"","","","","","image-keyboard-response","279","1177410","0.0-3.0-7.0-1.27","5a98b39b89de8200013ef94f","C3","batch3","pattern_response","1225.699999988079","stim/no_13_2_b.png","j","pattern_02","j","true","","","","1225.699999988079","true","63","","","","","","","","","","","","","","","","",""
"","","","","","html-keyboard-response","280","1178727","0.0-3.0-7.0-0.28","5a98b39b89de8200013ef94f","C3","batch3","pattern_show_trial_num","null","<p class=block-text>Trial 68 out of 78</p>","null","","","","","","","","","","","","","","","","","","","","","","","","","",""
"","","","","","image-keyboard-response","281","1181930","0.0-3.0-7.0-1.28","5a98b39b89de8200013ef94f","C3","batch3","pattern_response","3201.5999999940395","stim/no_38_1_b.png","j","pattern_20","j","true","","","","3201.5999999940395","true","64","","","","","","","","","","","","","","","","",""
"","","","","","html-keyboard-response","282","1183247","0.0-3.0-7.0-0.29","5a98b39b89de8200013ef94f","C3","batch3","pattern_show_trial_num","null","<p class=block-text>Trial 69 out of 78</p>","null","","","","","","","","","","","","","","","","","","","","","","","","","",""
"","","","","","image-keyboard-response","283","1186234","0.0-3.0-7.0-1.29","5a98b39b89de8200013ef94f","C3","batch3","pattern_response","2985.800000011921","stim/no_52_1.png","j","pattern_32","j","true","","","","2985.800000011921","true","65","","","","","","","","","","","","","","","","",""
"","","","","","html-keyboard-response","284","1187553","0.0-3.0-7.0-0.30","5a98b39b89de8200013ef94f","C3","batch3","pattern_show_trial_num","null","<p class=block-text>Trial 70 out of 78</p>","null","","","","","","","","","","","","","","","","","","","","","","","","","",""
"","","","","","image-keyboard-response","285","1188714","0.0-3.0-7.0-1.30","5a98b39b89de8200013ef94f","C3","batch3","pattern_response","1159.7999999821186","stim/yes_35_dia_b1.png","f","pattern_57","f","true","","","","1159.7999999821186","true","66","","","","","","","","","","","","","","","","",""
"","","","","","html-keyboard-response","286","1190030","0.0-3.0-7.0-0.31","5a98b39b89de8200013ef94f","C3","batch3","pattern_show_trial_num","null","<p class=block-text>Trial 71 out of 78</p>","null","","","","","","","","","","","","","","","","","","","","","","","","","",""
"","","","","","image-keyboard-response","287","1192370","0.0-3.0-7.0-1.31","5a98b39b89de8200013ef94f","C3","batch3","pattern_response","2338.7999999821186","stim/no_29_1_b.png","j","pattern_12","j","true","","","","2338.7999999821186","true","67","","","","","","","","","","","","","","","","",""
"","","","","","html-keyboard-response","288","1193688","0.0-3.0-7.0-0.32","5a98b39b89de8200013ef94f","C3","batch3","pattern_show_trial_num","null","<p class=block-text>Trial 72 out of 78</p>","null","","","","","","","","","","","","","","","","","","","","","","","","","",""
"","","","","","image-keyboard-response","289","1194498","0.0-3.0-7.0-1.32","5a98b39b89de8200013ef94f","C3","batch3","pattern_response","809.2999999821186","stim/yes_14_hor_b1_w.png","f","pattern_43","f","true","","","","809.2999999821186","true","68","","","","","","","","","","","","","","","","",""
"","","","","","html-keyboard-response","290","1195814","0.0-3.0-7.0-0.33","5a98b39b89de8200013ef94f","C3","batch3","pattern_show_trial_num","null","<p class=block-text>Trial 73 out of 78</p>","null","","","","","","","","","","","","","","","","","","","","","","","","","",""
"","","","","","image-keyboard-response","291","1197994","0.0-3.0-7.0-1.33","5a98b39b89de8200013ef94f","C3","batch3","pattern_response","2180","stim/no_34_1_b.png","j","pattern_16","j","true","","","","2180","true","69","","","","","","","","","","","","","","","","",""
"","","","","","html-keyboard-response","292","1199310","0.0-3.0-7.0-0.34","5a98b39b89de8200013ef94f","C3","batch3","pattern_show_trial_num","null","<p class=block-text>Trial 74 out of 78</p>","null","","","","","","","","","","","","","","","","","","","","","","","","","",""
"","","","","","image-keyboard-response","293","1200362","0.0-3.0-7.0-1.34","5a98b39b89de8200013ef94f","C3","batch3","pattern_response","1050.7999999821186","stim/yes_67_hor_b1.png","f","pattern_79","f","true","","","","1050.7999999821186","true","70","","","","","","","","","","","","","","","","",""
"","","","","","html-keyboard-response","294","1201682","0.0-3.0-7.0-0.35","5a98b39b89de8200013ef94f","C3","batch3","pattern_show_trial_num","null","<p class=block-text>Trial 75 out of 78</p>","null","","","","","","","","","","","","","","","","","","","","","","","","","",""
"","","","","","image-keyboard-response","295","1202610","0.0-3.0-7.0-1.35","5a98b39b89de8200013ef94f","C3","batch3","pattern_response","928.1000000238419","stim/yes_55_hor_w1_w.png","f","pattern_75","f","true","","","","928.1000000238419","true","71","","","","","","","","","","","","","","","","",""
"","","","","","html-keyboard-response","296","1203930","0.0-3.0-7.0-0.36","5a98b39b89de8200013ef94f","C3","batch3","pattern_show_trial_num","null","<p class=block-text>Trial 76 out of 78</p>","null","","","","","","","","","","","","","","","","","","","","","","","","","",""
"","","","","","image-keyboard-response","297","1207154","0.0-3.0-7.0-1.36","5a98b39b89de8200013ef94f","C3","batch3","pattern_response","3223.7999999821186","stim/yes_40_dia_b1_b.png","j","pattern_63","f","false","","","","3223.7999999821186","false","71","","","","","","","","","","","","","","","","",""
"","","","","","html-keyboard-response","298","1208474","0.0-3.0-7.0-0.37","5a98b39b89de8200013ef94f","C3","batch3","pattern_show_trial_num","null","<p class=block-text>Trial 77 out of 78</p>","null","","","","","","","","","","","","","","","","","","","","","","","","","",""
"","","","","","image-keyboard-response","299","1210323","0.0-3.0-7.0-1.37","5a98b39b89de8200013ef94f","C3","batch3","pattern_response","1848.2000000178814","stim/yes_29_ver_w1.png","j","pattern_53","f","false","","","","1848.2000000178814","false","71","","","","","","","","","","","","","","","","",""
"","","","","","html-keyboard-response","300","1211641","0.0-3.0-7.0-0.38","5a98b39b89de8200013ef94f","C3","batch3","pattern_show_trial_num","null","<p class=block-text>Trial 78 out of 78</p>","null","","","","","","","","","","","","","","","","","","","","","","","","","",""
"","","","","","image-keyboard-response","301","1214259","0.0-3.0-7.0-1.38","5a98b39b89de8200013ef94f","C3","batch3","pattern_response","2616.7999999821186","stim/no_42_1_w.png","j","pattern_22","j","true","","","","2616.7999999821186","true","72","","","","","","","","","","","","","","","","",""
"","","","","","html-button-response","302","1262092","0.0-3.0-8.0","5a98b39b89de8200013ef94f","C3","batch3","","47322.5","<p class = block-text>This concludes the 4-in-a-row detection game.Thank you for your responses!<br>
            You responded correctly on 92% of the trials.<br>
            When you are ready, press ""Continue"" button to continue </p>","0","","","","","","","","","","","","","","","","","","","","","","","","","",""
"true","","","","","fullscreen","303","1264631","0.0-4.0-0.0","5a98b39b89de8200013ef94f","C3","batch3","","","","","","","","","","","","","","","","","","","","","","","","","","","","","",""
"","","","","","instructions","304","1302645","0.0-4.0-1.0-0.0-0.0","5a98b39b89de8200013ef94f","C3","batch3","tol-instructions","38012.10000002384","","","","","","","","[{""page_index"":0,""viewing_time"":9188},{""page_index"":1,""viewing_time"":4080.100000023842},{""page_index"":2,""viewing_time"":2264},{""page_index"":3,""viewing_time"":5583.899999976158},{""page_index"":4,""viewing_time"":5408},{""page_index"":5,""viewing_time"":9016},{""page_index"":6,""viewing_time"":2471.9000000059605}]","","","","","","","","","","","","","","","","","","","",""
"","","","","","html-button-response","305","1303581","0.0-4.0-1.0-1.0-0.0","5a98b39b89de8200013ef94f","C3","batch3","tol_enter_quiz","935.5999999940395","<p class=block-text> Let's answer a few questions <br>","0","","","","","","","","","","","","","","","","","","","","","","","","","",""
"","","","","","html-button-response","306","1307829","0.0-4.0-1.0-1.0-1.0","5a98b39b89de8200013ef94f","C3","batch3","tol_quiz","4247.399999976158","<p class = block-text>True or False: You can only move the ball on top of a peg. <br></p>","0","","","true","","","","","","","","","","","","","","","","","","","","","","",""
"","","","","","html-button-response","307","1309117","0.0-4.0-1.0-1.0-2.0","5a98b39b89de8200013ef94f","C3","batch3","tol_quiz_feedback","1287.3999999761581","<p class = block-text>Correct! You can only move the ball on top of a peg.</p>","0","","","","","","","","","","","","","","","","","","","","","","","","","",""
"","","","","","html-button-response","308","1311885","0.0-4.0-1.0-1.0-3.0","5a98b39b89de8200013ef94f","C3","batch3","tol_quiz","2767.5","<p class = block-text>True or False: You should try to match your board with the target board with fewest moves possible. <br></p>","0","","","true","","","","","","","","","","","","","","","","","","","","","","",""
"","","","","","html-button-response","309","1312589","0.0-4.0-1.0-1.0-4.0","5a98b39b89de8200013ef94f","C3","batch3","tol_quiz_feedback","703.5","<p class = block-text>Correct! </p>","0","","","","","","","","","","","","","","","","","","","","","","","","","",""
"","","","","","html-button-response","310","1314101","0.0-4.0-2.0","5a98b39b89de8200013ef94f","C3","batch3","","1511.5","<p class=block-text> Now that you've understood the game, let's practice a few easier examples before we start!<br> <br>","0","","","","","","","","","","","","","","","","","","","","","","","","","",""
"","","","","","single-stim-button","311","1316014","0.0-4.0-3.0-0.0","5a98b39b89de8200013ef94f","C3","batch3","tol_practice","1912","","","","","","","","","","","","","","tol_peg_2","1912","1912","0","[[1,2,0],[0,0],[0]]","1","[[1,2,0],[0,0],[3]]","practice","1912","","","","","",""
"","","","","","single-stim-button","312","1317357","0.0-4.0-3.0-1.0","5a98b39b89de8200013ef94f","C3","batch3","tol_practice","1343","","","","","","","","","","","","","","tol_peg_3","1343","1343","0","[[1,2,0],[0,0],[3]]","1","[[1,2,0],[0,0],[3]]","practice","1343","","","","","",""
"","","","","","poldrack-single-stim","313","1318365","0.0-4.0-4.0","5a98b39b89de8200013ef94f","C3","batch3","tol_feedback","-1","","","","","true","","","","","","","","","","1000","1000","500","","","","","","-1","none","true","","0",""
"","","","","","single-stim-button","314","1321470","0.0-4.0-5.0-0.0","5a98b39b89de8200013ef94f","C3","batch3","tol_practice","3104","","","","","","","","","","","","","","tol_peg_1","3104","3104","0","[[1,0,0],[3,0],[0]]","2","[[0,0,0],[3,1],[2]]","practice","3104","","","","","",""
"","","","","","single-stim-button","315","1322621","0.0-4.0-5.0-1.0","5a98b39b89de8200013ef94f","C3","batch3","tol_practice","1151","","","","","","","","","","","","","","tol_peg_3","1151","1151","0","[[1,0,0],[3,0],[2]]","2","[[0,0,0],[3,1],[2]]","practice","1151","","","","","",""
"","","","","","single-stim-button","316","1324302","0.0-4.0-5.1-0.1","5a98b39b89de8200013ef94f","C3","batch3","tol_practice","1679","","","","","","","","","","","","","","tol_peg_1","1679","1679","0","[[0,0,0],[3,0],[2]]","3","[[0,0,0],[3,1],[2]]","practice","1679","","","","","",""
"","","","","","single-stim-button","317","1325310","0.0-4.0-5.1-1.1","5a98b39b89de8200013ef94f","C3","batch3","tol_practice","1008","","","","","","","","","","","","","","tol_peg_2","1008","1008","0","[[0,0,0],[3,1],[2]]","3","[[0,0,0],[3,1],[2]]","practice","1008","","","","","",""
"","","","","","poldrack-single-stim","318","1326316","0.0-4.0-6.0","5a98b39b89de8200013ef94f","C3","batch3","tol_feedback","-1","","","","","true","","","","","","","","","","1000","1000","500","","","","","","-1","none","true","","0",""
"","","","","","single-stim-button","319","1329942","0.0-4.0-7.0-0.0","5a98b39b89de8200013ef94f","C3","batch3","tol_practice","3626","","","","","","","","","","","","","","tol_peg_2","3626","3626","0","[[1,2,0],[0,0],[0]]","4","[[1,0,0],[2,0],[3]]","practice","3626","","","","","",""
"","","","","","single-stim-button","320","1330678","0.0-4.0-7.0-1.0","5a98b39b89de8200013ef94f","C3","batch3","tol_practice","736","","","","","","","","","","","","","","tol_peg_3","736","736","0","[[1,2,0],[0,0],[3]]","4","[[1,0,0],[2,0],[3]]","practice","736","","","","","",""
"","","","","","single-stim-button","321","1331726","0.0-4.0-7.1-0.1","5a98b39b89de8200013ef94f","C3","batch3","tol_practice","1048","","","","","","","","","","","","","","tol_peg_1","1048","1048","0","[[1,0,0],[0,0],[3]]","5","[[1,0,0],[2,0],[3]]","practice","1048","","","","","",""
"","","","","","single-stim-button","322","1332486","0.0-4.0-7.1-1.1","5a98b39b89de8200013ef94f","C3","batch3","tol_practice","760","","","","","","","","","","","","","","tol_peg_2","760","760","0","[[1,0,0],[2,0],[3]]","5","[[1,0,0],[2,0],[3]]","practice","760","","","","","",""
"","","","","","poldrack-single-stim","323","1333493","0.0-4.0-8.0","5a98b39b89de8200013ef94f","C3","batch3","tol_feedback","-1","","","","","true","","","","","","","","","","1000","1000","500","","","","","","-1","none","true","","0",""
"","","","","","html-button-response","324","1335470","0.0-4.0-9.0","5a98b39b89de8200013ef94f","C3","batch3","tol_instruction","1976.199999988079","<div class = centerbox><p class = center-block-text>Great job! You are done with practice trials<br>You are about to start official trials.<br> <br> Problem <strong>1</strong> out of 25 problems</p></div>","0","","","","","","","","","","","","","","","","","","","","","","","","","",""
"","","","","","single-stim-button","325","1340230","0.0-4.0-10.0-0.0","5a98b39b89de8200013ef94f","C3","batch3","tol_tohand","3752","","","","","","","","","","","","","","tol_peg_1","3752","3752","0","[[1,0,0],[3,0],[0]]","1","[[1,3,0],[2,0],[0]]","0","0","","","","","","3"
"","","","","","single-stim-button","326","1341446","0.0-4.0-10.0-1.0","5a98b39b89de8200013ef94f","C3","batch3","tol_toboard","1216","","","","","","","","","","","","","","tol_peg_3","1216","1216","0","[[1,0,0],[3,0],[2]]","1","[[1,3,0],[2,0],[0]]","0","0","","","","","","3"
"","","","","","single-stim-button","327","1342190","0.0-4.0-10.1-0.1","5a98b39b89de8200013ef94f","C3","batch3","tol_tohand","744","","","","","","","","","","","","","","tol_peg_2","744","744","0","[[1,0,0],[0,0],[2]]","2","[[1,3,0],[2,0],[0]]","0","0","","","","","","3"
"","","","","","single-stim-button","328","1343134","0.0-4.0-10.1-1.1","5a98b39b89de8200013ef94f","C3","batch3","tol_toboard","944","","","","","","","","","","","","","","tol_peg_1","944","944","0","[[1,3,0],[0,0],[2]]","2","[[1,3,0],[2,0],[0]]","0","0","","","","","","3"
"","","","","","single-stim-button","329","1343894","0.0-4.0-10.2-0.2","5a98b39b89de8200013ef94f","C3","batch3","tol_tohand","760","","","","","","","","","","","","","","tol_peg_3","760","760","0","[[1,3,0],[0,0],[0]]","3","[[1,3,0],[2,0],[0]]","0","0","","","","","","3"
"","","","","","single-stim-button","330","1344822","0.0-4.0-10.2-1.2","5a98b39b89de8200013ef94f","C3","batch3","tol_toboard","928","","","","","","","","","","","","","","tol_peg_2","928","928","0","[[1,3,0],[2,0],[0]]","3","[[1,3,0],[2,0],[0]]","0","0","","","","","","3"
"","","","","","poldrack-single-stim","331","1345826","0.0-4.0-11.0","5a98b39b89de8200013ef94f","C3","batch3","tol_feedback","-1","","","","","true","","","","","","","","","","1000","1000","500","","","","","","-1","none","true","3752","5256",""
"","","","","","html-button-response","332","1346838","0.0-4.0-12.0","5a98b39b89de8200013ef94f","C3","batch3","tol_trial_num","1011.5999999940395","<div class = centerbox><p class = center-block-text>problem <strong>2</strong> out of 25 problems</p></div>","0","","","","","","","","","","","","","","","","","","","","","","","","","",""
"","","","","","single-stim-button","333","1350382","0.0-4.0-13.0-0.0","5a98b39b89de8200013ef94f","C3","batch3","tol_tohand","3543","","","","","","","","","","","","","","tol_peg_1","3543","3543","0","[[1,0,0],[3,0],[0]]","1","[[2,1,3],[0,0],[0]]","1","0","","","","","","5"
"","","","","","single-stim-button","334","1351886","0.0-4.0-13.0-1.0","5a98b39b89de8200013ef94f","C3","batch3","tol_toboard","1503","","","","","","","","","","","","","","tol_peg_3","1503","1503","0","[[1,0,0],[3,0],[2]]","1","[[2,1,3],[0,0],[0]]","1","0","","","","","","5"
"","","","","","single-stim-button","335","1354918","0.0-4.0-13.1-0.1","5a98b39b89de8200013ef94f","C3","batch3","tol_tohand","3031","","","","","","","","","","","","","","tol_peg_3","3031","3031","0","[[1,0,0],[3,0],[0]]","2","[[2,1,3],[0,0],[0]]","1","0","","","","","","5"
"","","","","","single-stim-button","336","1355566","0.0-4.0-13.1-1.1","5a98b39b89de8200013ef94f","C3","batch3","tol_toboard","647","","","","","","","","","","","","","","tol_peg_2","647","647","0","[[1,0,0],[3,2],[0]]","2","[[2,1,3],[0,0],[0]]","1","0","","","","","","5"
"","","","","","single-stim-button","337","1356375","0.0-4.0-13.2-0.2","5a98b39b89de8200013ef94f","C3","batch3","tol_tohand","808","","","","","","","","","","","","","","tol_peg_1","808","808","0","[[0,0,0],[3,2],[0]]","3","[[2,1,3],[0,0],[0]]","1","0","","","","","","5"
"","","","","","single-stim-button","338","1357198","0.0-4.0-13.2-1.2","5a98b39b89de8200013ef94f","C3","batch3","tol_toboard","823","","","","","","","","","","","","","","tol_peg_3","823","823","0","[[0,0,0],[3,2],[1]]","3","[[2,1,3],[0,0],[0]]","1","0","","","","","","5"
"","","","","","single-stim-button","339","1357959","0.0-4.0-13.3-0.3","5a98b39b89de8200013ef94f","C3","batch3","tol_tohand","759","","","","","","","","","","","","","","tol_peg_2","759","759","0","[[0,0,0],[3,0],[1]]","4","[[2,1,3],[0,0],[0]]","1","0","","","","","","5"
"","","","","","single-stim-button","340","1358695","0.0-4.0-13.3-1.3","5a98b39b89de8200013ef94f","C3","batch3","tol_toboard","736","","","","","","","","","","","","","","tol_peg_1","736","736","0","[[2,0,0],[3,0],[1]]","4","[[2,1,3],[0,0],[0]]","1","0","","","","","","5"
"","","","","","single-stim-button","341","1359878","0.0-4.0-13.4-0.4","5a98b39b89de8200013ef94f","C3","batch3","tol_tohand","1183","","","","","","","","","","","","","","tol_peg_3","1183","1183","0","[[2,0,0],[3,0],[0]]","5","[[2,1,3],[0,0],[0]]","1","0","","","","","","5"
"","","","","","single-stim-button","342","1360743","0.0-4.0-13.4-1.4","5a98b39b89de8200013ef94f","C3","batch3","tol_toboard","864","","","","","","","","","","","","","","tol_peg_1","864","864","0","[[2,1,0],[3,0],[0]]","5","[[2,1,3],[0,0],[0]]","1","0","","","","","","5"
"","","","","","single-stim-button","343","1361390","0.0-4.0-13.5-0.5","5a98b39b89de8200013ef94f","C3","batch3","tol_tohand","647","","","","","","","","","","","","","","tol_peg_2","647","647","0","[[2,1,0],[0,0],[0]]","6","[[2,1,3],[0,0],[0]]","1","0","","","","","","5"
"","","","","","single-stim-button","344","1362015","0.0-4.0-13.5-1.5","5a98b39b89de8200013ef94f","C3","batch3","tol_toboard","624","","","","","","","","","","","","","","tol_peg_1","624","624","0","[[2,1,3],[0,0],[0]]","6","[[2,1,3],[0,0],[0]]","1","0","","","","","","5"
"","","","","","poldrack-single-stim","345","1363019","0.0-4.0-14.0","5a98b39b89de8200013ef94f","C3","batch3","tol_feedback","-1","","","","","true","","","","","","","","","","1000","1000","500","","","","","","-1","none","true","3543","9971",""
"","","","","","html-button-response","346","1364911","0.0-4.0-15.0","5a98b39b89de8200013ef94f","C3","batch3","tol_trial_num","1891.3999999761581","<div class = centerbox><p class = center-block-text>problem <strong>3</strong> out of 25 problems</p></div>","0","","","","","","","","","","","","","","","","","","","","","","","","","",""
"","","","","","single-stim-button","347","1368335","0.0-4.0-16.0-0.0","5a98b39b89de8200013ef94f","C3","batch3","tol_tohand","3424","","","","","","","","","","","","","","tol_peg_1","3424","3424","0","[[2,0,0],[0,0],[1]]","1","[[1,2,0],[3,0],[0]]","2","0","","","","","","4"
