"success","timeout","failed_images","failed_audio","failed_video","trial_type","trial_index","time_elapsed","internal_node_id","subject_id","study_id","session_id","task","rt","stimulus","response","item","answer","correct","spm_correct","spm_rt","view_history","mouse_click","stim_duration","block_duration","timing_post_trial","current_position","tol_num_moves_made","tol_target","tol_problem_id","tol_rt","key_press","possible_responses","tol_correct","preplanning","tol_rt_per_trial","tol_min_moves","fiar_detect_rt","fiar_detect_correct","total_correct_fiar_detect","post_trial_gap","choices"
"true","false","[]","[]","[]","preload","0","1685","0.0-0.0","5a99003d777df200015ff521","B2","batch2","","","","","","","","","","","","","","","","","","","","","","","","","","","","","",""
"true","","","","","fullscreen","1","92038","0.0-1.0-0.0","5a99003d777df200015ff521","B2","batch2","","","","","","","","","","","","","","","","","","","","","","","","","","","","","",""
"true","","","","","fullscreen","2","97103","0.0-2.0-0.0","5a99003d777df200015ff521","B2","batch2","spm_fullscreen","","","","","","","","","","","","","","","","","","","","","","","","","","","","",""
"","","","","","html-button-response","3","154468","0.0-2.0-1.0","5a99003d777df200015ff521","B2","batch2","","57358.39999999998","<p class = block-text><b>Instructions</b> <br>This is a widely used intelligence test in research. <br>In this test, a figure with a missing piece will be presented.<br>Below the figure are alternative pieces to complete the figure, only one of which is correct.<br> Different figures might involve different principles for obtaining the missing piece<br>Your job is to select the most logical piece to complete the figure.</p>","0","","","","","","","","","","","","","","","","","","","","","","","","","",""
"","","","","","html-keyboard-response","4","155280","0.0-2.0-2.0-0.0","5a99003d777df200015ff521","B2","batch2","spm_show_trial_num","null","<p class=block-text>Trial 1 out of 60</p>","null","","","","","","","","","","","","","","","","","","","","","","","","","",""
"","","","","","image-button-response","5","168240","0.0-2.0-2.0-1.0","5a99003d777df200015ff521","B2","batch2","spm_respsonse","12928.700000000012","img/question_1_1.jpeg","3","mat_01","4","1","1","12928.700000000012","","","","","","","","","","","","","","","","","","","","",""
"","","","","","html-keyboard-response","6","169303","0.0-2.0-2.0-0.1","5a99003d777df200015ff521","B2","batch2","spm_show_trial_num","null","<p class=block-text>Trial 2 out of 60</p>","null","","","","","","","","","","","","","","","","","","","","","","","","","",""
"","","","","","image-button-response","7","174620","0.0-2.0-2.0-1.1","5a99003d777df200015ff521","B2","batch2","spm_respsonse","5308.700000000012","img/question_1_2.jpeg","4","mat_02","5","1","1","5308.700000000012","","","","","","","","","","","","","","","","","","","","",""
"","","","","","html-keyboard-response","8","175687","0.0-2.0-2.0-0.2","5a99003d777df200015ff521","B2","batch2","spm_show_trial_num","null","<p class=block-text>Trial 3 out of 60</p>","null","","","","","","","","","","","","","","","","","","","","","","","","","",""
"","","","","","image-button-response","9","181203","0.0-2.0-2.0-1.2","5a99003d777df200015ff521","B2","batch2","spm_respsonse","5506.700000000012","img/question_1_3.jpeg","0","mat_03","1","1","1","5506.700000000012","","","","","","","","","","","","","","","","","","","","",""
"","","","","","html-keyboard-response","10","182263","0.0-2.0-2.0-0.3","5a99003d777df200015ff521","B2","batch2","spm_show_trial_num","null","<p class=block-text>Trial 4 out of 60</p>","null","","","","","","","","","","","","","","","","","","","","","","","","","",""
"","","","","","image-button-response","11","187260","0.0-2.0-2.0-1.3","5a99003d777df200015ff521","B2","batch2","spm_respsonse","4988.900000000023","img/question_1_4.jpeg","1","mat_04","2","1","1","4988.900000000023","","","","","","","","","","","","","","","","","","","","",""
"","","","","","html-keyboard-response","12","188327","0.0-2.0-2.0-0.4","5a99003d777df200015ff521","B2","batch2","spm_show_trial_num","null","<p class=block-text>Trial 5 out of 60</p>","null","","","","","","","","","","","","","","","","","","","","","","","","","",""
"","","","","","image-button-response","13","193697","0.0-2.0-2.0-1.4","5a99003d777df200015ff521","B2","batch2","spm_respsonse","5361.600000000035","img/question_1_5.jpeg","5","mat_05","6","1","1","5361.600000000035","","","","","","","","","","","","","","","","","","","","",""
"","","","","","html-keyboard-response","14","194759","0.0-2.0-2.0-0.5","5a99003d777df200015ff521","B2","batch2","spm_show_trial_num","null","<p class=block-text>Trial 6 out of 60</p>","null","","","","","","","","","","","","","","","","","","","","","","","","","",""
"","","","","","image-button-response","15","198406","0.0-2.0-2.0-1.5","5a99003d777df200015ff521","B2","batch2","spm_respsonse","3639.5","img/question_1_6.jpeg","2","mat_06","3","1","1","3639.5","","","","","","","","","","","","","","","","","","","","",""
"","","","","","html-keyboard-response","16","199471","0.0-2.0-2.0-0.6","5a99003d777df200015ff521","B2","batch2","spm_show_trial_num","null","<p class=block-text>Trial 7 out of 60</p>","null","","","","","","","","","","","","","","","","","","","","","","","","","",""
"","","","","","image-button-response","17","207285","0.0-2.0-2.0-1.6","5a99003d777df200015ff521","B2","batch2","spm_respsonse","7804.600000000035","img/question_1_7.jpeg","5","mat_07","6","1","1","7804.600000000035","","","","","","","","","","","","","","","","","","","","",""
"","","","","","html-keyboard-response","18","208351","0.0-2.0-2.0-0.7","5a99003d777df200015ff521","B2","batch2","spm_show_trial_num","null","<p class=block-text>Trial 8 out of 60</p>","null","","","","","","","","","","","","","","","","","","","","","","","","","",""
"","","","","","image-button-response","19","217946","0.0-2.0-2.0-1.7","5a99003d777df200015ff521","B2","batch2","spm_respsonse","9586","img/question_1_8.jpeg","1","mat_08","2","1","1","9586","","","","","","","","","","","","","","","","","","","","",""
"","","","","","html-keyboard-response","20","219007","0.0-2.0-2.0-0.8","5a99003d777df200015ff521","B2","batch2","spm_show_trial_num","null","<p class=block-text>Trial 9 out of 60</p>","null","","","","","","","","","","","","","","","","","","","","","","","","","",""
"","","","","","image-button-response","21","222806","0.0-2.0-2.0-1.8","5a99003d777df200015ff521","B2","batch2","spm_respsonse","3790.4000000000233","img/question_1_9.jpeg","0","mat_09","1","1","1","3790.4000000000233","","","","","","","","","","","","","","","","","","","","",""
"","","","","","html-keyboard-response","22","223871","0.0-2.0-2.0-0.9","5a99003d777df200015ff521","B2","batch2","spm_show_trial_num","null","<p class=block-text>Trial 10 out of 60</p>","null","","","","","","","","","","","","","","","","","","","","","","","","","",""
"","","","","","image-button-response","23","239172","0.0-2.0-2.0-1.9","5a99003d777df200015ff521","B2","batch2","spm_respsonse","15292.400000000023","img/question_1_10.jpeg","2","mat_10","3","1","1","15292.400000000023","","","","","","","","","","","","","","","","","","","","",""
"","","","","","html-keyboard-response","24","240239","0.0-2.0-2.0-0.10","5a99003d777df200015ff521","B2","batch2","spm_show_trial_num","null","<p class=block-text>Trial 11 out of 60</p>","null","","","","","","","","","","","","","","","","","","","","","","","","","",""
"","","","","","image-button-response","25","249714","0.0-2.0-2.0-1.10","5a99003d777df200015ff521","B2","batch2","spm_respsonse","9466.699999999953","img/question_1_11.jpeg","3","mat_11","4","1","1","9466.699999999953","","","","","","","","","","","","","","","","","","","","",""
"","","","","","html-keyboard-response","26","250775","0.0-2.0-2.0-0.11","5a99003d777df200015ff521","B2","batch2","spm_show_trial_num","null","<p class=block-text>Trial 12 out of 60</p>","null","","","","","","","","","","","","","","","","","","","","","","","","","",""
"","","","","","image-button-response","27","285160","0.0-2.0-2.0-1.11","5a99003d777df200015ff521","B2","batch2","spm_respsonse","34375.100000000035","img/question_1_12.jpeg","4","mat_12","5","1","1","34375.100000000035","","","","","","","","","","","","","","","","","","","","",""
"","","","","","html-keyboard-response","28","286223","0.0-2.0-2.0-0.12","5a99003d777df200015ff521","B2","batch2","spm_show_trial_num","null","<p class=block-text>Trial 13 out of 60</p>","null","","","","","","","","","","","","","","","","","","","","","","","","","",""
"","","","","","image-button-response","29","291497","0.0-2.0-2.0-1.12","5a99003d777df200015ff521","B2","batch2","spm_respsonse","5265.400000000023","img/question_2_1.jpeg","1","mat_13","2","1","1","5265.400000000023","","","","","","","","","","","","","","","","","","","","",""
"","","","","","html-keyboard-response","30","292559","0.0-2.0-2.0-0.13","5a99003d777df200015ff521","B2","batch2","spm_show_trial_num","null","<p class=block-text>Trial 14 out of 60</p>","null","","","","","","","","","","","","","","","","","","","","","","","","","",""
"","","","","","image-button-response","31","317405","0.0-2.0-2.0-1.13","5a99003d777df200015ff521","B2","batch2","spm_respsonse","24836.599999999977","img/question_2_2.jpeg","5","mat_14","6","1","1","24836.599999999977","","","","","","","","","","","","","","","","","","","","",""
"","","","","","html-keyboard-response","32","318471","0.0-2.0-2.0-0.14","5a99003d777df200015ff521","B2","batch2","spm_show_trial_num","null","<p class=block-text>Trial 15 out of 60</p>","null","","","","","","","","","","","","","","","","","","","","","","","","","",""
"","","","","","image-button-response","33","321602","0.0-2.0-2.0-1.14","5a99003d777df200015ff521","B2","batch2","spm_respsonse","3122.7000000000116","img/question_2_3.jpeg","0","mat_15","1","1","1","3122.7000000000116","","","","","","","","","","","","","","","","","","","","",""
"","","","","","html-keyboard-response","34","322663","0.0-2.0-2.0-0.15","5a99003d777df200015ff521","B2","batch2","spm_show_trial_num","null","<p class=block-text>Trial 16 out of 60</p>","null","","","","","","","","","","","","","","","","","","","","","","","","","",""
"","","","","","image-button-response","35","335194","0.0-2.0-2.0-1.15","5a99003d777df200015ff521","B2","batch2","spm_respsonse","12522.299999999988","img/question_2_4.jpeg","1","mat_16","2","1","1","12522.299999999988","","","","","","","","","","","","","","","","","","","","",""
"","","","","","html-keyboard-response","36","336254","0.0-2.0-2.0-0.16","5a99003d777df200015ff521","B2","batch2","spm_show_trial_num","null","<p class=block-text>Trial 17 out of 60</p>","null","","","","","","","","","","","","","","","","","","","","","","","","","",""
"","","","","","image-button-response","37","342962","0.0-2.0-2.0-1.16","5a99003d777df200015ff521","B2","batch2","spm_respsonse","6702.700000000012","img/question_2_5.jpeg","0","mat_17","1","1","1","6702.700000000012","","","","","","","","","","","","","","","","","","","","",""
"","","","","","html-keyboard-response","38","344023","0.0-2.0-2.0-0.17","5a99003d777df200015ff521","B2","batch2","spm_show_trial_num","null","<p class=block-text>Trial 18 out of 60</p>","null","","","","","","","","","","","","","","","","","","","","","","","","","",""
"","","","","","image-button-response","39","348924","0.0-2.0-2.0-1.17","5a99003d777df200015ff521","B2","batch2","spm_respsonse","4892.900000000023","img/question_2_6.jpeg","2","mat_18","3","1","1","4892.900000000023","","","","","","","","","","","","","","","","","","","","",""
"","","","","","html-keyboard-response","40","349991","0.0-2.0-2.0-0.18","5a99003d777df200015ff521","B2","batch2","spm_show_trial_num","null","<p class=block-text>Trial 19 out of 60</p>","null","","","","","","","","","","","","","","","","","","","","","","","","","",""
"","","","","","image-button-response","41","373535","0.0-2.0-2.0-1.18","5a99003d777df200015ff521","B2","batch2","spm_respsonse","23535.5","img/question_2_7.jpeg","4","mat_19","5","1","1","23535.5","","","","","","","","","","","","","","","","","","","","",""
"","","","","","html-keyboard-response","42","374599","0.0-2.0-2.0-0.19","5a99003d777df200015ff521","B2","batch2","spm_show_trial_num","null","<p class=block-text>Trial 20 out of 60</p>","null","","","","","","","","","","","","","","","","","","","","","","","","","",""
"","","","","","image-button-response","43","388750","0.0-2.0-2.0-1.19","5a99003d777df200015ff521","B2","batch2","spm_respsonse","14142.299999999988","img/question_2_8.jpeg","5","mat_20","6","1","1","14142.299999999988","","","","","","","","","","","","","","","","","","","","",""
"","","","","","html-keyboard-response","44","389815","0.0-2.0-2.0-0.20","5a99003d777df200015ff521","B2","batch2","spm_show_trial_num","null","<p class=block-text>Trial 21 out of 60</p>","null","","","","","","","","","","","","","","","","","","","","","","","","","",""
"","","","","","image-button-response","45","394159","0.0-2.0-2.0-1.20","5a99003d777df200015ff521","B2","batch2","spm_respsonse","4336.200000000012","img/question_2_9.jpeg","3","mat_21","4","1","1","4336.200000000012","","","","","","","","","","","","","","","","","","","","",""
"","","","","","html-keyboard-response","46","395223","0.0-2.0-2.0-0.21","5a99003d777df200015ff521","B2","batch2","spm_show_trial_num","null","<p class=block-text>Trial 22 out of 60</p>","null","","","","","","","","","","","","","","","","","","","","","","","","","",""
"","","","","","image-button-response","47","400686","0.0-2.0-2.0-1.21","5a99003d777df200015ff521","B2","batch2","spm_respsonse","5454.900000000023","img/question_2_10.jpeg","2","mat_22","3","1","1","5454.900000000023","","","","","","","","","","","","","","","","","","","","",""
"","","","","","html-keyboard-response","48","401751","0.0-2.0-2.0-0.22","5a99003d777df200015ff521","B2","batch2","spm_show_trial_num","null","<p class=block-text>Trial 23 out of 60</p>","null","","","","","","","","","","","","","","","","","","","","","","","","","",""
"","","","","","image-button-response","49","407412","0.0-2.0-2.0-1.22","5a99003d777df200015ff521","B2","batch2","spm_respsonse","5652.299999999988","img/question_2_11.jpeg","3","mat_23","4","1","1","5652.299999999988","","","","","","","","","","","","","","","","","","","","",""
"","","","","","html-keyboard-response","50","408479","0.0-2.0-2.0-0.23","5a99003d777df200015ff521","B2","batch2","spm_show_trial_num","null","<p class=block-text>Trial 24 out of 60</p>","null","","","","","","","","","","","","","","","","","","","","","","","","","",""
"","","","","","image-button-response","51","429300","0.0-2.0-2.0-1.23","5a99003d777df200015ff521","B2","batch2","spm_respsonse","20813.300000000047","img/question_2_12.jpeg","5","mat_24","5","0","0","20813.300000000047","","","","","","","","","","","","","","","","","","","","",""
"","","","","","html-button-response","52","432143","0.0-2.0-3.0","5a99003d777df200015ff521","B2","batch2","attention_check","2578.9000000000233","<p class = block-text>Attention check: Please choose 1<br></p>","0","","","true","","","","","","","","","","","","","","","","","","","","","","",""
"","","","","","html-keyboard-response","53","432951","0.0-2.0-4.0-0.0","5a99003d777df200015ff521","B2","batch2","spm_show_trial_num","null","<p class=block-text>Trial 25 out of 60</p>","null","","","","","","","","","","","","","","","","","","","","","","","","","",""
"","","","","","image-button-response","54","444803","0.0-2.0-4.0-1.0","5a99003d777df200015ff521","B2","batch2","spm_respsonse","11842.399999999965","img/question_3_1.jpeg","7","mat_25","8","1","1","11842.399999999965","","","","","","","","","","","","","","","","","","","","",""
"","","","","","html-keyboard-response","55","445871","0.0-2.0-4.0-0.1","5a99003d777df200015ff521","B2","batch2","spm_show_trial_num","null","<p class=block-text>Trial 26 out of 60</p>","null","","","","","","","","","","","","","","","","","","","","","","","","","",""
"","","","","","image-button-response","56","471830","0.0-2.0-4.0-1.1","5a99003d777df200015ff521","B2","batch2","spm_respsonse","25949.899999999965","img/question_3_2.jpeg","1","mat_26","2","1","1","25949.899999999965","","","","","","","","","","","","","","","","","","","","",""
"","","","","","html-keyboard-response","57","472895","0.0-2.0-4.0-0.2","5a99003d777df200015ff521","B2","batch2","spm_show_trial_num","null","<p class=block-text>Trial 27 out of 60</p>","null","","","","","","","","","","","","","","","","","","","","","","","","","",""
"","","","","","image-button-response","58","493173","0.0-2.0-4.0-1.2","5a99003d777df200015ff521","B2","batch2","spm_respsonse","20269.900000000023","img/question_3_3.jpeg","2","mat_27","3","1","1","20269.900000000023","","","","","","","","","","","","","","","","","","","","",""
"","","","","","html-keyboard-response","59","494239","0.0-2.0-4.0-0.3","5a99003d777df200015ff521","B2","batch2","spm_show_trial_num","null","<p class=block-text>Trial 28 out of 60</p>","null","","","","","","","","","","","","","","","","","","","","","","","","","",""
"","","","","","image-button-response","60","528172","0.0-2.0-4.0-1.3","5a99003d777df200015ff521","B2","batch2","spm_respsonse","33924.300000000105","img/question_3_4.jpeg","7","mat_28","8","1","1","33924.300000000105","","","","","","","","","","","","","","","","","","","","",""
"","","","","","html-keyboard-response","61","529239","0.0-2.0-4.0-0.4","5a99003d777df200015ff521","B2","batch2","spm_show_trial_num","null","<p class=block-text>Trial 29 out of 60</p>","null","","","","","","","","","","","","","","","","","","","","","","","","","",""
"","","","","","image-button-response","62","553184","0.0-2.0-4.0-1.4","5a99003d777df200015ff521","B2","batch2","spm_respsonse","23936","img/question_3_5.jpeg","6","mat_29","7","1","1","23936","","","","","","","","","","","","","","","","","","","","",""
"","","","","","html-keyboard-response","63","554247","0.0-2.0-4.0-0.5","5a99003d777df200015ff521","B2","batch2","spm_show_trial_num","null","<p class=block-text>Trial 30 out of 60</p>","null","","","","","","","","","","","","","","","","","","","","","","","","","",""
"","","","","","image-button-response","64","559588","0.0-2.0-4.0-1.5","5a99003d777df200015ff521","B2","batch2","spm_respsonse","5332.400000000023","img/question_3_6.jpeg","3","mat_30","4","1","1","5332.400000000023","","","","","","","","","","","","","","","","","","","","",""
"","","","","","html-keyboard-response","65","560654","0.0-2.0-4.0-0.6","5a99003d777df200015ff521","B2","batch2","spm_show_trial_num","null","<p class=block-text>Trial 31 out of 60</p>","null","","","","","","","","","","","","","","","","","","","","","","","","","",""
"","","","","","image-button-response","66","574302","0.0-2.0-4.0-1.6","5a99003d777df200015ff521","B2","batch2","spm_respsonse","13639.400000000023","img/question_3_7.jpeg","5","mat_31","5","0","0","13639.400000000023","","","","","","","","","","","","","","","","","","","","",""
"","","","","","html-keyboard-response","67","575367","0.0-2.0-4.0-0.7","5a99003d777df200015ff521","B2","batch2","spm_show_trial_num","null","<p class=block-text>Trial 32 out of 60</p>","null","","","","","","","","","","","","","","","","","","","","","","","","","",""
"","","","","","image-button-response","68","640963","0.0-2.0-4.0-1.7","5a99003d777df200015ff521","B2","batch2","spm_respsonse","65588","img/question_3_8.jpeg","0","mat_32","1","1","1","65588","","","","","","","","","","","","","","","","","","","","",""
"","","","","","html-keyboard-response","69","642023","0.0-2.0-4.0-0.8","5a99003d777df200015ff521","B2","batch2","spm_show_trial_num","null","<p class=block-text>Trial 33 out of 60</p>","null","","","","","","","","","","","","","","","","","","","","","","","","","",""
"","","","","","image-button-response","70","689120","0.0-2.0-4.0-1.8","5a99003d777df200015ff521","B2","batch2","spm_respsonse","47089.19999999995","img/question_3_9.jpeg","0","mat_33","7","0","0","47089.19999999995","","","","","","","","","","","","","","","","","","","","",""
"","","","","","html-keyboard-response","71","690183","0.0-2.0-4.0-0.9","5a99003d777df200015ff521","B2","batch2","spm_show_trial_num","null","<p class=block-text>Trial 34 out of 60</p>","null","","","","","","","","","","","","","","","","","","","","","","","","","",""
"","","","","","image-button-response","72","772530","0.0-2.0-4.0-1.9","5a99003d777df200015ff521","B2","batch2","spm_respsonse","82337.5","img/question_3_10.jpeg","7","mat_34","6","0","0","82337.5","","","","","","","","","","","","","","","","","","","","",""
"","","","","","html-keyboard-response","73","773591","0.0-2.0-4.0-0.10","5a99003d777df200015ff521","B2","batch2","spm_show_trial_num","null","<p class=block-text>Trial 35 out of 60</p>","null","","","","","","","","","","","","","","","","","","","","","","","","","",""
"","","","","","image-button-response","74","840991","0.0-2.0-4.0-1.10","5a99003d777df200015ff521","B2","batch2","spm_respsonse","67391.40000000002","img/question_3_11.jpeg","0","mat_35","1","1","1","67391.40000000002","","","","","","","","","","","","","","","","","","","","",""
"","","","","","html-keyboard-response","75","842055","0.0-2.0-4.0-0.11","5a99003d777df200015ff521","B2","batch2","spm_show_trial_num","null","<p class=block-text>Trial 36 out of 60</p>","null","","","","","","","","","","","","","","","","","","","","","","","","","",""
"","","","","","image-button-response","76","858908","0.0-2.0-4.0-1.11","5a99003d777df200015ff521","B2","batch2","spm_respsonse","16845.29999999993","img/question_3_12.jpeg","3","mat_36","2","0","0","16845.29999999993","","","","","","","","","","","","","","","","","","","","",""
"","","","","","html-keyboard-response","77","859972","0.0-2.0-4.0-0.12","5a99003d777df200015ff521","B2","batch2","spm_show_trial_num","null","<p class=block-text>Trial 37 out of 60</p>","null","","","","","","","","","","","","","","","","","","","","","","","","","",""
"","","","","","image-button-response","78","873479","0.0-2.0-4.0-1.12","5a99003d777df200015ff521","B2","batch2","spm_respsonse","13498.79999999993","img/question_4_1.jpeg","2","mat_37","3","1","1","13498.79999999993","","","","","","","","","","","","","","","","","","","","",""
"","","","","","html-keyboard-response","79","874543","0.0-2.0-4.0-0.13","5a99003d777df200015ff521","B2","batch2","spm_show_trial_num","null","<p class=block-text>Trial 38 out of 60</p>","null","","","","","","","","","","","","","","","","","","","","","","","","","",""
"","","","","","image-button-response","80","879572","0.0-2.0-4.0-1.13","5a99003d777df200015ff521","B2","batch2","spm_respsonse","5019.400000000023","img/question_4_2.jpeg","3","mat_38","4","1","1","5019.400000000023","","","","","","","","","","","","","","","","","","","","",""
"","","","","","html-keyboard-response","81","880639","0.0-2.0-4.0-0.14","5a99003d777df200015ff521","B2","batch2","spm_show_trial_num","null","<p class=block-text>Trial 39 out of 60</p>","null","","","","","","","","","","","","","","","","","","","","","","","","","",""
"","","","","","image-button-response","82","887441","0.0-2.0-4.0-1.14","5a99003d777df200015ff521","B2","batch2","spm_respsonse","6792.899999999907","img/question_4_3.jpeg","2","mat_39","3","1","1","6792.899999999907","","","","","","","","","","","","","","","","","","","","",""
"","","","","","html-keyboard-response","83","888503","0.0-2.0-4.0-0.15","5a99003d777df200015ff521","B2","batch2","spm_show_trial_num","null","<p class=block-text>Trial 40 out of 60</p>","null","","","","","","","","","","","","","","","","","","","","","","","","","",""
"","","","","","image-button-response","84","897784","0.0-2.0-4.0-1.15","5a99003d777df200015ff521","B2","batch2","spm_respsonse","9270.5","img/question_4_4.jpeg","6","mat_40","7","1","1","9270.5","","","","","","","","","","","","","","","","","","","","",""
"","","","","","html-keyboard-response","85","898847","0.0-2.0-4.0-0.16","5a99003d777df200015ff521","B2","batch2","spm_show_trial_num","null","<p class=block-text>Trial 41 out of 60</p>","null","","","","","","","","","","","","","","","","","","","","","","","","","",""
"","","","","","image-button-response","86","908632","0.0-2.0-4.0-1.16","5a99003d777df200015ff521","B2","batch2","spm_respsonse","9775.5","img/question_4_5.jpeg","7","mat_41","8","1","1","9775.5","","","","","","","","","","","","","","","","","","","","",""
"","","","","","html-keyboard-response","87","909695","0.0-2.0-4.0-0.17","5a99003d777df200015ff521","B2","batch2","spm_show_trial_num","null","<p class=block-text>Trial 42 out of 60</p>","null","","","","","","","","","","","","","","","","","","","","","","","","","",""
"","","","","","image-button-response","88","942194","0.0-2.0-4.0-1.17","5a99003d777df200015ff521","B2","batch2","spm_respsonse","32489.5","img/question_4_6.jpeg","5","mat_42","6","1","1","32489.5","","","","","","","","","","","","","","","","","","","","",""
"","","","","","html-keyboard-response","89","943255","0.0-2.0-4.0-0.18","5a99003d777df200015ff521","B2","batch2","spm_show_trial_num","null","<p class=block-text>Trial 43 out of 60</p>","null","","","","","","","","","","","","","","","","","","","","","","","","","",""
"","","","","","image-button-response","90","1018492","0.0-2.0-4.0-1.18","5a99003d777df200015ff521","B2","batch2","spm_respsonse","75228.40000000014","img/question_4_7.jpeg","4","mat_43","5","1","1","75228.40000000014","","","","","","","","","","","","","","","","","","","","",""
"","","","","","html-keyboard-response","91","1019559","0.0-2.0-4.0-0.19","5a99003d777df200015ff521","B2","batch2","spm_show_trial_num","null","<p class=block-text>Trial 44 out of 60</p>","null","","","","","","","","","","","","","","","","","","","","","","","","","",""
"","","","","","image-button-response","92","1037653","0.0-2.0-4.0-1.19","5a99003d777df200015ff521","B2","batch2","spm_respsonse","18085.5","img/question_4_8.jpeg","3","mat_44","4","1","1","18085.5","","","","","","","","","","","","","","","","","","","","",""
"","","","","","html-keyboard-response","93","1038719","0.0-2.0-4.0-0.20","5a99003d777df200015ff521","B2","batch2","spm_show_trial_num","null","<p class=block-text>Trial 45 out of 60</p>","null","","","","","","","","","","","","","","","","","","","","","","","","","",""
"","","","","","image-button-response","94","1091388","0.0-2.0-4.0-1.20","5a99003d777df200015ff521","B2","batch2","spm_respsonse","52660.60000000009","img/question_4_9.jpeg","0","mat_45","1","1","1","52660.60000000009","","","","","","","","","","","","","","","","","","","","",""
"","","","","","html-keyboard-response","95","1092455","0.0-2.0-4.0-0.21","5a99003d777df200015ff521","B2","batch2","spm_show_trial_num","null","<p class=block-text>Trial 46 out of 60</p>","null","","","","","","","","","","","","","","","","","","","","","","","","","",""
"","","","","","image-button-response","96","1124306","0.0-2.0-4.0-1.21","5a99003d777df200015ff521","B2","batch2","spm_respsonse","31842.5","img/question_4_10.jpeg","1","mat_46","2","1","1","31842.5","","","","","","","","","","","","","","","","","","","","",""
"","","","","","html-keyboard-response","97","1125366","0.0-2.0-4.0-0.22","5a99003d777df200015ff521","B2","batch2","spm_show_trial_num","null","<p class=block-text>Trial 47 out of 60</p>","null","","","","","","","","","","","","","","","","","","","","","","","","","",""
"","","","","","image-button-response","98","1184583","0.0-2.0-4.0-1.22","5a99003d777df200015ff521","B2","batch2","spm_respsonse","59209.09999999986","img/question_4_11.jpeg","4","mat_47","5","1","1","59209.09999999986","","","","","","","","","","","","","","","","","","","","",""
"","","","","","html-keyboard-response","99","1185648","0.0-2.0-4.0-0.23","5a99003d777df200015ff521","B2","batch2","spm_show_trial_num","null","<p class=block-text>Trial 48 out of 60</p>","null","","","","","","","","","","","","","","","","","","","","","","","","","",""
"","","","","","image-button-response","100","1207567","0.0-2.0-4.0-1.23","5a99003d777df200015ff521","B2","batch2","spm_respsonse","21909.300000000047","img/question_4_12.jpeg","7","mat_48","6","0","0","21909.300000000047","","","","","","","","","","","","","","","","","","","","",""
"","","","","","html-keyboard-response","101","1208631","0.0-2.0-4.0-0.24","5a99003d777df200015ff521","B2","batch2","spm_show_trial_num","null","<p class=block-text>Trial 49 out of 60</p>","null","","","","","","","","","","","","","","","","","","","","","","","","","",""
"","","","","","image-button-response","102","1219556","0.0-2.0-4.0-1.24","5a99003d777df200015ff521","B2","batch2","spm_respsonse","10916.699999999953","img/question_5_1.jpeg","6","mat_49","7","1","1","10916.699999999953","","","","","","","","","","","","","","","","","","","","",""
"","","","","","html-keyboard-response","103","1220623","0.0-2.0-4.0-0.25","5a99003d777df200015ff521","B2","batch2","spm_show_trial_num","null","<p class=block-text>Trial 50 out of 60</p>","null","","","","","","","","","","","","","","","","","","","","","","","","","",""
"","","","","","image-button-response","104","1259959","0.0-2.0-4.0-1.25","5a99003d777df200015ff521","B2","batch2","spm_respsonse","39326.5","img/question_5_2.jpeg","5","mat_50","6","1","1","39326.5","","","","","","","","","","","","","","","","","","","","",""
"","","","","","html-keyboard-response","105","1261023","0.0-2.0-4.0-0.26","5a99003d777df200015ff521","B2","batch2","spm_show_trial_num","null","<p class=block-text>Trial 51 out of 60</p>","null","","","","","","","","","","","","","","","","","","","","","","","","","",""
"","","","","","image-button-response","106","1274114","0.0-2.0-4.0-1.26","5a99003d777df200015ff521","B2","batch2","spm_respsonse","13082.699999999953","img/question_5_3.jpeg","7","mat_51","8","1","1","13082.699999999953","","","","","","","","","","","","","","","","","","","","",""
"","","","","","html-keyboard-response","107","1275175","0.0-2.0-4.0-0.27","5a99003d777df200015ff521","B2","batch2","spm_show_trial_num","null","<p class=block-text>Trial 52 out of 60</p>","null","","","","","","","","","","","","","","","","","","","","","","","","","",""
"","","","","","image-button-response","108","1292912","0.0-2.0-4.0-1.27","5a99003d777df200015ff521","B2","batch2","spm_respsonse","17728.300000000047","img/question_5_4.jpeg","2","mat_52","2","0","0","17728.300000000047","","","","","","","","","","","","","","","","","","","","",""
"","","","","","html-keyboard-response","109","1293974","0.0-2.0-4.0-0.28","5a99003d777df200015ff521","B2","batch2","spm_show_trial_num","null","<p class=block-text>Trial 53 out of 60</p>","null","","","","","","","","","","","","","","","","","","","","","","","","","",""
"","","","","","image-button-response","110","1306297","0.0-2.0-4.0-1.28","5a99003d777df200015ff521","B2","batch2","spm_respsonse","12312.600000000093","img/question_5_5.jpeg","0","mat_53","1","1","1","12312.600000000093","","","","","","","","","","","","","","","","","","","","",""
"","","","","","html-keyboard-response","111","1307360","0.0-2.0-4.0-0.29","5a99003d777df200015ff521","B2","batch2","spm_show_trial_num","null","<p class=block-text>Trial 54 out of 60</p>","null","","","","","","","","","","","","","","","","","","","","","","","","","",""
"","","","","","image-button-response","112","1334602","0.0-2.0-4.0-1.29","5a99003d777df200015ff521","B2","batch2","spm_respsonse","27233","img/question_5_6.jpeg","6","mat_54","5","0","0","27233","","","","","","","","","","","","","","","","","","","","",""
"","","","","","html-keyboard-response","113","1335663","0.0-2.0-4.0-0.30","5a99003d777df200015ff521","B2","batch2","spm_show_trial_num","null","<p class=block-text>Trial 55 out of 60</p>","null","","","","","","","","","","","","","","","","","","","","","","","","","",""
"","","","","","image-button-response","114","1391704","0.0-2.0-4.0-1.30","5a99003d777df200015ff521","B2","batch2","spm_respsonse","56032.5","img/question_5_7.jpeg","4","mat_55","1","0","0","56032.5","","","","","","","","","","","","","","","","","","","","",""
"","","","","","html-keyboard-response","115","1392767","0.0-2.0-4.0-0.31","5a99003d777df200015ff521","B2","batch2","spm_show_trial_num","null","<p class=block-text>Trial 56 out of 60</p>","null","","","","","","","","","","","","","","","","","","","","","","","","","",""
"","","","","","image-button-response","116","1400993","0.0-2.0-4.0-1.31","5a99003d777df200015ff521","B2","batch2","spm_respsonse","8217.5","img/question_5_8.jpeg","6","mat_56","6","0","0","8217.5","","","","","","","","","","","","","","","","","","","","",""
"","","","","","html-keyboard-response","117","1402055","0.0-2.0-4.0-0.32","5a99003d777df200015ff521","B2","batch2","spm_show_trial_num","null","<p class=block-text>Trial 57 out of 60</p>","null","","","","","","","","","","","","","","","","","","","","","","","","","",""
"","","","","","image-button-response","118","1418441","0.0-2.0-4.0-1.32","5a99003d777df200015ff521","B2","batch2","spm_respsonse","16377.800000000047","img/question_5_9.jpeg","7","mat_57","3","0","0","16377.800000000047","","","","","","","","","","","","","","","","","","","","",""
"","","","","","html-keyboard-response","119","1419503","0.0-2.0-4.0-0.33","5a99003d777df200015ff521","B2","batch2","spm_show_trial_num","null","<p class=block-text>Trial 58 out of 60</p>","null","","","","","","","","","","","","","","","","","","","","","","","","","",""
"","","","","","image-button-response","120","1463209","0.0-2.0-4.0-1.33","5a99003d777df200015ff521","B2","batch2","spm_respsonse","43696.69999999995","img/question_5_10.jpeg","3","mat_58","2","0","0","43696.69999999995","","","","","","","","","","","","","","","","","","","","",""
"","","","","","html-keyboard-response","121","1464271","0.0-2.0-4.0-0.34","5a99003d777df200015ff521","B2","batch2","spm_show_trial_num","null","<p class=block-text>Trial 59 out of 60</p>","null","","","","","","","","","","","","","","","","","","","","","","","","","",""
"","","","","","image-button-response","122","1472591","0.0-2.0-4.0-1.34","5a99003d777df200015ff521","B2","batch2","spm_respsonse","8311.399999999907","img/question_5_11.jpeg","0","mat_59","4","0","0","8311.399999999907","","","","","","","","","","","","","","","","","","","","",""
"","","","","","html-keyboard-response","123","1473654","0.0-2.0-4.0-0.35","5a99003d777df200015ff521","B2","batch2","spm_show_trial_num","null","<p class=block-text>Trial 60 out of 60</p>","null","","","","","","","","","","","","","","","","","","","","","","","","","",""
"","","","","","image-button-response","124","1509279","0.0-2.0-4.0-1.35","5a99003d777df200015ff521","B2","batch2","spm_respsonse","35619.5","img/question_5_12.jpeg","0","mat_60","5","0","0","35619.5","","","","","","","","","","","","","","","","","","","","",""
"","","","","","html-button-response","125","1512257","0.0-2.0-5.0","5a99003d777df200015ff521","B2","batch2","spm_goodbye","2717.5","<p class= block-text>This concludes the Standard Progressive Matrix game. Thank you for your responses!<br> When you are ready, click the button continue</p>","0","","","","","","","","","","","","","","","","","","","","","","","","","",""
"true","","","","","fullscreen","126","1515263","0.0-3.0-0.0","5a99003d777df200015ff521","B2","batch2","","","","","","","","","","","","","","","","","","","","","","","","","","","","","",""
"","","","","","instructions","127","1555127","0.0-3.0-1.0-0.0-0.0","5a99003d777df200015ff521","B2","batch2","tol-instructions","39861.90000000014","","","","","","","","[{""page_index"":0,""viewing_time"":12966.699999999953},{""page_index"":1,""viewing_time"":8749.100000000093},{""page_index"":2,""viewing_time"":5925.199999999953},{""page_index"":3,""viewing_time"":1663.3000000000466},{""page_index"":4,""viewing_time"":6949},{""page_index"":5,""viewing_time"":1745.8000000000466},{""page_index"":6,""viewing_time"":1861.8000000000466}]","","","","","","","","","","","","","","","","","","","",""
"","","","","","html-button-response","128","1556485","0.0-3.0-1.0-1.0-0.0","5a99003d777df200015ff521","B2","batch2","tol_enter_quiz","1353","<p class=block-text> Let's answer a few questions <br>","0","","","","","","","","","","","","","","","","","","","","","","","","","",""
"","","","","","html-button-response","129","1563973","0.0-3.0-1.0-1.0-1.0","5a99003d777df200015ff521","B2","batch2","tol_quiz","7483.09999999986","<p class = block-text>True or False: You can only move the ball on top of a peg. <br></p>","0","","","true","","","","","","","","","","","","","","","","","","","","","","",""
"","","","","","html-button-response","130","1565586","0.0-3.0-1.0-1.0-2.0","5a99003d777df200015ff521","B2","batch2","tol_quiz_feedback","1606","<p class = block-text>Correct! You can only move the ball on top of a peg.</p>","0","","","","","","","","","","","","","","","","","","","","","","","","","",""
"","","","","","html-button-response","131","1568914","0.0-3.0-1.0-1.0-3.0","5a99003d777df200015ff521","B2","batch2","tol_quiz","3323","<p class = block-text>True or False: You should try to match your board with the target board with fewest moves possible. <br></p>","0","","","true","","","","","","","","","","","","","","","","","","","","","","",""
"","","","","","html-button-response","132","1570186","0.0-3.0-1.0-1.0-4.0","5a99003d777df200015ff521","B2","batch2","tol_quiz_feedback","1267.1000000000931","<p class = block-text>Correct! </p>","0","","","","","","","","","","","","","","","","","","","","","","","","","",""
"","","","","","html-button-response","133","1571741","0.0-3.0-2.0","5a99003d777df200015ff521","B2","batch2","","1546.5","<p class=block-text> Now that you've understood the game, let's practice a few easier examples before we start!<br> <br>","0","","","","","","","","","","","","","","","","","","","","","","","","","",""
"","","","","","single-stim-button","134","1574655","0.0-3.0-3.0-0.0","5a99003d777df200015ff521","B2","batch2","tol_practice","2905","","","","","","","","","tol_peg_2","2905","2905","0","[[1,2,0],[0,0],[0]]","1","[[1,2,0],[0,0],[3]]","practice","2905","","","","","","","","","","",""
"","","","","","single-stim-button","135","1576242","0.0-3.0-3.0-1.0","5a99003d777df200015ff521","B2","batch2","tol_practice","1581","","","","","","","","","tol_peg_3","1581","1581","0","[[1,2,0],[0,0],[3]]","1","[[1,2,0],[0,0],[3]]","practice","1581","","","","","","","","","","",""
"","","","","","poldrack-single-stim","136","1577256","0.0-3.0-4.0","5a99003d777df200015ff521","B2","batch2","tol_feedback","-1","","","","","true","","","","","1000","1000","500","","","","","","-1","none","true","","0","","","","","",""
"","","","","","single-stim-button","137","1580290","0.0-3.0-5.0-0.0","5a99003d777df200015ff521","B2","batch2","tol_practice","3030","","","","","","","","","tol_peg_1","3030","3030","0","[[1,0,0],[3,0],[0]]","2","[[0,0,0],[3,1],[2]]","practice","3030","","","","","","","","","","",""
"","","","","","single-stim-button","138","1582115","0.0-3.0-5.0-1.0","5a99003d777df200015ff521","B2","batch2","tol_practice","1821","","","","","","","","","tol_peg_3","1821","1821","0","[[1,0,0],[3,0],[2]]","2","[[0,0,0],[3,1],[2]]","practice","1821","","","","","","","","","","",""
"","","","","","single-stim-button","139","1583177","0.0-3.0-5.1-0.1","5a99003d777df200015ff521","B2","batch2","tol_practice","1059","","","","","","","","","tol_peg_1","1059","1059","0","[[0,0,0],[3,0],[2]]","3","[[0,0,0],[3,1],[2]]","practice","1059","","","","","","","","","","",""
"","","","","","single-stim-button","140","1584220","0.0-3.0-5.1-1.1","5a99003d777df200015ff521","B2","batch2","tol_practice","1039","","","","","","","","","tol_peg_2","1039","1039","0","[[0,0,0],[3,1],[2]]","3","[[0,0,0],[3,1],[2]]","practice","1039","","","","","","","","","","",""
"","","","","","poldrack-single-stim","141","1585231","0.0-3.0-6.0","5a99003d777df200015ff521","B2","batch2","tol_feedback","-1","","","","","true","","","","","1000","1000","500","","","","","","-1","none","true","","0","","","","","",""
"","","","","","single-stim-button","142","1587558","0.0-3.0-7.0-0.0","5a99003d777df200015ff521","B2","batch2","tol_practice","2323","","","","","","","","","tol_peg_2","2323","2323","0","[[1,2,0],[0,0],[0]]","4","[[1,0,0],[2,0],[3]]","practice","2323","","","","","","","","","","",""
"","","","","","single-stim-button","143","1589082","0.0-3.0-7.0-1.0","5a99003d777df200015ff521","B2","batch2","tol_practice","1520","","","","","","","","","tol_peg_3","1520","1520","0","[[1,2,0],[0,0],[3]]","4","[[1,0,0],[2,0],[3]]","practice","1520","","","","","","","","","","",""
"","","","","","single-stim-button","144","1590175","0.0-3.0-7.1-0.1","5a99003d777df200015ff521","B2","batch2","tol_practice","1088","","","","","","","","","tol_peg_1","1088","1088","0","[[1,0,0],[0,0],[3]]","5","[[1,0,0],[2,0],[3]]","practice","1088","","","","","","","","","","",""
"","","","","","single-stim-button","145","1591489","0.0-3.0-7.1-1.1","5a99003d777df200015ff521","B2","batch2","tol_practice","1310","","","","","","","","","tol_peg_2","1310","1310","0","[[1,0,0],[2,0],[3]]","5","[[1,0,0],[2,0],[3]]","practice","1310","","","","","","","","","","",""
"","","","","","poldrack-single-stim","146","1592495","0.0-3.0-8.0","5a99003d777df200015ff521","B2","batch2","tol_feedback","-1","","","","","true","","","","","1000","1000","500","","","","","","-1","none","true","","0","","","","","",""
"","","","","","html-button-response","147","1594586","0.0-3.0-9.0","5a99003d777df200015ff521","B2","batch2","tol_instruction","2087.5","<div class = centerbox><p class = center-block-text>Great job! You are done with practice trials<br>You are about to start official trials.<br> <br> Problem <strong>1</strong> out of 25 problems</p></div>","0","","","","","","","","","","","","","","","","","","","","","","","","","",""
"","","","","","single-stim-button","148","1600933","0.0-3.0-10.0-0.0","5a99003d777df200015ff521","B2","batch2","tol_tohand","5338","","","","","","","","","tol_peg_2","5338","5338","0","[[1,2,0],[0,0],[0]]","1","[[1,3,0],[2,0],[0]]","0","0","","","","","","3","","","","",""
"","","","","","single-stim-button","149","1603600","0.0-3.0-10.0-1.0","5a99003d777df200015ff521","B2","batch2","tol_toboard","2663","","","","","","","","","tol_peg_3","2663","2663","0","[[1,2,0],[0,0],[3]]","1","[[1,3,0],[2,0],[0]]","0","0","","","","","","3","","","","",""
"","","","","","single-stim-button","150","1604624","0.0-3.0-10.1-0.1","5a99003d777df200015ff521","B2","batch2","tol_tohand","1018","","","","","","","","","tol_peg_1","1018","1018","0","[[1,0,0],[0,0],[3]]","2","[[1,3,0],[2,0],[0]]","0","0","","","","","","3","","","","",""
"","","","","","single-stim-button","151","1606428","0.0-3.0-10.1-1.1","5a99003d777df200015ff521","B2","batch2","tol_toboard","1801","","","","","","","","","tol_peg_2","1801","1801","0","[[1,0,0],[2,0],[3]]","2","[[1,3,0],[2,0],[0]]","0","0","","","","","","3","","","","",""
"","","","","","single-stim-button","152","1607842","0.0-3.0-10.2-0.2","5a99003d777df200015ff521","B2","batch2","tol_tohand","1410","","","","","","","","","tol_peg_3","1410","1410","0","[[1,0,0],[2,0],[0]]","3","[[1,3,0],[2,0],[0]]","0","0","","","","","","3","","","","",""
"","","","","","single-stim-button","153","1608908","0.0-3.0-10.2-1.2","5a99003d777df200015ff521","B2","batch2","tol_toboard","1062","","","","","","","","","tol_peg_1","1062","1062","0","[[1,3,0],[2,0],[0]]","3","[[1,3,0],[2,0],[0]]","0","0","","","","","","3","","","","",""
"","","","","","poldrack-single-stim","154","1609920","0.0-3.0-11.0","5a99003d777df200015ff521","B2","batch2","tol_feedback","-1","","","","","true","","","","","1000","1000","500","","","","","","-1","none","true","5338","7766","","","","","",""
"","","","","","html-button-response","155","1611693","0.0-3.0-12.0","5a99003d777df200015ff521","B2","batch2","tol_trial_num","1768.1999999999534","<div class = centerbox><p class = center-block-text>problem <strong>2</strong> out of 25 problems</p></div>","0","","","","","","","","","","","","","","","","","","","","","","","","","",""
"","","","","","single-stim-button","156","1614558","0.0-3.0-13.0-0.0","5a99003d777df200015ff521","B2","batch2","tol_tohand","2860","","","","","","","","","tol_peg_2","2860","2860","0","[[1,2,0],[0,0],[0]]","1","[[2,1,3],[0,0],[0]]","1","0","","","","","","5","","","","",""
"","","","","","single-stim-button","157","1617335","0.0-3.0-13.0-1.0","5a99003d777df200015ff521","B2","batch2","tol_toboard","2773","","","","","","","","","tol_peg_3","2773","2773","0","[[1,2,0],[0,0],[3]]","1","[[2,1,3],[0,0],[0]]","1","0","","","","","","5","","","","",""
"","","","","","single-stim-button","158","1619118","0.0-3.0-13.1-0.1","5a99003d777df200015ff521","B2","batch2","tol_tohand","1777","","","","","","","","","tol_peg_1","1777","1777","0","[[1,0,0],[0,0],[3]]","2","[[2,1,3],[0,0],[0]]","1","0","","","","","","5","","","","",""
"","","","","","single-stim-button","159","1620188","0.0-3.0-13.1-1.1","5a99003d777df200015ff521","B2","batch2","tol_toboard","1067","","","","","","","","","tol_peg_2","1067","1067","0","[[1,0,0],[2,0],[3]]","2","[[2,1,3],[0,0],[0]]","1","0","","","","","","5","","","","",""
"","","","","","single-stim-button","160","1624578","0.0-3.0-13.2-0.2","5a99003d777df200015ff521","B2","batch2","tol_tohand","4386","","","","","","","","","tol_peg_1","4386","4386","0","[[0,0,0],[2,0],[3]]","3","[[2,1,3],[0,0],[0]]","1","0","","","","","","5","","","","",""
"","","","","","single-stim-button","161","1633712","0.0-3.0-13.2-1.2","5a99003d777df200015ff521","B2","batch2","tol_toboard","9130","","","","","","","","","tol_peg_1","9130","9130","0","[[1,0,0],[2,0],[3]]","3","[[2,1,3],[0,0],[0]]","1","0","","","","","","5","","","","",""
"","","","","","single-stim-button","162","1634956","0.0-3.0-13.3-0.3","5a99003d777df200015ff521","B2","batch2","tol_tohand","1239","","","","","","","","","tol_peg_3","1239","1239","0","[[1,0,0],[2,0],[0]]","4","[[2,1,3],[0,0],[0]]","1","0","","","","","","5","","","","",""
"","","","","","single-stim-button","163","1636360","0.0-3.0-13.3-1.3","5a99003d777df200015ff521","B2","batch2","tol_toboard","1400","","","","","","","","","tol_peg_1","1400","1400","0","[[1,3,0],[2,0],[0]]","4","[[2,1,3],[0,0],[0]]","1","0","","","","","","5","","","","",""
"","","","","","single-stim-button","164","1637363","0.0-3.0-13.4-0.4","5a99003d777df200015ff521","B2","batch2","tol_tohand","998","","","","","","","","","tol_peg_2","998","998","0","[[1,3,0],[0,0],[0]]","5","[[2,1,3],[0,0],[0]]","1","0","","","","","","5","","","","",""
"","","","","","single-stim-button","165","1639568","0.0-3.0-13.4-1.4","5a99003d777df200015ff521","B2","batch2","tol_toboard","2202","","","","","","","","","tol_peg_3","2202","2202","0","[[1,3,0],[0,0],[2]]","5","[[2,1,3],[0,0],[0]]","1","0","","","","","","5","","","","",""
"","","","","","single-stim-button","166","1640471","0.0-3.0-13.5-0.5","5a99003d777df200015ff521","B2","batch2","tol_tohand","898","","","","","","","","","tol_peg_1","898","898","0","[[1,0,0],[0,0],[2]]","6","[[2,1,3],[0,0],[0]]","1","0","","","","","","5","","","","",""
"","","","","","single-stim-button","167","1641526","0.0-3.0-13.5-1.5","5a99003d777df200015ff521","B2","batch2","tol_toboard","1051","","","","","","","","","tol_peg_2","1051","1051","0","[[1,0,0],[3,0],[2]]","6","[[2,1,3],[0,0],[0]]","1","0","","","","","","5","","","","",""
"","","","","","single-stim-button","168","1642609","0.0-3.0-13.6-0.6","5a99003d777df200015ff521","B2","batch2","tol_tohand","1078","","","","","","","","","tol_peg_1","1078","1078","0","[[0,0,0],[3,0],[2]]","7","[[2,1,3],[0,0],[0]]","1","0","","","","","","5","","","","",""
"","","","","","single-stim-button","169","1644182","0.0-3.0-13.6-1.6","5a99003d777df200015ff521","B2","batch2","tol_toboard","1569","","","","","","","","","tol_peg_2","1569","1569","0","[[0,0,0],[3,1],[2]]","7","[[2,1,3],[0,0],[0]]","1","0","","","","","","5","","","","",""
"","","","","","single-stim-button","170","1645827","0.0-3.0-13.7-0.7","5a99003d777df200015ff521","B2","batch2","tol_tohand","1640","","","","","","","","","tol_peg_3","1640","1640","0","[[0,0,0],[3,1],[0]]","8","[[2,1,3],[0,0],[0]]","1","0","","","","","","5","","","","",""
"","","","","","single-stim-button","171","1647311","0.0-3.0-13.7-1.7","5a99003d777df200015ff521","B2","batch2","tol_toboard","1481","","","","","","","","","tol_peg_1","1481","1481","0","[[2,0,0],[3,1],[0]]","8","[[2,1,3],[0,0],[0]]","1","0","","","","","","5","","","","",""
"","","","","","single-stim-button","172","1648524","0.0-3.0-13.8-0.8","5a99003d777df200015ff521","B2","batch2","tol_tohand","1209","","","","","","","","","tol_peg_2","1209","1209","0","[[2,0,0],[3,0],[0]]","9","[[2,1,3],[0,0],[0]]","1","0","","","","","","5","","","","",""
"","","","","","single-stim-button","173","1649717","0.0-3.0-13.8-1.8","5a99003d777df200015ff521","B2","batch2","tol_toboard","1189","","","","","","","","","tol_peg_1","1189","1189","0","[[2,1,0],[3,0],[0]]","9","[[2,1,3],[0,0],[0]]","1","0","","","","","","5","","","","",""
"","","","","","single-stim-button","174","1650550","0.0-3.0-13.9-0.9","5a99003d777df200015ff521","B2","batch2","tol_tohand","828","","","","","","","","","tol_peg_2","828","828","0","[[2,1,0],[0,0],[0]]","10","[[2,1,3],[0,0],[0]]","1","0","","","","","","5","","","","",""
"","","","","","single-stim-button","175","1651703","0.0-3.0-13.9-1.9","5a99003d777df200015ff521","B2","batch2","tol_toboard","1150","","","","","","","","","tol_peg_1","1150","1150","0","[[2,1,3],[0,0],[0]]","10","[[2,1,3],[0,0],[0]]","1","0","","","","","","5","","","","",""
"","","","","","poldrack-single-stim","176","1652712","0.0-3.0-14.0","5a99003d777df200015ff521","B2","batch2","tol_feedback","-1","","","","","true","","","","","1000","1000","500","","","","","","-1","none","true","2860","16913","","","","","",""
"","","","","","html-button-response","177","1654441","0.0-3.0-15.0","5a99003d777df200015ff521","B2","batch2","tol_trial_num","1724.6000000000931","<div class = centerbox><p class = center-block-text>problem <strong>3</strong> out of 25 problems</p></div>","0","","","","","","","","","","","","","","","","","","","","","","","","","",""
"","","","","","single-stim-button","178","1657841","0.0-3.0-16.0-0.0","5a99003d777df200015ff521","B2","batch2","tol_tohand","3396","","","","","","","","","tol_peg_1","3396","3396","0","[[2,0,0],[0,0],[1]]","1","[[1,2,0],[3,0],[0]]","2","0","","","","","","4","","","","",""
"","","","","","single-stim-button","179","1659345","0.0-3.0-16.0-1.0","5a99003d777df200015ff521","B2","batch2","tol_toboard","1499","","","","","","","","","tol_peg_2","1499","1499","0","[[2,0,0],[3,0],[1]]","1","[[1,2,0],[3,0],[0]]","2","0","","","","","","4","","","","",""
"","","","","","single-stim-button","180","1660268","0.0-3.0-16.1-0.1","5a99003d777df200015ff521","B2","batch2","tol_tohand","919","","","","","","","","","tol_peg_1","919","919","0","[[0,0,0],[3,0],[1]]","2","[[1,2,0],[3,0],[0]]","2","0","","","","","","4","","","","",""
"","","","","","single-stim-button","181","1661380","0.0-3.0-16.1-1.1","5a99003d777df200015ff521","B2","batch2","tol_toboard","1108","","","","","","","","","tol_peg_2","1108","1108","0","[[0,0,0],[3,2],[1]]","2","[[1,2,0],[3,0],[0]]","2","0","","","","","","4","","","","",""
"","","","","","single-stim-button","182","1662103","0.0-3.0-16.2-0.2","5a99003d777df200015ff521","B2","batch2","tol_tohand","719","","","","","","","","","tol_peg_3","719","719","0","[[0,0,0],[3,2],[0]]","3","[[1,2,0],[3,0],[0]]","2","0","","","","","","4","","","","",""
"","","","","","single-stim-button","183","1663409","0.0-3.0-16.2-1.2","5a99003d777df200015ff521","B2","batch2","tol_toboard","1303","","","","","","","","","tol_peg_1","1303","1303","0","[[1,0,0],[3,2],[0]]","3","[[1,2,0],[3,0],[0]]","2","0","","","","","","4","","","","",""
"","","","","","single-stim-button","184","1664730","0.0-3.0-16.3-0.3","5a99003d777df200015ff521","B2","batch2","tol_tohand","1316","","","","","","","","","tol_peg_2","1316","1316","0","[[1,0,0],[3,0],[0]]","4","[[1,2,0],[3,0],[0]]","2","0","","","","","","4","","","","",""
"","","","","","single-stim-button","185","1666124","0.0-3.0-16.3-1.3","5a99003d777df200015ff521","B2","batch2","tol_toboard","1391","","","","","","","","","tol_peg_1","1391","1391","0","[[1,2,0],[3,0],[0]]","4","[[1,2,0],[3,0],[0]]","2","0","","","","","","4","","","","",""
"","","","","","poldrack-single-stim","186","1667135","0.0-3.0-17.0","5a99003d777df200015ff521","B2","batch2","tol_feedback","-1","","","","","true","","","","","1000","1000","500","","","","","","-1","none","true","3396","6350","","","","","",""
"","","","","","html-button-response","187","1668450","0.0-3.0-18.0","5a99003d777df200015ff521","B2","batch2","tol_trial_num","1310.6999999999534","<div class = centerbox><p class = center-block-text>problem <strong>4</strong> out of 25 problems</p></div>","0","","","","","","","","","","","","","","","","","","","","","","","","","",""
"","","","","","single-stim-button","188","1670797","0.0-3.0-19.0-0.0","5a99003d777df200015ff521","B2","batch2","tol_tohand","2342","","","","","","","","","tol_peg_2","2342","2342","0","[[3,0,0],[2,0],[0]]","1","[[3,0,0],[1,0],[2]]","3","0","","","","","","3","","","","",""
"","","","","","single-stim-button","189","1672752","0.0-3.0-19.0-1.0","5a99003d777df200015ff521","B2","batch2","tol_toboard","1951","","","","","","","","","tol_peg_1","1951","1951","0","[[3,1,0],[2,0],[0]]","1","[[3,0,0],[1,0],[2]]","3","0","","","","","","3","","","","",""
"","","","","","single-stim-button","190","1673765","0.0-3.0-19.1-0.1","5a99003d777df200015ff521","B2","batch2","tol_tohand","1009","","","","","","","","","tol_peg_2","1009","1009","0","[[3,1,0],[0,0],[0]]","2","[[3,0,0],[1,0],[2]]","3","0","","","","","","3","","","","",""
"","","","","","single-stim-button","191","1674928","0.0-3.0-19.1-1.1","5a99003d777df200015ff521","B2","batch2","tol_toboard","1159","","","","","","","","","tol_peg_3","1159","1159","0","[[3,1,0],[0,0],[2]]","2","[[3,0,0],[1,0],[2]]","3","0","","","","","","3","","","","",""
"","","","","","single-stim-button","192","1676052","0.0-3.0-19.2-0.2","5a99003d777df200015ff521","B2","batch2","tol_tohand","1120","","","","","","","","","tol_peg_1","1120","1120","0","[[3,0,0],[0,0],[2]]","3","[[3,0,0],[1,0],[2]]","3","0","","","","","","3","","","","",""
"","","","","","single-stim-button","193","1677978","0.0-3.0-19.2-1.2","5a99003d777df200015ff521","B2","batch2","tol_toboard","1922","","","","","","","","","tol_peg_2","1922","1922","0","[[3,0,0],[1,0],[2]]","3","[[3,0,0],[1,0],[2]]","3","0","","","","","","3","","","","",""
"","","","","","poldrack-single-stim","194","1678984","0.0-3.0-20.0","5a99003d777df200015ff521","B2","batch2","tol_feedback","-1","","","","","true","","","","","1000","1000","500","","","","","","-1","none","true","2342","4471","","","","","",""
"","","","","","html-button-response","195","1680273","0.0-3.0-21.0","5a99003d777df200015ff521","B2","batch2","tol_trial_num","1285.1999999999534","<div class = centerbox><p class = center-block-text>problem <strong>5</strong> out of 25 problems</p></div>","0","","","","","","","","","","","","","","","","","","","","","","","","","",""
"","","","","","single-stim-button","196","1709510","0.0-3.0-22.0-0.0","5a99003d777df200015ff521","B2","batch2","tol_tohand","29231","","","","","","","","","tol_peg_3","29231","29231","0","[[1,0,0],[2,0],[0]]","1","[[0,0,0],[1,2],[3]]","4","0","","","","","","7","","","","",""
"","","","","","single-stim-button","197","1711646","0.0-3.0-22.0-1.0","5a99003d777df200015ff521","B2","batch2","tol_toboard","2132","","","","","","","","","tol_peg_1","2132","2132","0","[[1,3,0],[2,0],[0]]","1","[[0,0,0],[1,2],[3]]","4","0","","","","","","7","","","","",""
"","","","","","single-stim-button","198","1712680","0.0-3.0-22.1-0.1","5a99003d777df200015ff521","B2","batch2","tol_tohand","1029","","","","","","","","","tol_peg_2","1029","1029","0","[[1,3,0],[0,0],[0]]","2","[[0,0,0],[1,2],[3]]","4","0","","","","","","7","","","","",""
"","","","","","single-stim-button","199","1713525","0.0-3.0-22.1-1.1","5a99003d777df200015ff521","B2","batch2","tol_toboard","841","","","","","","","","","tol_peg_3","841","841","0","[[1,3,0],[0,0],[2]]","2","[[0,0,0],[1,2],[3]]","4","0","","","","","","7","","","","",""
"","","","","","single-stim-button","200","1714988","0.0-3.0-22.2-0.2","5a99003d777df200015ff521","B2","batch2","tol_tohand","1456","","","","","","","","","tol_peg_1","1456","1456","0","[[1,0,0],[0,0],[2]]","3","[[0,0,0],[1,2],[3]]","4","0","","","","","","7","","","","",""
"","","","","","single-stim-button","201","1726436","0.0-3.0-22.2-1.2","5a99003d777df200015ff521","B2","batch2","tol_toboard","11444","","","","","","","","","tol_peg_2","11444","11444","0","[[1,0,0],[3,0],[2]]","3","[[0,0,0],[1,2],[3]]","4","0","","","","","","7","","","","",""
"","","","","","single-stim-button","202","1729706","0.0-3.0-22.3-0.3","5a99003d777df200015ff521","B2","batch2","tol_tohand","3265","","","","","","","","","tol_peg_3","3265","3265","0","[[1,0,0],[3,0],[0]]","4","[[0,0,0],[1,2],[3]]","4","0","","","","","","7","","","","",""
"","","","","","single-stim-button","203","1732324","0.0-3.0-22.3-1.3","5a99003d777df200015ff521","B2","batch2","tol_toboard","2615","","","","","","","","","tol_peg_1","2615","2615","0","[[1,2,0],[3,0],[0]]","4","[[0,0,0],[1,2],[3]]","4","0","","","","","","7","","","","",""
"","","","","","single-stim-button","204","1733470","0.0-3.0-22.4-0.4","5a99003d777df200015ff521","B2","batch2","tol_tohand","1141","","","","","","","","","tol_peg_2","1141","1141","0","[[1,2,0],[0,0],[0]]","5","[[0,0,0],[1,2],[3]]","4","0","","","","","","7","","","","",""
"","","","","","single-stim-button","205","2369052","0.0-3.0-22.4-1.4","5a99003d777df200015ff521","B2","batch2","tol_toboard","635579","","","","","","","","","tol_peg_1","635579","635579","0","[[1,2,3],[0,0],[0]]","5","[[0,0,0],[1,2],[3]]","4","0","","","","","","7","","","","",""
"","","","","","single-stim-button","206","2372191","0.0-3.0-22.5-0.5","5a99003d777df200015ff521","B2","batch2","tol_tohand","3135","","","","","","","","","tol_peg_1","3135","3135","0","[[1,2,0],[0,0],[0]]","6","[[0,0,0],[1,2],[3]]","4","0","","","","","","7","","","","",""
"","","","","","single-stim-button","207","2373562","0.0-3.0-22.5-1.5","5a99003d777df200015ff521","B2","batch2","tol_toboard","1365","","","","","","","","","tol_peg_3","1365","1365","0","[[1,2,0],[0,0],[3]]","6","[[0,0,0],[1,2],[3]]","4","0","","","","","","7","","","","",""
"","","","","","single-stim-button","208","2376878","0.0-3.0-22.6-0.6","5a99003d777df200015ff521","B2","batch2","tol_tohand","3312","","","","","","","","","tol_peg_3","3312","3312","0","[[1,2,0],[0,0],[0]]","7","[[0,0,0],[1,2],[3]]","4","0","","","","","","7","","","","",""
"","","","","","single-stim-button","209","2379044","0.0-3.0-22.6-1.6","5a99003d777df200015ff521","B2","batch2","tol_toboard","2162","","","","","","","","","tol_peg_2","2162","2162","0","[[1,2,0],[3,0],[0]]","7","[[0,0,0],[1,2],[3]]","4","0","","","","","","7","","","","",""
"","","","","","single-stim-button","210","2379876","0.0-3.0-22.7-0.7","5a99003d777df200015ff521","B2","batch2","tol_tohand","828","","","","","","","","","tol_peg_1","828","828","0","[[1,0,0],[3,0],[0]]","8","[[0,0,0],[1,2],[3]]","4","0","","","","","","7","","","","",""
"","","","","","single-stim-button","211","2381168","0.0-3.0-22.7-1.7","5a99003d777df200015ff521","B2","batch2","tol_toboard","1288","","","","","","","","","tol_peg_3","1288","1288","0","[[1,0,0],[3,0],[2]]","8","[[0,0,0],[1,2],[3]]","4","0","","","","","","7","","","","",""
"","","","","","single-stim-button","212","2382233","0.0-3.0-22.8-0.8","5a99003d777df200015ff521","B2","batch2","tol_tohand","1043","","","","","","","","","tol_peg_2","1043","1043","0","[[1,0,0],[0,0],[2]]","9","[[0,0,0],[1,2],[3]]","4","0","","","","","","7","","","","",""
"","","","","","single-stim-button","213","2387584","0.0-3.0-22.8-1.8","5a99003d777df200015ff521","B2","batch2","tol_toboard","5348","","","","","","","","","tol_peg_1","5348","5348","0","[[1,3,0],[0,0],[2]]","9","[[0,0,0],[1,2],[3]]","4","0","","","","","","7","","","","",""
"","","","","","single-stim-button","214","2402269","0.0-3.0-22.9-0.9","5a99003d777df200015ff521","B2","batch2","tol_tohand","14680","","","","","","","","","tol_peg_3","14680","14680","0","[[1,3,0],[0,0],[0]]","10","[[0,0,0],[1,2],[3]]","4","0","","","","","","7","","","","",""
"","","","","","single-stim-button","215","2404585","0.0-3.0-22.9-1.9","5a99003d777df200015ff521","B2","batch2","tol_toboard","2311","","","","","","","","","tol_peg_2","2311","2311","0","[[1,3,0],[2,0],[0]]","10","[[0,0,0],[1,2],[3]]","4","0","","","","","","7","","","","",""
"","","","","","single-stim-button","216","2406821","0.0-3.0-22.10-0.10","5a99003d777df200015ff521","B2","batch2","tol_tohand","2232","","","","","","","","","tol_peg_1","2232","2232","0","[[1,0,0],[2,0],[0]]","11","[[0,0,0],[1,2],[3]]","4","0","","","","","","7","","","","",""
"","","","","","single-stim-button","217","2407893","0.0-3.0-22.10-1.10","5a99003d777df200015ff521","B2","batch2","tol_toboard","1069","","","","","","","","","tol_peg_2","1069","1069","0","[[1,0,0],[2,3],[0]]","11","[[0,0,0],[1,2],[3]]","4","0","","","","","","7","","","","",""
"","","","","","single-stim-button","218","2408624","0.0-3.0-22.11-0.11","5a99003d777df200015ff521","B2","batch2","tol_tohand","727","","","","","","","","","tol_peg_1","727","727","0","[[0,0,0],[2,3],[0]]","12","[[0,0,0],[1,2],[3]]","4","0","","","","","","7","","","","",""
"","","","","","single-stim-button","219","2409841","0.0-3.0-22.11-1.11","5a99003d777df200015ff521","B2","batch2","tol_toboard","1212","","","","","","","","","tol_peg_3","1212","1212","0","[[0,0,0],[2,3],[1]]","12","[[0,0,0],[1,2],[3]]","4","0","","","","","","7","","","","",""
"","","","","","single-stim-button","220","2411622","0.0-3.0-22.12-0.12","5a99003d777df200015ff521","B2","batch2","tol_tohand","1776","","","","","","","","","tol_peg_2","1776","1776","0","[[0,0,0],[2,0],[1]]","13","[[0,0,0],[1,2],[3]]","4","0","","","","","","7","","","","",""
"","","","","","single-stim-button","221","2416013","0.0-3.0-22.12-1.12","5a99003d777df200015ff521","B2","batch2","tol_toboard","4387","","","","","","","","","tol_peg_1","4387","4387","0","[[3,0,0],[2,0],[1]]","13","[[0,0,0],[1,2],[3]]","4","0","","","","","","7","","","","",""
"","","","","","single-stim-button","222","2417305","0.0-3.0-22.13-0.13","5a99003d777df200015ff521","B2","batch2","tol_tohand","1288","","","","","","","","","tol_peg_2","1288","1288","0","[[3,0,0],[0,0],[1]]","14","[[0,0,0],[1,2],[3]]","4","0","","","","","","7","","","","",""
"","","","","","single-stim-button","223","2418368","0.0-3.0-22.13-1.13","5a99003d777df200015ff521","B2","batch2","tol_toboard","1059","","","","","","","","","tol_peg_1","1059","1059","0","[[3,2,0],[0,0],[1]]","14","[[0,0,0],[1,2],[3]]","4","0","","","","","","7","","","","",""
"","","","","","single-stim-button","224","2419661","0.0-3.0-22.14-0.14","5a99003d777df200015ff521","B2","batch2","tol_tohand","1289","","","","","","","","","tol_peg_3","1289","1289","0","[[3,2,0],[0,0],[0]]","15","[[0,0,0],[1,2],[3]]","4","0","","","","","","7","","","","",""
"","","","","","single-stim-button","225","2420814","0.0-3.0-22.14-1.14","5a99003d777df200015ff521","B2","batch2","tol_toboard","1149","","","","","","","","","tol_peg_2","1149","1149","0","[[3,2,0],[1,0],[0]]","15","[[0,0,0],[1,2],[3]]","4","0","","","","","","7","","","","",""
"","","","","","single-stim-button","226","2432722","0.0-3.0-22.15-0.15","5a99003d777df200015ff521","B2","batch2","tol_tohand","11904","","","","","","","","","tol_peg_1","11904","11904","0","[[3,0,0],[1,0],[0]]","16","[[0,0,0],[1,2],[3]]","4","0","","","","","","7","","","","",""
"","","","","","single-stim-button","227","2433935","0.0-3.0-22.15-1.15","5a99003d777df200015ff521","B2","batch2","tol_toboard","1208","","","","","","","","","tol_peg_2","1208","1208","0","[[3,0,0],[1,2],[0]]","16","[[0,0,0],[1,2],[3]]","4","0","","","","","","7","","","","",""
"","","","","","single-stim-button","228","2434907","0.0-3.0-22.16-0.16","5a99003d777df200015ff521","B2","batch2","tol_tohand","968","","","","","","","","","tol_peg_1","968","968","0","[[0,0,0],[1,2],[0]]","17","[[0,0,0],[1,2],[3]]","4","0","","","","","","7","","","","",""
"","","","","","single-stim-button","229","2436060","0.0-3.0-22.16-1.16","5a99003d777df200015ff521","B2","batch2","tol_toboard","1149","","","","","","","","","tol_peg_3","1149","1149","0","[[0,0,0],[1,2],[3]]","17","[[0,0,0],[1,2],[3]]","4","0","","","","","","7","","","","",""
"","","","","","poldrack-single-stim","230","2437068","0.0-3.0-23.0","5a99003d777df200015ff521","B2","batch2","tol_feedback","-1","","","","","true","","","","","1000","1000","500","","","","","","-1","none","true","29231","79304","","","","","",""
"","","","","","html-button-response","231","2439156","0.0-3.0-24.0","5a99003d777df200015ff521","B2","batch2","tol_trial_num","2084.5","<div class = centerbox><p class = center-block-text>problem <strong>6</strong> out of 25 problems</p></div>","0","","","","","","","","","","","","","","","","","","","","","","","","","",""
"","","","","","single-stim-button","232","2798642","0.0-3.0-25.0-0.0","5a99003d777df200015ff521","B2","batch2","tol_tohand","359480","","","","","","","","","tol_peg_2","359480","359480","0","[[0,0,0],[1,0],[3]]","1","[[1,0,0],[2,3],[0]]","5","0","","","","","","6","","","","",""
"","","","","","single-stim-button","233","2800566","0.0-3.0-25.0-1.0","5a99003d777df200015ff521","B2","batch2","tol_toboard","1919","","","","","","","","","tol_peg_1","1919","1919","0","[[2,0,0],[1,0],[3]]","1","[[1,0,0],[2,3],[0]]","5","0","","","","","","6","","","","",""
"","","","","","single-stim-button","234","2803730","0.0-3.0-25.1-0.1","5a99003d777df200015ff521","B2","batch2","tol_tohand","3161","","","","","","","","","tol_peg_3","3161","3161","0","[[2,0,0],[1,0],[0]]","2","[[1,0,0],[2,3],[0]]","5","0","","","","","","6","","","","",""
"","","","","","single-stim-button","235","2804854","0.0-3.0-25.1-1.1","5a99003d777df200015ff521","B2","batch2","tol_toboard","1121","","","","","","","","","tol_peg_1","1121","1121","0","[[2,3,0],[1,0],[0]]","2","[[1,0,0],[2,3],[0]]","5","0","","","","","","6","","","","",""
"","","","","","single-stim-button","236","2805776","0.0-3.0-25.2-0.2","5a99003d777df200015ff521","B2","batch2","tol_tohand","917","","","","","","","","","tol_peg_2","917","917","0","[[2,3,0],[0,0],[0]]","3","[[1,0,0],[2,3],[0]]","5","0","","","","","","6","","","","",""
"","","","","","single-stim-button","237","2806937","0.0-3.0-25.2-1.2","5a99003d777df200015ff521","B2","batch2","tol_toboard","1158","","","","","","","","","tol_peg_3","1158","1158","0","[[2,3,0],[0,0],[1]]","3","[[1,0,0],[2,3],[0]]","5","0","","","","","","6","","","","",""
"","","","","","single-stim-button","238","2808060","0.0-3.0-25.3-0.3","5a99003d777df200015ff521","B2","batch2","tol_tohand","1119","","","","","","","","","tol_peg_1","1119","1119","0","[[2,0,0],[0,0],[1]]","4","[[1,0,0],[2,3],[0]]","5","0","","","","","","6","","","","",""
"","","","","","single-stim-button","239","2808946","0.0-3.0-25.3-1.3","5a99003d777df200015ff521","B2","batch2","tol_toboard","881","","","","","","","","","tol_peg_2","881","881","0","[[2,0,0],[3,0],[1]]","4","[[1,0,0],[2,3],[0]]","5","0","","","","","","6","","","","",""
"","","","","","single-stim-button","240","2809751","0.0-3.0-25.4-0.4","5a99003d777df200015ff521","B2","batch2","tol_tohand","802","","","","","","","","","tol_peg_1","802","802","0","[[0,0,0],[3,0],[1]]","5","[[1,0,0],[2,3],[0]]","5","0","","","","","","6","","","","",""
"","","","","","single-stim-button","241","2810995","0.0-3.0-25.4-1.4","5a99003d777df200015ff521","B2","batch2","tol_toboard","1241","","","","","","","","","tol_peg_2","1241","1241","0","[[0,0,0],[3,2],[1]]","5","[[1,0,0],[2,3],[0]]","5","0","","","","","","6","","","","",""
"","","","","","single-stim-button","242","2811897","0.0-3.0-25.5-0.5","5a99003d777df200015ff521","B2","batch2","tol_tohand","898","","","","","","","","","tol_peg_3","898","898","0","[[0,0,0],[3,2],[0]]","6","[[1,0,0],[2,3],[0]]","5","0","","","","","","6","","","","",""
"","","","","","single-stim-button","243","2813030","0.0-3.0-25.5-1.5","5a99003d777df200015ff521","B2","batch2","tol_toboard","1130","","","","","","","","","tol_peg_1","1130","1130","0","[[1,0,0],[3,2],[0]]","6","[[1,0,0],[2,3],[0]]","5","0","","","","","","6","","","","",""
"","","","","","single-stim-button","244","2814502","0.0-3.0-25.6-0.6","5a99003d777df200015ff521","B2","batch2","tol_tohand","1469","","","","","","","","","tol_peg_2","1469","1469","0","[[1,0,0],[3,0],[0]]","7","[[1,0,0],[2,3],[0]]","5","0","","","","","","6","","","","",""
"","","","","","single-stim-button","245","2815474","0.0-3.0-25.6-1.6","5a99003d777df200015ff521","B2","batch2","tol_toboard","968","","","","","","","","","tol_peg_3","968","968","0","[[1,0,0],[3,0],[2]]","7","[[1,0,0],[2,3],[0]]","5","0","","","","","","6","","","","",""
"","","","","","single-stim-button","246","2816968","0.0-3.0-25.7-0.7","5a99003d777df200015ff521","B2","batch2","tol_tohand","1489","","","","","","","","","tol_peg_2","1489","1489","0","[[1,0,0],[0,0],[2]]","8","[[1,0,0],[2,3],[0]]","5","0","","","","","","6","","","","",""
"","","","","","single-stim-button","247","2819173","0.0-3.0-25.7-1.7","5a99003d777df200015ff521","B2","batch2","tol_toboard","2202","","","","","","","","","tol_peg_1","2202","2202","0","[[1,3,0],[0,0],[2]]","8","[[1,0,0],[2,3],[0]]","5","0","","","","","","6","","","","",""
"","","","","","single-stim-button","248","2820095","0.0-3.0-25.8-0.8","5a99003d777df200015ff521","B2","batch2","tol_tohand","917","","","","","","","","","tol_peg_3","917","917","0","[[1,3,0],[0,0],[0]]","9","[[1,0,0],[2,3],[0]]","5","0","","","","","","6","","","","",""
"","","","","","single-stim-button","249","2821047","0.0-3.0-25.8-1.8","5a99003d777df200015ff521","B2","batch2","tol_toboard","949","","","","","","","","","tol_peg_2","949","949","0","[[1,3,0],[2,0],[0]]","9","[[1,0,0],[2,3],[0]]","5","0","","","","","","6","","","","",""
"","","","","","single-stim-button","250","2821759","0.0-3.0-25.9-0.9","5a99003d777df200015ff521","B2","batch2","tol_tohand","707","","","","","","","","","tol_peg_1","707","707","0","[[1,0,0],[2,0],[0]]","10","[[1,0,0],[2,3],[0]]","5","0","","","","","","6","","","","",""
"","","","","","single-stim-button","251","2822811","0.0-3.0-25.9-1.9","5a99003d777df200015ff521","B2","batch2","tol_toboard","1049","","","","","","","","","tol_peg_2","1049","1049","0","[[1,0,0],[2,3],[0]]","10","[[1,0,0],[2,3],[0]]","5","0","","","","","","6","","","","",""
"","","","","","poldrack-single-stim","252","2823820","0.0-3.0-26.0","5a99003d777df200015ff521","B2","batch2","tol_feedback","-1","","","","","true","","","","","1000","1000","500","","","","","","-1","none","true","359480","370959","","","","","",""
"","","","","","html-button-response","253","2839621","0.0-3.0-27.0","5a99003d777df200015ff521","B2","batch2","tol_trial_num","15797.69999999972","<div class = centerbox><p class = center-block-text>problem <strong>7</strong> out of 25 problems</p></div>","0","","","","","","","","","","","","","","","","","","","","","","","","","",""
"","","","","","single-stim-button","254","2849948","0.0-3.0-28.0-0.0","5a99003d777df200015ff521","B2","batch2","tol_tohand","10324","","","","","","","","","tol_peg_3","10324","10324","0","[[2,1,0],[0,0],[0]]","1","[[1,2,0],[3,0],[0]]","6","0","","","","","","5","","","","",""
"","","","","","single-stim-button","255","2850393","0.0-3.0-28.0-1.0","5a99003d777df200015ff521","B2","batch2","tol_toboard","442","","","","","","","","","tol_peg_2","442","442","0","[[2,1,0],[3,0],[0]]","1","[[1,2,0],[3,0],[0]]","6","0","","","","","","5","","","","",""
"","","","","","single-stim-button","256","2850985","0.0-3.0-28.1-0.1","5a99003d777df200015ff521","B2","batch2","tol_tohand","588","","","","","","","","","tol_peg_1","588","588","0","[[2,0,0],[3,0],[0]]","2","[[1,2,0],[3,0],[0]]","6","0","","","","","","5","","","","",""
"","","","","","single-stim-button","257","2851517","0.0-3.0-28.1-1.1","5a99003d777df200015ff521","B2","batch2","tol_toboard","528","","","","","","","","","tol_peg_2","528","528","0","[[2,0,0],[3,1],[0]]","2","[[1,2,0],[3,0],[0]]","6","0","","","","","","5","","","","",""
"","","","","","single-stim-button","258","2851953","0.0-3.0-28.2-0.2","5a99003d777df200015ff521","B2","batch2","tol_tohand","433","","","","","","","","","tol_peg_1","433","433","0","[[0,0,0],[3,1],[0]]","3","[[1,2,0],[3,0],[0]]","6","0","","","","","","5","","","","",""
"","","","","","single-stim-button","259","2852868","0.0-3.0-28.2-1.2","5a99003d777df200015ff521","B2","batch2","tol_toboard","911","","","","","","","","","tol_peg_3","911","911","0","[[0,0,0],[3,1],[2]]","3","[[1,2,0],[3,0],[0]]","6","0","","","","","","5","","","","",""
"","","","","","single-stim-button","260","2853992","0.0-3.0-28.3-0.3","5a99003d777df200015ff521","B2","batch2","tol_tohand","1120","","","","","","","","","tol_peg_2","1120","1120","0","[[0,0,0],[3,0],[2]]","4","[[1,2,0],[3,0],[0]]","6","0","","","","","","5","","","","",""
"","","","","","single-stim-button","261","2854342","0.0-3.0-28.3-1.3","5a99003d777df200015ff521","B2","batch2","tol_toboard","346","","","","","","","","","tol_peg_1","346","346","0","[[1,0,0],[3,0],[2]]","4","[[1,2,0],[3,0],[0]]","6","0","","","","","","5","","","","",""
"","","","","","single-stim-button","262","2857228","0.0-3.0-28.4-0.4","5a99003d777df200015ff521","B2","batch2","tol_tohand","2883","","","","","","","","","tol_peg_3","2883","2883","0","[[1,0,0],[3,0],[0]]","5","[[1,2,0],[3,0],[0]]","6","0","","","","","","5","","","","",""
"","","","","","single-stim-button","263","2858037","0.0-3.0-28.4-1.4","5a99003d777df200015ff521","B2","batch2","tol_toboard","805","","","","","","","","","tol_peg_1","805","805","0","[[1,2,0],[3,0],[0]]","5","[[1,2,0],[3,0],[0]]","6","0","","","","","","5","","","","",""
"","","","","","poldrack-single-stim","264","2859044","0.0-3.0-29.0","5a99003d777df200015ff521","B2","batch2","tol_feedback","-1","","","","","true","","","","","1000","1000","500","","","","","","-1","none","true","10324","15348","","","","","",""
"","","","","","html-button-response","265","2860984","0.0-3.0-30.0","5a99003d777df200015ff521","B2","batch2","tol_trial_num","1937.3000000002794","<div class = centerbox><p class = center-block-text>problem <strong>8</strong> out of 25 problems</p></div>","0","","","","","","","","","","","","","","","","","","","","","","","","","",""
"","","","","","single-stim-button","266","2864835","0.0-3.0-31.0-0.0","5a99003d777df200015ff521","B2","batch2","tol_tohand","3847","","","","","","","","","tol_peg_3","3847","3847","0","[[0,0,0],[2,3],[0]]","1","[[1,2,0],[3,0],[0]]","7","0","","","","","","4","","","","",""
"","","","","","single-stim-button","267","2865523","0.0-3.0-31.0-1.0","5a99003d777df200015ff521","B2","batch2","tol_toboard","684","","","","","","","","","tol_peg_1","684","684","0","[[1,0,0],[2,3],[0]]","1","[[1,2,0],[3,0],[0]]","7","0","","","","","","4","","","","",""
"","","","","","single-stim-button","268","2866103","0.0-3.0-31.1-0.1","5a99003d777df200015ff521","B2","batch2","tol_tohand","576","","","","","","","","","tol_peg_2","576","576","0","[[1,0,0],[2,0],[0]]","2","[[1,2,0],[3,0],[0]]","7","0","","","","","","4","","","","",""
"","","","","","single-stim-button","269","2866526","0.0-3.0-31.1-1.1","5a99003d777df200015ff521","B2","batch2","tol_toboard","420","","","","","","","","","tol_peg_3","420","420","0","[[1,0,0],[2,0],[3]]","2","[[1,2,0],[3,0],[0]]","7","0","","","","","","4","","","","",""
"","","","","","single-stim-button","270","2866948","0.0-3.0-31.2-0.2","5a99003d777df200015ff521","B2","batch2","tol_tohand","419","","","","","","","","","tol_peg_2","419","419","0","[[1,0,0],[0,0],[3]]","3","[[1,2,0],[3,0],[0]]","7","0","","","","","","4","","","","",""
"","","","","","single-stim-button","271","2867431","0.0-3.0-31.2-1.2","5a99003d777df200015ff521","B2","batch2","tol_toboard","479","","","","","","","","","tol_peg_1","479","479","0","[[1,2,0],[0,0],[3]]","3","[[1,2,0],[3,0],[0]]","7","0","","","","","","4","","","","",""
"","","","","","single-stim-button","272","2868928","0.0-3.0-31.3-0.3","5a99003d777df200015ff521","B2","batch2","tol_tohand","1494","","","","","","","","","tol_peg_3","1494","1494","0","[[1,2,0],[0,0],[0]]","4","[[1,2,0],[3,0],[0]]","7","0","","","","","","4","","","","",""
"","","","","","single-stim-button","273","2869423","0.0-3.0-31.3-1.3","5a99003d777df200015ff521","B2","batch2","tol_toboard","492","","","","","","","","","tol_peg_2","492","492","0","[[1,2,0],[3,0],[0]]","4","[[1,2,0],[3,0],[0]]","7","0","","","","","","4","","","","",""
"","","","","","poldrack-single-stim","274","2870436","0.0-3.0-32.0","5a99003d777df200015ff521","B2","batch2","tol_feedback","-1","","","","","true","","","","","1000","1000","500","","","","","","-1","none","true","3847","6336","","","","","",""
"","","","","","html-button-response","275","2871549","0.0-3.0-33.0","5a99003d777df200015ff521","B2","batch2","tol_trial_num","1110.8000000002794","<div class = centerbox><p class = center-block-text>problem <strong>9</strong> out of 25 problems</p></div>","0","","","","","","","","","","","","","","","","","","","","","","","","","",""
"","","","","","single-stim-button","276","2881186","0.0-3.0-34.0-0.0","5a99003d777df200015ff521","B2","batch2","tol_tohand","9633","","","","","","","","","tol_peg_3","9633","9633","0","[[3,2,0],[0,0],[0]]","1","[[2,1,0],[3,0],[0]]","8","0","","","","","","6","","","","",""
"","","","","","single-stim-button","277","2881717","0.0-3.0-34.0-1.0","5a99003d777df200015ff521","B2","batch2","tol_toboard","527","","","","","","","","","tol_peg_2","527","527","0","[[3,2,0],[1,0],[0]]","1","[[2,1,0],[3,0],[0]]","8","0","","","","","","6","","","","",""
"","","","","","single-stim-button","278","2882226","0.0-3.0-34.1-0.1","5a99003d777df200015ff521","B2","batch2","tol_tohand","505","","","","","","","","","tol_peg_1","505","505","0","[[3,0,0],[1,0],[0]]","2","[[2,1,0],[3,0],[0]]","8","0","","","","","","6","","","","",""
"","","","","","single-stim-button","279","2882790","0.0-3.0-34.1-1.1","5a99003d777df200015ff521","B2","batch2","tol_toboard","559","","","","","","","","","tol_peg_3","559","559","0","[[3,0,0],[1,0],[2]]","2","[[2,1,0],[3,0],[0]]","8","0","","","","","","6","","","","",""
"","","","","","single-stim-button","280","2889458","0.0-3.0-34.2-0.2","5a99003d777df200015ff521","B2","batch2","tol_tohand","6665","","","","","","","","","tol_peg_2","6665","6665","0","[[3,0,0],[0,0],[2]]","3","[[2,1,0],[3,0],[0]]","8","0","","","","","","6","","","","",""
"","","","","","single-stim-button","281","2890556","0.0-3.0-34.2-1.2","5a99003d777df200015ff521","B2","batch2","tol_toboard","1094","","","","","","","","","tol_peg_2","1094","1094","0","[[3,0,0],[1,0],[2]]","3","[[2,1,0],[3,0],[0]]","8","0","","","","","","6","","","","",""
"","","","","","single-stim-button","282","2892198","0.0-3.0-34.3-0.3","5a99003d777df200015ff521","B2","batch2","tol_tohand","1638","","","","","","","","","tol_peg_3","1638","1638","0","[[3,0,0],[1,0],[0]]","4","[[2,1,0],[3,0],[0]]","8","0","","","","","","6","","","","",""
"","","","","","single-stim-button","283","2892851","0.0-3.0-34.3-1.3","5a99003d777df200015ff521","B2","batch2","tol_toboard","649","","","","","","","","","tol_peg_2","649","649","0","[[3,0,0],[1,2],[0]]","4","[[2,1,0],[3,0],[0]]","8","0","","","","","","6","","","","",""
"","","","","","single-stim-button","284","2894529","0.0-3.0-34.4-0.4","5a99003d777df200015ff521","B2","batch2","tol_tohand","1674","","","","","","","","","tol_peg_1","1674","1674","0","[[0,0,0],[1,2],[0]]","5","[[2,1,0],[3,0],[0]]","8","0","","","","","","6","","","","",""
"","","","","","single-stim-button","285","2894973","0.0-3.0-34.4-1.4","5a99003d777df200015ff521","B2","batch2","tol_toboard","440","","","","","","","","","tol_peg_3","440","440","0","[[0,0,0],[1,2],[3]]","5","[[2,1,0],[3,0],[0]]","8","0","","","","","","6","","","","",""
"","","","","","single-stim-button","286","2896340","0.0-3.0-34.5-0.5","5a99003d777df200015ff521","B2","batch2","tol_tohand","1362","","","","","","","","","tol_peg_2","1362","1362","0","[[0,0,0],[1,0],[3]]","6","[[2,1,0],[3,0],[0]]","8","0","","","","","","6","","","","",""
"","","","","","single-stim-button","287","2896872","0.0-3.0-34.5-1.5","5a99003d777df200015ff521","B2","batch2","tol_toboard","529","","","","","","","","","tol_peg_1","529","529","0","[[2,0,0],[1,0],[3]]","6","[[2,1,0],[3,0],[0]]","8","0","","","","","","6","","","","",""
"","","","","","single-stim-button","288","2897657","0.0-3.0-34.6-0.6","5a99003d777df200015ff521","B2","batch2","tol_tohand","781","","","","","","","","","tol_peg_2","781","781","0","[[2,0,0],[0,0],[3]]","7","[[2,1,0],[3,0],[0]]","8","0","","","","","","6","","","","",""
"","","","","","single-stim-button","289","2898115","0.0-3.0-34.6-1.6","5a99003d777df200015ff521","B2","batch2","tol_toboard","454","","","","","","","","","tol_peg_1","454","454","0","[[2,1,0],[0,0],[3]]","7","[[2,1,0],[3,0],[0]]","8","0","","","","","","6","","","","",""
"","","","","","single-stim-button","290","2898719","0.0-3.0-34.7-0.7","5a99003d777df200015ff521","B2","batch2","tol_tohand","599","","","","","","","","","tol_peg_3","599","599","0","[[2,1,0],[0,0],[0]]","8","[[2,1,0],[3,0],[0]]","8","0","","","","","","6","","","","",""
"","","","","","single-stim-button","291","2899094","0.0-3.0-34.7-1.7","5a99003d777df200015ff521","B2","batch2","tol_toboard","371","","","","","","","","","tol_peg_2","371","371","0","[[2,1,0],[3,0],[0]]","8","[[2,1,0],[3,0],[0]]","8","0","","","","","","6","","","","",""
"","","","","","poldrack-single-stim","292","2900100","0.0-3.0-35.0","5a99003d777df200015ff521","B2","batch2","tol_feedback","-1","","","","","true","","","","","1000","1000","500","","","","","","-1","none","true","9633","22857","","","","","",""
"","","","","","html-button-response","293","2902185","0.0-3.0-36.0","5a99003d777df200015ff521","B2","batch2","tol_trial_num","2081.7000000001863","<div class = centerbox><p class = center-block-text>problem <strong>10</strong> out of 25 problems</p></div>","0","","","","","","","","","","","","","","","","","","","","","","","","","",""
"","","","","","single-stim-button","294","2905758","0.0-3.0-37.0-0.0","5a99003d777df200015ff521","B2","batch2","tol_tohand","3568","","","","","","","","","tol_peg_2","3568","3568","0","[[3,0,0],[0,0],[2]]","1","[[3,0,0],[2,1],[0]]","9","0","","","","","","3","","","","",""
"","","","","","single-stim-button","295","2906097","0.0-3.0-37.0-1.0","5a99003d777df200015ff521","B2","batch2","tol_toboard","335","","","","","","","","","tol_peg_1","335","335","0","[[3,1,0],[0,0],[2]]","1","[[3,0,0],[2,1],[0]]","9","0","","","","","","3","","","","",""
"","","","","","single-stim-button","296","2906604","0.0-3.0-37.1-0.1","5a99003d777df200015ff521","B2","batch2","tol_tohand","503","","","","","","","","","tol_peg_3","503","503","0","[[3,1,0],[0,0],[0]]","2","[[3,0,0],[2,1],[0]]","9","0","","","","","","3","","","","",""
"","","","","","single-stim-button","297","2907629","0.0-3.0-37.1-1.1","5a99003d777df200015ff521","B2","batch2","tol_toboard","1022","","","","","","","","","tol_peg_2","1022","1022","0","[[3,1,0],[2,0],[0]]","2","[[3,0,0],[2,1],[0]]","9","0","","","","","","3","","","","",""
"","","","","","single-stim-button","298","2908138","0.0-3.0-37.2-0.2","5a99003d777df200015ff521","B2","batch2","tol_tohand","504","","","","","","","","","tol_peg_1","504","504","0","[[3,0,0],[2,0],[0]]","3","[[3,0,0],[2,1],[0]]","9","0","","","","","","3","","","","",""
"","","","","","single-stim-button","299","2908547","0.0-3.0-37.2-1.2","5a99003d777df200015ff521","B2","batch2","tol_toboard","405","","","","","","","","","tol_peg_2","405","405","0","[[3,0,0],[2,1],[0]]","3","[[3,0,0],[2,1],[0]]","9","0","","","","","","3","","","","",""
"","","","","","poldrack-single-stim","300","2909556","0.0-3.0-38.0","5a99003d777df200015ff521","B2","batch2","tol_feedback","-1","","","","","true","","","","","1000","1000","500","","","","","","-1","none","true","3568","4575","","","","","",""
"","","","","","html-button-response","301","2912297","0.0-3.0-39.0","5a99003d777df200015ff521","B2","batch2","tol_trial_num","2737.7999999998137","<div class = centerbox><p class = center-block-text>problem <strong>11</strong> out of 25 problems</p></div>","0","","","","","","","","","","","","","","","","","","","","","","","","","",""
"","","","","","single-stim-button","302","2917483","0.0-3.0-40.0-0.0","5a99003d777df200015ff521","B2","batch2","tol_tohand","5163","","","","","","","","","tol_peg_2","5163","5163","0","[[1,2,0],[0,0],[0]]","1","[[2,0,0],[1,3],[0]]","10","0","","","","","","6","","","","",""
"","","","","","single-stim-button","303","2918329","0.0-3.0-40.0-1.0","5a99003d777df200015ff521","B2","batch2","tol_toboard","841","","","","","","","","","tol_peg_3","841","841","0","[[1,2,0],[0,0],[3]]","1","[[2,0,0],[1,3],[0]]","10","0","","","","","","6","","","","",""
"","","","","","single-stim-button","304","2922518","0.0-3.0-40.1-0.1","5a99003d777df200015ff521","B2","batch2","tol_tohand","4186","","","","","","","","","tol_peg_1","4186","4186","0","[[1,0,0],[0,0],[3]]","2","[[2,0,0],[1,3],[0]]","10","0","","","","","","6","","","","",""
"","","","","","single-stim-button","305","2924510","0.0-3.0-40.1-1.1","5a99003d777df200015ff521","B2","batch2","tol_toboard","1988","","","","","","","","","tol_peg_2","1988","1988","0","[[1,0,0],[2,0],[3]]","2","[[2,0,0],[1,3],[0]]","10","0","","","","","","6","","","","",""
"","","","","","single-stim-button","306","2926878","0.0-3.0-40.2-0.2","5a99003d777df200015ff521","B2","batch2","tol_tohand","2364","","","","","","","","","tol_peg_3","2364","2364","0","[[1,0,0],[2,0],[0]]","3","[[2,0,0],[1,3],[0]]","10","0","","","","","","6","","","","",""
"","","","","","single-stim-button","307","2927372","0.0-3.0-40.2-1.2","5a99003d777df200015ff521","B2","batch2","tol_toboard","490","","","","","","","","","tol_peg_1","490","490","0","[[1,3,0],[2,0],[0]]","3","[[2,0,0],[1,3],[0]]","10","0","","","","","","6","","","","",""
"","","","","","single-stim-button","308","2927937","0.0-3.0-40.3-0.3","5a99003d777df200015ff521","B2","batch2","tol_tohand","562","","","","","","","","","tol_peg_2","562","562","0","[[1,3,0],[0,0],[0]]","4","[[2,0,0],[1,3],[0]]","10","0","","","","","","6","","","","",""
"","","","","","single-stim-button","309","2928266","0.0-3.0-40.3-1.3","5a99003d777df200015ff521","B2","batch2","tol_toboard","326","","","","","","","","","tol_peg_3","326","326","0","[[1,3,0],[0,0],[2]]","4","[[2,0,0],[1,3],[0]]","10","0","","","","","","6","","","","",""
"","","","","","single-stim-button","310","2930403","0.0-3.0-40.4-0.4","5a99003d777df200015ff521","B2","batch2","tol_tohand","2133","","","","","","","","","tol_peg_1","2133","2133","0","[[1,0,0],[0,0],[2]]","5","[[2,0,0],[1,3],[0]]","10","0","","","","","","6","","","","",""
"","","","","","single-stim-button","311","2932141","0.0-3.0-40.4-1.4","5a99003d777df200015ff521","B2","batch2","tol_toboard","1734","","","","","","","","","tol_peg_2","1734","1734","0","[[1,0,0],[3,0],[2]]","5","[[2,0,0],[1,3],[0]]","10","0","","","","","","6","","","","",""
"","","","","","single-stim-button","312","2932732","0.0-3.0-40.5-0.5","5a99003d777df200015ff521","B2","batch2","tol_tohand","587","","","","","","","","","tol_peg_1","587","587","0","[[0,0,0],[3,0],[2]]","6","[[2,0,0],[1,3],[0]]","10","0","","","","","","6","","","","",""
"","","","","","single-stim-button","313","2933107","0.0-3.0-40.5-1.5","5a99003d777df200015ff521","B2","batch2","tol_toboard","371","","","","","","","","","tol_peg_2","371","371","0","[[0,0,0],[3,1],[2]]","6","[[2,0,0],[1,3],[0]]","10","0","","","","","","6","","","","",""
"","","","","","single-stim-button","314","2933724","0.0-3.0-40.6-0.6","5a99003d777df200015ff521","B2","batch2","tol_tohand","613","","","","","","","","","tol_peg_3","613","613","0","[[0,0,0],[3,1],[0]]","7","[[2,0,0],[1,3],[0]]","10","0","","","","","","6","","","","",""
"","","","","","single-stim-button","315","2935811","0.0-3.0-40.6-1.6","5a99003d777df200015ff521","B2","batch2","tol_toboard","2083","","","","","","","","","tol_peg_1","2083","2083","0","[[2,0,0],[3,1],[0]]","7","[[2,0,0],[1,3],[0]]","10","0","","","","","","6","","","","",""
"","","","","","single-stim-button","316","2936875","0.0-3.0-40.7-0.7","5a99003d777df200015ff521","B2","batch2","tol_tohand","1060","","","","","","","","","tol_peg_2","1060","1060","0","[[2,0,0],[3,0],[0]]","8","[[2,0,0],[1,3],[0]]","10","0","","","","","","6","","","","",""
"","","","","","single-stim-button","317","2938034","0.0-3.0-40.7-1.7","5a99003d777df200015ff521","B2","batch2","tol_toboard","1156","","","","","","","","","tol_peg_3","1156","1156","0","[[2,0,0],[3,0],[1]]","8","[[2,0,0],[1,3],[0]]","10","0","","","","","","6","","","","",""
"","","","","","single-stim-button","318","2938432","0.0-3.0-40.8-0.8","5a99003d777df200015ff521","B2","batch2","tol_tohand","394","","","","","","","","","tol_peg_2","394","394","0","[[2,0,0],[0,0],[1]]","9","[[2,0,0],[1,3],[0]]","10","0","","","","","","6","","","","",""
"","","","","","single-stim-button","319","2939169","0.0-3.0-40.8-1.8","5a99003d777df200015ff521","B2","batch2","tol_toboard","734","","","","","","","","","tol_peg_1","734","734","0","[[2,3,0],[0,0],[1]]","9","[[2,0,0],[1,3],[0]]","10","0","","","","","","6","","","","",""
"","","","","","single-stim-button","320","2939677","0.0-3.0-40.9-0.9","5a99003d777df200015ff521","B2","batch2","tol_tohand","503","","","","","","","","","tol_peg_3","503","503","0","[[2,3,0],[0,0],[0]]","10","[[2,0,0],[1,3],[0]]","10","0","","","","","","6","","","","",""
"","","","","","single-stim-button","321","2940061","0.0-3.0-40.9-1.9","5a99003d777df200015ff521","B2","batch2","tol_toboard","381","","","","","","","","","tol_peg_2","381","381","0","[[2,3,0],[1,0],[0]]","10","[[2,0,0],[1,3],[0]]","10","0","","","","","","6","","","","",""
"","","","","","single-stim-button","322","2940835","0.0-3.0-40.10-0.10","5a99003d777df200015ff521","B2","batch2","tol_tohand","770","","","","","","","","","tol_peg_2","770","770","0","[[2,3,0],[0,0],[0]]","11","[[2,0,0],[1,3],[0]]","10","0","","","","","","6","","","","",""
"","","","","","single-stim-button","323","2941945","0.0-3.0-40.10-1.10","5a99003d777df200015ff521","B2","batch2","tol_toboard","1106","","","","","","","","","tol_peg_2","1106","1106","0","[[2,3,0],[1,0],[0]]","11","[[2,0,0],[1,3],[0]]","10","0","","","","","","6","","","","",""
"","","","","","single-stim-button","324","2942502","0.0-3.0-40.11-0.11","5a99003d777df200015ff521","B2","batch2","tol_tohand","553","","","","","","","","","tol_peg_1","553","553","0","[[2,0,0],[1,0],[0]]","12","[[2,0,0],[1,3],[0]]","10","0","","","","","","6","","","","",""
"","","","","","single-stim-button","325","2942888","0.0-3.0-40.11-1.11","5a99003d777df200015ff521","B2","batch2","tol_toboard","382","","","","","","","","","tol_peg_2","382","382","0","[[2,0,0],[1,3],[0]]","12","[[2,0,0],[1,3],[0]]","10","0","","","","","","6","","","","",""
"","","","","","poldrack-single-stim","326","2943900","0.0-3.0-41.0","5a99003d777df200015ff521","B2","batch2","tol_feedback","-1","","","","","true","","","","","1000","1000","500","","","","","","-1","none","true","5163","18888","","","","","",""
"","","","","","html-button-response","327","2944724","0.0-3.0-42.0","5a99003d777df200015ff521","B2","batch2","tol_trial_num","820.6999999997206","<div class = centerbox><p class = center-block-text>problem <strong>12</strong> out of 25 problems</p></div>","0","","","","","","","","","","","","","","","","","","","","","","","","","",""
"","","","","","single-stim-button","328","2949203","0.0-3.0-43.0-0.0","5a99003d777df200015ff521","B2","batch2","tol_tohand","4475","","","","","","","","","tol_peg_1","4475","4475","0","[[1,0,0],[3,0],[0]]","1","[[2,3,0],[0,0],[1]]","11","0","","","","","","4","","","","",""
"","","","","","single-stim-button","329","2949819","0.0-3.0-43.0-1.0","5a99003d777df200015ff521","B2","batch2","tol_toboard","611","","","","","","","","","tol_peg_2","611","611","0","[[1,0,0],[3,2],[0]]","1","[[2,3,0],[0,0],[1]]","11","0","","","","","","4","","","","",""
"","","","","","single-stim-button","330","2950351","0.0-3.0-43.1-0.1","5a99003d777df200015ff521","B2","batch2","tol_tohand","529","","","","","","","","","tol_peg_1","529","529","0","[[0,0,0],[3,2],[0]]","2","[[2,3,0],[0,0],[1]]","11","0","","","","","","4","","","","",""
"","","","","","single-stim-button","331","2951063","0.0-3.0-43.1-1.1","5a99003d777df200015ff521","B2","batch2","tol_toboard","708","","","","","","","","","tol_peg_3","708","708","0","[[0,0,0],[3,2],[1]]","2","[[2,3,0],[0,0],[1]]","11","0","","","","","","4","","","","",""
"","","","","","single-stim-button","332","2954069","0.0-3.0-43.2-0.2","5a99003d777df200015ff521","B2","batch2","tol_tohand","3002","","","","","","","","","tol_peg_2","3002","3002","0","[[0,0,0],[3,0],[1]]","3","[[2,3,0],[0,0],[1]]","11","0","","","","","","4","","","","",""
"","","","","","single-stim-button","333","2954563","0.0-3.0-43.2-1.2","5a99003d777df200015ff521","B2","batch2","tol_toboard","490","","","","","","","","","tol_peg_1","490","490","0","[[2,0,0],[3,0],[1]]","3","[[2,3,0],[0,0],[1]]","11","0","","","","","","4","","","","",""
"","","","","","single-stim-button","334","2955108","0.0-3.0-43.3-0.3","5a99003d777df200015ff521","B2","batch2","tol_tohand","541","","","","","","","","","tol_peg_2","541","541","0","[[2,0,0],[0,0],[1]]","4","[[2,3,0],[0,0],[1]]","11","0","","","","","","4","","","","",""
"","","","","","single-stim-button","335","2955518","0.0-3.0-43.3-1.3","5a99003d777df200015ff521","B2","batch2","tol_toboard","406","","","","","","","","","tol_peg_1","406","406","0","[[2,3,0],[0,0],[1]]","4","[[2,3,0],[0,0],[1]]","11","0","","","","","","4","","","","",""
"","","","","","poldrack-single-stim","336","2956524","0.0-3.0-44.0","5a99003d777df200015ff521","B2","batch2","tol_feedback","-1","","","","","true","","","","","1000","1000","500","","","","","","-1","none","true","4475","8547","","","","","",""
"","","","","","html-button-response","337","2957560","0.0-3.0-45.0","5a99003d777df200015ff521","B2","batch2","tol_trial_num","1032.5","<div class = centerbox><p class = center-block-text>problem <strong>13</strong> out of 25 problems</p></div>","0","","","","","","","","","","","","","","","","","","","","","","","","","",""
"","","","","","single-stim-button","338","2960106","0.0-3.0-46.0-0.0","5a99003d777df200015ff521","B2","batch2","tol_tohand","2542","","","","","","","","","tol_peg_1","2542","2542","0","[[1,0,0],[3,0],[0]]","1","[[0,0,0],[2,3],[1]]","12","0","","","","","","4","","","","",""
"","","","","","single-stim-button","339","2961097","0.0-3.0-46.0-1.0","5a99003d777df200015ff521","B2","batch2","tol_toboard","987","","","","","","","","","tol_peg_2","987","987","0","[[1,0,0],[3,2],[0]]","1","[[0,0,0],[2,3],[1]]","12","0","","","","","","4","","","","",""
"","","","","","single-stim-button","340","2961495","0.0-3.0-46.1-0.1","5a99003d777df200015ff521","B2","batch2","tol_tohand","394","","","","","","","","","tol_peg_1","394","394","0","[[0,0,0],[3,2],[0]]","2","[[0,0,0],[2,3],[1]]","12","0","","","","","","4","","","","",""
"","","","","","single-stim-button","341","2962546","0.0-3.0-46.1-1.1","5a99003d777df200015ff521","B2","batch2","tol_toboard","1046","","","","","","","","","tol_peg_3","1046","1046","0","[[0,0,0],[3,2],[1]]","2","[[0,0,0],[2,3],[1]]","12","0","","","","","","4","","","","",""
"","","","","","single-stim-button","342","2964562","0.0-3.0-46.2-0.2","5a99003d777df200015ff521","B2","batch2","tol_tohand","2013","","","","","","","","","tol_peg_2","2013","2013","0","[[0,0,0],[3,0],[1]]","3","[[0,0,0],[2,3],[1]]","12","0","","","","","","4","","","","",""
"","","","","","single-stim-button","343","2964912","0.0-3.0-46.2-1.2","5a99003d777df200015ff521","B2","batch2","tol_toboard","346","","","","","","","","","tol_peg_1","346","346","0","[[2,0,0],[3,0],[1]]","3","[[0,0,0],[2,3],[1]]","12","0","","","","","","4","","","","",""
"","","","","","single-stim-button","344","2966613","0.0-3.0-46.3-0.3","5a99003d777df200015ff521","B2","batch2","tol_tohand","1697","","","","","","","","","tol_peg_3","1697","1697","0","[[2,0,0],[3,0],[0]]","4","[[0,0,0],[2,3],[1]]","12","0","","","","","","4","","","","",""
"","","","","","single-stim-button","345","2967738","0.0-3.0-46.3-1.3","5a99003d777df200015ff521","B2","batch2","tol_toboard","1121","","","","","","","","","tol_peg_1","1121","1121","0","[[2,1,0],[3,0],[0]]","4","[[0,0,0],[2,3],[1]]","12","0","","","","","","4","","","","",""
"","","","","","single-stim-button","346","2968282","0.0-3.0-46.4-0.4","5a99003d777df200015ff521","B2","batch2","tol_tohand","539","","","","","","","","","tol_peg_2","539","539","0","[[2,1,0],[0,0],[0]]","5","[[0,0,0],[2,3],[1]]","12","0","","","","","","4","","","","",""
"","","","","","single-stim-button","347","2968667","0.0-3.0-46.4-1.4","5a99003d777df200015ff521","B2","batch2","tol_toboard","382","","","","","","","","","tol_peg_3","382","382","0","[[2,1,0],[0,0],[3]]","5","[[0,0,0],[2,3],[1]]","12","0","","","","","","4","","","","",""
"","","","","","single-stim-button","348","2969598","0.0-3.0-46.5-0.5","5a99003d777df200015ff521","B2","batch2","tol_tohand","926","","","","","","","","","tol_peg_1","926","926","0","[[2,0,0],[0,0],[3]]","6","[[0,0,0],[2,3],[1]]","12","0","","","","","","4","","","","",""
"","","","","","single-stim-button","349","2975816","0.0-3.0-46.5-1.5","5a99003d777df200015ff521","B2","batch2","tol_toboard","6214","","","","","","","","","tol_peg_1","6214","6214","0","[[2,1,0],[0,0],[3]]","6","[[0,0,0],[2,3],[1]]","12","0","","","","","","4","","","","",""
"","","","","","single-stim-button","350","2976360","0.0-3.0-46.6-0.6","5a99003d777df200015ff521","B2","batch2","tol_tohand","540","","","","","","","","","tol_peg_3","540","540","0","[[2,1,0],[0,0],[0]]","7","[[0,0,0],[2,3],[1]]","12","0","","","","","","4","","","","",""
"","","","","","single-stim-button","351","2977412","0.0-3.0-46.6-1.6","5a99003d777df200015ff521","B2","batch2","tol_toboard","1047","","","","","","","","","tol_peg_2","1047","1047","0","[[2,1,0],[3,0],[0]]","7","[[0,0,0],[2,3],[1]]","12","0","","","","","","4","","","","",""
"","","","","","single-stim-button","352","2977953","0.0-3.0-46.7-0.7","5a99003d777df200015ff521","B2","batch2","tol_tohand","537","","","","","","","","","tol_peg_1","537","537","0","[[2,0,0],[3,0],[0]]","8","[[0,0,0],[2,3],[1]]","12","0","","","","","","4","","","","",""
"","","","","","single-stim-button","353","2978630","0.0-3.0-46.7-1.7","5a99003d777df200015ff521","B2","batch2","tol_toboard","672","","","","","","","","","tol_peg_3","672","672","0","[[2,0,0],[3,0],[1]]","8","[[0,0,0],[2,3],[1]]","12","0","","","","","","4","","","","",""
"","","","","","single-stim-button","354","2985029","0.0-3.0-46.8-0.8","5a99003d777df200015ff521","B2","batch2","tol_tohand","6396","","","","","","","","","tol_peg_3","6396","6396","0","[[2,0,0],[3,0],[0]]","9","[[0,0,0],[2,3],[1]]","12","0","","","","","","4","","","","",""
