"success","timeout","failed_images","failed_audio","failed_video","trial_type","trial_index","time_elapsed","internal_node_id","subject_id","study_id","session_id","view_history","rt","stimulus","response","task","correct","answer","item","fiar_detect_rt","fiar_detect_correct","total_correct_fiar_detect","post_trial_gap","choices","spm_correct","spm_rt","mouse_click","stim_duration","block_duration","timing_post_trial","current_position","tol_num_moves_made","tol_target","tol_problem_id","tol_rt","key_press","possible_responses","tol_correct","preplanning","tol_rt_per_trial","tol_min_moves"
"true","false","[]","[]","[]","preload","0","1248","0.0-0.0","5a9b1eb7873cda0001dcb3c4","B2","batch2","","","","","","","","","","","","","","","","","","","","","","","","","","","","","",""
"true","","","","","fullscreen","1","7427","0.0-1.0-0.0","5a9b1eb7873cda0001dcb3c4","B2","batch2","","","","","","","","","","","","","","","","","","","","","","","","","","","","","",""
"true","","","","","fullscreen","2","12231","0.0-2.0-0.0","5a9b1eb7873cda0001dcb3c4","B2","batch2","","","","","","","","","","","","","","","","","","","","","","","","","","","","","",""
"","","","","","instructions","3","51237","0.0-2.0-1.0-0.0","5a9b1eb7873cda0001dcb3c4","B2","batch2","[{""page_index"":0,""viewing_time"":16165.59999999404},{""page_index"":1,""viewing_time"":22839.09999999404}]","39004.90000000596","","","","","","","","","","","","","","","","","","","","","","","","","","","",""
"","","","","","html-button-response","4","54142","0.0-2.0-1.0-1.0-0.0","5a9b1eb7873cda0001dcb3c4","B2","batch2","","2904.2000000178814","<p class=block-text> Let's answer a few questions <br>","0","pattern_enter_quiz","","","","","","","","","","","","","","","","","","","","","","","","",""
"","","","","","html-button-response","5","59631","0.0-2.0-1.0-1.0-1.0","5a9b1eb7873cda0001dcb3c4","B2","batch2","","5492.4000000059605","<p class = block-text>True or False: You will have as much time as you want to make each choice. <br></p>","1","pattern_quiz","true","","","","","","","","","","","","","","","","","","","","","","","",""
"","","","","","html-button-response","6","62963","0.0-2.0-1.0-1.0-2.0","5a9b1eb7873cda0001dcb3c4","B2","batch2","","3330.9000000059605","<p class = block-text>Correct! You should make your choice <strong> as fast as you can</strong>.</p>","0","pattern_quiz_feedback","","","","","","","","","","","","","","","","","","","","","","","","",""
"","","","","","html-button-response","7","67148","0.0-2.0-1.0-1.0-3.0","5a9b1eb7873cda0001dcb3c4","B2","batch2","","4183.200000017881","<p class = block-text>True or False: You will look for 4 pieces in black or white color connected in a row either horizontally, vertically or diagonally. <br></p>","0","pattern_quiz","true","","","","","","","","","","","","","","","","","","","","","","","",""
"","","","","","html-button-response","8","68031","0.0-2.0-1.0-1.0-4.0","5a9b1eb7873cda0001dcb3c4","B2","batch2","","882.3999999761581","<p class = block-text>Correct! </p>","0","pattern_quiz_feedback","","","","","","","","","","","","","","","","","","","","","","","","",""
"","","","","","html-button-response","9","69865","0.0-2.0-2.0","5a9b1eb7873cda0001dcb3c4","B2","batch2","","1831.5999999940395","<p class=block-text> Now that you've understood the game, let's do a few practice trials before we start!<br> <br>","0","pattern_enter_practice","","","","","","","","","","","","","","","","","","","","","","","","",""
"","","","","","image-keyboard-response","10","74277","0.0-2.0-3.0-0.0","5a9b1eb7873cda0001dcb3c4","B2","batch2","","4409.9000000059605","stim/prac_yes_20_dia_b1.png","f","pattern_practice","true","f","","","","","","","","","","","","","","","","","","","","","","",""
"","","","","","html-keyboard-response","11","75291","0.0-2.0-3.0-1.0","5a9b1eb7873cda0001dcb3c4","B2","batch2","","null","<p style=""font-size:30px;color:green;"">Correct!</p>","null","pattern_feedback","","","","","","","","","","","","","","","","","","","","","","","","",""
"","","","","","image-keyboard-response","12","76981","0.0-2.0-3.0-0.1","5a9b1eb7873cda0001dcb3c4","B2","batch2","","1687.7999999821186","stim/prac_no_18_1.png","j","pattern_practice","true","j","","","","","","","","","","","","","","","","","","","","","","",""
"","","","","","html-keyboard-response","13","78001","0.0-2.0-3.0-1.1","5a9b1eb7873cda0001dcb3c4","B2","batch2","","null","<p style=""font-size:30px;color:green;"">Correct!</p>","null","pattern_feedback","","","","","","","","","","","","","","","","","","","","","","","","",""
"","","","","","image-keyboard-response","14","79256","0.0-2.0-3.0-0.2","5a9b1eb7873cda0001dcb3c4","B2","batch2","","1254.0999999940395","stim/prac_yes_18_hor_w1.png","f","pattern_practice","true","f","","","","","","","","","","","","","","","","","","","","","","",""
"","","","","","html-keyboard-response","15","80281","0.0-2.0-3.0-1.2","5a9b1eb7873cda0001dcb3c4","B2","batch2","","null","<p style=""font-size:30px;color:green;"">Correct!</p>","null","pattern_feedback","","","","","","","","","","","","","","","","","","","","","","","","",""
"","","","","","image-keyboard-response","16","82448","0.0-2.0-3.0-0.3","5a9b1eb7873cda0001dcb3c4","B2","batch2","","2166.4000000059605","stim/prac_no_16_1.png","j","pattern_practice","true","j","","","","","","","","","","","","","","","","","","","","","","",""
"","","","","","html-keyboard-response","17","83452","0.0-2.0-3.0-1.3","5a9b1eb7873cda0001dcb3c4","B2","batch2","","null","<p style=""font-size:30px;color:green;"">Correct!</p>","null","pattern_feedback","","","","","","","","","","","","","","","","","","","","","","","","",""
"","","","","","image-keyboard-response","18","84429","0.0-2.0-3.0-0.4","5a9b1eb7873cda0001dcb3c4","B2","batch2","","976","stim/prac_yes_16_ver_w1.png","f","pattern_practice","true","f","","","","","","","","","","","","","","","","","","","","","","",""
"","","","","","html-keyboard-response","19","85436","0.0-2.0-3.0-1.4","5a9b1eb7873cda0001dcb3c4","B2","batch2","","null","<p style=""font-size:30px;color:green;"">Correct!</p>","null","pattern_feedback","","","","","","","","","","","","","","","","","","","","","","","","",""
"","","","","","html-button-response","20","105572","0.0-2.0-4.0","5a9b1eb7873cda0001dcb3c4","B2","batch2","","20134.70000001788","<p class=block-text> Good job! You are done with practice trials!<br>
        You responded correctly on 100% of the trials.<br>
        Press the button below to start official trials. Now you won't see any feedback about your response</p>","0","pattern_enter_official_trials","","","","","","","","","","","","","","","","","","","","","","","","",""
"","","","","","html-keyboard-response","21","106380","0.0-2.0-5.0-0.0","5a9b1eb7873cda0001dcb3c4","B2","batch2","","null","<p class=block-text>Trial 1 out of 78</p>","null","pattern_show_trial_num","","","","","","","","","","","","","","","","","","","","","","","","",""
"","","","","","image-keyboard-response","22","108395","0.0-2.0-5.0-1.0","5a9b1eb7873cda0001dcb3c4","B2","batch2","","2010.5999999940395","stim/yes_39_hor_w1_w.png","f","pattern_response","true","f","pattern_62","2010.5999999940395","true","1","","","","","","","","","","","","","","","","","","",""
"","","","","","html-keyboard-response","23","109711","0.0-2.0-5.0-0.1","5a9b1eb7873cda0001dcb3c4","B2","batch2","","null","<p class=block-text>Trial 2 out of 78</p>","null","pattern_show_trial_num","","","","","","","","","","","","","","","","","","","","","","","","",""
"","","","","","image-keyboard-response","24","111752","0.0-2.0-5.0-1.1","5a9b1eb7873cda0001dcb3c4","B2","batch2","","2038.699999988079","stim/no_36_1_b.png","j","pattern_response","true","j","pattern_17","2038.699999988079","true","2","","","","","","","","","","","","","","","","","","",""
"","","","","","html-keyboard-response","25","113063","0.0-2.0-5.0-0.2","5a9b1eb7873cda0001dcb3c4","B2","batch2","","null","<p class=block-text>Trial 3 out of 78</p>","null","pattern_show_trial_num","","","","","","","","","","","","","","","","","","","","","","","","",""
"","","","","","image-keyboard-response","26","115028","0.0-2.0-5.0-1.2","5a9b1eb7873cda0001dcb3c4","B2","batch2","","1963.5999999940395","stim/no_25_1_b.png","j","pattern_response","true","j","pattern_09","1963.5999999940395","true","3","","","","","","","","","","","","","","","","","","",""
"","","","","","html-keyboard-response","27","116358","0.0-2.0-5.0-0.3","5a9b1eb7873cda0001dcb3c4","B2","batch2","","null","<p class=block-text>Trial 4 out of 78</p>","null","pattern_show_trial_num","","","","","","","","","","","","","","","","","","","","","","","","",""
"","","","","","image-keyboard-response","28","117231","0.0-2.0-5.0-1.3","5a9b1eb7873cda0001dcb3c4","B2","batch2","","871","stim/yes_29_hor_b1_b.png","f","pattern_response","true","f","pattern_52","871","true","4","","","","","","","","","","","","","","","","","","",""
"","","","","","html-keyboard-response","29","118554","0.0-2.0-5.0-0.4","5a9b1eb7873cda0001dcb3c4","B2","batch2","","null","<p class=block-text>Trial 5 out of 78</p>","null","pattern_show_trial_num","","","","","","","","","","","","","","","","","","","","","","","","",""
"","","","","","image-keyboard-response","30","121261","0.0-2.0-5.0-1.4","5a9b1eb7873cda0001dcb3c4","B2","batch2","","2709.300000011921","stim/yes_44_ver_w1_w.png","j","pattern_response","false","f","pattern_66","2709.300000011921","false","4","","","","","","","","","","","","","","","","","","",""
"","","","","","html-keyboard-response","31","122585","0.0-2.0-5.0-0.5","5a9b1eb7873cda0001dcb3c4","B2","batch2","","null","<p class=block-text>Trial 6 out of 78</p>","null","pattern_show_trial_num","","","","","","","","","","","","","","","","","","","","","","","","",""
"","","","","","image-keyboard-response","32","125449","0.0-2.0-5.0-1.5","5a9b1eb7873cda0001dcb3c4","B2","batch2","","2860.800000011921","stim/yes_51_dia_b1.png","j","pattern_response","false","f","pattern_72","2860.800000011921","false","4","","","","","","","","","","","","","","","","","","",""
"","","","","","html-keyboard-response","33","126765","0.0-2.0-5.0-0.6","5a9b1eb7873cda0001dcb3c4","B2","batch2","","null","<p class=block-text>Trial 7 out of 78</p>","null","pattern_show_trial_num","","","","","","","","","","","","","","","","","","","","","","","","",""
"","","","","","image-keyboard-response","34","130016","0.0-2.0-5.0-1.6","5a9b1eb7873cda0001dcb3c4","B2","batch2","","3248.300000011921","stim/no_37_2_w.png","f","pattern_response","false","j","pattern_19","3248.300000011921","false","4","","","","","","","","","","","","","","","","","","",""
"","","","","","html-keyboard-response","35","131331","0.0-2.0-5.0-0.7","5a9b1eb7873cda0001dcb3c4","B2","batch2","","null","<p class=block-text>Trial 8 out of 78</p>","null","pattern_show_trial_num","","","","","","","","","","","","","","","","","","","","","","","","",""
"","","","","","image-keyboard-response","36","133443","0.0-2.0-5.0-1.7","5a9b1eb7873cda0001dcb3c4","B2","batch2","","2110.9000000059605","stim/yes_33_dia_w1_w.png","f","pattern_response","true","f","pattern_56","2110.9000000059605","true","5","","","","","","","","","","","","","","","","","","",""
"","","","","","html-keyboard-response","37","134763","0.0-2.0-5.0-0.8","5a9b1eb7873cda0001dcb3c4","B2","batch2","","null","<p class=block-text>Trial 9 out of 78</p>","null","pattern_show_trial_num","","","","","","","","","","","","","","","","","","","","","","","","",""
"","","","","","image-keyboard-response","38","136446","0.0-2.0-5.0-1.8","5a9b1eb7873cda0001dcb3c4","B2","batch2","","1681.2000000178814","stim/yes_46_ver_b1_b.png","f","pattern_response","true","f","pattern_68","1681.2000000178814","true","6","","","","","","","","","","","","","","","","","","",""
"","","","","","html-keyboard-response","39","137765","0.0-2.0-5.0-0.9","5a9b1eb7873cda0001dcb3c4","B2","batch2","","null","<p class=block-text>Trial 10 out of 78</p>","null","pattern_show_trial_num","","","","","","","","","","","","","","","","","","","","","","","","",""
"","","","","","image-keyboard-response","40","142497","0.0-2.0-5.0-1.9","5a9b1eb7873cda0001dcb3c4","B2","batch2","","4730","stim/no_49_2_b.png","j","pattern_response","true","j","pattern_29","4730","true","7","","","","","","","","","","","","","","","","","","",""
"","","","","","html-keyboard-response","41","143828","0.0-2.0-5.0-0.10","5a9b1eb7873cda0001dcb3c4","B2","batch2","","null","<p class=block-text>Trial 11 out of 78</p>","null","pattern_show_trial_num","","","","","","","","","","","","","","","","","","","","","","","","",""
"","","","","","image-keyboard-response","42","145050","0.0-2.0-5.0-1.10","5a9b1eb7873cda0001dcb3c4","B2","batch2","","1219.5999999940395","stim/yes_36_ver_w1_w.png","f","pattern_response","true","f","pattern_58","1219.5999999940395","true","8","","","","","","","","","","","","","","","","","","",""
"","","","","","html-keyboard-response","43","146364","0.0-2.0-5.0-0.11","5a9b1eb7873cda0001dcb3c4","B2","batch2","","null","<p class=block-text>Trial 12 out of 78</p>","null","pattern_show_trial_num","","","","","","","","","","","","","","","","","","","","","","","","",""
"","","","","","image-keyboard-response","44","150884","0.0-2.0-5.0-1.11","5a9b1eb7873cda0001dcb3c4","B2","batch2","","4519.100000023842","stim/no_43_2_b.png","j","pattern_response","true","j","pattern_23","4519.100000023842","true","9","","","","","","","","","","","","","","","","","","",""
"","","","","","html-keyboard-response","45","152210","0.0-2.0-5.0-0.12","5a9b1eb7873cda0001dcb3c4","B2","batch2","","null","<p class=block-text>Trial 13 out of 78</p>","null","pattern_show_trial_num","","","","","","","","","","","","","","","","","","","","","","","","",""
"","","","","","image-keyboard-response","46","157319","0.0-2.0-5.0-1.12","5a9b1eb7873cda0001dcb3c4","B2","batch2","","5105.4000000059605","stim/no_39_1_w.png","j","pattern_response","true","j","pattern_21","5105.4000000059605","true","10","","","","","","","","","","","","","","","","","","",""
"","","","","","html-keyboard-response","47","158641","0.0-2.0-5.0-0.13","5a9b1eb7873cda0001dcb3c4","B2","batch2","","null","<p class=block-text>Trial 14 out of 78</p>","null","pattern_show_trial_num","","","","","","","","","","","","","","","","","","","","","","","","",""
"","","","","","image-keyboard-response","48","165397","0.0-2.0-5.0-1.13","5a9b1eb7873cda0001dcb3c4","B2","batch2","","6754.800000011921","stim/no_58_1_w.png","j","pattern_response","true","j","pattern_35","6754.800000011921","true","11","","","","","","","","","","","","","","","","","","",""
"","","","","","html-keyboard-response","49","166722","0.0-2.0-5.0-0.14","5a9b1eb7873cda0001dcb3c4","B2","batch2","","null","<p class=block-text>Trial 15 out of 78</p>","null","pattern_show_trial_num","","","","","","","","","","","","","","","","","","","","","","","","",""
"","","","","","image-keyboard-response","50","173862","0.0-2.0-5.0-1.14","5a9b1eb7873cda0001dcb3c4","B2","batch2","","7138.4000000059605","stim/no_45_1_w.png","j","pattern_response","true","j","pattern_25","7138.4000000059605","true","12","","","","","","","","","","","","","","","","","","",""
"","","","","","html-keyboard-response","51","175186","0.0-2.0-5.0-0.15","5a9b1eb7873cda0001dcb3c4","B2","batch2","","null","<p class=block-text>Trial 16 out of 78</p>","null","pattern_show_trial_num","","","","","","","","","","","","","","","","","","","","","","","","",""
"","","","","","image-keyboard-response","52","184657","0.0-2.0-5.0-1.15","5a9b1eb7873cda0001dcb3c4","B2","batch2","","9472.299999982119","stim/no_53_1_b.png","j","pattern_response","true","j","pattern_33","9472.299999982119","true","13","","","","","","","","","","","","","","","","","","",""
"","","","","","html-keyboard-response","53","185981","0.0-2.0-5.0-0.16","5a9b1eb7873cda0001dcb3c4","B2","batch2","","null","<p class=block-text>Trial 17 out of 78</p>","null","pattern_show_trial_num","","","","","","","","","","","","","","","","","","","","","","","","",""
"","","","","","image-keyboard-response","54","193849","0.0-2.0-5.0-1.16","5a9b1eb7873cda0001dcb3c4","B2","batch2","","7865.799999982119","stim/yes_53_ver_b1_b.png","j","pattern_response","false","f","pattern_74","7865.799999982119","false","13","","","","","","","","","","","","","","","","","","",""
"","","","","","html-keyboard-response","55","195167","0.0-2.0-5.0-0.17","5a9b1eb7873cda0001dcb3c4","B2","batch2","","null","<p class=block-text>Trial 18 out of 78</p>","null","pattern_show_trial_num","","","","","","","","","","","","","","","","","","","","","","","","",""
"","","","","","image-keyboard-response","56","204171","0.0-2.0-5.0-1.17","5a9b1eb7873cda0001dcb3c4","B2","batch2","","9002.09999999404","stim/no_67_1.png","j","pattern_response","true","j","pattern_39","9002.09999999404","true","14","","","","","","","","","","","","","","","","","","",""
"","","","","","html-keyboard-response","57","205481","0.0-2.0-5.0-0.18","5a9b1eb7873cda0001dcb3c4","B2","batch2","","null","<p class=block-text>Trial 19 out of 78</p>","null","pattern_show_trial_num","","","","","","","","","","","","","","","","","","","","","","","","",""
"","","","","","image-keyboard-response","58","215761","0.0-2.0-5.0-1.18","5a9b1eb7873cda0001dcb3c4","B2","batch2","","10277.90000000596","stim/no_51_1.png","j","pattern_response","true","j","pattern_31","10277.90000000596","true","15","","","","","","","","","","","","","","","","","","",""
"","","","","","html-keyboard-response","59","217077","0.0-2.0-5.0-0.19","5a9b1eb7873cda0001dcb3c4","B2","batch2","","null","<p class=block-text>Trial 20 out of 78</p>","null","pattern_show_trial_num","","","","","","","","","","","","","","","","","","","","","","","","",""
"","","","","","image-keyboard-response","60","221485","0.0-2.0-5.0-1.19","5a9b1eb7873cda0001dcb3c4","B2","batch2","","4407.0999999940395","stim/yes_63_dia_b1.png","f","pattern_response","true","f","pattern_78","4407.0999999940395","true","16","","","","","","","","","","","","","","","","","","",""
"","","","","","html-keyboard-response","61","222804","0.0-2.0-5.0-0.20","5a9b1eb7873cda0001dcb3c4","B2","batch2","","null","<p class=block-text>Trial 21 out of 78</p>","null","pattern_show_trial_num","","","","","","","","","","","","","","","","","","","","","","","","",""
"","","","","","image-keyboard-response","62","225419","0.0-2.0-5.0-1.20","5a9b1eb7873cda0001dcb3c4","B2","batch2","","2611.300000011921","stim/no_12_1.png","j","pattern_response","true","j","pattern_01","2611.300000011921","true","17","","","","","","","","","","","","","","","","","","",""
"","","","","","html-keyboard-response","63","226723","0.0-2.0-5.0-0.21","5a9b1eb7873cda0001dcb3c4","B2","batch2","","null","<p class=block-text>Trial 22 out of 78</p>","null","pattern_show_trial_num","","","","","","","","","","","","","","","","","","","","","","","","",""
"","","","","","image-keyboard-response","64","228695","0.0-2.0-5.0-1.21","5a9b1eb7873cda0001dcb3c4","B2","batch2","","1970.7000000178814","stim/yes_70_ver_b1.png","f","pattern_response","true","f","pattern_80","1970.7000000178814","true","18","","","","","","","","","","","","","","","","","","",""
"","","","","","html-keyboard-response","65","230019","0.0-2.0-5.0-0.22","5a9b1eb7873cda0001dcb3c4","B2","batch2","","null","<p class=block-text>Trial 23 out of 78</p>","null","pattern_show_trial_num","","","","","","","","","","","","","","","","","","","","","","","","",""
"","","","","","image-keyboard-response","66","233769","0.0-2.0-5.0-1.22","5a9b1eb7873cda0001dcb3c4","B2","batch2","","3749.0999999940395","stim/no_22_1_b.png","j","pattern_response","true","j","pattern_07","3749.0999999940395","true","19","","","","","","","","","","","","","","","","","","",""
"","","","","","html-keyboard-response","67","235086","0.0-2.0-5.0-0.23","5a9b1eb7873cda0001dcb3c4","B2","batch2","","null","<p class=block-text>Trial 24 out of 78</p>","null","pattern_show_trial_num","","","","","","","","","","","","","","","","","","","","","","","","",""
"","","","","","image-keyboard-response","68","236039","0.0-2.0-5.0-1.23","5a9b1eb7873cda0001dcb3c4","B2","batch2","","950.0999999940395","stim/yes_12_hor_w1_w.png","f","pattern_response","true","f","pattern_42","950.0999999940395","true","20","","","","","","","","","","","","","","","","","","",""
"","","","","","html-keyboard-response","69","237368","0.0-2.0-5.0-0.24","5a9b1eb7873cda0001dcb3c4","B2","batch2","","null","<p class=block-text>Trial 25 out of 78</p>","null","pattern_show_trial_num","","","","","","","","","","","","","","","","","","","","","","","","",""
"","","","","","image-keyboard-response","70","244209","0.0-2.0-5.0-1.24","5a9b1eb7873cda0001dcb3c4","B2","batch2","","6839.5","stim/yes_42_dia_w1_w.png","f","pattern_response","true","f","pattern_64","6839.5","true","21","","","","","","","","","","","","","","","","","","",""
"","","","","","html-keyboard-response","71","245546","0.0-2.0-5.0-0.25","5a9b1eb7873cda0001dcb3c4","B2","batch2","","null","<p class=block-text>Trial 26 out of 78</p>","null","pattern_show_trial_num","","","","","","","","","","","","","","","","","","","","","","","","",""
"","","","","","image-keyboard-response","72","247157","0.0-2.0-5.0-1.25","5a9b1eb7873cda0001dcb3c4","B2","batch2","","1606.0999999940395","stim/yes_30_ver_b1_b.png","f","pattern_response","true","f","pattern_54","1606.0999999940395","true","22","","","","","","","","","","","","","","","","","","",""
"","","","","","html-keyboard-response","73","248469","0.0-2.0-5.0-0.26","5a9b1eb7873cda0001dcb3c4","B2","batch2","","null","<p class=block-text>Trial 27 out of 78</p>","null","pattern_show_trial_num","","","","","","","","","","","","","","","","","","","","","","","","",""
"","","","","","image-keyboard-response","74","249543","0.0-2.0-5.0-1.26","5a9b1eb7873cda0001dcb3c4","B2","batch2","","1073","stim/yes_23_ver_b1.png","f","pattern_response","true","f","pattern_48","1073","true","23","","","","","","","","","","","","","","","","","","",""
"","","","","","html-keyboard-response","75","250857","0.0-2.0-5.0-0.27","5a9b1eb7873cda0001dcb3c4","B2","batch2","","null","<p class=block-text>Trial 28 out of 78</p>","null","pattern_show_trial_num","","","","","","","","","","","","","","","","","","","","","","","","",""
"","","","","","image-keyboard-response","76","252227","0.0-2.0-5.0-1.27","5a9b1eb7873cda0001dcb3c4","B2","batch2","","1368.0999999940395","stim/yes_49_hor_w1_b.png","f","pattern_response","true","f","pattern_70","1368.0999999940395","true","24","","","","","","","","","","","","","","","","","","",""
"","","","","","html-keyboard-response","77","253533","0.0-2.0-5.0-0.28","5a9b1eb7873cda0001dcb3c4","B2","batch2","","null","<p class=block-text>Trial 29 out of 78</p>","null","pattern_show_trial_num","","","","","","","","","","","","","","","","","","","","","","","","",""
"","","","","","image-keyboard-response","78","260382","0.0-2.0-5.0-1.28","5a9b1eb7873cda0001dcb3c4","B2","batch2","","6848.800000011921","stim/no_33_1_b.png","j","pattern_response","true","j","pattern_15","6848.800000011921","true","25","","","","","","","","","","","","","","","","","","",""
"","","","","","html-keyboard-response","79","261696","0.0-2.0-5.0-0.29","5a9b1eb7873cda0001dcb3c4","B2","batch2","","null","<p class=block-text>Trial 30 out of 78</p>","null","pattern_show_trial_num","","","","","","","","","","","","","","","","","","","","","","","","",""
"","","","","","image-keyboard-response","80","262762","0.0-2.0-5.0-1.29","5a9b1eb7873cda0001dcb3c4","B2","batch2","","1063.2000000178814","stim/yes_37_hor_w1_w.png","f","pattern_response","true","f","pattern_60","1063.2000000178814","true","26","","","","","","","","","","","","","","","","","","",""
"","","","","","html-keyboard-response","81","264075","0.0-2.0-5.0-0.30","5a9b1eb7873cda0001dcb3c4","B2","batch2","","null","<p class=block-text>Trial 31 out of 78</p>","null","pattern_show_trial_num","","","","","","","","","","","","","","","","","","","","","","","","",""
"","","","","","image-keyboard-response","82","265434","0.0-2.0-5.0-1.30","5a9b1eb7873cda0001dcb3c4","B2","batch2","","1358.0999999940395","stim/yes_15_dia_b1u_b.png","f","pattern_response","true","f","pattern_44","1358.0999999940395","true","27","","","","","","","","","","","","","","","","","","",""
"","","","","","html-keyboard-response","83","266758","0.0-2.0-5.0-0.31","5a9b1eb7873cda0001dcb3c4","B2","batch2","","null","<p class=block-text>Trial 32 out of 78</p>","null","pattern_show_trial_num","","","","","","","","","","","","","","","","","","","","","","","","",""
"","","","","","image-keyboard-response","84","275056","0.0-2.0-5.0-1.31","5a9b1eb7873cda0001dcb3c4","B2","batch2","","8296.09999999404","stim/yes_58_dia_w1_w.png","f","pattern_response","true","f","pattern_76","8296.09999999404","true","28","","","","","","","","","","","","","","","","","","",""
"","","","","","html-keyboard-response","85","276375","0.0-2.0-5.0-0.32","5a9b1eb7873cda0001dcb3c4","B2","batch2","","null","<p class=block-text>Trial 33 out of 78</p>","null","pattern_show_trial_num","","","","","","","","","","","","","","","","","","","","","","","","",""
"","","","","","image-keyboard-response","86","278806","0.0-2.0-5.0-1.32","5a9b1eb7873cda0001dcb3c4","B2","batch2","","2430","stim/no_15_1_w.png","j","pattern_response","true","j","pattern_03","2430","true","29","","","","","","","","","","","","","","","","","","",""
"","","","","","html-keyboard-response","87","280121","0.0-2.0-5.0-0.33","5a9b1eb7873cda0001dcb3c4","B2","batch2","","null","<p class=block-text>Trial 34 out of 78</p>","null","pattern_show_trial_num","","","","","","","","","","","","","","","","","","","","","","","","",""
"","","","","","image-keyboard-response","88","283832","0.0-2.0-5.0-1.33","5a9b1eb7873cda0001dcb3c4","B2","batch2","","3709.0999999940395","stim/no_18_1_b.png","j","pattern_response","true","j","pattern_05","3709.0999999940395","true","30","","","","","","","","","","","","","","","","","","",""
"","","","","","html-keyboard-response","89","285154","0.0-2.0-5.0-0.34","5a9b1eb7873cda0001dcb3c4","B2","batch2","","null","<p class=block-text>Trial 35 out of 78</p>","null","pattern_show_trial_num","","","","","","","","","","","","","","","","","","","","","","","","",""
"","","","","","image-keyboard-response","90","290744","0.0-2.0-5.0-1.34","5a9b1eb7873cda0001dcb3c4","B2","batch2","","5587.799999982119","stim/no_28_2.png","j","pattern_response","true","j","pattern_11","5587.799999982119","true","31","","","","","","","","","","","","","","","","","","",""
"","","","","","html-keyboard-response","91","292068","0.0-2.0-5.0-0.35","5a9b1eb7873cda0001dcb3c4","B2","batch2","","null","<p class=block-text>Trial 36 out of 78</p>","null","pattern_show_trial_num","","","","","","","","","","","","","","","","","","","","","","","","",""
"","","","","","image-keyboard-response","92","293020","0.0-2.0-5.0-1.35","5a9b1eb7873cda0001dcb3c4","B2","batch2","","949.4000000059605","stim/yes_17_ver_b1_b.png","f","pattern_response","true","f","pattern_46","949.4000000059605","true","32","","","","","","","","","","","","","","","","","","",""
"","","","","","html-keyboard-response","93","294337","0.0-2.0-5.0-0.36","5a9b1eb7873cda0001dcb3c4","B2","batch2","","null","<p class=block-text>Trial 37 out of 78</p>","null","pattern_show_trial_num","","","","","","","","","","","","","","","","","","","","","","","","",""
"","","","","","image-keyboard-response","94","295815","0.0-2.0-5.0-1.36","5a9b1eb7873cda0001dcb3c4","B2","batch2","","1476.6000000238419","stim/yes_26_dia_w2_w.png","f","pattern_response","true","f","pattern_50","1476.6000000238419","true","33","","","","","","","","","","","","","","","","","","",""
"","","","","","html-keyboard-response","95","297134","0.0-2.0-5.0-0.37","5a9b1eb7873cda0001dcb3c4","B2","batch2","","null","<p class=block-text>Trial 38 out of 78</p>","null","pattern_show_trial_num","","","","","","","","","","","","","","","","","","","","","","","","",""
"","","","","","image-keyboard-response","96","302238","0.0-2.0-5.0-1.37","5a9b1eb7873cda0001dcb3c4","B2","batch2","","5101.4000000059605","stim/no_30_1_b.png","j","pattern_response","true","j","pattern_13","5101.4000000059605","true","34","","","","","","","","","","","","","","","","","","",""
"","","","","","html-keyboard-response","97","303553","0.0-2.0-5.0-0.38","5a9b1eb7873cda0001dcb3c4","B2","batch2","","null","<p class=block-text>Trial 39 out of 78</p>","null","pattern_show_trial_num","","","","","","","","","","","","","","","","","","","","","","","","",""
"","","","","","image-keyboard-response","98","310912","0.0-2.0-5.0-1.38","5a9b1eb7873cda0001dcb3c4","B2","batch2","","7364.5","stim/no_47_1_b.png","j","pattern_response","true","j","pattern_27","7364.5","true","35","","","","","","","","","","","","","","","","","","",""
"","","","","","image-keyboard-response","99","313962","0.0-2.0-6.0","5a9b1eb7873cda0001dcb3c4","B2","batch2","","2536.4000000059605","stim/empty_board.png","j","attention_check","true","j","","","","","500","[""f"",""j""]","","","","","","","","","","","","","","","","",""
"","","","","","html-keyboard-response","100","314777","0.0-2.0-7.0-0.0","5a9b1eb7873cda0001dcb3c4","B2","batch2","","null","<p class=block-text>Trial 40 out of 78</p>","null","pattern_show_trial_num","","","","","","","","","","","","","","","","","","","","","","","","",""
"","","","","","image-keyboard-response","101","319233","0.0-2.0-7.0-1.0","5a9b1eb7873cda0001dcb3c4","B2","batch2","","4454.199999988079","stim/no_32_1_w.png","j","pattern_response","true","j","pattern_14","4454.199999988079","true","36","","","","","","","","","","","","","","","","","","",""
"","","","","","html-keyboard-response","102","320541","0.0-2.0-7.0-0.1","5a9b1eb7873cda0001dcb3c4","B2","batch2","","null","<p class=block-text>Trial 41 out of 78</p>","null","pattern_show_trial_num","","","","","","","","","","","","","","","","","","","","","","","","",""
"","","","","","image-keyboard-response","103","331317","0.0-2.0-7.0-1.1","5a9b1eb7873cda0001dcb3c4","B2","batch2","","10774.399999976158","stim/no_65_1_b.png","j","pattern_response","true","j","pattern_38","10774.399999976158","true","37","","","","","","","","","","","","","","","","","","",""
"","","","","","html-keyboard-response","104","332635","0.0-2.0-7.0-0.2","5a9b1eb7873cda0001dcb3c4","B2","batch2","","null","<p class=block-text>Trial 42 out of 78</p>","null","pattern_show_trial_num","","","","","","","","","","","","","","","","","","","","","","","","",""
"","","","","","image-keyboard-response","105","333875","0.0-2.0-7.0-1.2","5a9b1eb7873cda0001dcb3c4","B2","batch2","","1238.9000000059605","stim/yes_52_ver_w1.png","f","pattern_response","true","f","pattern_73","1238.9000000059605","true","38","","","","","","","","","","","","","","","","","","",""
"","","","","","html-keyboard-response","106","335188","0.0-2.0-7.0-0.3","5a9b1eb7873cda0001dcb3c4","B2","batch2","","null","<p class=block-text>Trial 43 out of 78</p>","null","pattern_show_trial_num","","","","","","","","","","","","","","","","","","","","","","","","",""
"","","","","","image-keyboard-response","107","336162","0.0-2.0-7.0-1.3","5a9b1eb7873cda0001dcb3c4","B2","batch2","","972.5999999940395","stim/yes_17_dia_w1.png","f","pattern_response","true","f","pattern_45","972.5999999940395","true","39","","","","","","","","","","","","","","","","","","",""
"","","","","","html-keyboard-response","108","337483","0.0-2.0-7.0-0.4","5a9b1eb7873cda0001dcb3c4","B2","batch2","","null","<p class=block-text>Trial 44 out of 78</p>","null","pattern_show_trial_num","","","","","","","","","","","","","","","","","","","","","","","","",""
"","","","","","image-keyboard-response","109","339166","0.0-2.0-7.0-1.4","5a9b1eb7873cda0001dcb3c4","B2","batch2","","1681.4000000059605","stim/yes_35_dia_b1.png","f","pattern_response","true","f","pattern_57","1681.4000000059605","true","40","","","","","","","","","","","","","","","","","","",""
"","","","","","html-keyboard-response","110","340484","0.0-2.0-7.0-0.5","5a9b1eb7873cda0001dcb3c4","B2","batch2","","null","<p class=block-text>Trial 45 out of 78</p>","null","pattern_show_trial_num","","","","","","","","","","","","","","","","","","","","","","","","",""
"","","","","","image-keyboard-response","111","344087","0.0-2.0-7.0-1.5","5a9b1eb7873cda0001dcb3c4","B2","batch2","","3601.800000011921","stim/yes_60_ver_b1_b.png","f","pattern_response","true","f","pattern_77","3601.800000011921","true","41","","","","","","","","","","","","","","","","","","",""
"","","","","","html-keyboard-response","112","345416","0.0-2.0-7.0-0.6","5a9b1eb7873cda0001dcb3c4","B2","batch2","","null","<p class=block-text>Trial 46 out of 78</p>","null","pattern_show_trial_num","","","","","","","","","","","","","","","","","","","","","","","","",""
"","","","","","image-keyboard-response","113","356736","0.0-2.0-7.0-1.6","5a9b1eb7873cda0001dcb3c4","B2","batch2","","11318.40000000596","stim/no_70_2.png","j","pattern_response","true","j","pattern_40","11318.40000000596","true","42","","","","","","","","","","","","","","","","","","",""
"","","","","","html-keyboard-response","114","358049","0.0-2.0-7.0-0.7","5a9b1eb7873cda0001dcb3c4","B2","batch2","","null","<p class=block-text>Trial 47 out of 78</p>","null","pattern_show_trial_num","","","","","","","","","","","","","","","","","","","","","","","","",""
"","","","","","image-keyboard-response","115","360081","0.0-2.0-7.0-1.7","5a9b1eb7873cda0001dcb3c4","B2","batch2","","2028.9000000059605","stim/yes_50_dia_w1.png","f","pattern_response","true","f","pattern_71","2028.9000000059605","true","43","","","","","","","","","","","","","","","","","","",""
"","","","","","html-keyboard-response","116","361397","0.0-2.0-7.0-0.8","5a9b1eb7873cda0001dcb3c4","B2","batch2","","null","<p class=block-text>Trial 48 out of 78</p>","null","pattern_show_trial_num","","","","","","","","","","","","","","","","","","","","","","","","",""
"","","","","","image-keyboard-response","117","367180","0.0-2.0-7.0-1.8","5a9b1eb7873cda0001dcb3c4","B2","batch2","","5781.0999999940395","stim/no_38_1_b.png","j","pattern_response","true","j","pattern_20","5781.0999999940395","true","44","","","","","","","","","","","","","","","","","","",""
"","","","","","html-keyboard-response","118","368510","0.0-2.0-7.0-0.9","5a9b1eb7873cda0001dcb3c4","B2","batch2","","null","<p class=block-text>Trial 49 out of 78</p>","null","pattern_show_trial_num","","","","","","","","","","","","","","","","","","","","","","","","",""
"","","","","","image-keyboard-response","119","371971","0.0-2.0-7.0-1.9","5a9b1eb7873cda0001dcb3c4","B2","batch2","","3458.300000011921","stim/yes_55_hor_w1_w.png","f","pattern_response","true","f","pattern_75","3458.300000011921","true","45","","","","","","","","","","","","","","","","","","",""
"","","","","","html-keyboard-response","120","373291","0.0-2.0-7.0-0.10","5a9b1eb7873cda0001dcb3c4","B2","batch2","","null","<p class=block-text>Trial 50 out of 78</p>","null","pattern_show_trial_num","","","","","","","","","","","","","","","","","","","","","","","","",""
"","","","","","image-keyboard-response","121","376081","0.0-2.0-7.0-1.10","5a9b1eb7873cda0001dcb3c4","B2","batch2","","2788.5999999940395","stim/yes_48_dia_w1_w.png","f","pattern_response","true","f","pattern_69","2788.5999999940395","true","46","","","","","","","","","","","","","","","","","","",""
"","","","","","html-keyboard-response","122","377410","0.0-2.0-7.0-0.11","5a9b1eb7873cda0001dcb3c4","B2","batch2","","null","<p class=block-text>Trial 51 out of 78</p>","null","pattern_show_trial_num","","","","","","","","","","","","","","","","","","","","","","","","",""
"","","","","","image-keyboard-response","123","390250","0.0-2.0-7.0-1.11","5a9b1eb7873cda0001dcb3c4","B2","batch2","","12837.300000011921","stim/no_62_1_w.png","j","pattern_response","true","j","pattern_36","12837.300000011921","true","47","","","","","","","","","","","","","","","","","","",""
"","","","","","html-keyboard-response","124","391571","0.0-2.0-7.0-0.12","5a9b1eb7873cda0001dcb3c4","B2","batch2","","null","<p class=block-text>Trial 52 out of 78</p>","null","pattern_show_trial_num","","","","","","","","","","","","","","","","","","","","","","","","",""
"","","","","","image-keyboard-response","125","397696","0.0-2.0-7.0-1.12","5a9b1eb7873cda0001dcb3c4","B2","batch2","","6123.199999988079","stim/no_44_1.png","j","pattern_response","true","j","pattern_24","6123.199999988079","true","48","","","","","","","","","","","","","","","","","","",""
"","","","","","html-keyboard-response","126","399018","0.0-2.0-7.0-0.13","5a9b1eb7873cda0001dcb3c4","B2","batch2","","null","<p class=block-text>Trial 53 out of 78</p>","null","pattern_show_trial_num","","","","","","","","","","","","","","","","","","","","","","","","",""
"","","","","","image-keyboard-response","127","407013","0.0-2.0-7.0-1.13","5a9b1eb7873cda0001dcb3c4","B2","batch2","","7993.299999982119","stim/no_42_1_w.png","j","pattern_response","true","j","pattern_22","7993.299999982119","true","49","","","","","","","","","","","","","","","","","","",""
"","","","","","html-keyboard-response","128","408333","0.0-2.0-7.0-0.14","5a9b1eb7873cda0001dcb3c4","B2","batch2","","null","<p class=block-text>Trial 54 out of 78</p>","null","pattern_show_trial_num","","","","","","","","","","","","","","","","","","","","","","","","",""
"","","","","","image-keyboard-response","129","409420","0.0-2.0-7.0-1.14","5a9b1eb7873cda0001dcb3c4","B2","batch2","","1085.6000000238419","stim/yes_67_hor_b1.png","f","pattern_response","true","f","pattern_79","1085.6000000238419","true","50","","","","","","","","","","","","","","","","","","",""
"","","","","","html-keyboard-response","130","410749","0.0-2.0-7.0-0.15","5a9b1eb7873cda0001dcb3c4","B2","batch2","","null","<p class=block-text>Trial 55 out of 78</p>","null","pattern_show_trial_num","","","","","","","","","","","","","","","","","","","","","","","","",""
"","","","","","image-keyboard-response","131","417318","0.0-2.0-7.0-1.15","5a9b1eb7873cda0001dcb3c4","B2","batch2","","6567.299999982119","stim/yes_40_dia_b1_b.png","j","pattern_response","false","f","pattern_63","6567.299999982119","false","50","","","","","","","","","","","","","","","","","","",""
"","","","","","html-keyboard-response","132","418630","0.0-2.0-7.0-0.16","5a9b1eb7873cda0001dcb3c4","B2","batch2","","null","<p class=block-text>Trial 56 out of 78</p>","null","pattern_show_trial_num","","","","","","","","","","","","","","","","","","","","","","","","",""
"","","","","","image-keyboard-response","133","419772","0.0-2.0-7.0-1.16","5a9b1eb7873cda0001dcb3c4","B2","batch2","","1132.7000000178814","stim/yes_25_hor_b1_b.png","f","pattern_response","true","f","pattern_49","1132.7000000178814","true","51","","","","","","","","","","","","","","","","","","",""
"","","","","","html-keyboard-response","134","421098","0.0-2.0-7.0-0.17","5a9b1eb7873cda0001dcb3c4","B2","batch2","","null","<p class=block-text>Trial 57 out of 78</p>","null","pattern_show_trial_num","","","","","","","","","","","","","","","","","","","","","","","","",""
"","","","","","image-keyboard-response","135","423433","0.0-2.0-7.0-1.17","5a9b1eb7873cda0001dcb3c4","B2","batch2","","2333.4000000059605","stim/yes_38_hor_b1_b.png","f","pattern_response","true","f","pattern_61","2333.4000000059605","true","52","","","","","","","","","","","","","","","","","","",""
"","","","","","html-keyboard-response","136","424763","0.0-2.0-7.0-0.18","5a9b1eb7873cda0001dcb3c4","B2","batch2","","null","<p class=block-text>Trial 58 out of 78</p>","null","pattern_show_trial_num","","","","","","","","","","","","","","","","","","","","","","","","",""
"","","","","","image-keyboard-response","137","429458","0.0-2.0-7.0-1.18","5a9b1eb7873cda0001dcb3c4","B2","batch2","","4694.199999988079","stim/yes_37_dia_w1.png","j","pattern_response","false","f","pattern_59","4694.199999988079","false","52","","","","","","","","","","","","","","","","","","",""
"","","","","","html-keyboard-response","138","430770","0.0-2.0-7.0-0.19","5a9b1eb7873cda0001dcb3c4","B2","batch2","","null","<p class=block-text>Trial 59 out of 78</p>","null","pattern_show_trial_num","","","","","","","","","","","","","","","","","","","","","","","","",""
"","","","","","image-keyboard-response","139","436560","0.0-2.0-7.0-1.19","5a9b1eb7873cda0001dcb3c4","B2","batch2","","5783.399999976158","stim/no_34_1_b.png","j","pattern_response","true","j","pattern_16","5783.399999976158","true","53","","","","","","","","","","","","","","","","","","",""
"","","","","","html-keyboard-response","140","437870","0.0-2.0-7.0-0.20","5a9b1eb7873cda0001dcb3c4","B2","batch2","","null","<p class=block-text>Trial 60 out of 78</p>","null","pattern_show_trial_num","","","","","","","","","","","","","","","","","","","","","","","","",""
"","","","","","image-keyboard-response","141","439142","0.0-2.0-7.0-1.20","5a9b1eb7873cda0001dcb3c4","B2","batch2","","1269.4000000059605","stim/yes_45_hor_b2_b.png","f","pattern_response","true","f","pattern_67","1269.4000000059605","true","54","","","","","","","","","","","","","","","","","","",""
"","","","","","html-keyboard-response","142","440463","0.0-2.0-7.0-0.21","5a9b1eb7873cda0001dcb3c4","B2","batch2","","null","<p class=block-text>Trial 61 out of 78</p>","null","pattern_show_trial_num","","","","","","","","","","","","","","","","","","","","","","","","",""
"","","","","","image-keyboard-response","143","441556","0.0-2.0-7.0-1.21","5a9b1eb7873cda0001dcb3c4","B2","batch2","","1091.3999999761581","stim/yes_28_ver_b1.png","f","pattern_response","true","f","pattern_51","1091.3999999761581","true","55","","","","","","","","","","","","","","","","","","",""
"","","","","","html-keyboard-response","144","442871","0.0-2.0-7.0-0.22","5a9b1eb7873cda0001dcb3c4","B2","batch2","","null","<p class=block-text>Trial 62 out of 78</p>","null","pattern_show_trial_num","","","","","","","","","","","","","","","","","","","","","","","","",""
"","","","","","image-keyboard-response","145","446313","0.0-2.0-7.0-1.22","5a9b1eb7873cda0001dcb3c4","B2","batch2","","3441.199999988079","stim/no_26_1_w.png","j","pattern_response","true","j","pattern_10","3441.199999988079","true","56","","","","","","","","","","","","","","","","","","",""
"","","","","","html-keyboard-response","146","447630","0.0-2.0-7.0-0.23","5a9b1eb7873cda0001dcb3c4","B2","batch2","","null","<p class=block-text>Trial 63 out of 78</p>","null","pattern_show_trial_num","","","","","","","","","","","","","","","","","","","","","","","","",""
"","","","","","image-keyboard-response","147","456181","0.0-2.0-7.0-1.23","5a9b1eb7873cda0001dcb3c4","B2","batch2","","8548.09999999404","stim/no_48_1_w.png","j","pattern_response","true","j","pattern_28","8548.09999999404","true","57","","","","","","","","","","","","","","","","","","",""
"","","","","","html-keyboard-response","148","457508","0.0-2.0-7.0-0.24","5a9b1eb7873cda0001dcb3c4","B2","batch2","","null","<p class=block-text>Trial 64 out of 78</p>","null","pattern_show_trial_num","","","","","","","","","","","","","","","","","","","","","","","","",""
"","","","","","image-keyboard-response","149","460489","0.0-2.0-7.0-1.24","5a9b1eb7873cda0001dcb3c4","B2","batch2","","2978.199999988079","stim/no_23_1.png","j","pattern_response","true","j","pattern_08","2978.199999988079","true","58","","","","","","","","","","","","","","","","","","",""
"","","","","","html-keyboard-response","150","461808","0.0-2.0-7.0-0.25","5a9b1eb7873cda0001dcb3c4","B2","batch2","","null","<p class=block-text>Trial 65 out of 78</p>","null","pattern_show_trial_num","","","","","","","","","","","","","","","","","","","","","","","","",""
"","","","","","image-keyboard-response","151","463575","0.0-2.0-7.0-1.25","5a9b1eb7873cda0001dcb3c4","B2","batch2","","1764.300000011921","stim/no_13_2_b.png","j","pattern_response","true","j","pattern_02","1764.300000011921","true","59","","","","","","","","","","","","","","","","","","",""
"","","","","","html-keyboard-response","152","464893","0.0-2.0-7.0-0.26","5a9b1eb7873cda0001dcb3c4","B2","batch2","","null","<p class=block-text>Trial 66 out of 78</p>","null","pattern_show_trial_num","","","","","","","","","","","","","","","","","","","","","","","","",""
"","","","","","image-keyboard-response","153","471489","0.0-2.0-7.0-1.26","5a9b1eb7873cda0001dcb3c4","B2","batch2","","6595","stim/no_36_2_w.png","j","pattern_response","true","j","pattern_18","6595","true","60","","","","","","","","","","","","","","","","","","",""
"","","","","","html-keyboard-response","154","472806","0.0-2.0-7.0-0.27","5a9b1eb7873cda0001dcb3c4","B2","batch2","","null","<p class=block-text>Trial 67 out of 78</p>","null","pattern_show_trial_num","","","","","","","","","","","","","","","","","","","","","","","","",""
"","","","","","image-keyboard-response","155","480332","0.0-2.0-7.0-1.27","5a9b1eb7873cda0001dcb3c4","B2","batch2","","7524.699999988079","stim/no_52_1.png","j","pattern_response","true","j","pattern_32","7524.699999988079","true","61","","","","","","","","","","","","","","","","","","",""
"","","","","","html-keyboard-response","156","481646","0.0-2.0-7.0-0.28","5a9b1eb7873cda0001dcb3c4","B2","batch2","","null","<p class=block-text>Trial 68 out of 78</p>","null","pattern_show_trial_num","","","","","","","","","","","","","","","","","","","","","","","","",""
"","","","","","image-keyboard-response","157","483168","0.0-2.0-7.0-1.28","5a9b1eb7873cda0001dcb3c4","B2","batch2","","1520.9000000059605","stim/no_17_1_w.png","j","pattern_response","true","j","pattern_04","1520.9000000059605","true","62","","","","","","","","","","","","","","","","","","",""
"","","","","","html-keyboard-response","158","484475","0.0-2.0-7.0-0.29","5a9b1eb7873cda0001dcb3c4","B2","batch2","","null","<p class=block-text>Trial 69 out of 78</p>","null","pattern_show_trial_num","","","","","","","","","","","","","","","","","","","","","","","","",""
"","","","","","image-keyboard-response","159","485605","0.0-2.0-7.0-1.29","5a9b1eb7873cda0001dcb3c4","B2","batch2","","1128.4000000059605","stim/yes_43_ver_w1_w.png","f","pattern_response","true","f","pattern_65","1128.4000000059605","true","63","","","","","","","","","","","","","","","","","","",""
"","","","","","html-keyboard-response","160","486921","0.0-2.0-7.0-0.30","5a9b1eb7873cda0001dcb3c4","B2","batch2","","null","<p class=block-text>Trial 70 out of 78</p>","null","pattern_show_trial_num","","","","","","","","","","","","","","","","","","","","","","","","",""
"","","","","","image-keyboard-response","161","487879","0.0-2.0-7.0-1.30","5a9b1eb7873cda0001dcb3c4","B2","batch2","","957","stim/yes_29_ver_w1.png","f","pattern_response","true","f","pattern_53","957","true","64","","","","","","","","","","","","","","","","","","",""
"","","","","","html-keyboard-response","162","489206","0.0-2.0-7.0-0.31","5a9b1eb7873cda0001dcb3c4","B2","batch2","","null","<p class=block-text>Trial 71 out of 78</p>","null","pattern_show_trial_num","","","","","","","","","","","","","","","","","","","","","","","","",""
"","","","","","image-keyboard-response","163","490123","0.0-2.0-7.0-1.31","5a9b1eb7873cda0001dcb3c4","B2","batch2","","915","stim/yes_22_ver_w1.png","f","pattern_response","true","f","pattern_47","915","true","65","","","","","","","","","","","","","","","","","","",""
"","","","","","html-keyboard-response","164","491437","0.0-2.0-7.0-0.32","5a9b1eb7873cda0001dcb3c4","B2","batch2","","null","<p class=block-text>Trial 72 out of 78</p>","null","pattern_show_trial_num","","","","","","","","","","","","","","","","","","","","","","","","",""
"","","","","","image-keyboard-response","165","494457","0.0-2.0-7.0-1.32","5a9b1eb7873cda0001dcb3c4","B2","batch2","","3018.9000000059605","stim/no_20_1_w.png","j","pattern_response","true","j","pattern_06","3018.9000000059605","true","66","","","","","","","","","","","","","","","","","","",""
"","","","","","html-keyboard-response","166","495770","0.0-2.0-7.0-0.33","5a9b1eb7873cda0001dcb3c4","B2","batch2","","null","<p class=block-text>Trial 73 out of 78</p>","null","pattern_show_trial_num","","","","","","","","","","","","","","","","","","","","","","","","",""
"","","","","","image-keyboard-response","167","498500","0.0-2.0-7.0-1.33","5a9b1eb7873cda0001dcb3c4","B2","batch2","","2738.5","stim/yes_31_hor_b1.png","f","pattern_response","true","f","pattern_55","2738.5","true","67","","","","","","","","","","","","","","","","","","",""
"","","","","","html-keyboard-response","168","499825","0.0-2.0-7.0-0.34","5a9b1eb7873cda0001dcb3c4","B2","batch2","","null","<p class=block-text>Trial 74 out of 78</p>","null","pattern_show_trial_num","","","","","","","","","","","","","","","","","","","","","","","","",""
"","","","","","image-keyboard-response","169","508908","0.0-2.0-7.0-1.34","5a9b1eb7873cda0001dcb3c4","B2","batch2","","9082.40000000596","stim/no_50_1.png","j","pattern_response","true","j","pattern_30","9082.40000000596","true","68","","","","","","","","","","","","","","","","","","",""
"","","","","","html-keyboard-response","170","510224","0.0-2.0-7.0-0.35","5a9b1eb7873cda0001dcb3c4","B2","batch2","","null","<p class=block-text>Trial 75 out of 78</p>","null","pattern_show_trial_num","","","","","","","","","","","","","","","","","","","","","","","","",""
"","","","","","image-keyboard-response","171","514528","0.0-2.0-7.0-1.35","5a9b1eb7873cda0001dcb3c4","B2","batch2","","4302.0999999940395","stim/no_29_1_b.png","j","pattern_response","true","j","pattern_12","4302.0999999940395","true","69","","","","","","","","","","","","","","","","","","",""
"","","","","","html-keyboard-response","172","515839","0.0-2.0-7.0-0.36","5a9b1eb7873cda0001dcb3c4","B2","batch2","","null","<p class=block-text>Trial 76 out of 78</p>","null","pattern_show_trial_num","","","","","","","","","","","","","","","","","","","","","","","","",""
"","","","","","image-keyboard-response","173","516735","0.0-2.0-7.0-1.36","5a9b1eb7873cda0001dcb3c4","B2","batch2","","894.2000000178814","stim/yes_14_hor_b1_w.png","f","pattern_response","true","f","pattern_43","894.2000000178814","true","70","","","","","","","","","","","","","","","","","","",""
"","","","","","html-keyboard-response","174","518053","0.0-2.0-7.0-0.37","5a9b1eb7873cda0001dcb3c4","B2","batch2","","null","<p class=block-text>Trial 77 out of 78</p>","null","pattern_show_trial_num","","","","","","","","","","","","","","","","","","","","","","","","",""
"","","","","","image-keyboard-response","175","526114","0.0-2.0-7.0-1.37","5a9b1eb7873cda0001dcb3c4","B2","batch2","","8060.200000017881","stim/no_46_1_b.png","j","pattern_response","true","j","pattern_26","8060.200000017881","true","71","","","","","","","","","","","","","","","","","","",""
"","","","","","html-keyboard-response","176","527436","0.0-2.0-7.0-0.38","5a9b1eb7873cda0001dcb3c4","B2","batch2","","null","<p class=block-text>Trial 78 out of 78</p>","null","pattern_show_trial_num","","","","","","","","","","","","","","","","","","","","","","","","",""
"","","","","","image-keyboard-response","177","538230","0.0-2.0-7.0-1.38","5a9b1eb7873cda0001dcb3c4","B2","batch2","","10792.399999976158","stim/no_55_1_w.png","j","pattern_response","true","j","pattern_34","10792.399999976158","true","72","","","","","","","","","","","","","","","","","","",""
"","","","","","html-button-response","178","545450","0.0-2.0-8.0","5a9b1eb7873cda0001dcb3c4","B2","batch2","","6718.4000000059605","<p class = block-text>This concludes the 4-in-a-row detection game.Thank you for your responses!<br>
            You responded correctly on 92% of the trials.<br>
            When you are ready, press ""Continue"" button to continue </p>","0","","","","","","","","","","","","","","","","","","","","","","","","","",""
"true","","","","","fullscreen","179","558363","0.0-3.0-0.0","5a9b1eb7873cda0001dcb3c4","B2","batch2","","","","","spm_fullscreen","","","","","","","","","","","","","","","","","","","","","","","","",""
"","","","","","html-button-response","180","575182","0.0-3.0-1.0","5a9b1eb7873cda0001dcb3c4","B2","batch2","","16805.100000023842","<p class = block-text><b>Instructions</b> <br>This is a widely used intelligence test in research. <br>In this test, a figure with a missing piece will be presented.<br>Below the figure are alternative pieces to complete the figure, only one of which is correct.<br> Different figures might involve different principles for obtaining the missing piece<br>Your job is to select the most logical piece to complete the figure.</p>","0","","","","","","","","","","","","","","","","","","","","","","","","","",""
"","","","","","html-keyboard-response","181","575983","0.0-3.0-2.0-0.0","5a9b1eb7873cda0001dcb3c4","B2","batch2","","null","<p class=block-text>Trial 1 out of 60</p>","null","spm_show_trial_num","","","","","","","","","","","","","","","","","","","","","","","","",""
"","","","","","image-button-response","182","581729","0.0-3.0-2.0-1.0","5a9b1eb7873cda0001dcb3c4","B2","batch2","","5744.300000011921","img/question_1_1.jpeg","3","spm_respsonse","1","4","mat_01","","","","","","1","5744.300000011921","","","","","","","","","","","","","","",""
"","","","","","html-keyboard-response","183","582782","0.0-3.0-2.0-0.1","5a9b1eb7873cda0001dcb3c4","B2","batch2","","null","<p class=block-text>Trial 2 out of 60</p>","null","spm_show_trial_num","","","","","","","","","","","","","","","","","","","","","","","","",""
"","","","","","image-button-response","184","585948","0.0-3.0-2.0-1.1","5a9b1eb7873cda0001dcb3c4","B2","batch2","","3163.0999999940395","img/question_1_2.jpeg","4","spm_respsonse","1","5","mat_02","","","","","","1","3163.0999999940395","","","","","","","","","","","","","","",""
"","","","","","html-keyboard-response","185","587000","0.0-3.0-2.0-0.2","5a9b1eb7873cda0001dcb3c4","B2","batch2","","null","<p class=block-text>Trial 3 out of 60</p>","null","spm_show_trial_num","","","","","","","","","","","","","","","","","","","","","","","","",""
"","","","","","image-button-response","186","592001","0.0-3.0-2.0-1.2","5a9b1eb7873cda0001dcb3c4","B2","batch2","","4999.5","img/question_1_3.jpeg","0","spm_respsonse","1","1","mat_03","","","","","","1","4999.5","","","","","","","","","","","","","","",""
"","","","","","html-keyboard-response","187","593059","0.0-3.0-2.0-0.3","5a9b1eb7873cda0001dcb3c4","B2","batch2","","null","<p class=block-text>Trial 4 out of 60</p>","null","spm_show_trial_num","","","","","","","","","","","","","","","","","","","","","","","","",""
"","","","","","image-button-response","188","597691","0.0-3.0-2.0-1.3","5a9b1eb7873cda0001dcb3c4","B2","batch2","","4630.300000011921","img/question_1_4.jpeg","1","spm_respsonse","1","2","mat_04","","","","","","1","4630.300000011921","","","","","","","","","","","","","","",""
"","","","","","html-keyboard-response","189","598744","0.0-3.0-2.0-0.4","5a9b1eb7873cda0001dcb3c4","B2","batch2","","null","<p class=block-text>Trial 5 out of 60</p>","null","spm_show_trial_num","","","","","","","","","","","","","","","","","","","","","","","","",""
"","","","","","image-button-response","190","604098","0.0-3.0-2.0-1.4","5a9b1eb7873cda0001dcb3c4","B2","batch2","","5352.800000011921","img/question_1_5.jpeg","5","spm_respsonse","1","6","mat_05","","","","","","1","5352.800000011921","","","","","","","","","","","","","","",""
"","","","","","html-keyboard-response","191","605151","0.0-3.0-2.0-0.5","5a9b1eb7873cda0001dcb3c4","B2","batch2","","null","<p class=block-text>Trial 6 out of 60</p>","null","spm_show_trial_num","","","","","","","","","","","","","","","","","","","","","","","","",""
"","","","","","image-button-response","192","608756","0.0-3.0-2.0-1.5","5a9b1eb7873cda0001dcb3c4","B2","batch2","","3603.199999988079","img/question_1_6.jpeg","2","spm_respsonse","1","3","mat_06","","","","","","1","3603.199999988079","","","","","","","","","","","","","","",""
"","","","","","html-keyboard-response","193","609808","0.0-3.0-2.0-0.6","5a9b1eb7873cda0001dcb3c4","B2","batch2","","null","<p class=block-text>Trial 7 out of 60</p>","null","spm_show_trial_num","","","","","","","","","","","","","","","","","","","","","","","","",""
"","","","","","image-button-response","194","617099","0.0-3.0-2.0-1.6","5a9b1eb7873cda0001dcb3c4","B2","batch2","","7290","img/question_1_7.jpeg","5","spm_respsonse","1","6","mat_07","","","","","","1","7290","","","","","","","","","","","","","","",""
"","","","","","html-keyboard-response","195","618150","0.0-3.0-2.0-0.7","5a9b1eb7873cda0001dcb3c4","B2","batch2","","null","<p class=block-text>Trial 8 out of 60</p>","null","spm_show_trial_num","","","","","","","","","","","","","","","","","","","","","","","","",""
"","","","","","image-button-response","196","623454","0.0-3.0-2.0-1.7","5a9b1eb7873cda0001dcb3c4","B2","batch2","","5301.399999976158","img/question_1_8.jpeg","1","spm_respsonse","1","2","mat_08","","","","","","1","5301.399999976158","","","","","","","","","","","","","","",""
"","","","","","html-keyboard-response","197","624506","0.0-3.0-2.0-0.8","5a9b1eb7873cda0001dcb3c4","B2","batch2","","null","<p class=block-text>Trial 9 out of 60</p>","null","spm_show_trial_num","","","","","","","","","","","","","","","","","","","","","","","","",""
"","","","","","image-button-response","198","631050","0.0-3.0-2.0-1.8","5a9b1eb7873cda0001dcb3c4","B2","batch2","","6541.5999999940395","img/question_1_9.jpeg","0","spm_respsonse","1","1","mat_09","","","","","","1","6541.5999999940395","","","","","","","","","","","","","","",""
"","","","","","html-keyboard-response","199","632103","0.0-3.0-2.0-0.9","5a9b1eb7873cda0001dcb3c4","B2","batch2","","null","<p class=block-text>Trial 10 out of 60</p>","null","spm_show_trial_num","","","","","","","","","","","","","","","","","","","","","","","","",""
"","","","","","image-button-response","200","639299","0.0-3.0-2.0-1.9","5a9b1eb7873cda0001dcb3c4","B2","batch2","","7194.5","img/question_1_10.jpeg","2","spm_respsonse","1","3","mat_10","","","","","","1","7194.5","","","","","","","","","","","","","","",""
"","","","","","html-keyboard-response","201","640353","0.0-3.0-2.0-0.10","5a9b1eb7873cda0001dcb3c4","B2","batch2","","null","<p class=block-text>Trial 11 out of 60</p>","null","spm_show_trial_num","","","","","","","","","","","","","","","","","","","","","","","","",""
"","","","","","image-button-response","202","649438","0.0-3.0-2.0-1.10","5a9b1eb7873cda0001dcb3c4","B2","batch2","","9083.90000000596","img/question_1_11.jpeg","3","spm_respsonse","1","4","mat_11","","","","","","1","9083.90000000596","","","","","","","","","","","","","","",""
"","","","","","html-keyboard-response","203","650491","0.0-3.0-2.0-0.11","5a9b1eb7873cda0001dcb3c4","B2","batch2","","null","<p class=block-text>Trial 12 out of 60</p>","null","spm_show_trial_num","","","","","","","","","","","","","","","","","","","","","","","","",""
"","","","","","image-button-response","204","665441","0.0-3.0-2.0-1.11","5a9b1eb7873cda0001dcb3c4","B2","batch2","","14945.799999982119","img/question_1_12.jpeg","4","spm_respsonse","1","5","mat_12","","","","","","1","14945.799999982119","","","","","","","","","","","","","","",""
"","","","","","html-keyboard-response","205","666492","0.0-3.0-2.0-0.12","5a9b1eb7873cda0001dcb3c4","B2","batch2","","null","<p class=block-text>Trial 13 out of 60</p>","null","spm_show_trial_num","","","","","","","","","","","","","","","","","","","","","","","","",""
"","","","","","image-button-response","206","669525","0.0-3.0-2.0-1.12","5a9b1eb7873cda0001dcb3c4","B2","batch2","","3029.9000000059605","img/question_2_1.jpeg","1","spm_respsonse","1","2","mat_13","","","","","","1","3029.9000000059605","","","","","","","","","","","","","","",""
"","","","","","html-keyboard-response","207","670577","0.0-3.0-2.0-0.13","5a9b1eb7873cda0001dcb3c4","B2","batch2","","null","<p class=block-text>Trial 14 out of 60</p>","null","spm_show_trial_num","","","","","","","","","","","","","","","","","","","","","","","","",""
"","","","","","image-button-response","208","675622","0.0-3.0-2.0-1.13","5a9b1eb7873cda0001dcb3c4","B2","batch2","","5040.5","img/question_2_2.jpeg","5","spm_respsonse","1","6","mat_14","","","","","","1","5040.5","","","","","","","","","","","","","","",""
"","","","","","html-keyboard-response","209","676673","0.0-3.0-2.0-0.14","5a9b1eb7873cda0001dcb3c4","B2","batch2","","null","<p class=block-text>Trial 15 out of 60</p>","null","spm_show_trial_num","","","","","","","","","","","","","","","","","","","","","","","","",""
"","","","","","image-button-response","210","681837","0.0-3.0-2.0-1.14","5a9b1eb7873cda0001dcb3c4","B2","batch2","","5162.699999988079","img/question_2_3.jpeg","0","spm_respsonse","1","1","mat_15","","","","","","1","5162.699999988079","","","","","","","","","","","","","","",""
"","","","","","html-keyboard-response","211","682899","0.0-3.0-2.0-0.15","5a9b1eb7873cda0001dcb3c4","B2","batch2","","null","<p class=block-text>Trial 16 out of 60</p>","null","spm_show_trial_num","","","","","","","","","","","","","","","","","","","","","","","","",""
"","","","","","image-button-response","212","688268","0.0-3.0-2.0-1.15","5a9b1eb7873cda0001dcb3c4","B2","batch2","","5366.799999982119","img/question_2_4.jpeg","1","spm_respsonse","1","2","mat_16","","","","","","1","5366.799999982119","","","","","","","","","","","","","","",""
"","","","","","html-keyboard-response","213","689319","0.0-3.0-2.0-0.16","5a9b1eb7873cda0001dcb3c4","B2","batch2","","null","<p class=block-text>Trial 17 out of 60</p>","null","spm_show_trial_num","","","","","","","","","","","","","","","","","","","","","","","","",""
"","","","","","image-button-response","214","696672","0.0-3.0-2.0-1.16","5a9b1eb7873cda0001dcb3c4","B2","batch2","","7352.5999999940395","img/question_2_5.jpeg","0","spm_respsonse","1","1","mat_17","","","","","","1","7352.5999999940395","","","","","","","","","","","","","","",""
"","","","","","html-keyboard-response","215","697724","0.0-3.0-2.0-0.17","5a9b1eb7873cda0001dcb3c4","B2","batch2","","null","<p class=block-text>Trial 18 out of 60</p>","null","spm_show_trial_num","","","","","","","","","","","","","","","","","","","","","","","","",""
"","","","","","image-button-response","216","703257","0.0-3.0-2.0-1.17","5a9b1eb7873cda0001dcb3c4","B2","batch2","","5531.4000000059605","img/question_2_6.jpeg","2","spm_respsonse","1","3","mat_18","","","","","","1","5531.4000000059605","","","","","","","","","","","","","","",""
"","","","","","html-keyboard-response","217","704309","0.0-3.0-2.0-0.18","5a9b1eb7873cda0001dcb3c4","B2","batch2","","null","<p class=block-text>Trial 19 out of 60</p>","null","spm_show_trial_num","","","","","","","","","","","","","","","","","","","","","","","","",""
"","","","","","image-button-response","218","710779","0.0-3.0-2.0-1.18","5a9b1eb7873cda0001dcb3c4","B2","batch2","","6468.200000017881","img/question_2_7.jpeg","4","spm_respsonse","1","5","mat_19","","","","","","1","6468.200000017881","","","","","","","","","","","","","","",""
"","","","","","html-keyboard-response","219","711832","0.0-3.0-2.0-0.19","5a9b1eb7873cda0001dcb3c4","B2","batch2","","null","<p class=block-text>Trial 20 out of 60</p>","null","spm_show_trial_num","","","","","","","","","","","","","","","","","","","","","","","","",""
"","","","","","image-button-response","220","718173","0.0-3.0-2.0-1.19","5a9b1eb7873cda0001dcb3c4","B2","batch2","","6339.5","img/question_2_8.jpeg","5","spm_respsonse","1","6","mat_20","","","","","","1","6339.5","","","","","","","","","","","","","","",""
"","","","","","html-keyboard-response","221","719234","0.0-3.0-2.0-0.20","5a9b1eb7873cda0001dcb3c4","B2","batch2","","null","<p class=block-text>Trial 21 out of 60</p>","null","spm_show_trial_num","","","","","","","","","","","","","","","","","","","","","","","","",""
"","","","","","image-button-response","222","723968","0.0-3.0-2.0-1.20","5a9b1eb7873cda0001dcb3c4","B2","batch2","","4730.700000017881","img/question_2_9.jpeg","3","spm_respsonse","1","4","mat_21","","","","","","1","4730.700000017881","","","","","","","","","","","","","","",""
"","","","","","html-keyboard-response","223","725020","0.0-3.0-2.0-0.21","5a9b1eb7873cda0001dcb3c4","B2","batch2","","null","<p class=block-text>Trial 22 out of 60</p>","null","spm_show_trial_num","","","","","","","","","","","","","","","","","","","","","","","","",""
"","","","","","image-button-response","224","731210","0.0-3.0-2.0-1.21","5a9b1eb7873cda0001dcb3c4","B2","batch2","","6189.5999999940395","img/question_2_10.jpeg","2","spm_respsonse","1","3","mat_22","","","","","","1","6189.5999999940395","","","","","","","","","","","","","","",""
"","","","","","html-keyboard-response","225","732263","0.0-3.0-2.0-0.22","5a9b1eb7873cda0001dcb3c4","B2","batch2","","null","<p class=block-text>Trial 23 out of 60</p>","null","spm_show_trial_num","","","","","","","","","","","","","","","","","","","","","","","","",""
"","","","","","image-button-response","226","738509","0.0-3.0-2.0-1.22","5a9b1eb7873cda0001dcb3c4","B2","batch2","","6242.5999999940395","img/question_2_11.jpeg","3","spm_respsonse","1","4","mat_23","","","","","","1","6242.5999999940395","","","","","","","","","","","","","","",""
"","","","","","html-keyboard-response","227","739561","0.0-3.0-2.0-0.23","5a9b1eb7873cda0001dcb3c4","B2","batch2","","null","<p class=block-text>Trial 24 out of 60</p>","null","spm_show_trial_num","","","","","","","","","","","","","","","","","","","","","","","","",""
"","","","","","image-button-response","228","753116","0.0-3.0-2.0-1.23","5a9b1eb7873cda0001dcb3c4","B2","batch2","","13553.09999999404","img/question_2_12.jpeg","4","spm_respsonse","1","5","mat_24","","","","","","1","13553.09999999404","","","","","","","","","","","","","","",""
"","","","","","html-button-response","229","755182","0.0-3.0-3.0","5a9b1eb7873cda0001dcb3c4","B2","batch2","","1812.5999999940395","<p class = block-text>Attention check: Please choose 1<br></p>","0","attention_check","true","","","","","","","","","","","","","","","","","","","","","","","",""
"","","","","","html-keyboard-response","230","755983","0.0-3.0-4.0-0.0","5a9b1eb7873cda0001dcb3c4","B2","batch2","","null","<p class=block-text>Trial 25 out of 60</p>","null","spm_show_trial_num","","","","","","","","","","","","","","","","","","","","","","","","",""
"","","","","","image-button-response","231","765018","0.0-3.0-4.0-1.0","5a9b1eb7873cda0001dcb3c4","B2","batch2","","9033.199999988079","img/question_3_1.jpeg","7","spm_respsonse","1","8","mat_25","","","","","","1","9033.199999988079","","","","","","","","","","","","","","",""
"","","","","","html-keyboard-response","232","766070","0.0-3.0-4.0-0.1","5a9b1eb7873cda0001dcb3c4","B2","batch2","","null","<p class=block-text>Trial 26 out of 60</p>","null","spm_show_trial_num","","","","","","","","","","","","","","","","","","","","","","","","",""
"","","","","","image-button-response","233","775163","0.0-3.0-4.0-1.1","5a9b1eb7873cda0001dcb3c4","B2","batch2","","9090.40000000596","img/question_3_2.jpeg","1","spm_respsonse","1","2","mat_26","","","","","","1","9090.40000000596","","","","","","","","","","","","","","",""
"","","","","","html-keyboard-response","234","776226","0.0-3.0-4.0-0.2","5a9b1eb7873cda0001dcb3c4","B2","batch2","","null","<p class=block-text>Trial 27 out of 60</p>","null","spm_show_trial_num","","","","","","","","","","","","","","","","","","","","","","","","",""
"","","","","","image-button-response","235","792605","0.0-3.0-4.0-1.2","5a9b1eb7873cda0001dcb3c4","B2","batch2","","16376.399999976158","img/question_3_3.jpeg","2","spm_respsonse","1","3","mat_27","","","","","","1","16376.399999976158","","","","","","","","","","","","","","",""
"","","","","","html-keyboard-response","236","793657","0.0-3.0-4.0-0.3","5a9b1eb7873cda0001dcb3c4","B2","batch2","","null","<p class=block-text>Trial 28 out of 60</p>","null","spm_show_trial_num","","","","","","","","","","","","","","","","","","","","","","","","",""
"","","","","","image-button-response","237","810158","0.0-3.0-4.0-1.3","5a9b1eb7873cda0001dcb3c4","B2","batch2","","16499.09999999404","img/question_3_4.jpeg","7","spm_respsonse","1","8","mat_28","","","","","","1","16499.09999999404","","","","","","","","","","","","","","",""
"","","","","","html-keyboard-response","238","811210","0.0-3.0-4.0-0.4","5a9b1eb7873cda0001dcb3c4","B2","batch2","","null","<p class=block-text>Trial 29 out of 60</p>","null","spm_show_trial_num","","","","","","","","","","","","","","","","","","","","","","","","",""
"","","","","","image-button-response","239","829999","0.0-3.0-4.0-1.4","5a9b1eb7873cda0001dcb3c4","B2","batch2","","18787","img/question_3_5.jpeg","6","spm_respsonse","1","7","mat_29","","","","","","1","18787","","","","","","","","","","","","","","",""
"","","","","","html-keyboard-response","240","831052","0.0-3.0-4.0-0.5","5a9b1eb7873cda0001dcb3c4","B2","batch2","","null","<p class=block-text>Trial 30 out of 60</p>","null","spm_show_trial_num","","","","","","","","","","","","","","","","","","","","","","","","",""
"","","","","","image-button-response","241","840413","0.0-3.0-4.0-1.5","5a9b1eb7873cda0001dcb3c4","B2","batch2","","9360.199999988079","img/question_3_6.jpeg","3","spm_respsonse","1","4","mat_30","","","","","","1","9360.199999988079","","","","","","","","","","","","","","",""
"","","","","","html-keyboard-response","242","841464","0.0-3.0-4.0-0.6","5a9b1eb7873cda0001dcb3c4","B2","batch2","","null","<p class=block-text>Trial 31 out of 60</p>","null","spm_show_trial_num","","","","","","","","","","","","","","","","","","","","","","","","",""
"","","","","","image-button-response","243","849396","0.0-3.0-4.0-1.6","5a9b1eb7873cda0001dcb3c4","B2","batch2","","7928.9000000059605","img/question_3_7.jpeg","4","spm_respsonse","1","5","mat_31","","","","","","1","7928.9000000059605","","","","","","","","","","","","","","",""
"","","","","","html-keyboard-response","244","850448","0.0-3.0-4.0-0.7","5a9b1eb7873cda0001dcb3c4","B2","batch2","","null","<p class=block-text>Trial 32 out of 60</p>","null","spm_show_trial_num","","","","","","","","","","","","","","","","","","","","","","","","",""
"","","","","","image-button-response","245","892231","0.0-3.0-4.0-1.7","5a9b1eb7873cda0001dcb3c4","B2","batch2","","41780.29999998212","img/question_3_8.jpeg","4","spm_respsonse","0","1","mat_32","","","","","","0","41780.29999998212","","","","","","","","","","","","","","",""
"","","","","","html-keyboard-response","246","893283","0.0-3.0-4.0-0.8","5a9b1eb7873cda0001dcb3c4","B2","batch2","","null","<p class=block-text>Trial 33 out of 60</p>","null","spm_show_trial_num","","","","","","","","","","","","","","","","","","","","","","","","",""
"","","","","","image-button-response","247","904736","0.0-3.0-4.0-1.8","5a9b1eb7873cda0001dcb3c4","B2","batch2","","11450.90000000596","img/question_3_9.jpeg","6","spm_respsonse","1","7","mat_33","","","","","","1","11450.90000000596","","","","","","","","","","","","","","",""
"","","","","","html-keyboard-response","248","905788","0.0-3.0-4.0-0.9","5a9b1eb7873cda0001dcb3c4","B2","batch2","","null","<p class=block-text>Trial 34 out of 60</p>","null","spm_show_trial_num","","","","","","","","","","","","","","","","","","","","","","","","",""
"","","","","","image-button-response","249","943704","0.0-3.0-4.0-1.9","5a9b1eb7873cda0001dcb3c4","B2","batch2","","37913.80000001192","img/question_3_10.jpeg","7","spm_respsonse","0","6","mat_34","","","","","","0","37913.80000001192","","","","","","","","","","","","","","",""
"","","","","","html-keyboard-response","250","944765","0.0-3.0-4.0-0.10","5a9b1eb7873cda0001dcb3c4","B2","batch2","","null","<p class=block-text>Trial 35 out of 60</p>","null","spm_show_trial_num","","","","","","","","","","","","","","","","","","","","","","","","",""
"","","","","","image-button-response","251","983357","0.0-3.0-4.0-1.10","5a9b1eb7873cda0001dcb3c4","B2","batch2","","38589.59999999404","img/question_3_11.jpeg","0","spm_respsonse","1","1","mat_35","","","","","","1","38589.59999999404","","","","","","","","","","","","","","",""
"","","","","","html-keyboard-response","252","984409","0.0-3.0-4.0-0.11","5a9b1eb7873cda0001dcb3c4","B2","batch2","","null","<p class=block-text>Trial 36 out of 60</p>","null","spm_show_trial_num","","","","","","","","","","","","","","","","","","","","","","","","",""
"","","","","","image-button-response","253","1019916","0.0-3.0-4.0-1.11","5a9b1eb7873cda0001dcb3c4","B2","batch2","","35503.90000000596","img/question_3_12.jpeg","1","spm_respsonse","1","2","mat_36","","","","","","1","35503.90000000596","","","","","","","","","","","","","","",""
"","","","","","html-keyboard-response","254","1020969","0.0-3.0-4.0-0.12","5a9b1eb7873cda0001dcb3c4","B2","batch2","","null","<p class=block-text>Trial 37 out of 60</p>","null","spm_show_trial_num","","","","","","","","","","","","","","","","","","","","","","","","",""
"","","","","","image-button-response","255","1024864","0.0-3.0-4.0-1.12","5a9b1eb7873cda0001dcb3c4","B2","batch2","","3892.4000000059605","img/question_4_1.jpeg","2","spm_respsonse","1","3","mat_37","","","","","","1","3892.4000000059605","","","","","","","","","","","","","","",""
"","","","","","html-keyboard-response","256","1025915","0.0-3.0-4.0-0.13","5a9b1eb7873cda0001dcb3c4","B2","batch2","","null","<p class=block-text>Trial 38 out of 60</p>","null","spm_show_trial_num","","","","","","","","","","","","","","","","","","","","","","","","",""
"","","","","","image-button-response","257","1032601","0.0-3.0-4.0-1.13","5a9b1eb7873cda0001dcb3c4","B2","batch2","","6683.300000011921","img/question_4_2.jpeg","3","spm_respsonse","1","4","mat_38","","","","","","1","6683.300000011921","","","","","","","","","","","","","","",""
"","","","","","html-keyboard-response","258","1033653","0.0-3.0-4.0-0.14","5a9b1eb7873cda0001dcb3c4","B2","batch2","","null","<p class=block-text>Trial 39 out of 60</p>","null","spm_show_trial_num","","","","","","","","","","","","","","","","","","","","","","","","",""
"","","","","","image-button-response","259","1040904","0.0-3.0-4.0-1.14","5a9b1eb7873cda0001dcb3c4","B2","batch2","","7248.9000000059605","img/question_4_3.jpeg","2","spm_respsonse","1","3","mat_39","","","","","","1","7248.9000000059605","","","","","","","","","","","","","","",""
"","","","","","html-keyboard-response","260","1041956","0.0-3.0-4.0-0.15","5a9b1eb7873cda0001dcb3c4","B2","batch2","","null","<p class=block-text>Trial 40 out of 60</p>","null","spm_show_trial_num","","","","","","","","","","","","","","","","","","","","","","","","",""
"","","","","","image-button-response","261","1050035","0.0-3.0-4.0-1.15","5a9b1eb7873cda0001dcb3c4","B2","batch2","","8077.5","img/question_4_4.jpeg","6","spm_respsonse","1","7","mat_40","","","","","","1","8077.5","","","","","","","","","","","","","","",""
"","","","","","html-keyboard-response","262","1051087","0.0-3.0-4.0-0.16","5a9b1eb7873cda0001dcb3c4","B2","batch2","","null","<p class=block-text>Trial 41 out of 60</p>","null","spm_show_trial_num","","","","","","","","","","","","","","","","","","","","","","","","",""
"","","","","","image-button-response","263","1062894","0.0-3.0-4.0-1.16","5a9b1eb7873cda0001dcb3c4","B2","batch2","","11805.300000011921","img/question_4_5.jpeg","7","spm_respsonse","1","8","mat_41","","","","","","1","11805.300000011921","","","","","","","","","","","","","","",""
"","","","","","html-keyboard-response","264","1063945","0.0-3.0-4.0-0.17","5a9b1eb7873cda0001dcb3c4","B2","batch2","","null","<p class=block-text>Trial 42 out of 60</p>","null","spm_show_trial_num","","","","","","","","","","","","","","","","","","","","","","","","",""
"","","","","","image-button-response","265","1075156","0.0-3.0-4.0-1.17","5a9b1eb7873cda0001dcb3c4","B2","batch2","","11208.40000000596","img/question_4_6.jpeg","5","spm_respsonse","1","6","mat_42","","","","","","1","11208.40000000596","","","","","","","","","","","","","","",""
"","","","","","html-keyboard-response","266","1076208","0.0-3.0-4.0-0.18","5a9b1eb7873cda0001dcb3c4","B2","batch2","","null","<p class=block-text>Trial 43 out of 60</p>","null","spm_show_trial_num","","","","","","","","","","","","","","","","","","","","","","","","",""
"","","","","","image-button-response","267","1097885","0.0-3.0-4.0-1.18","5a9b1eb7873cda0001dcb3c4","B2","batch2","","21674.09999999404","img/question_4_7.jpeg","4","spm_respsonse","1","5","mat_43","","","","","","1","21674.09999999404","","","","","","","","","","","","","","",""
"","","","","","html-keyboard-response","268","1098938","0.0-3.0-4.0-0.19","5a9b1eb7873cda0001dcb3c4","B2","batch2","","null","<p class=block-text>Trial 44 out of 60</p>","null","spm_show_trial_num","","","","","","","","","","","","","","","","","","","","","","","","",""
"","","","","","image-button-response","269","1109690","0.0-3.0-4.0-1.19","5a9b1eb7873cda0001dcb3c4","B2","batch2","","10749.59999999404","img/question_4_8.jpeg","3","spm_respsonse","1","4","mat_44","","","","","","1","10749.59999999404","","","","","","","","","","","","","","",""
"","","","","","html-keyboard-response","270","1110744","0.0-3.0-4.0-0.20","5a9b1eb7873cda0001dcb3c4","B2","batch2","","null","<p class=block-text>Trial 45 out of 60</p>","null","spm_show_trial_num","","","","","","","","","","","","","","","","","","","","","","","","",""
"","","","","","image-button-response","271","1126984","0.0-3.0-4.0-1.20","5a9b1eb7873cda0001dcb3c4","B2","batch2","","16236.09999999404","img/question_4_9.jpeg","0","spm_respsonse","1","1","mat_45","","","","","","1","16236.09999999404","","","","","","","","","","","","","","",""
"","","","","","html-keyboard-response","272","1128038","0.0-3.0-4.0-0.21","5a9b1eb7873cda0001dcb3c4","B2","batch2","","null","<p class=block-text>Trial 46 out of 60</p>","null","spm_show_trial_num","","","","","","","","","","","","","","","","","","","","","","","","",""
"","","","","","image-button-response","273","1150593","0.0-3.0-4.0-1.21","5a9b1eb7873cda0001dcb3c4","B2","batch2","","22554.20000001788","img/question_4_10.jpeg","1","spm_respsonse","1","2","mat_46","","","","","","1","22554.20000001788","","","","","","","","","","","","","","",""
"","","","","","html-keyboard-response","274","1151646","0.0-3.0-4.0-0.22","5a9b1eb7873cda0001dcb3c4","B2","batch2","","null","<p class=block-text>Trial 47 out of 60</p>","null","spm_show_trial_num","","","","","","","","","","","","","","","","","","","","","","","","",""
"","","","","","image-button-response","275","1187118","0.0-3.0-4.0-1.22","5a9b1eb7873cda0001dcb3c4","B2","batch2","","35471.20000001788","img/question_4_11.jpeg","7","spm_respsonse","0","5","mat_47","","","","","","0","35471.20000001788","","","","","","","","","","","","","","",""
"","","","","","html-keyboard-response","276","1188171","0.0-3.0-4.0-0.23","5a9b1eb7873cda0001dcb3c4","B2","batch2","","null","<p class=block-text>Trial 48 out of 60</p>","null","spm_show_trial_num","","","","","","","","","","","","","","","","","","","","","","","","",""
"","","","","","image-button-response","277","1213867","0.0-3.0-4.0-1.23","5a9b1eb7873cda0001dcb3c4","B2","batch2","","25694.19999998808","img/question_4_12.jpeg","6","spm_respsonse","0","6","mat_48","","","","","","0","25694.19999998808","","","","","","","","","","","","","","",""
"","","","","","html-keyboard-response","278","1214920","0.0-3.0-4.0-0.24","5a9b1eb7873cda0001dcb3c4","B2","batch2","","null","<p class=block-text>Trial 49 out of 60</p>","null","spm_show_trial_num","","","","","","","","","","","","","","","","","","","","","","","","",""
"","","","","","image-button-response","279","1238445","0.0-3.0-4.0-1.24","5a9b1eb7873cda0001dcb3c4","B2","batch2","","23521.29999998212","img/question_5_1.jpeg","2","spm_respsonse","0","7","mat_49","","","","","","0","23521.29999998212","","","","","","","","","","","","","","",""
"","","","","","html-keyboard-response","280","1239520","0.0-3.0-4.0-0.25","5a9b1eb7873cda0001dcb3c4","B2","batch2","","null","<p class=block-text>Trial 50 out of 60</p>","null","spm_show_trial_num","","","","","","","","","","","","","","","","","","","","","","","","",""
"","","","","","image-button-response","281","1294785","0.0-3.0-4.0-1.25","5a9b1eb7873cda0001dcb3c4","B2","batch2","","55262.79999998212","img/question_5_2.jpeg","6","spm_respsonse","0","6","mat_50","","","","","","0","55262.79999998212","","","","","","","","","","","","","","",""
"","","","","","html-keyboard-response","282","1295837","0.0-3.0-4.0-0.26","5a9b1eb7873cda0001dcb3c4","B2","batch2","","null","<p class=block-text>Trial 51 out of 60</p>","null","spm_show_trial_num","","","","","","","","","","","","","","","","","","","","","","","","",""
"","","","","","image-button-response","283","1311402","0.0-3.0-4.0-1.26","5a9b1eb7873cda0001dcb3c4","B2","batch2","","15561.90000000596","img/question_5_3.jpeg","7","spm_respsonse","1","8","mat_51","","","","","","1","15561.90000000596","","","","","","","","","","","","","","",""
"","","","","","html-keyboard-response","284","1312454","0.0-3.0-4.0-0.27","5a9b1eb7873cda0001dcb3c4","B2","batch2","","null","<p class=block-text>Trial 52 out of 60</p>","null","spm_show_trial_num","","","","","","","","","","","","","","","","","","","","","","","","",""
"","","","","","image-button-response","285","1342801","0.0-3.0-4.0-1.27","5a9b1eb7873cda0001dcb3c4","B2","batch2","","30345.90000000596","img/question_5_4.jpeg","1","spm_respsonse","1","2","mat_52","","","","","","1","30345.90000000596","","","","","","","","","","","","","","",""
"","","","","","html-keyboard-response","286","1343854","0.0-3.0-4.0-0.28","5a9b1eb7873cda0001dcb3c4","B2","batch2","","null","<p class=block-text>Trial 53 out of 60</p>","null","spm_show_trial_num","","","","","","","","","","","","","","","","","","","","","","","","",""
"","","","","","image-button-response","287","1369958","0.0-3.0-4.0-1.28","5a9b1eb7873cda0001dcb3c4","B2","batch2","","26103.5","img/question_5_5.jpeg","0","spm_respsonse","1","1","mat_53","","","","","","1","26103.5","","","","","","","","","","","","","","",""
"","","","","","html-keyboard-response","288","1371011","0.0-3.0-4.0-0.29","5a9b1eb7873cda0001dcb3c4","B2","batch2","","null","<p class=block-text>Trial 54 out of 60</p>","null","spm_show_trial_num","","","","","","","","","","","","","","","","","","","","","","","","",""
"","","","","","image-button-response","289","1408963","0.0-3.0-4.0-1.29","5a9b1eb7873cda0001dcb3c4","B2","batch2","","37947.79999998212","img/question_5_6.jpeg","1","spm_respsonse","0","5","mat_54","","","","","","0","37947.79999998212","","","","","","","","","","","","","","",""
"","","","","","html-keyboard-response","290","1410016","0.0-3.0-4.0-0.30","5a9b1eb7873cda0001dcb3c4","B2","batch2","","null","<p class=block-text>Trial 55 out of 60</p>","null","spm_show_trial_num","","","","","","","","","","","","","","","","","","","","","","","","",""
"","","","","","image-button-response","291","1440725","0.0-3.0-4.0-1.30","5a9b1eb7873cda0001dcb3c4","B2","batch2","","30706.19999998808","img/question_5_7.jpeg","0","spm_respsonse","1","1","mat_55","","","","","","1","30706.19999998808","","","","","","","","","","","","","","",""
"","","","","","html-keyboard-response","292","1441778","0.0-3.0-4.0-0.31","5a9b1eb7873cda0001dcb3c4","B2","batch2","","null","<p class=block-text>Trial 56 out of 60</p>","null","spm_show_trial_num","","","","","","","","","","","","","","","","","","","","","","","","",""
"","","","","","image-button-response","293","1468401","0.0-3.0-4.0-1.31","5a9b1eb7873cda0001dcb3c4","B2","batch2","","26620.09999999404","img/question_5_8.jpeg","6","spm_respsonse","0","6","mat_56","","","","","","0","26620.09999999404","","","","","","","","","","","","","","",""
"","","","","","html-keyboard-response","294","1469452","0.0-3.0-4.0-0.32","5a9b1eb7873cda0001dcb3c4","B2","batch2","","null","<p class=block-text>Trial 57 out of 60</p>","null","spm_show_trial_num","","","","","","","","","","","","","","","","","","","","","","","","",""
"","","","","","image-button-response","295","1509547","0.0-3.0-4.0-1.32","5a9b1eb7873cda0001dcb3c4","B2","batch2","","40091.59999999404","img/question_5_9.jpeg","0","spm_respsonse","0","3","mat_57","","","","","","0","40091.59999999404","","","","","","","","","","","","","","",""
"","","","","","html-keyboard-response","296","1510598","0.0-3.0-4.0-0.33","5a9b1eb7873cda0001dcb3c4","B2","batch2","","null","<p class=block-text>Trial 58 out of 60</p>","null","spm_show_trial_num","","","","","","","","","","","","","","","","","","","","","","","","",""
"","","","","","image-button-response","297","1557048","0.0-3.0-4.0-1.33","5a9b1eb7873cda0001dcb3c4","B2","batch2","","46447.90000000596","img/question_5_10.jpeg","2","spm_respsonse","0","2","mat_58","","","","","","0","46447.90000000596","","","","","","","","","","","","","","",""
"","","","","","html-keyboard-response","298","1558101","0.0-3.0-4.0-0.34","5a9b1eb7873cda0001dcb3c4","B2","batch2","","null","<p class=block-text>Trial 59 out of 60</p>","null","spm_show_trial_num","","","","","","","","","","","","","","","","","","","","","","","","",""
"","","","","","image-button-response","299","1586169","0.0-3.0-4.0-1.34","5a9b1eb7873cda0001dcb3c4","B2","batch2","","28065","img/question_5_11.jpeg","5","spm_respsonse","0","4","mat_59","","","","","","0","28065","","","","","","","","","","","","","","",""
"","","","","","html-keyboard-response","300","1587220","0.0-3.0-4.0-0.35","5a9b1eb7873cda0001dcb3c4","B2","batch2","","null","<p class=block-text>Trial 60 out of 60</p>","null","spm_show_trial_num","","","","","","","","","","","","","","","","","","","","","","","","",""
"","","","","","image-button-response","301","1637420","0.0-3.0-4.0-1.35","5a9b1eb7873cda0001dcb3c4","B2","batch2","","50198.79999998212","img/question_5_12.jpeg","7","spm_respsonse","0","5","mat_60","","","","","","0","50198.79999998212","","","","","","","","","","","","","","",""
"","","","","","html-button-response","302","1639876","0.0-3.0-5.0","5a9b1eb7873cda0001dcb3c4","B2","batch2","","2204.800000011921","<p class= block-text>This concludes the Standard Progressive Matrix game. Thank you for your responses!<br> When you are ready, click the button continue</p>","0","spm_goodbye","","","","","","","","","","","","","","","","","","","","","","","","",""
"true","","","","","fullscreen","303","1643065","0.0-4.0-0.0","5a9b1eb7873cda0001dcb3c4","B2","batch2","","","","","","","","","","","","","","","","","","","","","","","","","","","","","",""
"","","","","","instructions","304","1715861","0.0-4.0-1.0-0.0-0.0","5a9b1eb7873cda0001dcb3c4","B2","batch2","[{""page_index"":0,""viewing_time"":8155.699999988079},{""page_index"":1,""viewing_time"":6170.800000011921},{""page_index"":2,""viewing_time"":6028.299999982119},{""page_index"":3,""viewing_time"":20109.90000000596},{""page_index"":4,""viewing_time"":7218},{""page_index"":5,""viewing_time"":21895.90000000596},{""page_index"":6,""viewing_time"":3216}]","72794.79999998212","","","tol-instructions","","","","","","","","","","","","","","","","","","","","","","","","",""
"","","","","","html-button-response","305","1717165","0.0-4.0-1.0-1.0-0.0","5a9b1eb7873cda0001dcb3c4","B2","batch2","","1302.9000000059605","<p class=block-text> Let's answer a few questions <br>","0","tol_enter_quiz","","","","","","","","","","","","","","","","","","","","","","","","",""
"","","","","","html-button-response","306","1720801","0.0-4.0-1.0-1.0-1.0","5a9b1eb7873cda0001dcb3c4","B2","batch2","","3634.699999988079","<p class = block-text>True or False: You can only move the ball on top of a peg. <br></p>","0","tol_quiz","true","","","","","","","","","","","","","","","","","","","","","","","",""
"","","","","","html-button-response","307","1722915","0.0-4.0-1.0-1.0-2.0","5a9b1eb7873cda0001dcb3c4","B2","batch2","","2112.4000000059605","<p class = block-text>Correct! You can only move the ball on top of a peg.</p>","0","tol_quiz_feedback","","","","","","","","","","","","","","","","","","","","","","","","",""
"","","","","","html-button-response","308","1727706","0.0-4.0-1.0-1.0-3.0","5a9b1eb7873cda0001dcb3c4","B2","batch2","","4790.399999976158","<p class = block-text>True or False: You should try to match your board with the target board with fewest moves possible. <br></p>","0","tol_quiz","true","","","","","","","","","","","","","","","","","","","","","","","",""
"","","","","","html-button-response","309","1728928","0.0-4.0-1.0-1.0-4.0","5a9b1eb7873cda0001dcb3c4","B2","batch2","","1220.699999988079","<p class = block-text>Correct! </p>","0","tol_quiz_feedback","","","","","","","","","","","","","","","","","","","","","","","","",""
"","","","","","html-button-response","310","1730598","0.0-4.0-2.0","5a9b1eb7873cda0001dcb3c4","B2","batch2","","1669.199999988079","<p class=block-text> Now that you've understood the game, let's practice a few easier examples before we start!<br> <br>","0","","","","","","","","","","","","","","","","","","","","","","","","","",""
"","","","","","single-stim-button","311","1736563","0.0-4.0-3.0-0.0","5a9b1eb7873cda0001dcb3c4","B2","batch2","","5963","","","tol_practice","","","","","","","","","","","tol_peg_2","5963","5963","0","[[1,2,0],[0,0],[0]]","1","[[1,2,0],[0,0],[3]]","practice","5963","","","","","",""
"","","","","","single-stim-button","312","1740092","0.0-4.0-3.0-1.0","5a9b1eb7873cda0001dcb3c4","B2","batch2","","3528","","","tol_practice","","","","","","","","","","","tol_peg_3","3528","3528","0","[[1,2,0],[0,0],[3]]","1","[[1,2,0],[0,0],[3]]","practice","3528","","","","","",""
"","","","","","poldrack-single-stim","313","1741095","0.0-4.0-4.0","5a9b1eb7873cda0001dcb3c4","B2","batch2","","-1","","","tol_feedback","true","","","","","","","","","","","1000","1000","500","","","","","","-1","none","true","","0",""
"","","","","","single-stim-button","314","1745655","0.0-4.0-5.0-0.0","5a9b1eb7873cda0001dcb3c4","B2","batch2","","4560","","","tol_practice","","","","","","","","","","","tol_peg_1","4560","4560","0","[[1,0,0],[3,0],[0]]","2","[[0,0,0],[3,1],[2]]","practice","4560","","","","","",""
"","","","","","single-stim-button","315","1747702","0.0-4.0-5.0-1.0","5a9b1eb7873cda0001dcb3c4","B2","batch2","","2046","","","tol_practice","","","","","","","","","","","tol_peg_3","2046","2046","0","[[1,0,0],[3,0],[2]]","2","[[0,0,0],[3,1],[2]]","practice","2046","","","","","",""
"","","","","","single-stim-button","316","1749031","0.0-4.0-5.1-0.1","5a9b1eb7873cda0001dcb3c4","B2","batch2","","1327","","","tol_practice","","","","","","","","","","","tol_peg_1","1327","1327","0","[[0,0,0],[3,0],[2]]","3","[[0,0,0],[3,1],[2]]","practice","1327","","","","","",""
"","","","","","single-stim-button","317","1751070","0.0-4.0-5.1-1.1","5a9b1eb7873cda0001dcb3c4","B2","batch2","","2039","","","tol_practice","","","","","","","","","","","tol_peg_2","2039","2039","0","[[0,0,0],[3,1],[2]]","3","[[0,0,0],[3,1],[2]]","practice","2039","","","","","",""
"","","","","","poldrack-single-stim","318","1752072","0.0-4.0-6.0","5a9b1eb7873cda0001dcb3c4","B2","batch2","","-1","","","tol_feedback","true","","","","","","","","","","","1000","1000","500","","","","","","-1","none","true","","0",""
"","","","","","single-stim-button","319","1754828","0.0-4.0-7.0-0.0","5a9b1eb7873cda0001dcb3c4","B2","batch2","","2755","","","tol_practice","","","","","","","","","","","tol_peg_1","2755","2755","0","[[1,0,0],[3,0],[0]]","4","[[1,0,0],[2,0],[3]]","practice","2755","","","","","",""
"","","","","","single-stim-button","320","1760320","0.0-4.0-7.0-1.0","5a9b1eb7873cda0001dcb3c4","B2","batch2","","5492","","","tol_practice","","","","","","","","","","","tol_peg_1","5492","5492","0","[[1,2,0],[3,0],[0]]","4","[[1,0,0],[2,0],[3]]","practice","5492","","","","","",""
"","","","","","single-stim-button","321","1762045","0.0-4.0-7.1-0.1","5a9b1eb7873cda0001dcb3c4","B2","batch2","","1724","","","tol_practice","","","","","","","","","","","tol_peg_2","1724","1724","0","[[1,2,0],[0,0],[0]]","5","[[1,0,0],[2,0],[3]]","practice","1724","","","","","",""
"","","","","","single-stim-button","322","1763084","0.0-4.0-7.1-1.1","5a9b1eb7873cda0001dcb3c4","B2","batch2","","1038","","","tol_practice","","","","","","","","","","","tol_peg_3","1038","1038","0","[[1,2,0],[0,0],[3]]","5","[[1,0,0],[2,0],[3]]","practice","1038","","","","","",""
"","","","","","single-stim-button","323","1763963","0.0-4.0-7.2-0.2","5a9b1eb7873cda0001dcb3c4","B2","batch2","","878","","","tol_practice","","","","","","","","","","","tol_peg_1","878","878","0","[[1,0,0],[0,0],[3]]","6","[[1,0,0],[2,0],[3]]","practice","878","","","","","",""
"","","","","","single-stim-button","324","1765319","0.0-4.0-7.2-1.2","5a9b1eb7873cda0001dcb3c4","B2","batch2","","1354","","","tol_practice","","","","","","","","","","","tol_peg_2","1354","1354","0","[[1,0,0],[2,0],[3]]","6","[[1,0,0],[2,0],[3]]","practice","1354","","","","","",""
"","","","","","poldrack-single-stim","325","1766321","0.0-4.0-8.0","5a9b1eb7873cda0001dcb3c4","B2","batch2","","-1","","","tol_feedback","true","","","","","","","","","","","1000","1000","500","","","","","","-1","none","true","","0",""
"","","","","","html-button-response","326","1773476","0.0-4.0-9.0","5a9b1eb7873cda0001dcb3c4","B2","batch2","","7154.4000000059605","<div class = centerbox><p class = center-block-text>Great job! You are done with practice trials<br>You are about to start official trials.<br> <br> Problem <strong>1</strong> out of 25 problems</p></div>","0","tol_instruction","","","","","","","","","","","","","","","","","","","","","","","","",""
"","","","","","single-stim-button","327","1781256","0.0-4.0-10.0-0.0","5a9b1eb7873cda0001dcb3c4","B2","batch2","","6777","","","tol_tohand","","","","","","","","","","","tol_peg_1","6777","6777","0","[[1,0,0],[3,0],[0]]","1","[[1,3,0],[2,0],[0]]","0","0","","","","","","3"
"","","","","","single-stim-button","328","1782941","0.0-4.0-10.0-1.0","5a9b1eb7873cda0001dcb3c4","B2","batch2","","1685","","","tol_toboard","","","","","","","","","","","tol_peg_3","1685","1685","0","[[1,0,0],[3,0],[2]]","1","[[1,3,0],[2,0],[0]]","0","0","","","","","","3"
"","","","","","single-stim-button","329","1784101","0.0-4.0-10.1-0.1","5a9b1eb7873cda0001dcb3c4","B2","batch2","","1159","","","tol_tohand","","","","","","","","","","","tol_peg_2","1159","1159","0","[[1,0,0],[0,0],[2]]","2","[[1,3,0],[2,0],[0]]","0","0","","","","","","3"
"","","","","","single-stim-button","330","1785155","0.0-4.0-10.1-1.1","5a9b1eb7873cda0001dcb3c4","B2","batch2","","1053","","","tol_toboard","","","","","","","","","","","tol_peg_1","1053","1053","0","[[1,3,0],[0,0],[2]]","2","[[1,3,0],[2,0],[0]]","0","0","","","","","","3"
"","","","","","single-stim-button","331","1789518","0.0-4.0-10.2-0.2","5a9b1eb7873cda0001dcb3c4","B2","batch2","","4362","","","tol_tohand","","","","","","","","","","","tol_peg_3","4362","4362","0","[[1,3,0],[0,0],[0]]","3","[[1,3,0],[2,0],[0]]","0","0","","","","","","3"
"","","","","","single-stim-button","332","1790525","0.0-4.0-10.2-1.2","5a9b1eb7873cda0001dcb3c4","B2","batch2","","1006","","","tol_toboard","","","","","","","","","","","tol_peg_2","1006","1006","0","[[1,3,0],[2,0],[0]]","3","[[1,3,0],[2,0],[0]]","0","0","","","","","","3"
"","","","","","poldrack-single-stim","333","1791527","0.0-4.0-11.0","5a9b1eb7873cda0001dcb3c4","B2","batch2","","-1","","","tol_feedback","true","","","","","","","","","","","1000","1000","500","","","","","","-1","none","true","6777","12298",""
"","","","","","html-button-response","334","1792966","0.0-4.0-12.0","5a9b1eb7873cda0001dcb3c4","B2","batch2","","1438","<div class = centerbox><p class = center-block-text>problem <strong>2</strong> out of 25 problems</p></div>","0","tol_trial_num","","","","","","","","","","","","","","","","","","","","","","","","",""
"","","","","","single-stim-button","335","1801705","0.0-4.0-13.0-0.0","5a9b1eb7873cda0001dcb3c4","B2","batch2","","8737","","","tol_tohand","","","","","","","","","","","tol_peg_1","8737","8737","0","[[1,0,0],[3,0],[0]]","1","[[2,1,3],[0,0],[0]]","1","0","","","","","","5"
"","","","","","single-stim-button","336","1802953","0.0-4.0-13.0-1.0","5a9b1eb7873cda0001dcb3c4","B2","batch2","","1248","","","tol_toboard","","","","","","","","","","","tol_peg_2","1248","1248","0","[[1,0,0],[3,2],[0]]","1","[[2,1,3],[0,0],[0]]","1","0","","","","","","5"
"","","","","","single-stim-button","337","1803771","0.0-4.0-13.1-0.1","5a9b1eb7873cda0001dcb3c4","B2","batch2","","817","","","tol_tohand","","","","","","","","","","","tol_peg_1","817","817","0","[[0,0,0],[3,2],[0]]","2","[[2,1,3],[0,0],[0]]","1","0","","","","","","5"
"","","","","","single-stim-button","338","1808729","0.0-4.0-13.1-1.1","5a9b1eb7873cda0001dcb3c4","B2","batch2","","4957","","","tol_toboard","","","","","","","","","","","tol_peg_3","4957","4957","0","[[0,0,0],[3,2],[1]]","2","[[2,1,3],[0,0],[0]]","1","0","","","","","","5"
"","","","","","single-stim-button","339","1809586","0.0-4.0-13.2-0.2","5a9b1eb7873cda0001dcb3c4","B2","batch2","","855","","","tol_tohand","","","","","","","","","","","tol_peg_2","855","855","0","[[0,0,0],[3,0],[1]]","3","[[2,1,3],[0,0],[0]]","1","0","","","","","","5"
"","","","","","single-stim-button","340","1810456","0.0-4.0-13.2-1.2","5a9b1eb7873cda0001dcb3c4","B2","batch2","","869","","","tol_toboard","","","","","","","","","","","tol_peg_1","869","869","0","[[2,0,0],[3,0],[1]]","3","[[2,1,3],[0,0],[0]]","1","0","","","","","","5"
"","","","","","single-stim-button","341","1812192","0.0-4.0-13.3-0.3","5a9b1eb7873cda0001dcb3c4","B2","batch2","","1736","","","tol_tohand","","","","","","","","","","","tol_peg_3","1736","1736","0","[[2,0,0],[3,0],[0]]","4","[[2,1,3],[0,0],[0]]","1","0","","","","","","5"
"","","","","","single-stim-button","342","1813541","0.0-4.0-13.3-1.3","5a9b1eb7873cda0001dcb3c4","B2","batch2","","1348","","","tol_toboard","","","","","","","","","","","tol_peg_1","1348","1348","0","[[2,1,0],[3,0],[0]]","4","[[2,1,3],[0,0],[0]]","1","0","","","","","","5"
"","","","","","single-stim-button","343","1814185","0.0-4.0-13.4-0.4","5a9b1eb7873cda0001dcb3c4","B2","batch2","","644","","","tol_tohand","","","","","","","","","","","tol_peg_2","644","644","0","[[2,1,0],[0,0],[0]]","5","[[2,1,3],[0,0],[0]]","1","0","","","","","","5"
"","","","","","single-stim-button","344","1815245","0.0-4.0-13.4-1.4","5a9b1eb7873cda0001dcb3c4","B2","batch2","","1059","","","tol_toboard","","","","","","","","","","","tol_peg_1","1059","1059","0","[[2,1,3],[0,0],[0]]","5","[[2,1,3],[0,0],[0]]","1","0","","","","","","5"
"","","","","","poldrack-single-stim","345","1816248","0.0-4.0-14.0","5a9b1eb7873cda0001dcb3c4","B2","batch2","","-1","","","tol_feedback","true","","","","","","","","","","","1000","1000","500","","","","","","-1","none","true","8737","12789",""
"","","","","","html-button-response","346","1817936","0.0-4.0-15.0","5a9b1eb7873cda0001dcb3c4","B2","batch2","","1687.699999988079","<div class = centerbox><p class = center-block-text>problem <strong>3</strong> out of 25 problems</p></div>","0","tol_trial_num","","","","","","","","","","","","","","","","","","","","","","","","",""
