"success","timeout","failed_images","failed_audio","failed_video","trial_type","trial_index","time_elapsed","internal_node_id","subject_id","study_id","session_id","view_history","rt","stimulus","response","task","correct","answer","item","fiar_detect_rt","fiar_detect_correct","total_correct_fiar_detect","post_trial_gap","choices","spm_correct","spm_rt","mouse_click","stim_duration","block_duration","timing_post_trial","current_position","tol_num_moves_made","tol_target","tol_problem_id","tol_rt","key_press","possible_responses","tol_correct","preplanning","tol_rt_per_trial","tol_min_moves"
"true","false","[]","[]","[]","preload","0","1463","0.0-0.0","5aa44687dbdb470001ef463f","E1","batch5","","","","","","","","","","","","","","","","","","","","","","","","","","","","","",""
"true","","","","","fullscreen","1","19415","0.0-1.0-0.0","5aa44687dbdb470001ef463f","E1","batch5","","","","","","","","","","","","","","","","","","","","","","","","","","","","","",""
"true","","","","","fullscreen","2","27135","0.0-2.0-0.0","5aa44687dbdb470001ef463f","E1","batch5","","","","","","","","","","","","","","","","","","","","","","","","","","","","","",""
"","","","","","instructions","3","60186","0.0-2.0-1.0-0.0","5aa44687dbdb470001ef463f","E1","batch5","[{""page_index"":0,""viewing_time"":19206.19999998808},{""page_index"":1,""viewing_time"":13842.70000000298}]","33049.5","","","","","","","","","","","","","","","","","","","","","","","","","","","",""
"","","","","","html-button-response","4","63066","0.0-2.0-1.0-1.0-0.0","5aa44687dbdb470001ef463f","E1","batch5","","2878.3999999910593","<p class=block-text> Let's answer a few questions <br>","0","pattern_enter_quiz","","","","","","","","","","","","","","","","","","","","","","","","",""
"","","","","","html-button-response","5","77009","0.0-2.0-1.0-1.0-1.0","5aa44687dbdb470001ef463f","E1","batch5","","13940.79999999702","<p class = block-text>True or False: You will have as much time as you want to make each choice. <br></p>","1","pattern_quiz","true","","","","","","","","","","","","","","","","","","","","","","","",""
"","","","","","html-button-response","6","81362","0.0-2.0-1.0-1.0-2.0","5aa44687dbdb470001ef463f","E1","batch5","","4347.20000000298","<p class = block-text>Correct! You should make your choice <strong> as fast as you can</strong>.</p>","0","pattern_quiz_feedback","","","","","","","","","","","","","","","","","","","","","","","","",""
"","","","","","html-button-response","7","89842","0.0-2.0-1.0-1.0-3.0","5aa44687dbdb470001ef463f","E1","batch5","","8478.79999999702","<p class = block-text>True or False: You will look for 4 pieces in black or white color connected in a row either horizontally, vertically or diagonally. <br></p>","0","pattern_quiz","true","","","","","","","","","","","","","","","","","","","","","","","",""
"","","","","","html-button-response","8","91112","0.0-2.0-1.0-1.0-4.0","5aa44687dbdb470001ef463f","E1","batch5","","1268.2999999970198","<p class = block-text>Correct! </p>","0","pattern_quiz_feedback","","","","","","","","","","","","","","","","","","","","","","","","",""
"","","","","","html-button-response","9","96814","0.0-2.0-2.0","5aa44687dbdb470001ef463f","E1","batch5","","5698.699999988079","<p class=block-text> Now that you've understood the game, let's do a few practice trials before we start!<br> <br>","0","pattern_enter_practice","","","","","","","","","","","","","","","","","","","","","","","","",""
"","","","","","image-keyboard-response","10","99854","0.0-2.0-3.0-0.0","5aa44687dbdb470001ef463f","E1","batch5","","3022.1000000089407","stim/prac_no_18_1.png","j","pattern_practice","true","j","","","","","","","","","","","","","","","","","","","","","","",""
"","","","","","html-keyboard-response","11","100863","0.0-2.0-3.0-1.0","5aa44687dbdb470001ef463f","E1","batch5","","null","<p style=""font-size:30px;color:green;"">Correct!</p>","null","pattern_feedback","","","","","","","","","","","","","","","","","","","","","","","","",""
"","","","","","image-keyboard-response","12","103515","0.0-2.0-3.0-0.1","5aa44687dbdb470001ef463f","E1","batch5","","2649.5","stim/prac_no_16_1.png","j","pattern_practice","true","j","","","","","","","","","","","","","","","","","","","","","","",""
"","","","","","html-keyboard-response","13","104527","0.0-2.0-3.0-1.1","5aa44687dbdb470001ef463f","E1","batch5","","null","<p style=""font-size:30px;color:green;"">Correct!</p>","null","pattern_feedback","","","","","","","","","","","","","","","","","","","","","","","","",""
"","","","","","image-keyboard-response","14","105549","0.0-2.0-3.0-0.2","5aa44687dbdb470001ef463f","E1","batch5","","1019.0999999940395","stim/prac_yes_18_hor_w1.png","f","pattern_practice","true","f","","","","","","","","","","","","","","","","","","","","","","",""
"","","","","","html-keyboard-response","15","106559","0.0-2.0-3.0-1.2","5aa44687dbdb470001ef463f","E1","batch5","","null","<p style=""font-size:30px;color:green;"">Correct!</p>","null","pattern_feedback","","","","","","","","","","","","","","","","","","","","","","","","",""
"","","","","","image-keyboard-response","16","107524","0.0-2.0-3.0-0.3","5aa44687dbdb470001ef463f","E1","batch5","","962.6000000089407","stim/prac_yes_16_ver_w1.png","f","pattern_practice","true","f","","","","","","","","","","","","","","","","","","","","","","",""
"","","","","","html-keyboard-response","17","108535","0.0-2.0-3.0-1.3","5aa44687dbdb470001ef463f","E1","batch5","","null","<p style=""font-size:30px;color:green;"">Correct!</p>","null","pattern_feedback","","","","","","","","","","","","","","","","","","","","","","","","",""
"","","","","","image-keyboard-response","18","109704","0.0-2.0-3.0-0.4","5aa44687dbdb470001ef463f","E1","batch5","","1153.1000000089407","stim/prac_yes_20_dia_b1.png","f","pattern_practice","true","f","","","","","","","","","","","","","","","","","","","","","","",""
"","","","","","html-keyboard-response","19","110711","0.0-2.0-3.0-1.4","5aa44687dbdb470001ef463f","E1","batch5","","null","<p style=""font-size:30px;color:green;"">Correct!</p>","null","pattern_feedback","","","","","","","","","","","","","","","","","","","","","","","","",""
"","","","","","html-button-response","20","116019","0.0-2.0-4.0","5aa44687dbdb470001ef463f","E1","batch5","","5306.5","<p class=block-text> Good job! You are done with practice trials!<br>
        You responded correctly on 100% of the trials.<br>
        Press the button below to start official trials. Now you won't see any feedback about your response</p>","0","pattern_enter_official_trials","","","","","","","","","","","","","","","","","","","","","","","","",""
"","","","","","html-keyboard-response","21","116822","0.0-2.0-5.0-0.0","5aa44687dbdb470001ef463f","E1","batch5","","null","<p class=block-text>Trial 1 out of 78</p>","null","pattern_show_trial_num","","","","","","","","","","","","","","","","","","","","","","","","",""
"","","","","","image-keyboard-response","22","118340","0.0-2.0-5.0-1.0","5aa44687dbdb470001ef463f","E1","batch5","","1515","stim/yes_12_hor_w1_w.png","f","pattern_response","true","f","pattern_42","1515","true","1","","","","","","","","","","","","","","","","","","",""
"","","","","","html-keyboard-response","23","119655","0.0-2.0-5.0-0.1","5aa44687dbdb470001ef463f","E1","batch5","","null","<p class=block-text>Trial 2 out of 78</p>","null","pattern_show_trial_num","","","","","","","","","","","","","","","","","","","","","","","","",""
"","","","","","image-keyboard-response","24","120683","0.0-2.0-5.0-1.1","5aa44687dbdb470001ef463f","E1","batch5","","1025.6000000089407","stim/yes_26_dia_w2_w.png","f","pattern_response","true","f","pattern_50","1025.6000000089407","true","2","","","","","","","","","","","","","","","","","","",""
"","","","","","html-keyboard-response","25","121999","0.0-2.0-5.0-0.2","5aa44687dbdb470001ef463f","E1","batch5","","null","<p class=block-text>Trial 3 out of 78</p>","null","pattern_show_trial_num","","","","","","","","","","","","","","","","","","","","","","","","",""
"","","","","","image-keyboard-response","26","124794","0.0-2.0-5.0-1.2","5aa44687dbdb470001ef463f","E1","batch5","","2793.0999999940395","stim/no_36_1_b.png","j","pattern_response","true","j","pattern_17","2793.0999999940395","true","3","","","","","","","","","","","","","","","","","","",""
"","","","","","html-keyboard-response","27","126103","0.0-2.0-5.0-0.3","5aa44687dbdb470001ef463f","E1","batch5","","null","<p class=block-text>Trial 4 out of 78</p>","null","pattern_show_trial_num","","","","","","","","","","","","","","","","","","","","","","","","",""
"","","","","","image-keyboard-response","28","127007","0.0-2.0-5.0-1.3","5aa44687dbdb470001ef463f","E1","batch5","","900.7999999970198","stim/yes_46_ver_b1_b.png","f","pattern_response","true","f","pattern_68","900.7999999970198","true","4","","","","","","","","","","","","","","","","","","",""
"","","","","","html-keyboard-response","29","128319","0.0-2.0-5.0-0.4","5aa44687dbdb470001ef463f","E1","batch5","","null","<p class=block-text>Trial 5 out of 78</p>","null","pattern_show_trial_num","","","","","","","","","","","","","","","","","","","","","","","","",""
"","","","","","image-keyboard-response","30","131179","0.0-2.0-5.0-1.4","5aa44687dbdb470001ef463f","E1","batch5","","2857.7999999970198","stim/no_37_2_w.png","j","pattern_response","true","j","pattern_19","2857.7999999970198","true","5","","","","","","","","","","","","","","","","","","",""
"","","","","","html-keyboard-response","31","132495","0.0-2.0-5.0-0.5","5aa44687dbdb470001ef463f","E1","batch5","","null","<p class=block-text>Trial 6 out of 78</p>","null","pattern_show_trial_num","","","","","","","","","","","","","","","","","","","","","","","","",""
"","","","","","image-keyboard-response","32","135814","0.0-2.0-5.0-1.5","5aa44687dbdb470001ef463f","E1","batch5","","3316.5","stim/no_22_1_b.png","j","pattern_response","true","j","pattern_07","3316.5","true","6","","","","","","","","","","","","","","","","","","",""
"","","","","","html-keyboard-response","33","137127","0.0-2.0-5.0-0.6","5aa44687dbdb470001ef463f","E1","batch5","","null","<p class=block-text>Trial 7 out of 78</p>","null","pattern_show_trial_num","","","","","","","","","","","","","","","","","","","","","","","","",""
"","","","","","image-keyboard-response","34","138631","0.0-2.0-5.0-1.6","5aa44687dbdb470001ef463f","E1","batch5","","1500.5999999940395","stim/yes_17_ver_b1_b.png","f","pattern_response","true","f","pattern_46","1500.5999999940395","true","7","","","","","","","","","","","","","","","","","","",""
"","","","","","html-keyboard-response","35","139943","0.0-2.0-5.0-0.7","5aa44687dbdb470001ef463f","E1","batch5","","null","<p class=block-text>Trial 8 out of 78</p>","null","pattern_show_trial_num","","","","","","","","","","","","","","","","","","","","","","","","",""
"","","","","","image-keyboard-response","36","143289","0.0-2.0-5.0-1.7","5aa44687dbdb470001ef463f","E1","batch5","","3343.9000000059605","stim/no_49_2_b.png","j","pattern_response","true","j","pattern_29","3343.9000000059605","true","8","","","","","","","","","","","","","","","","","","",""
"","","","","","html-keyboard-response","37","144599","0.0-2.0-5.0-0.8","5aa44687dbdb470001ef463f","E1","batch5","","null","<p class=block-text>Trial 9 out of 78</p>","null","pattern_show_trial_num","","","","","","","","","","","","","","","","","","","","","","","","",""
"","","","","","image-keyboard-response","38","145534","0.0-2.0-5.0-1.8","5aa44687dbdb470001ef463f","E1","batch5","","932.5","stim/yes_37_hor_w1_w.png","f","pattern_response","true","f","pattern_60","932.5","true","9","","","","","","","","","","","","","","","","","","",""
"","","","","","html-keyboard-response","39","146847","0.0-2.0-5.0-0.9","5aa44687dbdb470001ef463f","E1","batch5","","null","<p class=block-text>Trial 10 out of 78</p>","null","pattern_show_trial_num","","","","","","","","","","","","","","","","","","","","","","","","",""
"","","","","","image-keyboard-response","40","149428","0.0-2.0-5.0-1.9","5aa44687dbdb470001ef463f","E1","batch5","","2578.2000000029802","stim/no_30_1_b.png","j","pattern_response","true","j","pattern_13","2578.2000000029802","true","10","","","","","","","","","","","","","","","","","","",""
"","","","","","html-keyboard-response","41","150743","0.0-2.0-5.0-0.10","5aa44687dbdb470001ef463f","E1","batch5","","null","<p class=block-text>Trial 11 out of 78</p>","null","pattern_show_trial_num","","","","","","","","","","","","","","","","","","","","","","","","",""
"","","","","","image-keyboard-response","42","153206","0.0-2.0-5.0-1.10","5aa44687dbdb470001ef463f","E1","batch5","","2460","stim/no_25_1_b.png","j","pattern_response","true","j","pattern_09","2460","true","11","","","","","","","","","","","","","","","","","","",""
"","","","","","html-keyboard-response","43","154519","0.0-2.0-5.0-0.11","5aa44687dbdb470001ef463f","E1","batch5","","null","<p class=block-text>Trial 12 out of 78</p>","null","pattern_show_trial_num","","","","","","","","","","","","","","","","","","","","","","","","",""
"","","","","","image-keyboard-response","44","159134","0.0-2.0-5.0-1.11","5aa44687dbdb470001ef463f","E1","batch5","","4612.29999999702","stim/no_53_1_b.png","j","pattern_response","true","j","pattern_33","4612.29999999702","true","12","","","","","","","","","","","","","","","","","","",""
"","","","","","html-keyboard-response","45","160447","0.0-2.0-5.0-0.12","5aa44687dbdb470001ef463f","E1","batch5","","null","<p class=block-text>Trial 13 out of 78</p>","null","pattern_show_trial_num","","","","","","","","","","","","","","","","","","","","","","","","",""
"","","","","","image-keyboard-response","46","161612","0.0-2.0-5.0-1.12","5aa44687dbdb470001ef463f","E1","batch5","","1162.7999999970198","stim/yes_33_dia_w1_w.png","f","pattern_response","true","f","pattern_56","1162.7999999970198","true","13","","","","","","","","","","","","","","","","","","",""
"","","","","","html-keyboard-response","47","162927","0.0-2.0-5.0-0.13","5aa44687dbdb470001ef463f","E1","batch5","","null","<p class=block-text>Trial 14 out of 78</p>","null","pattern_show_trial_num","","","","","","","","","","","","","","","","","","","","","","","","",""
"","","","","","image-keyboard-response","48","168004","0.0-2.0-5.0-1.13","5aa44687dbdb470001ef463f","E1","batch5","","5075","stim/no_58_1_w.png","j","pattern_response","true","j","pattern_35","5075","true","14","","","","","","","","","","","","","","","","","","",""
"","","","","","html-keyboard-response","49","169319","0.0-2.0-5.0-0.14","5aa44687dbdb470001ef463f","E1","batch5","","null","<p class=block-text>Trial 15 out of 78</p>","null","pattern_show_trial_num","","","","","","","","","","","","","","","","","","","","","","","","",""
"","","","","","image-keyboard-response","50","172896","0.0-2.0-5.0-1.14","5aa44687dbdb470001ef463f","E1","batch5","","3574.5999999940395","stim/no_45_1_w.png","j","pattern_response","true","j","pattern_25","3574.5999999940395","true","15","","","","","","","","","","","","","","","","","","",""
"","","","","","html-keyboard-response","51","174207","0.0-2.0-5.0-0.15","5aa44687dbdb470001ef463f","E1","batch5","","null","<p class=block-text>Trial 16 out of 78</p>","null","pattern_show_trial_num","","","","","","","","","","","","","","","","","","","","","","","","",""
"","","","","","image-keyboard-response","52","176533","0.0-2.0-5.0-1.15","5aa44687dbdb470001ef463f","E1","batch5","","2323.7999999970198","stim/yes_42_dia_w1_w.png","f","pattern_response","true","f","pattern_64","2323.7999999970198","true","16","","","","","","","","","","","","","","","","","","",""
"","","","","","html-keyboard-response","53","177847","0.0-2.0-5.0-0.16","5aa44687dbdb470001ef463f","E1","batch5","","null","<p class=block-text>Trial 17 out of 78</p>","null","pattern_show_trial_num","","","","","","","","","","","","","","","","","","","","","","","","",""
"","","","","","image-keyboard-response","54","180301","0.0-2.0-5.0-1.16","5aa44687dbdb470001ef463f","E1","batch5","","2451.7999999970198","stim/no_18_1_b.png","j","pattern_response","true","j","pattern_05","2451.7999999970198","true","17","","","","","","","","","","","","","","","","","","",""
"","","","","","html-keyboard-response","55","181615","0.0-2.0-5.0-0.17","5aa44687dbdb470001ef463f","E1","batch5","","null","<p class=block-text>Trial 18 out of 78</p>","null","pattern_show_trial_num","","","","","","","","","","","","","","","","","","","","","","","","",""
"","","","","","image-keyboard-response","56","186927","0.0-2.0-5.0-1.17","5aa44687dbdb470001ef463f","E1","batch5","","5309.0999999940395","stim/no_47_1_b.png","j","pattern_response","true","j","pattern_27","5309.0999999940395","true","18","","","","","","","","","","","","","","","","","","",""
"","","","","","html-keyboard-response","57","188239","0.0-2.0-5.0-0.18","5aa44687dbdb470001ef463f","E1","batch5","","null","<p class=block-text>Trial 19 out of 78</p>","null","pattern_show_trial_num","","","","","","","","","","","","","","","","","","","","","","","","",""
"","","","","","image-keyboard-response","58","189185","0.0-2.0-5.0-1.18","5aa44687dbdb470001ef463f","E1","batch5","","943.5999999940395","stim/yes_15_dia_b1u_b.png","f","pattern_response","true","f","pattern_44","943.5999999940395","true","19","","","","","","","","","","","","","","","","","","",""
"","","","","","html-keyboard-response","59","190495","0.0-2.0-5.0-0.19","5aa44687dbdb470001ef463f","E1","batch5","","null","<p class=block-text>Trial 20 out of 78</p>","null","pattern_show_trial_num","","","","","","","","","","","","","","","","","","","","","","","","",""
"","","","","","image-keyboard-response","60","194373","0.0-2.0-5.0-1.19","5aa44687dbdb470001ef463f","E1","batch5","","3875.9000000059605","stim/no_33_1_b.png","j","pattern_response","true","j","pattern_15","3875.9000000059605","true","20","","","","","","","","","","","","","","","","","","",""
"","","","","","html-keyboard-response","61","195687","0.0-2.0-5.0-0.20","5aa44687dbdb470001ef463f","E1","batch5","","null","<p class=block-text>Trial 21 out of 78</p>","null","pattern_show_trial_num","","","","","","","","","","","","","","","","","","","","","","","","",""
"","","","","","image-keyboard-response","62","196825","0.0-2.0-5.0-1.20","5aa44687dbdb470001ef463f","E1","batch5","","1135.5","stim/yes_29_hor_b1_b.png","f","pattern_response","true","f","pattern_52","1135.5","true","21","","","","","","","","","","","","","","","","","","",""
"","","","","","html-keyboard-response","63","198135","0.0-2.0-5.0-0.21","5aa44687dbdb470001ef463f","E1","batch5","","null","<p class=block-text>Trial 22 out of 78</p>","null","pattern_show_trial_num","","","","","","","","","","","","","","","","","","","","","","","","",""
"","","","","","image-keyboard-response","64","203598","0.0-2.0-5.0-1.21","5aa44687dbdb470001ef463f","E1","batch5","","5460.399999991059","stim/yes_58_dia_w1_w.png","j","pattern_response","false","f","pattern_76","5460.399999991059","false","21","","","","","","","","","","","","","","","","","","",""
"","","","","","html-keyboard-response","65","204911","0.0-2.0-5.0-0.22","5aa44687dbdb470001ef463f","E1","batch5","","null","<p class=block-text>Trial 23 out of 78</p>","null","pattern_show_trial_num","","","","","","","","","","","","","","","","","","","","","","","","",""
"","","","","","image-keyboard-response","66","206297","0.0-2.0-5.0-1.22","5aa44687dbdb470001ef463f","E1","batch5","","1382.8999999910593","stim/yes_51_dia_b1.png","f","pattern_response","true","f","pattern_72","1382.8999999910593","true","22","","","","","","","","","","","","","","","","","","",""
"","","","","","html-keyboard-response","67","207607","0.0-2.0-5.0-0.23","5aa44687dbdb470001ef463f","E1","batch5","","null","<p class=block-text>Trial 24 out of 78</p>","null","pattern_show_trial_num","","","","","","","","","","","","","","","","","","","","","","","","",""
"","","","","","image-keyboard-response","68","208832","0.0-2.0-5.0-1.23","5aa44687dbdb470001ef463f","E1","batch5","","1222.2999999970198","stim/no_12_1.png","j","pattern_response","true","j","pattern_01","1222.2999999970198","true","23","","","","","","","","","","","","","","","","","","",""
"","","","","","html-keyboard-response","69","210143","0.0-2.0-5.0-0.24","5aa44687dbdb470001ef463f","E1","batch5","","null","<p class=block-text>Trial 25 out of 78</p>","null","pattern_show_trial_num","","","","","","","","","","","","","","","","","","","","","","","","",""
"","","","","","image-keyboard-response","70","211436","0.0-2.0-5.0-1.24","5aa44687dbdb470001ef463f","E1","batch5","","1290.7000000029802","stim/yes_49_hor_w1_b.png","f","pattern_response","true","f","pattern_70","1290.7000000029802","true","24","","","","","","","","","","","","","","","","","","",""
"","","","","","html-keyboard-response","71","212751","0.0-2.0-5.0-0.25","5aa44687dbdb470001ef463f","E1","batch5","","null","<p class=block-text>Trial 26 out of 78</p>","null","pattern_show_trial_num","","","","","","","","","","","","","","","","","","","","","","","","",""
"","","","","","image-keyboard-response","72","215713","0.0-2.0-5.0-1.25","5aa44687dbdb470001ef463f","E1","batch5","","2959.4000000059605","stim/yes_53_ver_b1_b.png","f","pattern_response","true","f","pattern_74","2959.4000000059605","true","25","","","","","","","","","","","","","","","","","","",""
"","","","","","html-keyboard-response","73","217023","0.0-2.0-5.0-0.26","5aa44687dbdb470001ef463f","E1","batch5","","null","<p class=block-text>Trial 27 out of 78</p>","null","pattern_show_trial_num","","","","","","","","","","","","","","","","","","","","","","","","",""
"","","","","","image-keyboard-response","74","218468","0.0-2.0-5.0-1.26","5aa44687dbdb470001ef463f","E1","batch5","","1442","stim/no_15_1_w.png","j","pattern_response","true","j","pattern_03","1442","true","26","","","","","","","","","","","","","","","","","","",""
"","","","","","html-keyboard-response","75","219783","0.0-2.0-5.0-0.27","5aa44687dbdb470001ef463f","E1","batch5","","null","<p class=block-text>Trial 28 out of 78</p>","null","pattern_show_trial_num","","","","","","","","","","","","","","","","","","","","","","","","",""
"","","","","","image-keyboard-response","76","224788","0.0-2.0-5.0-1.27","5aa44687dbdb470001ef463f","E1","batch5","","5002.29999999702","stim/no_51_1.png","j","pattern_response","true","j","pattern_31","5002.29999999702","true","27","","","","","","","","","","","","","","","","","","",""
"","","","","","html-keyboard-response","77","226103","0.0-2.0-5.0-0.28","5aa44687dbdb470001ef463f","E1","batch5","","null","<p class=block-text>Trial 29 out of 78</p>","null","pattern_show_trial_num","","","","","","","","","","","","","","","","","","","","","","","","",""
"","","","","","image-keyboard-response","78","227400","0.0-2.0-5.0-1.28","5aa44687dbdb470001ef463f","E1","batch5","","1294.9000000059605","stim/yes_30_ver_b1_b.png","f","pattern_response","true","f","pattern_54","1294.9000000059605","true","28","","","","","","","","","","","","","","","","","","",""
"","","","","","html-keyboard-response","79","228711","0.0-2.0-5.0-0.29","5aa44687dbdb470001ef463f","E1","batch5","","null","<p class=block-text>Trial 30 out of 78</p>","null","pattern_show_trial_num","","","","","","","","","","","","","","","","","","","","","","","","",""
"","","","","","image-keyboard-response","80","234344","0.0-2.0-5.0-1.29","5aa44687dbdb470001ef463f","E1","batch5","","5631.4000000059605","stim/no_67_1.png","j","pattern_response","true","j","pattern_39","5631.4000000059605","true","29","","","","","","","","","","","","","","","","","","",""
"","","","","","html-keyboard-response","81","235655","0.0-2.0-5.0-0.30","5aa44687dbdb470001ef463f","E1","batch5","","null","<p class=block-text>Trial 31 out of 78</p>","null","pattern_show_trial_num","","","","","","","","","","","","","","","","","","","","","","","","",""
"","","","","","image-keyboard-response","82","236517","0.0-2.0-5.0-1.30","5aa44687dbdb470001ef463f","E1","batch5","","859.2999999970198","stim/yes_39_hor_w1_w.png","f","pattern_response","true","f","pattern_62","859.2999999970198","true","30","","","","","","","","","","","","","","","","","","",""
"","","","","","html-keyboard-response","83","237831","0.0-2.0-5.0-0.31","5aa44687dbdb470001ef463f","E1","batch5","","null","<p class=block-text>Trial 32 out of 78</p>","null","pattern_show_trial_num","","","","","","","","","","","","","","","","","","","","","","","","",""
"","","","","","image-keyboard-response","84","241752","0.0-2.0-5.0-1.31","5aa44687dbdb470001ef463f","E1","batch5","","3919","stim/yes_44_ver_w1_w.png","j","pattern_response","false","f","pattern_66","3919","false","30","","","","","","","","","","","","","","","","","","",""
"","","","","","html-keyboard-response","85","243063","0.0-2.0-5.0-0.32","5aa44687dbdb470001ef463f","E1","batch5","","null","<p class=block-text>Trial 33 out of 78</p>","null","pattern_show_trial_num","","","","","","","","","","","","","","","","","","","","","","","","",""
"","","","","","image-keyboard-response","86","244317","0.0-2.0-5.0-1.32","5aa44687dbdb470001ef463f","E1","batch5","","1251.300000011921","stim/yes_36_ver_w1_w.png","f","pattern_response","true","f","pattern_58","1251.300000011921","true","31","","","","","","","","","","","","","","","","","","",""
"","","","","","html-keyboard-response","87","245631","0.0-2.0-5.0-0.33","5aa44687dbdb470001ef463f","E1","batch5","","null","<p class=block-text>Trial 34 out of 78</p>","null","pattern_show_trial_num","","","","","","","","","","","","","","","","","","","","","","","","",""
"","","","","","image-keyboard-response","88","246815","0.0-2.0-5.0-1.33","5aa44687dbdb470001ef463f","E1","batch5","","1181.9000000059605","stim/yes_23_ver_b1.png","f","pattern_response","true","f","pattern_48","1181.9000000059605","true","32","","","","","","","","","","","","","","","","","","",""
"","","","","","html-keyboard-response","89","248127","0.0-2.0-5.0-0.34","5aa44687dbdb470001ef463f","E1","batch5","","null","<p class=block-text>Trial 35 out of 78</p>","null","pattern_show_trial_num","","","","","","","","","","","","","","","","","","","","","","","","",""
"","","","","","image-keyboard-response","90","251110","0.0-2.0-5.0-1.34","5aa44687dbdb470001ef463f","E1","batch5","","2980.1000000089407","stim/no_43_2_b.png","j","pattern_response","true","j","pattern_23","2980.1000000089407","true","33","","","","","","","","","","","","","","","","","","",""
"","","","","","html-keyboard-response","91","252423","0.0-2.0-5.0-0.35","5aa44687dbdb470001ef463f","E1","batch5","","null","<p class=block-text>Trial 36 out of 78</p>","null","pattern_show_trial_num","","","","","","","","","","","","","","","","","","","","","","","","",""
"","","","","","image-keyboard-response","92","257187","0.0-2.0-5.0-1.35","5aa44687dbdb470001ef463f","E1","batch5","","4761.800000011921","stim/yes_70_ver_b1.png","f","pattern_response","true","f","pattern_80","4761.800000011921","true","34","","","","","","","","","","","","","","","","","","",""
"","","","","","html-keyboard-response","93","258503","0.0-2.0-5.0-0.36","5aa44687dbdb470001ef463f","E1","batch5","","null","<p class=block-text>Trial 37 out of 78</p>","null","pattern_show_trial_num","","","","","","","","","","","","","","","","","","","","","","","","",""
"","","","","","image-keyboard-response","94","262311","0.0-2.0-5.0-1.36","5aa44687dbdb470001ef463f","E1","batch5","","3805.4000000059605","stim/yes_63_dia_b1.png","f","pattern_response","true","f","pattern_78","3805.4000000059605","true","35","","","","","","","","","","","","","","","","","","",""
"","","","","","html-keyboard-response","95","263623","0.0-2.0-5.0-0.37","5aa44687dbdb470001ef463f","E1","batch5","","null","<p class=block-text>Trial 38 out of 78</p>","null","pattern_show_trial_num","","","","","","","","","","","","","","","","","","","","","","","","",""
"","","","","","image-keyboard-response","96","266772","0.0-2.0-5.0-1.37","5aa44687dbdb470001ef463f","E1","batch5","","3146.699999988079","stim/no_28_2.png","j","pattern_response","true","j","pattern_11","3146.699999988079","true","36","","","","","","","","","","","","","","","","","","",""
"","","","","","html-keyboard-response","97","268087","0.0-2.0-5.0-0.38","5aa44687dbdb470001ef463f","E1","batch5","","null","<p class=block-text>Trial 39 out of 78</p>","null","pattern_show_trial_num","","","","","","","","","","","","","","","","","","","","","","","","",""
"","","","","","image-keyboard-response","98","272211","0.0-2.0-5.0-1.38","5aa44687dbdb470001ef463f","E1","batch5","","4121","stim/no_39_1_w.png","j","pattern_response","true","j","pattern_21","4121","true","37","","","","","","","","","","","","","","","","","","",""
"","","","","","image-keyboard-response","99","275804","0.0-2.0-6.0","5aa44687dbdb470001ef463f","E1","batch5","","3090.5999999940395","stim/empty_board.png","j","attention_check","true","j","","","","","500","[""f"",""j""]","","","","","","","","","","","","","","","","",""
"","","","","","html-keyboard-response","100","276607","0.0-2.0-7.0-0.0","5aa44687dbdb470001ef463f","E1","batch5","","null","<p class=block-text>Trial 40 out of 78</p>","null","pattern_show_trial_num","","","","","","","","","","","","","","","","","","","","","","","","",""
"","","","","","image-keyboard-response","101","278456","0.0-2.0-7.0-1.0","5aa44687dbdb470001ef463f","E1","batch5","","1845.9000000059605","stim/yes_28_ver_b1.png","f","pattern_response","true","f","pattern_51","1845.9000000059605","true","38","","","","","","","","","","","","","","","","","","",""
"","","","","","html-keyboard-response","102","279767","0.0-2.0-7.0-0.1","5aa44687dbdb470001ef463f","E1","batch5","","null","<p class=block-text>Trial 41 out of 78</p>","null","pattern_show_trial_num","","","","","","","","","","","","","","","","","","","","","","","","",""
"","","","","","image-keyboard-response","103","281530","0.0-2.0-7.0-1.1","5aa44687dbdb470001ef463f","E1","batch5","","1761","stim/yes_43_ver_w1_w.png","f","pattern_response","true","f","pattern_65","1761","true","39","","","","","","","","","","","","","","","","","","",""
"","","","","","html-keyboard-response","104","282839","0.0-2.0-7.0-0.2","5aa44687dbdb470001ef463f","E1","batch5","","null","<p class=block-text>Trial 42 out of 78</p>","null","pattern_show_trial_num","","","","","","","","","","","","","","","","","","","","","","","","",""
"","","","","","image-keyboard-response","105","285105","0.0-2.0-7.0-1.2","5aa44687dbdb470001ef463f","E1","batch5","","2263.2999999970198","stim/no_32_1_w.png","j","pattern_response","true","j","pattern_14","2263.2999999970198","true","40","","","","","","","","","","","","","","","","","","",""
"","","","","","html-keyboard-response","106","286415","0.0-2.0-7.0-0.3","5aa44687dbdb470001ef463f","E1","batch5","","null","<p class=block-text>Trial 43 out of 78</p>","null","pattern_show_trial_num","","","","","","","","","","","","","","","","","","","","","","","","",""
"","","","","","image-keyboard-response","107","288110","0.0-2.0-7.0-1.3","5aa44687dbdb470001ef463f","E1","batch5","","1692.5999999940395","stim/yes_45_hor_b2_b.png","f","pattern_response","true","f","pattern_67","1692.5999999940395","true","41","","","","","","","","","","","","","","","","","","",""
"","","","","","html-keyboard-response","108","289423","0.0-2.0-7.0-0.4","5aa44687dbdb470001ef463f","E1","batch5","","null","<p class=block-text>Trial 44 out of 78</p>","null","pattern_show_trial_num","","","","","","","","","","","","","","","","","","","","","","","","",""
"","","","","","image-keyboard-response","109","293169","0.0-2.0-7.0-1.4","5aa44687dbdb470001ef463f","E1","batch5","","3744.5","stim/no_26_1_w.png","j","pattern_response","true","j","pattern_10","3744.5","true","42","","","","","","","","","","","","","","","","","","",""
"","","","","","html-keyboard-response","110","294479","0.0-2.0-7.0-0.5","5aa44687dbdb470001ef463f","E1","batch5","","null","<p class=block-text>Trial 45 out of 78</p>","null","pattern_show_trial_num","","","","","","","","","","","","","","","","","","","","","","","","",""
"","","","","","image-keyboard-response","111","298632","0.0-2.0-7.0-1.5","5aa44687dbdb470001ef463f","E1","batch5","","4150.20000000298","stim/no_55_1_w.png","j","pattern_response","true","j","pattern_34","4150.20000000298","true","43","","","","","","","","","","","","","","","","","","",""
"","","","","","html-keyboard-response","112","299943","0.0-2.0-7.0-0.6","5aa44687dbdb470001ef463f","E1","batch5","","null","<p class=block-text>Trial 46 out of 78</p>","null","pattern_show_trial_num","","","","","","","","","","","","","","","","","","","","","","","","",""
"","","","","","image-keyboard-response","113","303247","0.0-2.0-7.0-1.6","5aa44687dbdb470001ef463f","E1","batch5","","3301.9000000059605","stim/no_36_2_w.png","j","pattern_response","true","j","pattern_18","3301.9000000059605","true","44","","","","","","","","","","","","","","","","","","",""
"","","","","","html-keyboard-response","114","304559","0.0-2.0-7.0-0.7","5aa44687dbdb470001ef463f","E1","batch5","","null","<p class=block-text>Trial 47 out of 78</p>","null","pattern_show_trial_num","","","","","","","","","","","","","","","","","","","","","","","","",""
"","","","","","image-keyboard-response","115","309653","0.0-2.0-7.0-1.7","5aa44687dbdb470001ef463f","E1","batch5","","5091.5","stim/yes_48_dia_w1_w.png","f","pattern_response","true","f","pattern_69","5091.5","true","45","","","","","","","","","","","","","","","","","","",""
"","","","","","html-keyboard-response","116","310967","0.0-2.0-7.0-0.8","5aa44687dbdb470001ef463f","E1","batch5","","null","<p class=block-text>Trial 48 out of 78</p>","null","pattern_show_trial_num","","","","","","","","","","","","","","","","","","","","","","","","",""
"","","","","","image-keyboard-response","117","312074","0.0-2.0-7.0-1.8","5aa44687dbdb470001ef463f","E1","batch5","","1104.2999999970198","stim/yes_22_ver_w1.png","f","pattern_response","true","f","pattern_47","1104.2999999970198","true","46","","","","","","","","","","","","","","","","","","",""
"","","","","","html-keyboard-response","118","313383","0.0-2.0-7.0-0.9","5aa44687dbdb470001ef463f","E1","batch5","","null","<p class=block-text>Trial 49 out of 78</p>","null","pattern_show_trial_num","","","","","","","","","","","","","","","","","","","","","","","","",""
"","","","","","image-keyboard-response","119","317506","0.0-2.0-7.0-1.9","5aa44687dbdb470001ef463f","E1","batch5","","4120.70000000298","stim/yes_60_ver_b1_b.png","f","pattern_response","true","f","pattern_77","4120.70000000298","true","47","","","","","","","","","","","","","","","","","","",""
"","","","","","html-keyboard-response","120","318815","0.0-2.0-7.0-0.10","5aa44687dbdb470001ef463f","E1","batch5","","null","<p class=block-text>Trial 50 out of 78</p>","null","pattern_show_trial_num","","","","","","","","","","","","","","","","","","","","","","","","",""
"","","","","","image-keyboard-response","121","323826","0.0-2.0-7.0-1.10","5aa44687dbdb470001ef463f","E1","batch5","","5008.20000000298","stim/no_38_1_b.png","j","pattern_response","true","j","pattern_20","5008.20000000298","true","48","","","","","","","","","","","","","","","","","","",""
"","","","","","html-keyboard-response","122","325135","0.0-2.0-7.0-0.11","5aa44687dbdb470001ef463f","E1","batch5","","null","<p class=block-text>Trial 51 out of 78</p>","null","pattern_show_trial_num","","","","","","","","","","","","","","","","","","","","","","","","",""
"","","","","","image-keyboard-response","123","327190","0.0-2.0-7.0-1.11","5aa44687dbdb470001ef463f","E1","batch5","","2052","stim/yes_31_hor_b1.png","f","pattern_response","true","f","pattern_55","2052","true","49","","","","","","","","","","","","","","","","","","",""
"","","","","","html-keyboard-response","124","328503","0.0-2.0-7.0-0.12","5aa44687dbdb470001ef463f","E1","batch5","","null","<p class=block-text>Trial 52 out of 78</p>","null","pattern_show_trial_num","","","","","","","","","","","","","","","","","","","","","","","","",""
"","","","","","image-keyboard-response","125","330608","0.0-2.0-7.0-1.12","5aa44687dbdb470001ef463f","E1","batch5","","2102","stim/no_20_1_w.png","j","pattern_response","true","j","pattern_06","2102","true","50","","","","","","","","","","","","","","","","","","",""
"","","","","","html-keyboard-response","126","331919","0.0-2.0-7.0-0.13","5aa44687dbdb470001ef463f","E1","batch5","","null","<p class=block-text>Trial 53 out of 78</p>","null","pattern_show_trial_num","","","","","","","","","","","","","","","","","","","","","","","","",""
"","","","","","image-keyboard-response","127","332914","0.0-2.0-7.0-1.13","5aa44687dbdb470001ef463f","E1","batch5","","993.1000000089407","stim/yes_14_hor_b1_w.png","f","pattern_response","true","f","pattern_43","993.1000000089407","true","51","","","","","","","","","","","","","","","","","","",""
"","","","","","html-keyboard-response","128","334223","0.0-2.0-7.0-0.14","5aa44687dbdb470001ef463f","E1","batch5","","null","<p class=block-text>Trial 54 out of 78</p>","null","pattern_show_trial_num","","","","","","","","","","","","","","","","","","","","","","","","",""
"","","","","","image-keyboard-response","129","339644","0.0-2.0-7.0-1.14","5aa44687dbdb470001ef463f","E1","batch5","","5418.5","stim/no_52_1.png","j","pattern_response","true","j","pattern_32","5418.5","true","52","","","","","","","","","","","","","","","","","","",""
"","","","","","html-keyboard-response","130","340959","0.0-2.0-7.0-0.15","5aa44687dbdb470001ef463f","E1","batch5","","null","<p class=block-text>Trial 55 out of 78</p>","null","pattern_show_trial_num","","","","","","","","","","","","","","","","","","","","","","","","",""
"","","","","","image-keyboard-response","131","342588","0.0-2.0-7.0-1.15","5aa44687dbdb470001ef463f","E1","batch5","","1626.5999999940395","stim/no_17_1_w.png","j","pattern_response","true","j","pattern_04","1626.5999999940395","true","53","","","","","","","","","","","","","","","","","","",""
"","","","","","html-keyboard-response","132","343903","0.0-2.0-7.0-0.16","5aa44687dbdb470001ef463f","E1","batch5","","null","<p class=block-text>Trial 56 out of 78</p>","null","pattern_show_trial_num","","","","","","","","","","","","","","","","","","","","","","","","",""
"","","","","","image-keyboard-response","133","344878","0.0-2.0-7.0-1.16","5aa44687dbdb470001ef463f","E1","batch5","","973.1000000089407","stim/yes_17_dia_w1.png","f","pattern_response","true","f","pattern_45","973.1000000089407","true","54","","","","","","","","","","","","","","","","","","",""
"","","","","","html-keyboard-response","134","346191","0.0-2.0-7.0-0.17","5aa44687dbdb470001ef463f","E1","batch5","","null","<p class=block-text>Trial 57 out of 78</p>","null","pattern_show_trial_num","","","","","","","","","","","","","","","","","","","","","","","","",""
"","","","","","image-keyboard-response","135","347459","0.0-2.0-7.0-1.17","5aa44687dbdb470001ef463f","E1","batch5","","1252.2999999970198","stim/yes_38_hor_b1_b.png","f","pattern_response","true","f","pattern_61","1252.2999999970198","true","55","","","","","","","","","","","","","","","","","","",""
"","","","","","html-keyboard-response","136","348775","0.0-2.0-7.0-0.18","5aa44687dbdb470001ef463f","E1","batch5","","null","<p class=block-text>Trial 58 out of 78</p>","null","pattern_show_trial_num","","","","","","","","","","","","","","","","","","","","","","","","",""
"","","","","","image-keyboard-response","137","354548","0.0-2.0-7.0-1.18","5aa44687dbdb470001ef463f","E1","batch5","","5770.5999999940395","stim/no_62_1_w.png","j","pattern_response","true","j","pattern_36","5770.5999999940395","true","56","","","","","","","","","","","","","","","","","","",""
"","","","","","html-keyboard-response","138","355863","0.0-2.0-7.0-0.19","5aa44687dbdb470001ef463f","E1","batch5","","null","<p class=block-text>Trial 59 out of 78</p>","null","pattern_show_trial_num","","","","","","","","","","","","","","","","","","","","","","","","",""
"","","","","","image-keyboard-response","139","357156","0.0-2.0-7.0-1.19","5aa44687dbdb470001ef463f","E1","batch5","","1289.8999999910593","stim/no_13_2_b.png","j","pattern_response","true","j","pattern_02","1289.8999999910593","true","57","","","","","","","","","","","","","","","","","","",""
"","","","","","html-keyboard-response","140","358471","0.0-2.0-7.0-0.20","5aa44687dbdb470001ef463f","E1","batch5","","null","<p class=block-text>Trial 60 out of 78</p>","null","pattern_show_trial_num","","","","","","","","","","","","","","","","","","","","","","","","",""
"","","","","","image-keyboard-response","141","361450","0.0-2.0-7.0-1.20","5aa44687dbdb470001ef463f","E1","batch5","","2976.2999999970198","stim/yes_50_dia_w1.png","f","pattern_response","true","f","pattern_71","2976.2999999970198","true","58","","","","","","","","","","","","","","","","","","",""
"","","","","","html-keyboard-response","142","362759","0.0-2.0-7.0-0.21","5aa44687dbdb470001ef463f","E1","batch5","","null","<p class=block-text>Trial 61 out of 78</p>","null","pattern_show_trial_num","","","","","","","","","","","","","","","","","","","","","","","","",""
"","","","","","image-keyboard-response","143","363976","0.0-2.0-7.0-1.21","5aa44687dbdb470001ef463f","E1","batch5","","1214.7000000029802","stim/yes_55_hor_w1_w.png","f","pattern_response","true","f","pattern_75","1214.7000000029802","true","59","","","","","","","","","","","","","","","","","","",""
"","","","","","html-keyboard-response","144","365287","0.0-2.0-7.0-0.22","5aa44687dbdb470001ef463f","E1","batch5","","null","<p class=block-text>Trial 62 out of 78</p>","null","pattern_show_trial_num","","","","","","","","","","","","","","","","","","","","","","","","",""
"","","","","","image-keyboard-response","145","371118","0.0-2.0-7.0-1.22","5aa44687dbdb470001ef463f","E1","batch5","","5828.70000000298","stim/no_34_1_b.png","j","pattern_response","true","j","pattern_16","5828.70000000298","true","60","","","","","","","","","","","","","","","","","","",""
"","","","","","html-keyboard-response","146","372431","0.0-2.0-7.0-0.23","5aa44687dbdb470001ef463f","E1","batch5","","null","<p class=block-text>Trial 63 out of 78</p>","null","pattern_show_trial_num","","","","","","","","","","","","","","","","","","","","","","","","",""
"","","","","","image-keyboard-response","147","377652","0.0-2.0-7.0-1.23","5aa44687dbdb470001ef463f","E1","batch5","","5217.70000000298","stim/no_70_2.png","j","pattern_response","true","j","pattern_40","5217.70000000298","true","61","","","","","","","","","","","","","","","","","","",""
"","","","","","html-keyboard-response","148","378967","0.0-2.0-7.0-0.24","5aa44687dbdb470001ef463f","E1","batch5","","null","<p class=block-text>Trial 64 out of 78</p>","null","pattern_show_trial_num","","","","","","","","","","","","","","","","","","","","","","","","",""
"","","","","","image-keyboard-response","149","379829","0.0-2.0-7.0-1.24","5aa44687dbdb470001ef463f","E1","batch5","","859.7999999970198","stim/yes_25_hor_b1_b.png","f","pattern_response","true","f","pattern_49","859.7999999970198","true","62","","","","","","","","","","","","","","","","","","",""
"","","","","","html-keyboard-response","150","381143","0.0-2.0-7.0-0.25","5aa44687dbdb470001ef463f","E1","batch5","","null","<p class=block-text>Trial 65 out of 78</p>","null","pattern_show_trial_num","","","","","","","","","","","","","","","","","","","","","","","","",""
"","","","","","image-keyboard-response","151","386656","0.0-2.0-7.0-1.25","5aa44687dbdb470001ef463f","E1","batch5","","5511.0999999940395","stim/no_44_1.png","j","pattern_response","true","j","pattern_24","5511.0999999940395","true","63","","","","","","","","","","","","","","","","","","",""
"","","","","","html-keyboard-response","152","387967","0.0-2.0-7.0-0.26","5aa44687dbdb470001ef463f","E1","batch5","","null","<p class=block-text>Trial 66 out of 78</p>","null","pattern_show_trial_num","","","","","","","","","","","","","","","","","","","","","","","","",""
"","","","","","image-keyboard-response","153","391505","0.0-2.0-7.0-1.26","5aa44687dbdb470001ef463f","E1","batch5","","3535.5999999940395","stim/yes_52_ver_w1.png","f","pattern_response","true","f","pattern_73","3535.5999999940395","true","64","","","","","","","","","","","","","","","","","","",""
"","","","","","html-keyboard-response","154","392815","0.0-2.0-7.0-0.27","5aa44687dbdb470001ef463f","E1","batch5","","null","<p class=block-text>Trial 67 out of 78</p>","null","pattern_show_trial_num","","","","","","","","","","","","","","","","","","","","","","","","",""
"","","","","","image-keyboard-response","155","396138","0.0-2.0-7.0-1.27","5aa44687dbdb470001ef463f","E1","batch5","","3320.300000011921","stim/no_29_1_b.png","j","pattern_response","true","j","pattern_12","3320.300000011921","true","65","","","","","","","","","","","","","","","","","","",""
"","","","","","html-keyboard-response","156","397447","0.0-2.0-7.0-0.28","5aa44687dbdb470001ef463f","E1","batch5","","null","<p class=block-text>Trial 68 out of 78</p>","null","pattern_show_trial_num","","","","","","","","","","","","","","","","","","","","","","","","",""
"","","","","","image-keyboard-response","157","400385","0.0-2.0-7.0-1.28","5aa44687dbdb470001ef463f","E1","batch5","","2935.5999999940395","stim/no_42_1_w.png","j","pattern_response","true","j","pattern_22","2935.5999999940395","true","66","","","","","","","","","","","","","","","","","","",""
"","","","","","html-keyboard-response","158","401695","0.0-2.0-7.0-0.29","5aa44687dbdb470001ef463f","E1","batch5","","null","<p class=block-text>Trial 69 out of 78</p>","null","pattern_show_trial_num","","","","","","","","","","","","","","","","","","","","","","","","",""
"","","","","","image-keyboard-response","159","405378","0.0-2.0-7.0-1.29","5aa44687dbdb470001ef463f","E1","batch5","","3680","stim/no_48_1_w.png","j","pattern_response","true","j","pattern_28","3680","true","67","","","","","","","","","","","","","","","","","","",""
"","","","","","html-keyboard-response","160","406687","0.0-2.0-7.0-0.30","5aa44687dbdb470001ef463f","E1","batch5","","null","<p class=block-text>Trial 70 out of 78</p>","null","pattern_show_trial_num","","","","","","","","","","","","","","","","","","","","","","","","",""
"","","","","","image-keyboard-response","161","414738","0.0-2.0-7.0-1.30","5aa44687dbdb470001ef463f","E1","batch5","","8048.70000000298","stim/no_65_1_b.png","j","pattern_response","true","j","pattern_38","8048.70000000298","true","68","","","","","","","","","","","","","","","","","","",""
"","","","","","html-keyboard-response","162","416047","0.0-2.0-7.0-0.31","5aa44687dbdb470001ef463f","E1","batch5","","null","<p class=block-text>Trial 71 out of 78</p>","null","pattern_show_trial_num","","","","","","","","","","","","","","","","","","","","","","","","",""
"","","","","","image-keyboard-response","163","418983","0.0-2.0-7.0-1.31","5aa44687dbdb470001ef463f","E1","batch5","","2933.0999999940395","stim/no_23_1.png","j","pattern_response","true","j","pattern_08","2933.0999999940395","true","69","","","","","","","","","","","","","","","","","","",""
"","","","","","html-keyboard-response","164","420295","0.0-2.0-7.0-0.32","5aa44687dbdb470001ef463f","E1","batch5","","null","<p class=block-text>Trial 72 out of 78</p>","null","pattern_show_trial_num","","","","","","","","","","","","","","","","","","","","","","","","",""
"","","","","","image-keyboard-response","165","428200","0.0-2.0-7.0-1.32","5aa44687dbdb470001ef463f","E1","batch5","","7902.9000000059605","stim/no_46_1_b.png","j","pattern_response","true","j","pattern_26","7902.9000000059605","true","70","","","","","","","","","","","","","","","","","","",""
"","","","","","html-keyboard-response","166","429511","0.0-2.0-7.0-0.33","5aa44687dbdb470001ef463f","E1","batch5","","null","<p class=block-text>Trial 73 out of 78</p>","null","pattern_show_trial_num","","","","","","","","","","","","","","","","","","","","","","","","",""
"","","","","","image-keyboard-response","167","430971","0.0-2.0-7.0-1.33","5aa44687dbdb470001ef463f","E1","batch5","","1456.7999999970198","stim/yes_35_dia_b1.png","f","pattern_response","true","f","pattern_57","1456.7999999970198","true","71","","","","","","","","","","","","","","","","","","",""
"","","","","","html-keyboard-response","168","432287","0.0-2.0-7.0-0.34","5aa44687dbdb470001ef463f","E1","batch5","","null","<p class=block-text>Trial 74 out of 78</p>","null","pattern_show_trial_num","","","","","","","","","","","","","","","","","","","","","","","","",""
"","","","","","image-keyboard-response","169","434879","0.0-2.0-7.0-1.34","5aa44687dbdb470001ef463f","E1","batch5","","2589.7000000029802","stim/yes_37_dia_w1.png","f","pattern_response","true","f","pattern_59","2589.7000000029802","true","72","","","","","","","","","","","","","","","","","","",""
"","","","","","html-keyboard-response","170","436191","0.0-2.0-7.0-0.35","5aa44687dbdb470001ef463f","E1","batch5","","null","<p class=block-text>Trial 75 out of 78</p>","null","pattern_show_trial_num","","","","","","","","","","","","","","","","","","","","","","","","",""
"","","","","","image-keyboard-response","171","439681","0.0-2.0-7.0-1.35","5aa44687dbdb470001ef463f","E1","batch5","","3487.2000000029802","stim/yes_67_hor_b1.png","f","pattern_response","true","f","pattern_79","3487.2000000029802","true","73","","","","","","","","","","","","","","","","","","",""
"","","","","","html-keyboard-response","172","440991","0.0-2.0-7.0-0.36","5aa44687dbdb470001ef463f","E1","batch5","","null","<p class=block-text>Trial 76 out of 78</p>","null","pattern_show_trial_num","","","","","","","","","","","","","","","","","","","","","","","","",""
"","","","","","image-keyboard-response","173","444897","0.0-2.0-7.0-1.36","5aa44687dbdb470001ef463f","E1","batch5","","3902.8999999910593","stim/yes_29_ver_w1.png","f","pattern_response","true","f","pattern_53","3902.8999999910593","true","74","","","","","","","","","","","","","","","","","","",""
"","","","","","html-keyboard-response","174","446207","0.0-2.0-7.0-0.37","5aa44687dbdb470001ef463f","E1","batch5","","null","<p class=block-text>Trial 77 out of 78</p>","null","pattern_show_trial_num","","","","","","","","","","","","","","","","","","","","","","","","",""
"","","","","","image-keyboard-response","175","448972","0.0-2.0-7.0-1.37","5aa44687dbdb470001ef463f","E1","batch5","","2762.3999999910593","stim/yes_40_dia_b1_b.png","f","pattern_response","true","f","pattern_63","2762.3999999910593","true","75","","","","","","","","","","","","","","","","","","",""
"","","","","","html-keyboard-response","176","450287","0.0-2.0-7.0-0.38","5aa44687dbdb470001ef463f","E1","batch5","","null","<p class=block-text>Trial 78 out of 78</p>","null","pattern_show_trial_num","","","","","","","","","","","","","","","","","","","","","","","","",""
"","","","","","image-keyboard-response","177","455926","0.0-2.0-7.0-1.38","5aa44687dbdb470001ef463f","E1","batch5","","5636","stim/no_50_1.png","j","pattern_response","true","j","pattern_30","5636","true","76","","","","","","","","","","","","","","","","","","",""
"","","","","","html-button-response","178","465018","0.0-2.0-8.0","5aa44687dbdb470001ef463f","E1","batch5","","8585","<p class = block-text>This concludes the 4-in-a-row detection game.Thank you for your responses!<br>
            You responded correctly on 97% of the trials.<br>
            When you are ready, press ""Continue"" button to continue </p>","0","","","","","","","","","","","","","","","","","","","","","","","","","",""
"true","","","","","fullscreen","179","473935","0.0-3.0-0.0","5aa44687dbdb470001ef463f","E1","batch5","","","","","spm_fullscreen","","","","","","","","","","","","","","","","","","","","","","","","",""
"","","","","","html-button-response","180","505149","0.0-3.0-1.0","5aa44687dbdb470001ef463f","E1","batch5","","31212","<p class = block-text><b>Instructions</b> <br>This is a widely used intelligence test in research. <br>In this test, a figure with a missing piece will be presented.<br>Below the figure are alternative pieces to complete the figure, only one of which is correct.<br> Different figures might involve different principles for obtaining the missing piece<br>Your job is to select the most logical piece to complete the figure.</p>","0","","","","","","","","","","","","","","","","","","","","","","","","","",""
"","","","","","html-keyboard-response","181","505951","0.0-3.0-2.0-0.0","5aa44687dbdb470001ef463f","E1","batch5","","null","<p class=block-text>Trial 1 out of 60</p>","null","spm_show_trial_num","","","","","","","","","","","","","","","","","","","","","","","","",""
"","","","","","image-button-response","182","513244","0.0-3.0-2.0-1.0","5aa44687dbdb470001ef463f","E1","batch5","","7289","img/question_1_1.jpeg","3","spm_respsonse","1","4","mat_01","","","","","","1","7289","","","","","","","","","","","","","","",""
"","","","","","html-keyboard-response","183","514311","0.0-3.0-2.0-0.1","5aa44687dbdb470001ef463f","E1","batch5","","null","<p class=block-text>Trial 2 out of 60</p>","null","spm_show_trial_num","","","","","","","","","","","","","","","","","","","","","","","","",""
"","","","","","image-button-response","184","517456","0.0-3.0-2.0-1.1","5aa44687dbdb470001ef463f","E1","batch5","","3141.7999999970198","img/question_1_2.jpeg","4","spm_respsonse","1","5","mat_02","","","","","","1","3141.7999999970198","","","","","","","","","","","","","","",""
"","","","","","html-keyboard-response","185","518519","0.0-3.0-2.0-0.2","5aa44687dbdb470001ef463f","E1","batch5","","null","<p class=block-text>Trial 3 out of 60</p>","null","spm_show_trial_num","","","","","","","","","","","","","","","","","","","","","","","","",""
"","","","","","image-button-response","186","522379","0.0-3.0-2.0-1.2","5aa44687dbdb470001ef463f","E1","batch5","","3857","img/question_1_3.jpeg","0","spm_respsonse","1","1","mat_03","","","","","","1","3857","","","","","","","","","","","","","","",""
"","","","","","html-keyboard-response","187","523439","0.0-3.0-2.0-0.3","5aa44687dbdb470001ef463f","E1","batch5","","null","<p class=block-text>Trial 4 out of 60</p>","null","spm_show_trial_num","","","","","","","","","","","","","","","","","","","","","","","","",""
"","","","","","image-button-response","188","528773","0.0-3.0-2.0-1.3","5aa44687dbdb470001ef463f","E1","batch5","","5331.0999999940395","img/question_1_4.jpeg","1","spm_respsonse","1","2","mat_04","","","","","","1","5331.0999999940395","","","","","","","","","","","","","","",""
"","","","","","html-keyboard-response","189","529839","0.0-3.0-2.0-0.4","5aa44687dbdb470001ef463f","E1","batch5","","null","<p class=block-text>Trial 5 out of 60</p>","null","spm_show_trial_num","","","","","","","","","","","","","","","","","","","","","","","","",""
"","","","","","image-button-response","190","537749","0.0-3.0-2.0-1.4","5aa44687dbdb470001ef463f","E1","batch5","","7906.79999999702","img/question_1_5.jpeg","5","spm_respsonse","1","6","mat_05","","","","","","1","7906.79999999702","","","","","","","","","","","","","","",""
"","","","","","html-keyboard-response","191","538815","0.0-3.0-2.0-0.5","5aa44687dbdb470001ef463f","E1","batch5","","null","<p class=block-text>Trial 6 out of 60</p>","null","spm_show_trial_num","","","","","","","","","","","","","","","","","","","","","","","","",""
"","","","","","image-button-response","192","542653","0.0-3.0-2.0-1.5","5aa44687dbdb470001ef463f","E1","batch5","","3834.2999999970198","img/question_1_6.jpeg","2","spm_respsonse","1","3","mat_06","","","","","","1","3834.2999999970198","","","","","","","","","","","","","","",""
"","","","","","html-keyboard-response","193","543719","0.0-3.0-2.0-0.6","5aa44687dbdb470001ef463f","E1","batch5","","null","<p class=block-text>Trial 7 out of 60</p>","null","spm_show_trial_num","","","","","","","","","","","","","","","","","","","","","","","","",""
"","","","","","image-button-response","194","549547","0.0-3.0-2.0-1.6","5aa44687dbdb470001ef463f","E1","batch5","","5824.70000000298","img/question_1_7.jpeg","5","spm_respsonse","1","6","mat_07","","","","","","1","5824.70000000298","","","","","","","","","","","","","","",""
"","","","","","html-keyboard-response","195","550606","0.0-3.0-2.0-0.7","5aa44687dbdb470001ef463f","E1","batch5","","null","<p class=block-text>Trial 8 out of 60</p>","null","spm_show_trial_num","","","","","","","","","","","","","","","","","","","","","","","","",""
"","","","","","image-button-response","196","557673","0.0-3.0-2.0-1.7","5aa44687dbdb470001ef463f","E1","batch5","","7063.20000000298","img/question_1_8.jpeg","1","spm_respsonse","1","2","mat_08","","","","","","1","7063.20000000298","","","","","","","","","","","","","","",""
"","","","","","html-keyboard-response","197","558735","0.0-3.0-2.0-0.8","5aa44687dbdb470001ef463f","E1","batch5","","null","<p class=block-text>Trial 9 out of 60</p>","null","spm_show_trial_num","","","","","","","","","","","","","","","","","","","","","","","","",""
"","","","","","image-button-response","198","565219","0.0-3.0-2.0-1.8","5aa44687dbdb470001ef463f","E1","batch5","","6481.399999991059","img/question_1_9.jpeg","0","spm_respsonse","1","1","mat_09","","","","","","1","6481.399999991059","","","","","","","","","","","","","","",""
"","","","","","html-keyboard-response","199","566279","0.0-3.0-2.0-0.9","5aa44687dbdb470001ef463f","E1","batch5","","null","<p class=block-text>Trial 10 out of 60</p>","null","spm_show_trial_num","","","","","","","","","","","","","","","","","","","","","","","","",""
"","","","","","image-button-response","200","571313","0.0-3.0-2.0-1.9","5aa44687dbdb470001ef463f","E1","batch5","","5031","img/question_1_10.jpeg","2","spm_respsonse","1","3","mat_10","","","","","","1","5031","","","","","","","","","","","","","","",""
"","","","","","html-keyboard-response","201","572375","0.0-3.0-2.0-0.10","5aa44687dbdb470001ef463f","E1","batch5","","null","<p class=block-text>Trial 11 out of 60</p>","null","spm_show_trial_num","","","","","","","","","","","","","","","","","","","","","","","","",""
"","","","","","image-button-response","202","581461","0.0-3.0-2.0-1.10","5aa44687dbdb470001ef463f","E1","batch5","","9082.29999999702","img/question_1_11.jpeg","4","spm_respsonse","0","4","mat_11","","","","","","0","9082.29999999702","","","","","","","","","","","","","","",""
"","","","","","html-keyboard-response","203","582527","0.0-3.0-2.0-0.11","5aa44687dbdb470001ef463f","E1","batch5","","null","<p class=block-text>Trial 12 out of 60</p>","null","spm_show_trial_num","","","","","","","","","","","","","","","","","","","","","","","","",""
"","","","","","image-button-response","204","599626","0.0-3.0-2.0-1.11","5aa44687dbdb470001ef463f","E1","batch5","","17096.39999999106","img/question_1_12.jpeg","2","spm_respsonse","0","5","mat_12","","","","","","0","17096.39999999106","","","","","","","","","","","","","","",""
"","","","","","html-keyboard-response","205","600687","0.0-3.0-2.0-0.12","5aa44687dbdb470001ef463f","E1","batch5","","null","<p class=block-text>Trial 13 out of 60</p>","null","spm_show_trial_num","","","","","","","","","","","","","","","","","","","","","","","","",""
"","","","","","image-button-response","206","603921","0.0-3.0-2.0-1.12","5aa44687dbdb470001ef463f","E1","batch5","","3230.7000000029802","img/question_2_1.jpeg","1","spm_respsonse","1","2","mat_13","","","","","","1","3230.7000000029802","","","","","","","","","","","","","","",""
"","","","","","html-keyboard-response","207","604983","0.0-3.0-2.0-0.13","5aa44687dbdb470001ef463f","E1","batch5","","null","<p class=block-text>Trial 14 out of 60</p>","null","spm_show_trial_num","","","","","","","","","","","","","","","","","","","","","","","","",""
"","","","","","image-button-response","208","609856","0.0-3.0-2.0-1.13","5aa44687dbdb470001ef463f","E1","batch5","","4870.399999991059","img/question_2_2.jpeg","5","spm_respsonse","1","6","mat_14","","","","","","1","4870.399999991059","","","","","","","","","","","","","","",""
"","","","","","html-keyboard-response","209","610913","0.0-3.0-2.0-0.14","5aa44687dbdb470001ef463f","E1","batch5","","null","<p class=block-text>Trial 15 out of 60</p>","null","spm_show_trial_num","","","","","","","","","","","","","","","","","","","","","","","","",""
"","","","","","image-button-response","210","614040","0.0-3.0-2.0-1.14","5aa44687dbdb470001ef463f","E1","batch5","","3124.5","img/question_2_3.jpeg","0","spm_respsonse","1","1","mat_15","","","","","","1","3124.5","","","","","","","","","","","","","","",""
"","","","","","html-keyboard-response","211","615103","0.0-3.0-2.0-0.15","5aa44687dbdb470001ef463f","E1","batch5","","null","<p class=block-text>Trial 16 out of 60</p>","null","spm_show_trial_num","","","","","","","","","","","","","","","","","","","","","","","","",""
"","","","","","image-button-response","212","619215","0.0-3.0-2.0-1.15","5aa44687dbdb470001ef463f","E1","batch5","","4109.20000000298","img/question_2_4.jpeg","1","spm_respsonse","1","2","mat_16","","","","","","1","4109.20000000298","","","","","","","","","","","","","","",""
"","","","","","html-keyboard-response","213","620279","0.0-3.0-2.0-0.16","5aa44687dbdb470001ef463f","E1","batch5","","null","<p class=block-text>Trial 17 out of 60</p>","null","spm_show_trial_num","","","","","","","","","","","","","","","","","","","","","","","","",""
"","","","","","image-button-response","214","626162","0.0-3.0-2.0-1.16","5aa44687dbdb470001ef463f","E1","batch5","","5880.399999991059","img/question_2_5.jpeg","0","spm_respsonse","1","1","mat_17","","","","","","1","5880.399999991059","","","","","","","","","","","","","","",""
"","","","","","html-keyboard-response","215","627223","0.0-3.0-2.0-0.17","5aa44687dbdb470001ef463f","E1","batch5","","null","<p class=block-text>Trial 18 out of 60</p>","null","spm_show_trial_num","","","","","","","","","","","","","","","","","","","","","","","","",""
"","","","","","image-button-response","216","637943","0.0-3.0-2.0-1.17","5aa44687dbdb470001ef463f","E1","batch5","","10717.39999999106","img/question_2_6.jpeg","2","spm_respsonse","1","3","mat_18","","","","","","1","10717.39999999106","","","","","","","","","","","","","","",""
"","","","","","html-keyboard-response","217","639007","0.0-3.0-2.0-0.18","5aa44687dbdb470001ef463f","E1","batch5","","null","<p class=block-text>Trial 19 out of 60</p>","null","spm_show_trial_num","","","","","","","","","","","","","","","","","","","","","","","","",""
"","","","","","image-button-response","218","646853","0.0-3.0-2.0-1.18","5aa44687dbdb470001ef463f","E1","batch5","","7842.5","img/question_2_7.jpeg","4","spm_respsonse","1","5","mat_19","","","","","","1","7842.5","","","","","","","","","","","","","","",""
"","","","","","html-keyboard-response","219","647919","0.0-3.0-2.0-0.19","5aa44687dbdb470001ef463f","E1","batch5","","null","<p class=block-text>Trial 20 out of 60</p>","null","spm_show_trial_num","","","","","","","","","","","","","","","","","","","","","","","","",""
"","","","","","image-button-response","220","653559","0.0-3.0-2.0-1.19","5aa44687dbdb470001ef463f","E1","batch5","","5637.5","img/question_2_8.jpeg","5","spm_respsonse","1","6","mat_20","","","","","","1","5637.5","","","","","","","","","","","","","","",""
"","","","","","html-keyboard-response","221","654623","0.0-3.0-2.0-0.20","5aa44687dbdb470001ef463f","E1","batch5","","null","<p class=block-text>Trial 21 out of 60</p>","null","spm_show_trial_num","","","","","","","","","","","","","","","","","","","","","","","","",""
"","","","","","image-button-response","222","659556","0.0-3.0-2.0-1.20","5aa44687dbdb470001ef463f","E1","batch5","","4930.4000000059605","img/question_2_9.jpeg","3","spm_respsonse","1","4","mat_21","","","","","","1","4930.4000000059605","","","","","","","","","","","","","","",""
"","","","","","html-keyboard-response","223","660623","0.0-3.0-2.0-0.21","5aa44687dbdb470001ef463f","E1","batch5","","null","<p class=block-text>Trial 22 out of 60</p>","null","spm_show_trial_num","","","","","","","","","","","","","","","","","","","","","","","","",""
"","","","","","image-button-response","224","666915","0.0-3.0-2.0-1.21","5aa44687dbdb470001ef463f","E1","batch5","","6288.5999999940395","img/question_2_10.jpeg","2","spm_respsonse","1","3","mat_22","","","","","","1","6288.5999999940395","","","","","","","","","","","","","","",""
"","","","","","html-keyboard-response","225","667975","0.0-3.0-2.0-0.22","5aa44687dbdb470001ef463f","E1","batch5","","null","<p class=block-text>Trial 23 out of 60</p>","null","spm_show_trial_num","","","","","","","","","","","","","","","","","","","","","","","","",""
"","","","","","image-button-response","226","672481","0.0-3.0-2.0-1.22","5aa44687dbdb470001ef463f","E1","batch5","","4503.399999991059","img/question_2_11.jpeg","3","spm_respsonse","1","4","mat_23","","","","","","1","4503.399999991059","","","","","","","","","","","","","","",""
"","","","","","html-keyboard-response","227","673543","0.0-3.0-2.0-0.23","5aa44687dbdb470001ef463f","E1","batch5","","null","<p class=block-text>Trial 24 out of 60</p>","null","spm_show_trial_num","","","","","","","","","","","","","","","","","","","","","","","","",""
"","","","","","image-button-response","228","691956","0.0-3.0-2.0-1.23","5aa44687dbdb470001ef463f","E1","batch5","","18409.70000000298","img/question_2_12.jpeg","2","spm_respsonse","0","5","mat_24","","","","","","0","18409.70000000298","","","","","","","","","","","","","","",""
"","","","","","html-button-response","229","694660","0.0-3.0-3.0","5aa44687dbdb470001ef463f","E1","batch5","","2450.7999999970198","<p class = block-text>Attention check: Please choose 1<br></p>","0","attention_check","true","","","","","","","","","","","","","","","","","","","","","","","",""
"","","","","","html-keyboard-response","230","695462","0.0-3.0-4.0-0.0","5aa44687dbdb470001ef463f","E1","batch5","","null","<p class=block-text>Trial 25 out of 60</p>","null","spm_show_trial_num","","","","","","","","","","","","","","","","","","","","","","","","",""
"","","","","","image-button-response","231","701829","0.0-3.0-4.0-1.0","5aa44687dbdb470001ef463f","E1","batch5","","6363.399999991059","img/question_3_1.jpeg","7","spm_respsonse","1","8","mat_25","","","","","","1","6363.399999991059","","","","","","","","","","","","","","",""
"","","","","","html-keyboard-response","232","702895","0.0-3.0-4.0-0.1","5aa44687dbdb470001ef463f","E1","batch5","","null","<p class=block-text>Trial 26 out of 60</p>","null","spm_show_trial_num","","","","","","","","","","","","","","","","","","","","","","","","",""
"","","","","","image-button-response","233","709079","0.0-3.0-4.0-1.1","5aa44687dbdb470001ef463f","E1","batch5","","6179.79999999702","img/question_3_2.jpeg","1","spm_respsonse","1","2","mat_26","","","","","","1","6179.79999999702","","","","","","","","","","","","","","",""
"","","","","","html-keyboard-response","234","710143","0.0-3.0-4.0-0.2","5aa44687dbdb470001ef463f","E1","batch5","","null","<p class=block-text>Trial 27 out of 60</p>","null","spm_show_trial_num","","","","","","","","","","","","","","","","","","","","","","","","",""
"","","","","","image-button-response","235","721135","0.0-3.0-4.0-1.2","5aa44687dbdb470001ef463f","E1","batch5","","10988.60000000894","img/question_3_3.jpeg","2","spm_respsonse","1","3","mat_27","","","","","","1","10988.60000000894","","","","","","","","","","","","","","",""
"","","","","","html-keyboard-response","236","722199","0.0-3.0-4.0-0.3","5aa44687dbdb470001ef463f","E1","batch5","","null","<p class=block-text>Trial 28 out of 60</p>","null","spm_show_trial_num","","","","","","","","","","","","","","","","","","","","","","","","",""
"","","","","","image-button-response","237","731389","0.0-3.0-4.0-1.3","5aa44687dbdb470001ef463f","E1","batch5","","9185.59999999404","img/question_3_4.jpeg","2","spm_respsonse","0","8","mat_28","","","","","","0","9185.59999999404","","","","","","","","","","","","","","",""
"","","","","","html-keyboard-response","238","732455","0.0-3.0-4.0-0.4","5aa44687dbdb470001ef463f","E1","batch5","","null","<p class=block-text>Trial 29 out of 60</p>","null","spm_show_trial_num","","","","","","","","","","","","","","","","","","","","","","","","",""
"","","","","","image-button-response","239","741362","0.0-3.0-4.0-1.4","5aa44687dbdb470001ef463f","E1","batch5","","8904.10000000894","img/question_3_5.jpeg","6","spm_respsonse","1","7","mat_29","","","","","","1","8904.10000000894","","","","","","","","","","","","","","",""
"","","","","","html-keyboard-response","240","742423","0.0-3.0-4.0-0.5","5aa44687dbdb470001ef463f","E1","batch5","","null","<p class=block-text>Trial 30 out of 60</p>","null","spm_show_trial_num","","","","","","","","","","","","","","","","","","","","","","","","",""
"","","","","","image-button-response","241","750715","0.0-3.0-4.0-1.5","5aa44687dbdb470001ef463f","E1","batch5","","8288.20000000298","img/question_3_6.jpeg","7","spm_respsonse","0","4","mat_30","","","","","","0","8288.20000000298","","","","","","","","","","","","","","",""
"","","","","","html-keyboard-response","242","751775","0.0-3.0-4.0-0.6","5aa44687dbdb470001ef463f","E1","batch5","","null","<p class=block-text>Trial 31 out of 60</p>","null","spm_show_trial_num","","","","","","","","","","","","","","","","","","","","","","","","",""
"","","","","","image-button-response","243","760546","0.0-3.0-4.0-1.6","5aa44687dbdb470001ef463f","E1","batch5","","8767.40000000596","img/question_3_7.jpeg","4","spm_respsonse","1","5","mat_31","","","","","","1","8767.40000000596","","","","","","","","","","","","","","",""
"","","","","","html-keyboard-response","244","761607","0.0-3.0-4.0-0.7","5aa44687dbdb470001ef463f","E1","batch5","","null","<p class=block-text>Trial 32 out of 60</p>","null","spm_show_trial_num","","","","","","","","","","","","","","","","","","","","","","","","",""
"","","","","","image-button-response","245","770476","0.0-3.0-4.0-1.7","5aa44687dbdb470001ef463f","E1","batch5","","8865.10000000894","img/question_3_8.jpeg","3","spm_respsonse","0","1","mat_32","","","","","","0","8865.10000000894","","","","","","","","","","","","","","",""
"","","","","","html-keyboard-response","246","771543","0.0-3.0-4.0-0.8","5aa44687dbdb470001ef463f","E1","batch5","","null","<p class=block-text>Trial 33 out of 60</p>","null","spm_show_trial_num","","","","","","","","","","","","","","","","","","","","","","","","",""
"","","","","","image-button-response","247","782058","0.0-3.0-4.0-1.8","5aa44687dbdb470001ef463f","E1","batch5","","10511.59999999404","img/question_3_9.jpeg","0","spm_respsonse","0","7","mat_33","","","","","","0","10511.59999999404","","","","","","","","","","","","","","",""
"","","","","","html-keyboard-response","248","783119","0.0-3.0-4.0-0.9","5aa44687dbdb470001ef463f","E1","batch5","","null","<p class=block-text>Trial 34 out of 60</p>","null","spm_show_trial_num","","","","","","","","","","","","","","","","","","","","","","","","",""
"","","","","","image-button-response","249","793020","0.0-3.0-4.0-1.9","5aa44687dbdb470001ef463f","E1","batch5","","9897.90000000596","img/question_3_10.jpeg","7","spm_respsonse","0","6","mat_34","","","","","","0","9897.90000000596","","","","","","","","","","","","","","",""
"","","","","","html-keyboard-response","250","794087","0.0-3.0-4.0-0.10","5aa44687dbdb470001ef463f","E1","batch5","","null","<p class=block-text>Trial 35 out of 60</p>","null","spm_show_trial_num","","","","","","","","","","","","","","","","","","","","","","","","",""
"","","","","","image-button-response","251","807956","0.0-3.0-4.0-1.10","5aa44687dbdb470001ef463f","E1","batch5","","13865.5","img/question_3_11.jpeg","4","spm_respsonse","0","1","mat_35","","","","","","0","13865.5","","","","","","","","","","","","","","",""
"","","","","","html-keyboard-response","252","809015","0.0-3.0-4.0-0.11","5aa44687dbdb470001ef463f","E1","batch5","","null","<p class=block-text>Trial 36 out of 60</p>","null","spm_show_trial_num","","","","","","","","","","","","","","","","","","","","","","","","",""
"","","","","","image-button-response","253","818607","0.0-3.0-4.0-1.11","5aa44687dbdb470001ef463f","E1","batch5","","9588.79999999702","img/question_3_12.jpeg","3","spm_respsonse","0","2","mat_36","","","","","","0","9588.79999999702","","","","","","","","","","","","","","",""
"","","","","","html-keyboard-response","254","819671","0.0-3.0-4.0-0.12","5aa44687dbdb470001ef463f","E1","batch5","","null","<p class=block-text>Trial 37 out of 60</p>","null","spm_show_trial_num","","","","","","","","","","","","","","","","","","","","","","","","",""
"","","","","","image-button-response","255","823283","0.0-3.0-4.0-1.12","5aa44687dbdb470001ef463f","E1","batch5","","3608.1000000089407","img/question_4_1.jpeg","2","spm_respsonse","1","3","mat_37","","","","","","1","3608.1000000089407","","","","","","","","","","","","","","",""
"","","","","","html-keyboard-response","256","824343","0.0-3.0-4.0-0.13","5aa44687dbdb470001ef463f","E1","batch5","","null","<p class=block-text>Trial 38 out of 60</p>","null","spm_show_trial_num","","","","","","","","","","","","","","","","","","","","","","","","",""
"","","","","","image-button-response","257","830091","0.0-3.0-4.0-1.13","5aa44687dbdb470001ef463f","E1","batch5","","5744.5","img/question_4_2.jpeg","3","spm_respsonse","1","4","mat_38","","","","","","1","5744.5","","","","","","","","","","","","","","",""
"","","","","","html-keyboard-response","258","831151","0.0-3.0-4.0-0.14","5aa44687dbdb470001ef463f","E1","batch5","","null","<p class=block-text>Trial 39 out of 60</p>","null","spm_show_trial_num","","","","","","","","","","","","","","","","","","","","","","","","",""
"","","","","","image-button-response","259","837939","0.0-3.0-4.0-1.14","5aa44687dbdb470001ef463f","E1","batch5","","6784.5999999940395","img/question_4_3.jpeg","2","spm_respsonse","1","3","mat_39","","","","","","1","6784.5999999940395","","","","","","","","","","","","","","",""
"","","","","","html-keyboard-response","260","838999","0.0-3.0-4.0-0.15","5aa44687dbdb470001ef463f","E1","batch5","","null","<p class=block-text>Trial 40 out of 60</p>","null","spm_show_trial_num","","","","","","","","","","","","","","","","","","","","","","","","",""
"","","","","","image-button-response","261","849653","0.0-3.0-4.0-1.15","5aa44687dbdb470001ef463f","E1","batch5","","10650.800000011921","img/question_4_4.jpeg","6","spm_respsonse","1","7","mat_40","","","","","","1","10650.800000011921","","","","","","","","","","","","","","",""
"","","","","","html-keyboard-response","262","850713","0.0-3.0-4.0-0.16","5aa44687dbdb470001ef463f","E1","batch5","","null","<p class=block-text>Trial 41 out of 60</p>","null","spm_show_trial_num","","","","","","","","","","","","","","","","","","","","","","","","",""
"","","","","","image-button-response","263","858505","0.0-3.0-4.0-1.16","5aa44687dbdb470001ef463f","E1","batch5","","7788","img/question_4_5.jpeg","7","spm_respsonse","1","8","mat_41","","","","","","1","7788","","","","","","","","","","","","","","",""
"","","","","","html-keyboard-response","264","859566","0.0-3.0-4.0-0.17","5aa44687dbdb470001ef463f","E1","batch5","","null","<p class=block-text>Trial 42 out of 60</p>","null","spm_show_trial_num","","","","","","","","","","","","","","","","","","","","","","","","",""
"","","","","","image-button-response","265","874925","0.0-3.0-4.0-1.17","5aa44687dbdb470001ef463f","E1","batch5","","15354.89999999106","img/question_4_6.jpeg","5","spm_respsonse","1","6","mat_42","","","","","","1","15354.89999999106","","","","","","","","","","","","","","",""
"","","","","","html-keyboard-response","266","875991","0.0-3.0-4.0-0.18","5aa44687dbdb470001ef463f","E1","batch5","","null","<p class=block-text>Trial 43 out of 60</p>","null","spm_show_trial_num","","","","","","","","","","","","","","","","","","","","","","","","",""
"","","","","","image-button-response","267","890613","0.0-3.0-4.0-1.18","5aa44687dbdb470001ef463f","E1","batch5","","14619.29999999702","img/question_4_7.jpeg","4","spm_respsonse","1","5","mat_43","","","","","","1","14619.29999999702","","","","","","","","","","","","","","",""
"","","","","","html-keyboard-response","268","891679","0.0-3.0-4.0-0.19","5aa44687dbdb470001ef463f","E1","batch5","","null","<p class=block-text>Trial 44 out of 60</p>","null","spm_show_trial_num","","","","","","","","","","","","","","","","","","","","","","","","",""
"","","","","","image-button-response","269","898341","0.0-3.0-4.0-1.19","5aa44687dbdb470001ef463f","E1","batch5","","6658.4000000059605","img/question_4_8.jpeg","3","spm_respsonse","1","4","mat_44","","","","","","1","6658.4000000059605","","","","","","","","","","","","","","",""
"","","","","","html-keyboard-response","270","899407","0.0-3.0-4.0-0.20","5aa44687dbdb470001ef463f","E1","batch5","","null","<p class=block-text>Trial 45 out of 60</p>","null","spm_show_trial_num","","","","","","","","","","","","","","","","","","","","","","","","",""
"","","","","","image-button-response","271","915075","0.0-3.0-4.0-1.20","5aa44687dbdb470001ef463f","E1","batch5","","15665.29999999702","img/question_4_9.jpeg","0","spm_respsonse","1","1","mat_45","","","","","","1","15665.29999999702","","","","","","","","","","","","","","",""
"","","","","","html-keyboard-response","272","916135","0.0-3.0-4.0-0.21","5aa44687dbdb470001ef463f","E1","batch5","","null","<p class=block-text>Trial 46 out of 60</p>","null","spm_show_trial_num","","","","","","","","","","","","","","","","","","","","","","","","",""
"","","","","","image-button-response","273","932865","0.0-3.0-4.0-1.21","5aa44687dbdb470001ef463f","E1","batch5","","16726.79999999702","img/question_4_10.jpeg","1","spm_respsonse","1","2","mat_46","","","","","","1","16726.79999999702","","","","","","","","","","","","","","",""
"","","","","","html-keyboard-response","274","933927","0.0-3.0-4.0-0.22","5aa44687dbdb470001ef463f","E1","batch5","","null","<p class=block-text>Trial 47 out of 60</p>","null","spm_show_trial_num","","","","","","","","","","","","","","","","","","","","","","","","",""
"","","","","","image-button-response","275","946146","0.0-3.0-4.0-1.22","5aa44687dbdb470001ef463f","E1","batch5","","12215.09999999404","img/question_4_11.jpeg","7","spm_respsonse","0","5","mat_47","","","","","","0","12215.09999999404","","","","","","","","","","","","","","",""
"","","","","","html-keyboard-response","276","947203","0.0-3.0-4.0-0.23","5aa44687dbdb470001ef463f","E1","batch5","","null","<p class=block-text>Trial 48 out of 60</p>","null","spm_show_trial_num","","","","","","","","","","","","","","","","","","","","","","","","",""
"","","","","","image-button-response","277","954884","0.0-3.0-4.0-1.23","5aa44687dbdb470001ef463f","E1","batch5","","7677.5","img/question_4_12.jpeg","7","spm_respsonse","0","6","mat_48","","","","","","0","7677.5","","","","","","","","","","","","","","",""
"","","","","","html-keyboard-response","278","955951","0.0-3.0-4.0-0.24","5aa44687dbdb470001ef463f","E1","batch5","","null","<p class=block-text>Trial 49 out of 60</p>","null","spm_show_trial_num","","","","","","","","","","","","","","","","","","","","","","","","",""
"","","","","","image-button-response","279","975532","0.0-3.0-4.0-1.24","5aa44687dbdb470001ef463f","E1","batch5","","19577.5","img/question_5_1.jpeg","5","spm_respsonse","0","7","mat_49","","","","","","0","19577.5","","","","","","","","","","","","","","",""
"","","","","","html-keyboard-response","280","976590","0.0-3.0-4.0-0.25","5aa44687dbdb470001ef463f","E1","batch5","","null","<p class=block-text>Trial 50 out of 60</p>","null","spm_show_trial_num","","","","","","","","","","","","","","","","","","","","","","","","",""
"","","","","","image-button-response","281","996425","0.0-3.0-4.0-1.25","5aa44687dbdb470001ef463f","E1","batch5","","19830.79999999702","img/question_5_2.jpeg","0","spm_respsonse","0","6","mat_50","","","","","","0","19830.79999999702","","","","","","","","","","","","","","",""
"","","","","","html-keyboard-response","282","997483","0.0-3.0-4.0-0.26","5aa44687dbdb470001ef463f","E1","batch5","","null","<p class=block-text>Trial 51 out of 60</p>","null","spm_show_trial_num","","","","","","","","","","","","","","","","","","","","","","","","",""
"","","","","","image-button-response","283","1008885","0.0-3.0-4.0-1.26","5aa44687dbdb470001ef463f","E1","batch5","","11399.20000000298","img/question_5_3.jpeg","0","spm_respsonse","0","8","mat_51","","","","","","0","11399.20000000298","","","","","","","","","","","","","","",""
"","","","","","html-keyboard-response","284","1009951","0.0-3.0-4.0-0.27","5aa44687dbdb470001ef463f","E1","batch5","","null","<p class=block-text>Trial 52 out of 60</p>","null","spm_show_trial_num","","","","","","","","","","","","","","","","","","","","","","","","",""
"","","","","","image-button-response","285","1020938","0.0-3.0-4.0-1.27","5aa44687dbdb470001ef463f","E1","batch5","","10983.09999999404","img/question_5_4.jpeg","2","spm_respsonse","0","2","mat_52","","","","","","0","10983.09999999404","","","","","","","","","","","","","","",""
"","","","","","html-keyboard-response","286","1021999","0.0-3.0-4.0-0.28","5aa44687dbdb470001ef463f","E1","batch5","","null","<p class=block-text>Trial 53 out of 60</p>","null","spm_show_trial_num","","","","","","","","","","","","","","","","","","","","","","","","",""
"","","","","","image-button-response","287","1036042","0.0-3.0-4.0-1.28","5aa44687dbdb470001ef463f","E1","batch5","","14039.70000000298","img/question_5_5.jpeg","6","spm_respsonse","0","1","mat_53","","","","","","0","14039.70000000298","","","","","","","","","","","","","","",""
"","","","","","html-keyboard-response","288","1037103","0.0-3.0-4.0-0.29","5aa44687dbdb470001ef463f","E1","batch5","","null","<p class=block-text>Trial 54 out of 60</p>","null","spm_show_trial_num","","","","","","","","","","","","","","","","","","","","","","","","",""
"","","","","","image-button-response","289","1044200","0.0-3.0-4.0-1.29","5aa44687dbdb470001ef463f","E1","batch5","","7093.699999988079","img/question_5_6.jpeg","6","spm_respsonse","0","5","mat_54","","","","","","0","7093.699999988079","","","","","","","","","","","","","","",""
"","","","","","html-keyboard-response","290","1045263","0.0-3.0-4.0-0.30","5aa44687dbdb470001ef463f","E1","batch5","","null","<p class=block-text>Trial 55 out of 60</p>","null","spm_show_trial_num","","","","","","","","","","","","","","","","","","","","","","","","",""
"","","","","","image-button-response","291","1072067","0.0-3.0-4.0-1.30","5aa44687dbdb470001ef463f","E1","batch5","","26799.89999999106","img/question_5_7.jpeg","5","spm_respsonse","0","1","mat_55","","","","","","0","26799.89999999106","","","","","","","","","","","","","","",""
"","","","","","html-keyboard-response","292","1073127","0.0-3.0-4.0-0.31","5aa44687dbdb470001ef463f","E1","batch5","","null","<p class=block-text>Trial 56 out of 60</p>","null","spm_show_trial_num","","","","","","","","","","","","","","","","","","","","","","","","",""
"","","","","","image-button-response","293","1084135","0.0-3.0-4.0-1.31","5aa44687dbdb470001ef463f","E1","batch5","","11004.90000000596","img/question_5_8.jpeg","0","spm_respsonse","0","6","mat_56","","","","","","0","11004.90000000596","","","","","","","","","","","","","","",""
"","","","","","html-keyboard-response","294","1085199","0.0-3.0-4.0-0.32","5aa44687dbdb470001ef463f","E1","batch5","","null","<p class=block-text>Trial 57 out of 60</p>","null","spm_show_trial_num","","","","","","","","","","","","","","","","","","","","","","","","",""
"","","","","","image-button-response","295","1100568","0.0-3.0-4.0-1.32","5aa44687dbdb470001ef463f","E1","batch5","","15365.40000000596","img/question_5_9.jpeg","3","spm_respsonse","0","3","mat_57","","","","","","0","15365.40000000596","","","","","","","","","","","","","","",""
"","","","","","html-keyboard-response","296","1101630","0.0-3.0-4.0-0.33","5aa44687dbdb470001ef463f","E1","batch5","","null","<p class=block-text>Trial 58 out of 60</p>","null","spm_show_trial_num","","","","","","","","","","","","","","","","","","","","","","","","",""
"","","","","","image-button-response","297","1111767","0.0-3.0-4.0-1.33","5aa44687dbdb470001ef463f","E1","batch5","","10132.60000000894","img/question_5_10.jpeg","6","spm_respsonse","0","2","mat_58","","","","","","0","10132.60000000894","","","","","","","","","","","","","","",""
"","","","","","html-keyboard-response","298","1112831","0.0-3.0-4.0-0.34","5aa44687dbdb470001ef463f","E1","batch5","","null","<p class=block-text>Trial 59 out of 60</p>","null","spm_show_trial_num","","","","","","","","","","","","","","","","","","","","","","","","",""
"","","","","","image-button-response","299","1129670","0.0-3.0-4.0-1.34","5aa44687dbdb470001ef463f","E1","batch5","","16835.79999999702","img/question_5_11.jpeg","6","spm_respsonse","0","4","mat_59","","","","","","0","16835.79999999702","","","","","","","","","","","","","","",""
"","","","","","html-keyboard-response","300","1130729","0.0-3.0-4.0-0.35","5aa44687dbdb470001ef463f","E1","batch5","","null","<p class=block-text>Trial 60 out of 60</p>","null","spm_show_trial_num","","","","","","","","","","","","","","","","","","","","","","","","",""
"","","","","","image-button-response","301","1135674","0.0-3.0-4.0-1.35","5aa44687dbdb470001ef463f","E1","batch5","","4941.20000000298","img/question_5_12.jpeg","4","spm_respsonse","1","5","mat_60","","","","","","1","4941.20000000298","","","","","","","","","","","","","","",""
"","","","","","html-button-response","302","1140076","0.0-3.0-5.0","5aa44687dbdb470001ef463f","E1","batch5","","4148.20000000298","<p class= block-text>This concludes the Standard Progressive Matrix game. Thank you for your responses!<br> When you are ready, click the button continue</p>","0","spm_goodbye","","","","","","","","","","","","","","","","","","","","","","","","",""
"true","","","","","fullscreen","303","1145407","0.0-4.0-0.0","5aa44687dbdb470001ef463f","E1","batch5","","","","","","","","","","","","","","","","","","","","","","","","","","","","","",""
"","","","","","instructions","304","1295159","0.0-4.0-1.0-0.0-0.0","5aa44687dbdb470001ef463f","E1","batch5","[{""page_index"":0,""viewing_time"":36454.59999999404},{""page_index"":1,""viewing_time"":21051.90000000596},{""page_index"":2,""viewing_time"":13481.70000000298},{""page_index"":3,""viewing_time"":22110.89999999106},{""page_index"":4,""viewing_time"":18790.29999999702},{""page_index"":5,""viewing_time"":25980.20000000298},{""page_index"":6,""viewing_time"":11880.60000000894}]","149750.79999999702","","","tol-instructions","","","","","","","","","","","","","","","","","","","","","","","","",""
"","","","","","html-button-response","305","1297009","0.0-4.0-1.0-1.0-0.0","5aa44687dbdb470001ef463f","E1","batch5","","1849","<p class=block-text> Let's answer a few questions <br>","0","tol_enter_quiz","","","","","","","","","","","","","","","","","","","","","","","","",""
"","","","","","html-button-response","306","1301559","0.0-4.0-1.0-1.0-1.0","5aa44687dbdb470001ef463f","E1","batch5","","4547.79999999702","<p class = block-text>True or False: You can only move the ball on top of a peg. <br></p>","0","tol_quiz","true","","","","","","","","","","","","","","","","","","","","","","","",""
"","","","","","html-button-response","307","1303168","0.0-4.0-1.0-1.0-2.0","5aa44687dbdb470001ef463f","E1","batch5","","1606.8999999910593","<p class = block-text>Correct! You can only move the ball on top of a peg.</p>","0","tol_quiz_feedback","","","","","","","","","","","","","","","","","","","","","","","","",""
"","","","","","html-button-response","308","1308718","0.0-4.0-1.0-1.0-3.0","5aa44687dbdb470001ef463f","E1","batch5","","5547.9000000059605","<p class = block-text>True or False: You should try to match your board with the target board with fewest moves possible. <br></p>","0","tol_quiz","true","","","","","","","","","","","","","","","","","","","","","","","",""
"","","","","","html-button-response","309","1309698","0.0-4.0-1.0-1.0-4.0","5aa44687dbdb470001ef463f","E1","batch5","","977.9000000059605","<p class = block-text>Correct! </p>","0","tol_quiz_feedback","","","","","","","","","","","","","","","","","","","","","","","","",""
"","","","","","html-button-response","310","1312057","0.0-4.0-2.0","5aa44687dbdb470001ef463f","E1","batch5","","2356.699999988079","<p class=block-text> Now that you've understood the game, let's practice a few easier examples before we start!<br> <br>","0","","","","","","","","","","","","","","","","","","","","","","","","","",""
"","","","","","single-stim-button","311","1315040","0.0-4.0-3.0-0.0","5aa44687dbdb470001ef463f","E1","batch5","","2978","","","tol_practice","","","","","","","","","","","tol_peg_2","2978","2978","0","[[1,2,0],[0,0],[0]]","1","[[1,2,0],[0,0],[3]]","practice","2978","","","","","",""
"","","","","","single-stim-button","312","1318718","0.0-4.0-3.0-1.0","5aa44687dbdb470001ef463f","E1","batch5","","3676","","","tol_practice","","","","","","","","","","","tol_peg_3","3676","3676","0","[[1,2,0],[0,0],[3]]","1","[[1,2,0],[0,0],[3]]","practice","3676","","","","","",""
"","","","","","poldrack-single-stim","313","1319728","0.0-4.0-4.0","5aa44687dbdb470001ef463f","E1","batch5","","-1","","","tol_feedback","true","","","","","","","","","","","1000","1000","500","","","","","","-1","none","true","","0",""
"","","","","","single-stim-button","314","1323948","0.0-4.0-5.0-0.0","5aa44687dbdb470001ef463f","E1","batch5","","4218","","","tol_practice","","","","","","","","","","","tol_peg_1","4218","4218","0","[[1,0,0],[3,0],[0]]","2","[[0,0,0],[3,1],[2]]","practice","4218","","","","","",""
"","","","","","single-stim-button","315","1329317","0.0-4.0-5.0-1.0","5aa44687dbdb470001ef463f","E1","batch5","","5368","","","tol_practice","","","","","","","","","","","tol_peg_3","5368","5368","0","[[1,0,0],[3,0],[2]]","2","[[0,0,0],[3,1],[2]]","practice","5368","","","","","",""
"","","","","","single-stim-button","316","1331309","0.0-4.0-5.1-0.1","5aa44687dbdb470001ef463f","E1","batch5","","1991","","","tol_practice","","","","","","","","","","","tol_peg_1","1991","1991","0","[[0,0,0],[3,0],[2]]","3","[[0,0,0],[3,1],[2]]","practice","1991","","","","","",""
"","","","","","single-stim-button","317","1332708","0.0-4.0-5.1-1.1","5aa44687dbdb470001ef463f","E1","batch5","","1398","","","tol_practice","","","","","","","","","","","tol_peg_2","1398","1398","0","[[0,0,0],[3,1],[2]]","3","[[0,0,0],[3,1],[2]]","practice","1398","","","","","",""
"","","","","","poldrack-single-stim","318","1333711","0.0-4.0-6.0","5aa44687dbdb470001ef463f","E1","batch5","","-1","","","tol_feedback","true","","","","","","","","","","","1000","1000","500","","","","","","-1","none","true","","0",""
"","","","","","single-stim-button","319","1337858","0.0-4.0-7.0-0.0","5aa44687dbdb470001ef463f","E1","batch5","","4147","","","tol_practice","","","","","","","","","","","tol_peg_2","4147","4147","0","[[1,2,0],[0,0],[0]]","4","[[1,0,0],[2,0],[3]]","practice","4147","","","","","",""
"","","","","","single-stim-button","320","1339219","0.0-4.0-7.0-1.0","5aa44687dbdb470001ef463f","E1","batch5","","1360","","","tol_practice","","","","","","","","","","","tol_peg_3","1360","1360","0","[[1,2,0],[0,0],[3]]","4","[[1,0,0],[2,0],[3]]","practice","1360","","","","","",""
"","","","","","single-stim-button","321","1340559","0.0-4.0-7.1-0.1","5aa44687dbdb470001ef463f","E1","batch5","","1338","","","tol_practice","","","","","","","","","","","tol_peg_1","1338","1338","0","[[1,0,0],[0,0],[3]]","5","[[1,0,0],[2,0],[3]]","practice","1338","","","","","",""
"","","","","","single-stim-button","322","1341819","0.0-4.0-7.1-1.1","5aa44687dbdb470001ef463f","E1","batch5","","1259","","","tol_practice","","","","","","","","","","","tol_peg_2","1259","1259","0","[[1,0,0],[2,0],[3]]","5","[[1,0,0],[2,0],[3]]","practice","1259","","","","","",""
"","","","","","poldrack-single-stim","323","1342823","0.0-4.0-8.0","5aa44687dbdb470001ef463f","E1","batch5","","-1","","","tol_feedback","true","","","","","","","","","","","1000","1000","500","","","","","","-1","none","true","","0",""
"","","","","","html-button-response","324","1347410","0.0-4.0-9.0","5aa44687dbdb470001ef463f","E1","batch5","","4585.699999988079","<div class = centerbox><p class = center-block-text>Great job! You are done with practice trials<br>You are about to start official trials.<br> <br> Problem <strong>1</strong> out of 25 problems</p></div>","0","tol_instruction","","","","","","","","","","","","","","","","","","","","","","","","",""
"","","","","","single-stim-button","325","1352412","0.0-4.0-10.0-0.0","5aa44687dbdb470001ef463f","E1","batch5","","3996","","","tol_tohand","","","","","","","","","","","tol_peg_1","3996","3996","0","[[1,0,0],[3,0],[0]]","1","[[1,3,0],[2,0],[0]]","0","0","","","","","","3"
"","","","","","single-stim-button","326","1357084","0.0-4.0-10.0-1.0","5aa44687dbdb470001ef463f","E1","batch5","","4670","","","tol_toboard","","","","","","","","","","","tol_peg_3","4670","4670","0","[[1,0,0],[3,0],[2]]","1","[[1,3,0],[2,0],[0]]","0","0","","","","","","3"
"","","","","","single-stim-button","327","1358154","0.0-4.0-10.1-0.1","5aa44687dbdb470001ef463f","E1","batch5","","1068","","","tol_tohand","","","","","","","","","","","tol_peg_2","1068","1068","0","[[1,0,0],[0,0],[2]]","2","[[1,3,0],[2,0],[0]]","0","0","","","","","","3"
"","","","","","single-stim-button","328","1359464","0.0-4.0-10.1-1.1","5aa44687dbdb470001ef463f","E1","batch5","","1309","","","tol_toboard","","","","","","","","","","","tol_peg_1","1309","1309","0","[[1,3,0],[0,0],[2]]","2","[[1,3,0],[2,0],[0]]","0","0","","","","","","3"
"","","","","","single-stim-button","329","1360614","0.0-4.0-10.2-0.2","5aa44687dbdb470001ef463f","E1","batch5","","1148","","","tol_tohand","","","","","","","","","","","tol_peg_3","1148","1148","0","[[1,3,0],[0,0],[0]]","3","[[1,3,0],[2,0],[0]]","0","0","","","","","","3"
"","","","","","single-stim-button","330","1361834","0.0-4.0-10.2-1.2","5aa44687dbdb470001ef463f","E1","batch5","","1219","","","tol_toboard","","","","","","","","","","","tol_peg_2","1219","1219","0","[[1,3,0],[2,0],[0]]","3","[[1,3,0],[2,0],[0]]","0","0","","","","","","3"
"","","","","","poldrack-single-stim","331","1362840","0.0-4.0-11.0","5aa44687dbdb470001ef463f","E1","batch5","","-1","","","tol_feedback","true","","","","","","","","","","","1000","1000","500","","","","","","-1","none","true","3996","6212",""
"","","","","","html-button-response","332","1364345","0.0-4.0-12.0","5aa44687dbdb470001ef463f","E1","batch5","","1504.0999999940395","<div class = centerbox><p class = center-block-text>problem <strong>2</strong> out of 25 problems</p></div>","0","tol_trial_num","","","","","","","","","","","","","","","","","","","","","","","","",""
"","","","","","single-stim-button","333","1371807","0.0-4.0-13.0-0.0","5aa44687dbdb470001ef463f","E1","batch5","","7460","","","tol_tohand","","","","","","","","","","","tol_peg_1","7460","7460","0","[[1,0,0],[3,0],[0]]","1","[[2,1,3],[0,0],[0]]","1","0","","","","","","5"
"","","","","","single-stim-button","334","1373478","0.0-4.0-13.0-1.0","5aa44687dbdb470001ef463f","E1","batch5","","1670","","","tol_toboard","","","","","","","","","","","tol_peg_3","1670","1670","0","[[1,0,0],[3,0],[2]]","1","[[2,1,3],[0,0],[0]]","1","0","","","","","","5"
"","","","","","single-stim-button","335","1381871","0.0-4.0-13.1-0.1","5aa44687dbdb470001ef463f","E1","batch5","","8392","","","tol_tohand","","","","","","","","","","","tol_peg_1","8392","8392","0","[[0,0,0],[3,0],[2]]","2","[[2,1,3],[0,0],[0]]","1","0","","","","","","5"
"","","","","","single-stim-button","336","1383632","0.0-4.0-13.1-1.1","5aa44687dbdb470001ef463f","E1","batch5","","1759","","","tol_toboard","","","","","","","","","","","tol_peg_2","1759","1759","0","[[0,0,0],[3,1],[2]]","2","[[2,1,3],[0,0],[0]]","1","0","","","","","","5"
"","","","","","single-stim-button","337","1384932","0.0-4.0-13.2-0.2","5aa44687dbdb470001ef463f","E1","batch5","","1298","","","tol_tohand","","","","","","","","","","","tol_peg_3","1298","1298","0","[[0,0,0],[3,1],[0]]","3","[[2,1,3],[0,0],[0]]","1","0","","","","","","5"
"","","","","","single-stim-button","338","1386352","0.0-4.0-13.2-1.2","5aa44687dbdb470001ef463f","E1","batch5","","1419","","","tol_toboard","","","","","","","","","","","tol_peg_1","1419","1419","0","[[2,0,0],[3,1],[0]]","3","[[2,1,3],[0,0],[0]]","1","0","","","","","","5"
"","","","","","single-stim-button","339","1387322","0.0-4.0-13.3-0.3","5aa44687dbdb470001ef463f","E1","batch5","","969","","","tol_tohand","","","","","","","","","","","tol_peg_2","969","969","0","[[2,0,0],[3,0],[0]]","4","[[2,1,3],[0,0],[0]]","1","0","","","","","","5"
"","","","","","single-stim-button","340","1388994","0.0-4.0-13.3-1.3","5aa44687dbdb470001ef463f","E1","batch5","","1670","","","tol_toboard","","","","","","","","","","","tol_peg_1","1670","1670","0","[[2,1,0],[3,0],[0]]","4","[[2,1,3],[0,0],[0]]","1","0","","","","","","5"
"","","","","","single-stim-button","341","1389794","0.0-4.0-13.4-0.4","5aa44687dbdb470001ef463f","E1","batch5","","799","","","tol_tohand","","","","","","","","","","","tol_peg_2","799","799","0","[[2,1,0],[0,0],[0]]","5","[[2,1,3],[0,0],[0]]","1","0","","","","","","5"
"","","","","","single-stim-button","342","1390934","0.0-4.0-13.4-1.4","5aa44687dbdb470001ef463f","E1","batch5","","1139","","","tol_toboard","","","","","","","","","","","tol_peg_1","1139","1139","0","[[2,1,3],[0,0],[0]]","5","[[2,1,3],[0,0],[0]]","1","0","","","","","","5"
"","","","","","poldrack-single-stim","343","1391943","0.0-4.0-14.0","5aa44687dbdb470001ef463f","E1","batch5","","-1","","","tol_feedback","true","","","","","","","","","","","1000","1000","500","","","","","","-1","none","true","7460","18918",""
"","","","","","html-button-response","344","1392985","0.0-4.0-15.0","5aa44687dbdb470001ef463f","E1","batch5","","1040.5","<div class = centerbox><p class = center-block-text>problem <strong>3</strong> out of 25 problems</p></div>","0","tol_trial_num","","","","","","","","","","","","","","","","","","","","","","","","",""
"","","","","","single-stim-button","345","1398778","0.0-4.0-16.0-0.0","5aa44687dbdb470001ef463f","E1","batch5","","5790","","","tol_tohand","","","","","","","","","","","tol_peg_1","5790","5790","0","[[2,0,0],[0,0],[1]]","1","[[1,2,0],[3,0],[0]]","2","0","","","","","","4"
"","","","","","single-stim-button","346","1400399","0.0-4.0-16.0-1.0","5aa44687dbdb470001ef463f","E1","batch5","","1619","","","tol_toboard","","","","","","","","","","","tol_peg_2","1619","1619","0","[[2,0,0],[3,0],[1]]","1","[[1,2,0],[3,0],[0]]","2","0","","","","","","4"
"","","","","","single-stim-button","347","1401969","0.0-4.0-16.1-0.1","5aa44687dbdb470001ef463f","E1","batch5","","1568","","","tol_tohand","","","","","","","","","","","tol_peg_1","1568","1568","0","[[0,0,0],[3,0],[1]]","2","[[1,2,0],[3,0],[0]]","2","0","","","","","","4"
