"success","timeout","failed_images","failed_audio","failed_video","trial_type","trial_index","time_elapsed","internal_node_id","subject_id","study_id","session_id","task","rt","stimulus","response","item","answer","correct","spm_correct","spm_rt","view_history","fiar_detect_rt","fiar_detect_correct","total_correct_fiar_detect","post_trial_gap","choices","mouse_click","stim_duration","block_duration","timing_post_trial","current_position","tol_num_moves_made","tol_target","tol_problem_id","tol_rt","key_press","possible_responses","tol_correct","preplanning","tol_rt_per_trial","tol_min_moves"
"true","false","[]","[]","[]","preload","0","2833","0.0-0.0","5ab7c19e1667e40001d7cd93","A3","batch1","","","","","","","","","","","","","","","","","","","","","","","","","","","","","",""
"true","","","","","fullscreen","1","16785","0.0-1.0-0.0","5ab7c19e1667e40001d7cd93","A3","batch1","","","","","","","","","","","","","","","","","","","","","","","","","","","","","",""
"true","","","","","fullscreen","2","20148","0.0-2.0-0.0","5ab7c19e1667e40001d7cd93","A3","batch1","spm_fullscreen","","","","","","","","","","","","","","","","","","","","","","","","","","","","",""
"","","","","","html-button-response","3","26213","0.0-2.0-1.0","5ab7c19e1667e40001d7cd93","A3","batch1","","6053.39999999851","<p class = block-text><b>Instructions</b> <br>This is a widely used intelligence test in research. <br>In this test, a figure with a missing piece will be presented.<br>Below the figure are alternative pieces to complete the figure, only one of which is correct.<br> Different figures might involve different principles for obtaining the missing piece<br>Your job is to select the most logical piece to complete the figure.</p>","0","","","","","","","","","","","","","","","","","","","","","","","","","",""
"","","","","","html-keyboard-response","4","27018","0.0-2.0-2.0-0.0","5ab7c19e1667e40001d7cd93","A3","batch1","spm_show_trial_num","null","<p class=block-text>Trial 1 out of 60</p>","null","","","","","","","","","","","","","","","","","","","","","","","","","",""
"","","","","","image-button-response","5","32656","0.0-2.0-2.0-1.0","5ab7c19e1667e40001d7cd93","A3","batch1","spm_respsonse","5625.29999999702","img/question_1_1.jpeg","3","mat_01","4","1","1","5625.29999999702","","","","","","","","","","","","","","","","","","","","",""
"","","","","","html-keyboard-response","6","33730","0.0-2.0-2.0-0.1","5ab7c19e1667e40001d7cd93","A3","batch1","spm_show_trial_num","null","<p class=block-text>Trial 2 out of 60</p>","null","","","","","","","","","","","","","","","","","","","","","","","","","",""
"","","","","","image-button-response","7","36806","0.0-2.0-2.0-1.1","5ab7c19e1667e40001d7cd93","A3","batch1","spm_respsonse","3072","img/question_1_2.jpeg","4","mat_02","5","1","1","3072","","","","","","","","","","","","","","","","","","","","",""
"","","","","","html-keyboard-response","8","37867","0.0-2.0-2.0-0.2","5ab7c19e1667e40001d7cd93","A3","batch1","spm_show_trial_num","null","<p class=block-text>Trial 3 out of 60</p>","null","","","","","","","","","","","","","","","","","","","","","","","","","",""
"","","","","","image-button-response","9","42265","0.0-2.0-2.0-1.2","5ab7c19e1667e40001d7cd93","A3","batch1","spm_respsonse","4393.79999999702","img/question_1_3.jpeg","0","mat_03","1","1","1","4393.79999999702","","","","","","","","","","","","","","","","","","","","",""
"","","","","","html-keyboard-response","10","43337","0.0-2.0-2.0-0.3","5ab7c19e1667e40001d7cd93","A3","batch1","spm_show_trial_num","null","<p class=block-text>Trial 4 out of 60</p>","null","","","","","","","","","","","","","","","","","","","","","","","","","",""
"","","","","","image-button-response","11","47308","0.0-2.0-2.0-1.3","5ab7c19e1667e40001d7cd93","A3","batch1","spm_respsonse","3966.9000000059605","img/question_1_4.jpeg","1","mat_04","2","1","1","3966.9000000059605","","","","","","","","","","","","","","","","","","","","",""
"","","","","","html-keyboard-response","12","48369","0.0-2.0-2.0-0.4","5ab7c19e1667e40001d7cd93","A3","batch1","spm_show_trial_num","null","<p class=block-text>Trial 5 out of 60</p>","null","","","","","","","","","","","","","","","","","","","","","","","","","",""
"","","","","","image-button-response","13","51765","0.0-2.0-2.0-1.4","5ab7c19e1667e40001d7cd93","A3","batch1","spm_respsonse","3390.10000000149","img/question_1_5.jpeg","5","mat_05","6","1","1","3390.10000000149","","","","","","","","","","","","","","","","","","","","",""
"","","","","","html-keyboard-response","14","52826","0.0-2.0-2.0-0.5","5ab7c19e1667e40001d7cd93","A3","batch1","spm_show_trial_num","null","<p class=block-text>Trial 6 out of 60</p>","null","","","","","","","","","","","","","","","","","","","","","","","","","",""
"","","","","","image-button-response","15","56446","0.0-2.0-2.0-1.5","5ab7c19e1667e40001d7cd93","A3","batch1","spm_respsonse","3616","img/question_1_6.jpeg","2","mat_06","3","1","1","3616","","","","","","","","","","","","","","","","","","","","",""
"","","","","","html-keyboard-response","16","57503","0.0-2.0-2.0-0.6","5ab7c19e1667e40001d7cd93","A3","batch1","spm_show_trial_num","null","<p class=block-text>Trial 7 out of 60</p>","null","","","","","","","","","","","","","","","","","","","","","","","","","",""
"","","","","","image-button-response","17","61106","0.0-2.0-2.0-1.6","5ab7c19e1667e40001d7cd93","A3","batch1","spm_respsonse","3598.60000000149","img/question_1_7.jpeg","5","mat_07","6","1","1","3598.60000000149","","","","","","","","","","","","","","","","","","","","",""
"","","","","","html-keyboard-response","18","62162","0.0-2.0-2.0-0.7","5ab7c19e1667e40001d7cd93","A3","batch1","spm_show_trial_num","null","<p class=block-text>Trial 8 out of 60</p>","null","","","","","","","","","","","","","","","","","","","","","","","","","",""
"","","","","","image-button-response","19","65462","0.0-2.0-2.0-1.7","5ab7c19e1667e40001d7cd93","A3","batch1","spm_respsonse","3293.7999999970198","img/question_1_8.jpeg","5","mat_08","2","0","0","3293.7999999970198","","","","","","","","","","","","","","","","","","","","",""
"","","","","","html-keyboard-response","20","66524","0.0-2.0-2.0-0.8","5ab7c19e1667e40001d7cd93","A3","batch1","spm_show_trial_num","null","<p class=block-text>Trial 9 out of 60</p>","null","","","","","","","","","","","","","","","","","","","","","","","","","",""
"","","","","","image-button-response","21","71971","0.0-2.0-2.0-1.8","5ab7c19e1667e40001d7cd93","A3","batch1","spm_respsonse","5442.70000000298","img/question_1_9.jpeg","0","mat_09","1","1","1","5442.70000000298","","","","","","","","","","","","","","","","","","","","",""
"","","","","","html-keyboard-response","22","73026","0.0-2.0-2.0-0.9","5ab7c19e1667e40001d7cd93","A3","batch1","spm_show_trial_num","null","<p class=block-text>Trial 10 out of 60</p>","null","","","","","","","","","","","","","","","","","","","","","","","","","",""
"","","","","","image-button-response","23","80725","0.0-2.0-2.0-1.9","5ab7c19e1667e40001d7cd93","A3","batch1","spm_respsonse","7694","img/question_1_10.jpeg","2","mat_10","3","1","1","7694","","","","","","","","","","","","","","","","","","","","",""
"","","","","","html-keyboard-response","24","81782","0.0-2.0-2.0-0.10","5ab7c19e1667e40001d7cd93","A3","batch1","spm_show_trial_num","null","<p class=block-text>Trial 11 out of 60</p>","null","","","","","","","","","","","","","","","","","","","","","","","","","",""
"","","","","","image-button-response","25","92849","0.0-2.0-2.0-1.10","5ab7c19e1667e40001d7cd93","A3","batch1","spm_respsonse","11060.70000000298","img/question_1_11.jpeg","3","mat_11","4","1","1","11060.70000000298","","","","","","","","","","","","","","","","","","","","",""
"","","","","","html-keyboard-response","26","93920","0.0-2.0-2.0-0.11","5ab7c19e1667e40001d7cd93","A3","batch1","spm_show_trial_num","null","<p class=block-text>Trial 12 out of 60</p>","null","","","","","","","","","","","","","","","","","","","","","","","","","",""
"","","","","","image-button-response","27","113823","0.0-2.0-2.0-1.11","5ab7c19e1667e40001d7cd93","A3","batch1","spm_respsonse","19897.5","img/question_1_12.jpeg","4","mat_12","5","1","1","19897.5","","","","","","","","","","","","","","","","","","","","",""
"","","","","","html-keyboard-response","28","114899","0.0-2.0-2.0-0.12","5ab7c19e1667e40001d7cd93","A3","batch1","spm_show_trial_num","null","<p class=block-text>Trial 13 out of 60</p>","null","","","","","","","","","","","","","","","","","","","","","","","","","",""
"","","","","","image-button-response","29","117299","0.0-2.0-2.0-1.12","5ab7c19e1667e40001d7cd93","A3","batch1","spm_respsonse","2395.5","img/question_2_1.jpeg","1","mat_13","2","1","1","2395.5","","","","","","","","","","","","","","","","","","","","",""
"","","","","","html-keyboard-response","30","118362","0.0-2.0-2.0-0.13","5ab7c19e1667e40001d7cd93","A3","batch1","spm_show_trial_num","null","<p class=block-text>Trial 14 out of 60</p>","null","","","","","","","","","","","","","","","","","","","","","","","","","",""
"","","","","","image-button-response","31","123879","0.0-2.0-2.0-1.13","5ab7c19e1667e40001d7cd93","A3","batch1","spm_respsonse","5512.70000000298","img/question_2_2.jpeg","5","mat_14","6","1","1","5512.70000000298","","","","","","","","","","","","","","","","","","","","",""
"","","","","","html-keyboard-response","32","124946","0.0-2.0-2.0-0.14","5ab7c19e1667e40001d7cd93","A3","batch1","spm_show_trial_num","null","<p class=block-text>Trial 15 out of 60</p>","null","","","","","","","","","","","","","","","","","","","","","","","","","",""
"","","","","","image-button-response","33","129791","0.0-2.0-2.0-1.14","5ab7c19e1667e40001d7cd93","A3","batch1","spm_respsonse","4840.20000000298","img/question_2_3.jpeg","0","mat_15","1","1","1","4840.20000000298","","","","","","","","","","","","","","","","","","","","",""
"","","","","","html-keyboard-response","34","130855","0.0-2.0-2.0-0.15","5ab7c19e1667e40001d7cd93","A3","batch1","spm_show_trial_num","null","<p class=block-text>Trial 16 out of 60</p>","null","","","","","","","","","","","","","","","","","","","","","","","","","",""
"","","","","","image-button-response","35","135101","0.0-2.0-2.0-1.15","5ab7c19e1667e40001d7cd93","A3","batch1","spm_respsonse","4241.69999999553","img/question_2_4.jpeg","1","mat_16","2","1","1","4241.69999999553","","","","","","","","","","","","","","","","","","","","",""
"","","","","","html-keyboard-response","36","136171","0.0-2.0-2.0-0.16","5ab7c19e1667e40001d7cd93","A3","batch1","spm_show_trial_num","null","<p class=block-text>Trial 17 out of 60</p>","null","","","","","","","","","","","","","","","","","","","","","","","","","",""
"","","","","","image-button-response","37","141657","0.0-2.0-2.0-1.16","5ab7c19e1667e40001d7cd93","A3","batch1","spm_respsonse","5481","img/question_2_5.jpeg","0","mat_17","1","1","1","5481","","","","","","","","","","","","","","","","","","","","",""
"","","","","","html-keyboard-response","38","142735","0.0-2.0-2.0-0.17","5ab7c19e1667e40001d7cd93","A3","batch1","spm_show_trial_num","null","<p class=block-text>Trial 18 out of 60</p>","null","","","","","","","","","","","","","","","","","","","","","","","","","",""
"","","","","","image-button-response","39","148156","0.0-2.0-2.0-1.17","5ab7c19e1667e40001d7cd93","A3","batch1","spm_respsonse","5416.10000000149","img/question_2_6.jpeg","2","mat_18","3","1","1","5416.10000000149","","","","","","","","","","","","","","","","","","","","",""
"","","","","","html-keyboard-response","40","149218","0.0-2.0-2.0-0.18","5ab7c19e1667e40001d7cd93","A3","batch1","spm_show_trial_num","null","<p class=block-text>Trial 19 out of 60</p>","null","","","","","","","","","","","","","","","","","","","","","","","","","",""
"","","","","","image-button-response","41","153308","0.0-2.0-2.0-1.18","5ab7c19e1667e40001d7cd93","A3","batch1","spm_respsonse","4083.8000000044703","img/question_2_7.jpeg","4","mat_19","5","1","1","4083.8000000044703","","","","","","","","","","","","","","","","","","","","",""
"","","","","","html-keyboard-response","42","154388","0.0-2.0-2.0-0.19","5ab7c19e1667e40001d7cd93","A3","batch1","spm_show_trial_num","null","<p class=block-text>Trial 20 out of 60</p>","null","","","","","","","","","","","","","","","","","","","","","","","","","",""
"","","","","","image-button-response","43","159840","0.0-2.0-2.0-1.19","5ab7c19e1667e40001d7cd93","A3","batch1","spm_respsonse","5447.80000000447","img/question_2_8.jpeg","5","mat_20","6","1","1","5447.80000000447","","","","","","","","","","","","","","","","","","","","",""
"","","","","","html-keyboard-response","44","160908","0.0-2.0-2.0-0.20","5ab7c19e1667e40001d7cd93","A3","batch1","spm_show_trial_num","null","<p class=block-text>Trial 21 out of 60</p>","null","","","","","","","","","","","","","","","","","","","","","","","","","",""
"","","","","","image-button-response","45","164673","0.0-2.0-2.0-1.20","5ab7c19e1667e40001d7cd93","A3","batch1","spm_respsonse","3761.39999999851","img/question_2_9.jpeg","3","mat_21","4","1","1","3761.39999999851","","","","","","","","","","","","","","","","","","","","",""
"","","","","","html-keyboard-response","46","165749","0.0-2.0-2.0-0.21","5ab7c19e1667e40001d7cd93","A3","batch1","spm_show_trial_num","null","<p class=block-text>Trial 22 out of 60</p>","null","","","","","","","","","","","","","","","","","","","","","","","","","",""
"","","","","","image-button-response","47","171376","0.0-2.0-2.0-1.21","5ab7c19e1667e40001d7cd93","A3","batch1","spm_respsonse","5623.30000000447","img/question_2_10.jpeg","2","mat_22","3","1","1","5623.30000000447","","","","","","","","","","","","","","","","","","","","",""
"","","","","","html-keyboard-response","48","172443","0.0-2.0-2.0-0.22","5ab7c19e1667e40001d7cd93","A3","batch1","spm_show_trial_num","null","<p class=block-text>Trial 23 out of 60</p>","null","","","","","","","","","","","","","","","","","","","","","","","","","",""
"","","","","","image-button-response","49","179034","0.0-2.0-2.0-1.22","5ab7c19e1667e40001d7cd93","A3","batch1","spm_respsonse","6584.0999999940395","img/question_2_11.jpeg","3","mat_23","4","1","1","6584.0999999940395","","","","","","","","","","","","","","","","","","","","",""
"","","","","","html-keyboard-response","50","180098","0.0-2.0-2.0-0.23","5ab7c19e1667e40001d7cd93","A3","batch1","spm_show_trial_num","null","<p class=block-text>Trial 24 out of 60</p>","null","","","","","","","","","","","","","","","","","","","","","","","","","",""
"","","","","","image-button-response","51","198386","0.0-2.0-2.0-1.23","5ab7c19e1667e40001d7cd93","A3","batch1","spm_respsonse","18283.60000000149","img/question_2_12.jpeg","4","mat_24","5","1","1","18283.60000000149","","","","","","","","","","","","","","","","","","","","",""
"","","","","","html-button-response","52","200425","0.0-2.0-3.0","5ab7c19e1667e40001d7cd93","A3","batch1","attention_check","1769","<p class = block-text>Attention check: Please choose 1<br></p>","0","","","true","","","","","","","","","","","","","","","","","","","","","","",""
"","","","","","html-keyboard-response","53","201235","0.0-2.0-4.0-0.0","5ab7c19e1667e40001d7cd93","A3","batch1","spm_show_trial_num","null","<p class=block-text>Trial 25 out of 60</p>","null","","","","","","","","","","","","","","","","","","","","","","","","","",""
"","","","","","image-button-response","54","208715","0.0-2.0-4.0-1.0","5ab7c19e1667e40001d7cd93","A3","batch1","spm_respsonse","7473.20000000298","img/question_3_1.jpeg","7","mat_25","8","1","1","7473.20000000298","","","","","","","","","","","","","","","","","","","","",""
"","","","","","html-keyboard-response","55","209769","0.0-2.0-4.0-0.1","5ab7c19e1667e40001d7cd93","A3","batch1","spm_show_trial_num","null","<p class=block-text>Trial 26 out of 60</p>","null","","","","","","","","","","","","","","","","","","","","","","","","","",""
"","","","","","image-button-response","56","216084","0.0-2.0-4.0-1.1","5ab7c19e1667e40001d7cd93","A3","batch1","spm_respsonse","6307.79999999702","img/question_3_2.jpeg","1","mat_26","2","1","1","6307.79999999702","","","","","","","","","","","","","","","","","","","","",""
"","","","","","html-keyboard-response","57","217150","0.0-2.0-4.0-0.2","5ab7c19e1667e40001d7cd93","A3","batch1","spm_show_trial_num","null","<p class=block-text>Trial 27 out of 60</p>","null","","","","","","","","","","","","","","","","","","","","","","","","","",""
"","","","","","image-button-response","58","236436","0.0-2.0-4.0-1.2","5ab7c19e1667e40001d7cd93","A3","batch1","spm_respsonse","19280.60000000149","img/question_3_3.jpeg","2","mat_27","3","1","1","19280.60000000149","","","","","","","","","","","","","","","","","","","","",""
"","","","","","html-keyboard-response","59","237513","0.0-2.0-4.0-0.3","5ab7c19e1667e40001d7cd93","A3","batch1","spm_show_trial_num","null","<p class=block-text>Trial 28 out of 60</p>","null","","","","","","","","","","","","","","","","","","","","","","","","","",""
"","","","","","image-button-response","60","259048","0.0-2.0-4.0-1.3","5ab7c19e1667e40001d7cd93","A3","batch1","spm_respsonse","21529.10000000149","img/question_3_4.jpeg","7","mat_28","8","1","1","21529.10000000149","","","","","","","","","","","","","","","","","","","","",""
"","","","","","html-keyboard-response","61","260112","0.0-2.0-4.0-0.4","5ab7c19e1667e40001d7cd93","A3","batch1","spm_show_trial_num","null","<p class=block-text>Trial 29 out of 60</p>","null","","","","","","","","","","","","","","","","","","","","","","","","","",""
"","","","","","image-button-response","62","267376","0.0-2.0-4.0-1.4","5ab7c19e1667e40001d7cd93","A3","batch1","spm_respsonse","7259.4000000059605","img/question_3_5.jpeg","6","mat_29","7","1","1","7259.4000000059605","","","","","","","","","","","","","","","","","","","","",""
"","","","","","html-keyboard-response","63","268443","0.0-2.0-4.0-0.5","5ab7c19e1667e40001d7cd93","A3","batch1","spm_show_trial_num","null","<p class=block-text>Trial 30 out of 60</p>","null","","","","","","","","","","","","","","","","","","","","","","","","","",""
"","","","","","image-button-response","64","278301","0.0-2.0-4.0-1.5","5ab7c19e1667e40001d7cd93","A3","batch1","spm_respsonse","9854.10000000149","img/question_3_6.jpeg","3","mat_30","4","1","1","9854.10000000149","","","","","","","","","","","","","","","","","","","","",""
"","","","","","html-keyboard-response","65","279371","0.0-2.0-4.0-0.6","5ab7c19e1667e40001d7cd93","A3","batch1","spm_show_trial_num","null","<p class=block-text>Trial 31 out of 60</p>","null","","","","","","","","","","","","","","","","","","","","","","","","","",""
"","","","","","image-button-response","66","288999","0.0-2.0-4.0-1.6","5ab7c19e1667e40001d7cd93","A3","batch1","spm_respsonse","9621.89999999851","img/question_3_7.jpeg","4","mat_31","5","1","1","9621.89999999851","","","","","","","","","","","","","","","","","","","","",""
"","","","","","html-keyboard-response","67","290065","0.0-2.0-4.0-0.7","5ab7c19e1667e40001d7cd93","A3","batch1","spm_show_trial_num","null","<p class=block-text>Trial 32 out of 60</p>","null","","","","","","","","","","","","","","","","","","","","","","","","","",""
"","","","","","image-button-response","68","297932","0.0-2.0-4.0-1.7","5ab7c19e1667e40001d7cd93","A3","batch1","spm_respsonse","7862.39999999851","img/question_3_8.jpeg","0","mat_32","1","1","1","7862.39999999851","","","","","","","","","","","","","","","","","","","","",""
"","","","","","html-keyboard-response","69","298985","0.0-2.0-4.0-0.8","5ab7c19e1667e40001d7cd93","A3","batch1","spm_show_trial_num","null","<p class=block-text>Trial 33 out of 60</p>","null","","","","","","","","","","","","","","","","","","","","","","","","","",""
"","","","","","image-button-response","70","307855","0.0-2.0-4.0-1.8","5ab7c19e1667e40001d7cd93","A3","batch1","spm_respsonse","8864.29999999702","img/question_3_9.jpeg","6","mat_33","7","1","1","8864.29999999702","","","","","","","","","","","","","","","","","","","","",""
"","","","","","html-keyboard-response","71","308925","0.0-2.0-4.0-0.9","5ab7c19e1667e40001d7cd93","A3","batch1","spm_show_trial_num","null","<p class=block-text>Trial 34 out of 60</p>","null","","","","","","","","","","","","","","","","","","","","","","","","","",""
"","","","","","image-button-response","72","340779","0.0-2.0-4.0-1.9","5ab7c19e1667e40001d7cd93","A3","batch1","spm_respsonse","31850.10000000149","img/question_3_10.jpeg","5","mat_34","6","1","1","31850.10000000149","","","","","","","","","","","","","","","","","","","","",""
"","","","","","html-keyboard-response","73","341856","0.0-2.0-4.0-0.10","5ab7c19e1667e40001d7cd93","A3","batch1","spm_show_trial_num","null","<p class=block-text>Trial 35 out of 60</p>","null","","","","","","","","","","","","","","","","","","","","","","","","","",""
"","","","","","image-button-response","74","363247","0.0-2.0-4.0-1.10","5ab7c19e1667e40001d7cd93","A3","batch1","spm_respsonse","21385.5","img/question_3_11.jpeg","0","mat_35","1","1","1","21385.5","","","","","","","","","","","","","","","","","","","","",""
"","","","","","html-keyboard-response","75","364305","0.0-2.0-4.0-0.11","5ab7c19e1667e40001d7cd93","A3","batch1","spm_show_trial_num","null","<p class=block-text>Trial 36 out of 60</p>","null","","","","","","","","","","","","","","","","","","","","","","","","","",""
"","","","","","image-button-response","76","389154","0.0-2.0-4.0-1.11","5ab7c19e1667e40001d7cd93","A3","batch1","spm_respsonse","24845.09999999404","img/question_3_12.jpeg","1","mat_36","2","1","1","24845.09999999404","","","","","","","","","","","","","","","","","","","","",""
"","","","","","html-keyboard-response","77","390232","0.0-2.0-4.0-0.12","5ab7c19e1667e40001d7cd93","A3","batch1","spm_show_trial_num","null","<p class=block-text>Trial 37 out of 60</p>","null","","","","","","","","","","","","","","","","","","","","","","","","","",""
"","","","","","image-button-response","78","393359","0.0-2.0-4.0-1.12","5ab7c19e1667e40001d7cd93","A3","batch1","spm_respsonse","3119.7000000029802","img/question_4_1.jpeg","2","mat_37","3","1","1","3119.7000000029802","","","","","","","","","","","","","","","","","","","","",""
"","","","","","html-keyboard-response","79","394441","0.0-2.0-4.0-0.13","5ab7c19e1667e40001d7cd93","A3","batch1","spm_show_trial_num","null","<p class=block-text>Trial 38 out of 60</p>","null","","","","","","","","","","","","","","","","","","","","","","","","","",""
"","","","","","image-button-response","80","400423","0.0-2.0-4.0-1.13","5ab7c19e1667e40001d7cd93","A3","batch1","spm_respsonse","5976.20000000298","img/question_4_2.jpeg","3","mat_38","4","1","1","5976.20000000298","","","","","","","","","","","","","","","","","","","","",""
"","","","","","html-keyboard-response","81","401487","0.0-2.0-4.0-0.14","5ab7c19e1667e40001d7cd93","A3","batch1","spm_show_trial_num","null","<p class=block-text>Trial 39 out of 60</p>","null","","","","","","","","","","","","","","","","","","","","","","","","","",""
"","","","","","image-button-response","82","408090","0.0-2.0-4.0-1.14","5ab7c19e1667e40001d7cd93","A3","batch1","spm_respsonse","6599.69999999553","img/question_4_3.jpeg","2","mat_39","3","1","1","6599.69999999553","","","","","","","","","","","","","","","","","","","","",""
"","","","","","html-keyboard-response","83","409148","0.0-2.0-4.0-0.15","5ab7c19e1667e40001d7cd93","A3","batch1","spm_show_trial_num","null","<p class=block-text>Trial 40 out of 60</p>","null","","","","","","","","","","","","","","","","","","","","","","","","","",""
"","","","","","image-button-response","84","417621","0.0-2.0-4.0-1.15","5ab7c19e1667e40001d7cd93","A3","batch1","spm_respsonse","8467.40000000596","img/question_4_4.jpeg","6","mat_40","7","1","1","8467.40000000596","","","","","","","","","","","","","","","","","","","","",""
"","","","","","html-keyboard-response","85","418677","0.0-2.0-4.0-0.16","5ab7c19e1667e40001d7cd93","A3","batch1","spm_show_trial_num","null","<p class=block-text>Trial 41 out of 60</p>","null","","","","","","","","","","","","","","","","","","","","","","","","","",""
"","","","","","image-button-response","86","430480","0.0-2.0-4.0-1.16","5ab7c19e1667e40001d7cd93","A3","batch1","spm_respsonse","11798.5","img/question_4_5.jpeg","7","mat_41","8","1","1","11798.5","","","","","","","","","","","","","","","","","","","","",""
"","","","","","html-keyboard-response","87","431546","0.0-2.0-4.0-0.17","5ab7c19e1667e40001d7cd93","A3","batch1","spm_show_trial_num","null","<p class=block-text>Trial 42 out of 60</p>","null","","","","","","","","","","","","","","","","","","","","","","","","","",""
"","","","","","image-button-response","88","445976","0.0-2.0-4.0-1.17","5ab7c19e1667e40001d7cd93","A3","batch1","spm_respsonse","14423.5","img/question_4_6.jpeg","5","mat_42","6","1","1","14423.5","","","","","","","","","","","","","","","","","","","","",""
"","","","","","html-keyboard-response","89","447033","0.0-2.0-4.0-0.18","5ab7c19e1667e40001d7cd93","A3","batch1","spm_show_trial_num","null","<p class=block-text>Trial 43 out of 60</p>","null","","","","","","","","","","","","","","","","","","","","","","","","","",""
"","","","","","image-button-response","90","467463","0.0-2.0-4.0-1.18","5ab7c19e1667e40001d7cd93","A3","batch1","spm_respsonse","20424.39999999851","img/question_4_7.jpeg","4","mat_43","5","1","1","20424.39999999851","","","","","","","","","","","","","","","","","","","","",""
"","","","","","html-keyboard-response","91","468530","0.0-2.0-4.0-0.19","5ab7c19e1667e40001d7cd93","A3","batch1","spm_show_trial_num","null","<p class=block-text>Trial 44 out of 60</p>","null","","","","","","","","","","","","","","","","","","","","","","","","","",""
"","","","","","image-button-response","92","477268","0.0-2.0-4.0-1.19","5ab7c19e1667e40001d7cd93","A3","batch1","spm_respsonse","8730.5","img/question_4_8.jpeg","3","mat_44","4","1","1","8730.5","","","","","","","","","","","","","","","","","","","","",""
"","","","","","html-keyboard-response","93","478331","0.0-2.0-4.0-0.20","5ab7c19e1667e40001d7cd93","A3","batch1","spm_show_trial_num","null","<p class=block-text>Trial 45 out of 60</p>","null","","","","","","","","","","","","","","","","","","","","","","","","","",""
"","","","","","image-button-response","94","501071","0.0-2.0-4.0-1.20","5ab7c19e1667e40001d7cd93","A3","batch1","spm_respsonse","22734.89999999851","img/question_4_9.jpeg","0","mat_45","1","1","1","22734.89999999851","","","","","","","","","","","","","","","","","","","","",""
"","","","","","html-keyboard-response","95","502145","0.0-2.0-4.0-0.21","5ab7c19e1667e40001d7cd93","A3","batch1","spm_show_trial_num","null","<p class=block-text>Trial 46 out of 60</p>","null","","","","","","","","","","","","","","","","","","","","","","","","","",""
"","","","","","image-button-response","96","545061","0.0-2.0-4.0-1.21","5ab7c19e1667e40001d7cd93","A3","batch1","spm_respsonse","42910.5","img/question_4_10.jpeg","1","mat_46","2","1","1","42910.5","","","","","","","","","","","","","","","","","","","","",""
"","","","","","html-keyboard-response","97","546130","0.0-2.0-4.0-0.22","5ab7c19e1667e40001d7cd93","A3","batch1","spm_show_trial_num","null","<p class=block-text>Trial 47 out of 60</p>","null","","","","","","","","","","","","","","","","","","","","","","","","","",""
"","","","","","image-button-response","98","635329","0.0-2.0-4.0-1.22","5ab7c19e1667e40001d7cd93","A3","batch1","spm_respsonse","89193.29999999702","img/question_4_11.jpeg","4","mat_47","5","1","1","89193.29999999702","","","","","","","","","","","","","","","","","","","","",""
"","","","","","html-keyboard-response","99","636397","0.0-2.0-4.0-0.23","5ab7c19e1667e40001d7cd93","A3","batch1","spm_show_trial_num","null","<p class=block-text>Trial 48 out of 60</p>","null","","","","","","","","","","","","","","","","","","","","","","","","","",""
"","","","","","image-button-response","100","662109","0.0-2.0-4.0-1.23","5ab7c19e1667e40001d7cd93","A3","batch1","spm_respsonse","25706.19999999553","img/question_4_12.jpeg","6","mat_48","6","0","0","25706.19999999553","","","","","","","","","","","","","","","","","","","","",""
"","","","","","html-keyboard-response","101","663165","0.0-2.0-4.0-0.24","5ab7c19e1667e40001d7cd93","A3","batch1","spm_show_trial_num","null","<p class=block-text>Trial 49 out of 60</p>","null","","","","","","","","","","","","","","","","","","","","","","","","","",""
"","","","","","image-button-response","102","674661","0.0-2.0-4.0-1.24","5ab7c19e1667e40001d7cd93","A3","batch1","spm_respsonse","11493.10000000149","img/question_5_1.jpeg","6","mat_49","7","1","1","11493.10000000149","","","","","","","","","","","","","","","","","","","","",""
"","","","","","html-keyboard-response","103","675715","0.0-2.0-4.0-0.25","5ab7c19e1667e40001d7cd93","A3","batch1","spm_show_trial_num","null","<p class=block-text>Trial 50 out of 60</p>","null","","","","","","","","","","","","","","","","","","","","","","","","","",""
"","","","","","image-button-response","104","686860","0.0-2.0-4.0-1.25","5ab7c19e1667e40001d7cd93","A3","batch1","spm_respsonse","11141.09999999404","img/question_5_2.jpeg","5","mat_50","6","1","1","11141.09999999404","","","","","","","","","","","","","","","","","","","","",""
"","","","","","html-keyboard-response","105","687929","0.0-2.0-4.0-0.26","5ab7c19e1667e40001d7cd93","A3","batch1","spm_show_trial_num","null","<p class=block-text>Trial 51 out of 60</p>","null","","","","","","","","","","","","","","","","","","","","","","","","","",""
"","","","","","image-button-response","106","707719","0.0-2.0-4.0-1.26","5ab7c19e1667e40001d7cd93","A3","batch1","spm_respsonse","19782.70000000298","img/question_5_3.jpeg","7","mat_51","8","1","1","19782.70000000298","","","","","","","","","","","","","","","","","","","","",""
"","","","","","html-keyboard-response","107","708785","0.0-2.0-4.0-0.27","5ab7c19e1667e40001d7cd93","A3","batch1","spm_show_trial_num","null","<p class=block-text>Trial 52 out of 60</p>","null","","","","","","","","","","","","","","","","","","","","","","","","","",""
"","","","","","image-button-response","108","719686","0.0-2.0-4.0-1.27","5ab7c19e1667e40001d7cd93","A3","batch1","spm_respsonse","10897.10000000149","img/question_5_4.jpeg","1","mat_52","2","1","1","10897.10000000149","","","","","","","","","","","","","","","","","","","","",""
"","","","","","html-keyboard-response","109","720742","0.0-2.0-4.0-0.28","5ab7c19e1667e40001d7cd93","A3","batch1","spm_show_trial_num","null","<p class=block-text>Trial 53 out of 60</p>","null","","","","","","","","","","","","","","","","","","","","","","","","","",""
"","","","","","image-button-response","110","730318","0.0-2.0-4.0-1.28","5ab7c19e1667e40001d7cd93","A3","batch1","spm_respsonse","9570.10000000149","img/question_5_5.jpeg","0","mat_53","1","1","1","9570.10000000149","","","","","","","","","","","","","","","","","","","","",""
"","","","","","html-keyboard-response","111","731371","0.0-2.0-4.0-0.29","5ab7c19e1667e40001d7cd93","A3","batch1","spm_show_trial_num","null","<p class=block-text>Trial 54 out of 60</p>","null","","","","","","","","","","","","","","","","","","","","","","","","","",""
"","","","","","image-button-response","112","747343","0.0-2.0-4.0-1.29","5ab7c19e1667e40001d7cd93","A3","batch1","spm_respsonse","15965.70000000298","img/question_5_6.jpeg","4","mat_54","5","1","1","15965.70000000298","","","","","","","","","","","","","","","","","","","","",""
"","","","","","html-keyboard-response","113","748417","0.0-2.0-4.0-0.30","5ab7c19e1667e40001d7cd93","A3","batch1","spm_show_trial_num","null","<p class=block-text>Trial 55 out of 60</p>","null","","","","","","","","","","","","","","","","","","","","","","","","","",""
"","","","","","image-button-response","114","817372","0.0-2.0-4.0-1.30","5ab7c19e1667e40001d7cd93","A3","batch1","spm_respsonse","68950","img/question_5_7.jpeg","0","mat_55","1","1","1","68950","","","","","","","","","","","","","","","","","","","","",""
"","","","","","html-keyboard-response","115","818436","0.0-2.0-4.0-0.31","5ab7c19e1667e40001d7cd93","A3","batch1","spm_show_trial_num","null","<p class=block-text>Trial 56 out of 60</p>","null","","","","","","","","","","","","","","","","","","","","","","","","","",""
"","","","","","image-button-response","116","829957","0.0-2.0-4.0-1.31","5ab7c19e1667e40001d7cd93","A3","batch1","spm_respsonse","11514.80000000447","img/question_5_8.jpeg","5","mat_56","6","1","1","11514.80000000447","","","","","","","","","","","","","","","","","","","","",""
"","","","","","html-keyboard-response","117","831026","0.0-2.0-4.0-0.32","5ab7c19e1667e40001d7cd93","A3","batch1","spm_show_trial_num","null","<p class=block-text>Trial 57 out of 60</p>","null","","","","","","","","","","","","","","","","","","","","","","","","","",""
"","","","","","image-button-response","118","844167","0.0-2.0-4.0-1.32","5ab7c19e1667e40001d7cd93","A3","batch1","spm_respsonse","13138.10000000149","img/question_5_9.jpeg","2","mat_57","3","1","1","13138.10000000149","","","","","","","","","","","","","","","","","","","","",""
"","","","","","html-keyboard-response","119","845222","0.0-2.0-4.0-0.33","5ab7c19e1667e40001d7cd93","A3","batch1","spm_show_trial_num","null","<p class=block-text>Trial 58 out of 60</p>","null","","","","","","","","","","","","","","","","","","","","","","","","","",""
"","","","","","image-button-response","120","871686","0.0-2.0-4.0-1.33","5ab7c19e1667e40001d7cd93","A3","batch1","spm_respsonse","26458.70000000298","img/question_5_10.jpeg","1","mat_58","2","1","1","26458.70000000298","","","","","","","","","","","","","","","","","","","","",""
"","","","","","html-keyboard-response","121","872744","0.0-2.0-4.0-0.34","5ab7c19e1667e40001d7cd93","A3","batch1","spm_show_trial_num","null","<p class=block-text>Trial 59 out of 60</p>","null","","","","","","","","","","","","","","","","","","","","","","","","","",""
"","","","","","image-button-response","122","899470","0.0-2.0-4.0-1.34","5ab7c19e1667e40001d7cd93","A3","batch1","spm_respsonse","26720.60000000149","img/question_5_11.jpeg","6","mat_59","4","0","0","26720.60000000149","","","","","","","","","","","","","","","","","","","","",""
"","","","","","html-keyboard-response","123","900525","0.0-2.0-4.0-0.35","5ab7c19e1667e40001d7cd93","A3","batch1","spm_show_trial_num","null","<p class=block-text>Trial 60 out of 60</p>","null","","","","","","","","","","","","","","","","","","","","","","","","","",""
"","","","","","image-button-response","124","935606","0.0-2.0-4.0-1.35","5ab7c19e1667e40001d7cd93","A3","batch1","spm_respsonse","35076.5","img/question_5_12.jpeg","5","mat_60","5","0","0","35076.5","","","","","","","","","","","","","","","","","","","","",""
"","","","","","html-button-response","125","937677","0.0-2.0-5.0","5ab7c19e1667e40001d7cd93","A3","batch1","spm_goodbye","1814","<p class= block-text>This concludes the Standard Progressive Matrix game. Thank you for your responses!<br> When you are ready, click the button continue</p>","0","","","","","","","","","","","","","","","","","","","","","","","","","",""
"true","","","","","fullscreen","126","941300","0.0-3.0-0.0","5ab7c19e1667e40001d7cd93","A3","batch1","","","","","","","","","","","","","","","","","","","","","","","","","","","","","",""
"","","","","","instructions","127","952223","0.0-3.0-1.0-0.0","5ab7c19e1667e40001d7cd93","A3","batch1","","10919","","","","","","","","[{""page_index"":0,""viewing_time"":6426.70000000298},{""page_index"":1,""viewing_time"":4491.39999999851}]","","","","","","","","","","","","","","","","","","","",""
"","","","","","html-button-response","128","953361","0.0-3.0-1.0-1.0-0.0","5ab7c19e1667e40001d7cd93","A3","batch1","pattern_enter_quiz","1135.1000000014901","<p class=block-text> Let's answer a few questions <br>","0","","","","","","","","","","","","","","","","","","","","","","","","","",""
"","","","","","html-button-response","129","955073","0.0-3.0-1.0-1.0-1.0","5ab7c19e1667e40001d7cd93","A3","batch1","pattern_quiz","1707.2999999970198","<p class = block-text>True or False: You will have as much time as you want to make each choice. <br></p>","1","","","true","","","","","","","","","","","","","","","","","","","","","","",""
"","","","","","html-button-response","130","956118","0.0-3.0-1.0-1.0-2.0","5ab7c19e1667e40001d7cd93","A3","batch1","pattern_quiz_feedback","1042","<p class = block-text>Correct! You should make your choice <strong> as fast as you can</strong>.</p>","0","","","","","","","","","","","","","","","","","","","","","","","","","",""
"","","","","","html-button-response","131","961373","0.0-3.0-1.0-1.0-3.0","5ab7c19e1667e40001d7cd93","A3","batch1","pattern_quiz","5253.39999999851","<p class = block-text>True or False: You will look for 4 pieces in black or white color connected in a row either horizontally, vertically or diagonally. <br></p>","0","","","true","","","","","","","","","","","","","","","","","","","","","","",""
"","","","","","html-button-response","132","962024","0.0-3.0-1.0-1.0-4.0","5ab7c19e1667e40001d7cd93","A3","batch1","pattern_quiz_feedback","648.5","<p class = block-text>Correct! </p>","0","","","","","","","","","","","","","","","","","","","","","","","","","",""
"","","","","","html-button-response","133","963317","0.0-3.0-2.0","5ab7c19e1667e40001d7cd93","A3","batch1","pattern_enter_practice","1288.5","<p class=block-text> Now that you've understood the game, let's do a few practice trials before we start!<br> <br>","0","","","","","","","","","","","","","","","","","","","","","","","","","",""
"","","","","","image-keyboard-response","134","966024","0.0-3.0-3.0-0.0","5ab7c19e1667e40001d7cd93","A3","batch1","pattern_practice","2700.5","stim/prac_no_18_1.png","j","","j","true","","","","","","","","","","","","","","","","","","","","","","",""
"","","","","","html-keyboard-response","135","967050","0.0-3.0-3.0-1.0","5ab7c19e1667e40001d7cd93","A3","batch1","pattern_feedback","null","<p style=""font-size:30px;color:green;"">Correct!</p>","null","","","","","","","","","","","","","","","","","","","","","","","","","",""
"","","","","","image-keyboard-response","136","967837","0.0-3.0-3.0-0.1","5ab7c19e1667e40001d7cd93","A3","batch1","pattern_practice","783","stim/prac_yes_18_hor_w1.png","f","","f","true","","","","","","","","","","","","","","","","","","","","","","",""
"","","","","","html-keyboard-response","137","968858","0.0-3.0-3.0-1.1","5ab7c19e1667e40001d7cd93","A3","batch1","pattern_feedback","null","<p style=""font-size:30px;color:green;"">Correct!</p>","null","","","","","","","","","","","","","","","","","","","","","","","","","",""
"","","","","","image-keyboard-response","138","970142","0.0-3.0-3.0-0.2","5ab7c19e1667e40001d7cd93","A3","batch1","pattern_practice","1279.5","stim/prac_yes_20_dia_b1.png","f","","f","true","","","","","","","","","","","","","","","","","","","","","","",""
"","","","","","html-keyboard-response","139","971161","0.0-3.0-3.0-1.2","5ab7c19e1667e40001d7cd93","A3","batch1","pattern_feedback","null","<p style=""font-size:30px;color:green;"">Correct!</p>","null","","","","","","","","","","","","","","","","","","","","","","","","","",""
"","","","","","image-keyboard-response","140","971830","0.0-3.0-3.0-0.3","5ab7c19e1667e40001d7cd93","A3","batch1","pattern_practice","664.8000000044703","stim/prac_yes_16_ver_w1.png","f","","f","true","","","","","","","","","","","","","","","","","","","","","","",""
"","","","","","html-keyboard-response","141","972846","0.0-3.0-3.0-1.3","5ab7c19e1667e40001d7cd93","A3","batch1","pattern_feedback","null","<p style=""font-size:30px;color:green;"">Correct!</p>","null","","","","","","","","","","","","","","","","","","","","","","","","","",""
"","","","","","image-keyboard-response","142","973718","0.0-3.0-3.0-0.4","5ab7c19e1667e40001d7cd93","A3","batch1","pattern_practice","868.8999999985099","stim/prac_no_16_1.png","f","","j","false","","","","","","","","","","","","","","","","","","","","","","",""
"","","","","","html-keyboard-response","143","974743","0.0-3.0-3.0-1.4","5ab7c19e1667e40001d7cd93","A3","batch1","pattern_feedback","null","<p style=""font-size:30px;color:red;"">Wrong.</p>","null","","","","","","","","","","","","","","","","","","","","","","","","","",""
"","","","","","html-button-response","144","977526","0.0-3.0-4.0","5ab7c19e1667e40001d7cd93","A3","batch1","pattern_enter_official_trials","2766.89999999851","<p class=block-text> Good job! You are done with practice trials!<br>
        You responded correctly on 80% of the trials.<br>
        Press the button below to start official trials. Now you won't see any feedback about your response</p>","0","","","","","","","","","","","","","","","","","","","","","","","","","",""
"","","","","","html-keyboard-response","145","978334","0.0-3.0-5.0-0.0","5ab7c19e1667e40001d7cd93","A3","batch1","pattern_show_trial_num","null","<p class=block-text>Trial 1 out of 78</p>","null","","","","","","","","","","","","","","","","","","","","","","","","","",""
"","","","","","image-keyboard-response","146","979445","0.0-3.0-5.0-1.0","5ab7c19e1667e40001d7cd93","A3","batch1","pattern_response","1107.5999999940395","stim/no_15_1_w.png","j","pattern_03","j","true","","","","1107.5999999940395","true","1","","","","","","","","","","","","","","","","",""
"","","","","","html-keyboard-response","147","980761","0.0-3.0-5.0-0.1","5ab7c19e1667e40001d7cd93","A3","batch1","pattern_show_trial_num","null","<p class=block-text>Trial 2 out of 78</p>","null","","","","","","","","","","","","","","","","","","","","","","","","","",""
"","","","","","image-keyboard-response","148","983006","0.0-3.0-5.0-1.1","5ab7c19e1667e40001d7cd93","A3","batch1","pattern_response","2241.2000000029802","stim/no_22_1_b.png","j","pattern_07","j","true","","","","2241.2000000029802","true","2","","","","","","","","","","","","","","","","",""
"","","","","","html-keyboard-response","149","984318","0.0-3.0-5.0-0.2","5ab7c19e1667e40001d7cd93","A3","batch1","pattern_show_trial_num","null","<p class=block-text>Trial 3 out of 78</p>","null","","","","","","","","","","","","","","","","","","","","","","","","","",""
"","","","","","image-keyboard-response","150","989294","0.0-3.0-5.0-1.2","5ab7c19e1667e40001d7cd93","A3","batch1","pattern_response","4970.5999999940395","stim/no_67_1.png","j","pattern_39","j","true","","","","4970.5999999940395","true","3","","","","","","","","","","","","","","","","",""
"","","","","","html-keyboard-response","151","990611","0.0-3.0-5.0-0.3","5ab7c19e1667e40001d7cd93","A3","batch1","pattern_show_trial_num","null","<p class=block-text>Trial 4 out of 78</p>","null","","","","","","","","","","","","","","","","","","","","","","","","","",""
"","","","","","image-keyboard-response","152","991453","0.0-3.0-5.0-1.3","5ab7c19e1667e40001d7cd93","A3","batch1","pattern_response","836.7999999970198","stim/yes_12_hor_w1_w.png","f","pattern_42","f","true","","","","836.7999999970198","true","4","","","","","","","","","","","","","","","","",""
"","","","","","html-keyboard-response","153","992770","0.0-3.0-5.0-0.4","5ab7c19e1667e40001d7cd93","A3","batch1","pattern_show_trial_num","null","<p class=block-text>Trial 5 out of 78</p>","null","","","","","","","","","","","","","","","","","","","","","","","","","",""
"","","","","","image-keyboard-response","154","993623","0.0-3.0-5.0-1.4","5ab7c19e1667e40001d7cd93","A3","batch1","pattern_response","848.6000000014901","stim/yes_39_hor_w1_w.png","f","pattern_62","f","true","","","","848.6000000014901","true","5","","","","","","","","","","","","","","","","",""
"","","","","","html-keyboard-response","155","994938","0.0-3.0-5.0-0.5","5ab7c19e1667e40001d7cd93","A3","batch1","pattern_show_trial_num","null","<p class=block-text>Trial 6 out of 78</p>","null","","","","","","","","","","","","","","","","","","","","","","","","","",""
"","","","","","image-keyboard-response","156","995717","0.0-3.0-5.0-1.5","5ab7c19e1667e40001d7cd93","A3","batch1","pattern_response","774.3000000044703","stim/yes_26_dia_w2_w.png","f","pattern_50","f","true","","","","774.3000000044703","true","6","","","","","","","","","","","","","","","","",""
"","","","","","html-keyboard-response","157","997022","0.0-3.0-5.0-0.6","5ab7c19e1667e40001d7cd93","A3","batch1","pattern_show_trial_num","null","<p class=block-text>Trial 7 out of 78</p>","null","","","","","","","","","","","","","","","","","","","","","","","","","",""
"","","","","","image-keyboard-response","158","998365","0.0-3.0-5.0-1.6","5ab7c19e1667e40001d7cd93","A3","batch1","pattern_response","1338.6000000014901","stim/yes_23_ver_b1.png","f","pattern_48","f","true","","","","1338.6000000014901","true","7","","","","","","","","","","","","","","","","",""
"","","","","","html-keyboard-response","159","999698","0.0-3.0-5.0-0.7","5ab7c19e1667e40001d7cd93","A3","batch1","pattern_show_trial_num","null","<p class=block-text>Trial 8 out of 78</p>","null","","","","","","","","","","","","","","","","","","","","","","","","","",""
"","","","","","image-keyboard-response","160","1003135","0.0-3.0-5.0-1.7","5ab7c19e1667e40001d7cd93","A3","batch1","pattern_response","3433.10000000149","stim/yes_58_dia_w1_w.png","j","pattern_76","f","false","","","","3433.10000000149","false","7","","","","","","","","","","","","","","","","",""
"","","","","","html-keyboard-response","161","1004462","0.0-3.0-5.0-0.8","5ab7c19e1667e40001d7cd93","A3","batch1","pattern_show_trial_num","null","<p class=block-text>Trial 9 out of 78</p>","null","","","","","","","","","","","","","","","","","","","","","","","","","",""
"","","","","","image-keyboard-response","162","1005552","0.0-3.0-5.0-1.8","5ab7c19e1667e40001d7cd93","A3","batch1","pattern_response","1084.5","stim/yes_30_ver_b1_b.png","f","pattern_54","f","true","","","","1084.5","true","8","","","","","","","","","","","","","","","","",""
"","","","","","html-keyboard-response","163","1006864","0.0-3.0-5.0-0.9","5ab7c19e1667e40001d7cd93","A3","batch1","pattern_show_trial_num","null","<p class=block-text>Trial 10 out of 78</p>","null","","","","","","","","","","","","","","","","","","","","","","","","","",""
"","","","","","image-keyboard-response","164","1011279","0.0-3.0-5.0-1.9","5ab7c19e1667e40001d7cd93","A3","batch1","pattern_response","4410.19999999553","stim/no_58_1_w.png","j","pattern_35","j","true","","","","4410.19999999553","true","9","","","","","","","","","","","","","","","","",""
"","","","","","html-keyboard-response","165","1012590","0.0-3.0-5.0-0.10","5ab7c19e1667e40001d7cd93","A3","batch1","pattern_show_trial_num","null","<p class=block-text>Trial 11 out of 78</p>","null","","","","","","","","","","","","","","","","","","","","","","","","","",""
"","","","","","image-keyboard-response","166","1014552","0.0-3.0-5.0-1.10","5ab7c19e1667e40001d7cd93","A3","batch1","pattern_response","1955.5","stim/no_25_1_b.png","j","pattern_09","j","true","","","","1955.5","true","10","","","","","","","","","","","","","","","","",""
"","","","","","html-keyboard-response","167","1015869","0.0-3.0-5.0-0.11","5ab7c19e1667e40001d7cd93","A3","batch1","pattern_show_trial_num","null","<p class=block-text>Trial 12 out of 78</p>","null","","","","","","","","","","","","","","","","","","","","","","","","","",""
"","","","","","image-keyboard-response","168","1017054","0.0-3.0-5.0-1.11","5ab7c19e1667e40001d7cd93","A3","batch1","pattern_response","1180.1000000014901","stim/yes_46_ver_b1_b.png","f","pattern_68","f","true","","","","1180.1000000014901","true","11","","","","","","","","","","","","","","","","",""
"","","","","","html-keyboard-response","169","1018372","0.0-3.0-5.0-0.12","5ab7c19e1667e40001d7cd93","A3","batch1","pattern_show_trial_num","null","<p class=block-text>Trial 13 out of 78</p>","null","","","","","","","","","","","","","","","","","","","","","","","","","",""
"","","","","","image-keyboard-response","170","1019494","0.0-3.0-5.0-1.12","5ab7c19e1667e40001d7cd93","A3","batch1","pattern_response","1116.9000000059605","stim/yes_33_dia_w1_w.png","f","pattern_56","f","true","","","","1116.9000000059605","true","12","","","","","","","","","","","","","","","","",""
"","","","","","html-keyboard-response","171","1020812","0.0-3.0-5.0-0.13","5ab7c19e1667e40001d7cd93","A3","batch1","pattern_show_trial_num","null","<p class=block-text>Trial 14 out of 78</p>","null","","","","","","","","","","","","","","","","","","","","","","","","","",""
"","","","","","image-keyboard-response","172","1024726","0.0-3.0-5.0-1.13","5ab7c19e1667e40001d7cd93","A3","batch1","pattern_response","3909.7999999970198","stim/yes_63_dia_b1.png","j","pattern_78","f","false","","","","3909.7999999970198","false","12","","","","","","","","","","","","","","","","",""
"","","","","","html-keyboard-response","173","1026043","0.0-3.0-5.0-0.14","5ab7c19e1667e40001d7cd93","A3","batch1","pattern_show_trial_num","null","<p class=block-text>Trial 15 out of 78</p>","null","","","","","","","","","","","","","","","","","","","","","","","","","",""
"","","","","","image-keyboard-response","174","1026774","0.0-3.0-5.0-1.14","5ab7c19e1667e40001d7cd93","A3","batch1","pattern_response","726.1999999955297","stim/yes_15_dia_b1u_b.png","f","pattern_44","f","true","","","","726.1999999955297","true","13","","","","","","","","","","","","","","","","",""
"","","","","","html-keyboard-response","175","1028085","0.0-3.0-5.0-0.15","5ab7c19e1667e40001d7cd93","A3","batch1","pattern_show_trial_num","null","<p class=block-text>Trial 16 out of 78</p>","null","","","","","","","","","","","","","","","","","","","","","","","","","",""
"","","","","","image-keyboard-response","176","1029200","0.0-3.0-5.0-1.15","5ab7c19e1667e40001d7cd93","A3","batch1","pattern_response","1110.8000000044703","stim/no_12_1.png","j","pattern_01","j","true","","","","1110.8000000044703","true","14","","","","","","","","","","","","","","","","",""
"","","","","","html-keyboard-response","177","1030505","0.0-3.0-5.0-0.16","5ab7c19e1667e40001d7cd93","A3","batch1","pattern_show_trial_num","null","<p class=block-text>Trial 17 out of 78</p>","null","","","","","","","","","","","","","","","","","","","","","","","","","",""
"","","","","","image-keyboard-response","178","1033591","0.0-3.0-5.0-1.16","5ab7c19e1667e40001d7cd93","A3","batch1","pattern_response","3082.39999999851","stim/no_49_2_b.png","j","pattern_29","j","true","","","","3082.39999999851","true","15","","","","","","","","","","","","","","","","",""
"","","","","","html-keyboard-response","179","1034915","0.0-3.0-5.0-0.17","5ab7c19e1667e40001d7cd93","A3","batch1","pattern_show_trial_num","null","<p class=block-text>Trial 18 out of 78</p>","null","","","","","","","","","","","","","","","","","","","","","","","","","",""
"","","","","","image-keyboard-response","180","1036210","0.0-3.0-5.0-1.17","5ab7c19e1667e40001d7cd93","A3","batch1","pattern_response","1289.7999999970198","stim/no_18_1_b.png","j","pattern_05","j","true","","","","1289.7999999970198","true","16","","","","","","","","","","","","","","","","",""
"","","","","","html-keyboard-response","181","1037526","0.0-3.0-5.0-0.18","5ab7c19e1667e40001d7cd93","A3","batch1","pattern_show_trial_num","null","<p class=block-text>Trial 19 out of 78</p>","null","","","","","","","","","","","","","","","","","","","","","","","","","",""
"","","","","","image-keyboard-response","182","1040278","0.0-3.0-5.0-1.18","5ab7c19e1667e40001d7cd93","A3","batch1","pattern_response","2748","stim/no_47_1_b.png","j","pattern_27","j","true","","","","2748","true","17","","","","","","","","","","","","","","","","",""
"","","","","","html-keyboard-response","183","1041604","0.0-3.0-5.0-0.19","5ab7c19e1667e40001d7cd93","A3","batch1","pattern_show_trial_num","null","<p class=block-text>Trial 20 out of 78</p>","null","","","","","","","","","","","","","","","","","","","","","","","","","",""
"","","","","","image-keyboard-response","184","1043975","0.0-3.0-5.0-1.19","5ab7c19e1667e40001d7cd93","A3","batch1","pattern_response","2366","stim/no_39_1_w.png","j","pattern_21","j","true","","","","2366","true","18","","","","","","","","","","","","","","","","",""
"","","","","","html-keyboard-response","185","1045283","0.0-3.0-5.0-0.20","5ab7c19e1667e40001d7cd93","A3","batch1","pattern_show_trial_num","null","<p class=block-text>Trial 21 out of 78</p>","null","","","","","","","","","","","","","","","","","","","","","","","","","",""
"","","","","","image-keyboard-response","186","1048535","0.0-3.0-5.0-1.20","5ab7c19e1667e40001d7cd93","A3","batch1","pattern_response","3247.3000000044703","stim/yes_53_ver_b1_b.png","f","pattern_74","f","true","","","","3247.3000000044703","true","19","","","","","","","","","","","","","","","","",""
"","","","","","html-keyboard-response","187","1049846","0.0-3.0-5.0-0.21","5ab7c19e1667e40001d7cd93","A3","batch1","pattern_show_trial_num","null","<p class=block-text>Trial 22 out of 78</p>","null","","","","","","","","","","","","","","","","","","","","","","","","","",""
"","","","","","image-keyboard-response","188","1052072","0.0-3.0-5.0-1.21","5ab7c19e1667e40001d7cd93","A3","batch1","pattern_response","2219.10000000149","stim/yes_49_hor_w1_b.png","f","pattern_70","f","true","","","","2219.10000000149","true","20","","","","","","","","","","","","","","","","",""
"","","","","","html-keyboard-response","189","1053401","0.0-3.0-5.0-0.22","5ab7c19e1667e40001d7cd93","A3","batch1","pattern_show_trial_num","null","<p class=block-text>Trial 23 out of 78</p>","null","","","","","","","","","","","","","","","","","","","","","","","","","",""
"","","","","","image-keyboard-response","190","1055815","0.0-3.0-5.0-1.22","5ab7c19e1667e40001d7cd93","A3","batch1","pattern_response","2410.5","stim/no_45_1_w.png","j","pattern_25","j","true","","","","2410.5","true","21","","","","","","","","","","","","","","","","",""
"","","","","","html-keyboard-response","191","1057134","0.0-3.0-5.0-0.23","5ab7c19e1667e40001d7cd93","A3","batch1","pattern_show_trial_num","null","<p class=block-text>Trial 24 out of 78</p>","null","","","","","","","","","","","","","","","","","","","","","","","","","",""
"","","","","","image-keyboard-response","192","1059359","0.0-3.0-5.0-1.23","5ab7c19e1667e40001d7cd93","A3","batch1","pattern_response","2220.89999999851","stim/yes_42_dia_w1_w.png","f","pattern_64","f","true","","","","2220.89999999851","true","22","","","","","","","","","","","","","","","","",""
"","","","","","html-keyboard-response","193","1060671","0.0-3.0-5.0-0.24","5ab7c19e1667e40001d7cd93","A3","batch1","pattern_show_trial_num","null","<p class=block-text>Trial 25 out of 78</p>","null","","","","","","","","","","","","","","","","","","","","","","","","","",""
"","","","","","image-keyboard-response","194","1062192","0.0-3.0-5.0-1.24","5ab7c19e1667e40001d7cd93","A3","batch1","pattern_response","1516.3999999985099","stim/yes_51_dia_b1.png","f","pattern_72","f","true","","","","1516.3999999985099","true","23","","","","","","","","","","","","","","","","",""
"","","","","","html-keyboard-response","195","1063513","0.0-3.0-5.0-0.25","5ab7c19e1667e40001d7cd93","A3","batch1","pattern_show_trial_num","null","<p class=block-text>Trial 26 out of 78</p>","null","","","","","","","","","","","","","","","","","","","","","","","","","",""
"","","","","","image-keyboard-response","196","1064518","0.0-3.0-5.0-1.25","5ab7c19e1667e40001d7cd93","A3","batch1","pattern_response","1000.7000000029802","stim/yes_29_hor_b1_b.png","f","pattern_52","f","true","","","","1000.7000000029802","true","24","","","","","","","","","","","","","","","","",""
"","","","","","html-keyboard-response","197","1065845","0.0-3.0-5.0-0.26","5ab7c19e1667e40001d7cd93","A3","batch1","pattern_show_trial_num","null","<p class=block-text>Trial 27 out of 78</p>","null","","","","","","","","","","","","","","","","","","","","","","","","","",""
"","","","","","image-keyboard-response","198","1068143","0.0-3.0-5.0-1.26","5ab7c19e1667e40001d7cd93","A3","batch1","pattern_response","2293.7999999970198","stim/no_43_2_b.png","j","pattern_23","j","true","","","","2293.7999999970198","true","25","","","","","","","","","","","","","","","","",""
"","","","","","html-keyboard-response","199","1069462","0.0-3.0-5.0-0.27","5ab7c19e1667e40001d7cd93","A3","batch1","pattern_show_trial_num","null","<p class=block-text>Trial 28 out of 78</p>","null","","","","","","","","","","","","","","","","","","","","","","","","","",""
"","","","","","image-keyboard-response","200","1072240","0.0-3.0-5.0-1.27","5ab7c19e1667e40001d7cd93","A3","batch1","pattern_response","2773.89999999851","stim/no_36_1_b.png","j","pattern_17","j","true","","","","2773.89999999851","true","26","","","","","","","","","","","","","","","","",""
"","","","","","html-keyboard-response","201","1073565","0.0-3.0-5.0-0.28","5ab7c19e1667e40001d7cd93","A3","batch1","pattern_show_trial_num","null","<p class=block-text>Trial 29 out of 78</p>","null","","","","","","","","","","","","","","","","","","","","","","","","","",""
"","","","","","image-keyboard-response","202","1076342","0.0-3.0-5.0-1.28","5ab7c19e1667e40001d7cd93","A3","batch1","pattern_response","2771.5","stim/no_53_1_b.png","j","pattern_33","j","true","","","","2771.5","true","27","","","","","","","","","","","","","","","","",""
"","","","","","html-keyboard-response","203","1077685","0.0-3.0-5.0-0.29","5ab7c19e1667e40001d7cd93","A3","batch1","pattern_show_trial_num","null","<p class=block-text>Trial 30 out of 78</p>","null","","","","","","","","","","","","","","","","","","","","","","","","","",""
"","","","","","image-keyboard-response","204","1079679","0.0-3.0-5.0-1.29","5ab7c19e1667e40001d7cd93","A3","batch1","pattern_response","1989.8999999985099","stim/no_33_1_b.png","j","pattern_15","j","true","","","","1989.8999999985099","true","28","","","","","","","","","","","","","","","","",""
"","","","","","html-keyboard-response","205","1081001","0.0-3.0-5.0-0.30","5ab7c19e1667e40001d7cd93","A3","batch1","pattern_show_trial_num","null","<p class=block-text>Trial 31 out of 78</p>","null","","","","","","","","","","","","","","","","","","","","","","","","","",""
"","","","","","image-keyboard-response","206","1081852","0.0-3.0-5.0-1.30","5ab7c19e1667e40001d7cd93","A3","batch1","pattern_response","846.1999999955297","stim/yes_17_ver_b1_b.png","f","pattern_46","f","true","","","","846.1999999955297","true","29","","","","","","","","","","","","","","","","",""
"","","","","","html-keyboard-response","207","1083168","0.0-3.0-5.0-0.31","5ab7c19e1667e40001d7cd93","A3","batch1","pattern_show_trial_num","null","<p class=block-text>Trial 32 out of 78</p>","null","","","","","","","","","","","","","","","","","","","","","","","","","",""
"","","","","","image-keyboard-response","208","1086470","0.0-3.0-5.0-1.31","5ab7c19e1667e40001d7cd93","A3","batch1","pattern_response","3297.5","stim/no_37_2_w.png","j","pattern_19","j","true","","","","3297.5","true","30","","","","","","","","","","","","","","","","",""
"","","","","","html-keyboard-response","209","1087796","0.0-3.0-5.0-0.32","5ab7c19e1667e40001d7cd93","A3","batch1","pattern_show_trial_num","null","<p class=block-text>Trial 33 out of 78</p>","null","","","","","","","","","","","","","","","","","","","","","","","","","",""
"","","","","","image-keyboard-response","210","1089471","0.0-3.0-5.0-1.32","5ab7c19e1667e40001d7cd93","A3","batch1","pattern_response","1670.2000000029802","stim/no_30_1_b.png","j","pattern_13","j","true","","","","1670.2000000029802","true","31","","","","","","","","","","","","","","","","",""
"","","","","","html-keyboard-response","211","1090785","0.0-3.0-5.0-0.33","5ab7c19e1667e40001d7cd93","A3","batch1","pattern_show_trial_num","null","<p class=block-text>Trial 34 out of 78</p>","null","","","","","","","","","","","","","","","","","","","","","","","","","",""
"","","","","","image-keyboard-response","212","1091663","0.0-3.0-5.0-1.33","5ab7c19e1667e40001d7cd93","A3","batch1","pattern_response","873.5","stim/yes_36_ver_w1_w.png","f","pattern_58","f","true","","","","873.5","true","32","","","","","","","","","","","","","","","","",""
"","","","","","html-keyboard-response","213","1092973","0.0-3.0-5.0-0.34","5ab7c19e1667e40001d7cd93","A3","batch1","pattern_show_trial_num","null","<p class=block-text>Trial 35 out of 78</p>","null","","","","","","","","","","","","","","","","","","","","","","","","","",""
"","","","","","image-keyboard-response","214","1095215","0.0-3.0-5.0-1.34","5ab7c19e1667e40001d7cd93","A3","batch1","pattern_response","2238.5","stim/yes_44_ver_w1_w.png","j","pattern_66","f","false","","","","2238.5","false","32","","","","","","","","","","","","","","","","",""
"","","","","","html-keyboard-response","215","1096544","0.0-3.0-5.0-0.35","5ab7c19e1667e40001d7cd93","A3","batch1","pattern_show_trial_num","null","<p class=block-text>Trial 36 out of 78</p>","null","","","","","","","","","","","","","","","","","","","","","","","","","",""
"","","","","","image-keyboard-response","216","1099198","0.0-3.0-5.0-1.35","5ab7c19e1667e40001d7cd93","A3","batch1","pattern_response","2647.60000000149","stim/no_51_1.png","j","pattern_31","j","true","","","","2647.60000000149","true","33","","","","","","","","","","","","","","","","",""
"","","","","","html-keyboard-response","217","1100514","0.0-3.0-5.0-0.36","5ab7c19e1667e40001d7cd93","A3","batch1","pattern_show_trial_num","null","<p class=block-text>Trial 37 out of 78</p>","null","","","","","","","","","","","","","","","","","","","","","","","","","",""
"","","","","","image-keyboard-response","218","1101278","0.0-3.0-5.0-1.36","5ab7c19e1667e40001d7cd93","A3","batch1","pattern_response","758.3999999985099","stim/yes_37_hor_w1_w.png","f","pattern_60","f","true","","","","758.3999999985099","true","34","","","","","","","","","","","","","","","","",""
"","","","","","html-keyboard-response","219","1102597","0.0-3.0-5.0-0.37","5ab7c19e1667e40001d7cd93","A3","batch1","pattern_show_trial_num","null","<p class=block-text>Trial 38 out of 78</p>","null","","","","","","","","","","","","","","","","","","","","","","","","","",""
"","","","","","image-keyboard-response","220","1104070","0.0-3.0-5.0-1.37","5ab7c19e1667e40001d7cd93","A3","batch1","pattern_response","1468.7999999970198","stim/no_28_2.png","j","pattern_11","j","true","","","","1468.7999999970198","true","35","","","","","","","","","","","","","","","","",""
"","","","","","html-keyboard-response","221","1105386","0.0-3.0-5.0-0.38","5ab7c19e1667e40001d7cd93","A3","batch1","pattern_show_trial_num","null","<p class=block-text>Trial 39 out of 78</p>","null","","","","","","","","","","","","","","","","","","","","","","","","","",""
"","","","","","image-keyboard-response","222","1106223","0.0-3.0-5.0-1.38","5ab7c19e1667e40001d7cd93","A3","batch1","pattern_response","833.9000000059605","stim/yes_70_ver_b1.png","f","pattern_80","f","true","","","","833.9000000059605","true","36","","","","","","","","","","","","","","","","",""
"","","","","","image-keyboard-response","223","1108341","0.0-3.0-6.0","5ab7c19e1667e40001d7cd93","A3","batch1","attention_check","1608.5","stim/empty_board.png","j","","j","true","","","","","","","500","[""f"",""j""]","","","","","","","","","","","","","","",""
"","","","","","html-keyboard-response","224","1109152","0.0-3.0-7.0-0.0","5ab7c19e1667e40001d7cd93","A3","batch1","pattern_show_trial_num","null","<p class=block-text>Trial 40 out of 78</p>","null","","","","","","","","","","","","","","","","","","","","","","","","","",""
"","","","","","image-keyboard-response","225","1112176","0.0-3.0-7.0-1.0","5ab7c19e1667e40001d7cd93","A3","batch1","pattern_response","3018.7999999970198","stim/yes_48_dia_w1_w.png","j","pattern_69","f","false","","","","3018.7999999970198","false","36","","","","","","","","","","","","","","","","",""
"","","","","","html-keyboard-response","226","1113500","0.0-3.0-7.0-0.1","5ab7c19e1667e40001d7cd93","A3","batch1","pattern_show_trial_num","null","<p class=block-text>Trial 41 out of 78</p>","null","","","","","","","","","","","","","","","","","","","","","","","","","",""
"","","","","","image-keyboard-response","227","1116769","0.0-3.0-7.0-1.1","5ab7c19e1667e40001d7cd93","A3","batch1","pattern_response","3264.8000000044703","stim/no_65_1_b.png","f","pattern_38","j","false","","","","3264.8000000044703","false","36","","","","","","","","","","","","","","","","",""
"","","","","","html-keyboard-response","228","1118091","0.0-3.0-7.0-0.2","5ab7c19e1667e40001d7cd93","A3","batch1","pattern_show_trial_num","null","<p class=block-text>Trial 42 out of 78</p>","null","","","","","","","","","","","","","","","","","","","","","","","","","",""
"","","","","","image-keyboard-response","229","1119572","0.0-3.0-7.0-1.2","5ab7c19e1667e40001d7cd93","A3","batch1","pattern_response","1475.3999999985099","stim/yes_38_hor_b1_b.png","f","pattern_61","f","true","","","","1475.3999999985099","true","37","","","","","","","","","","","","","","","","",""
"","","","","","html-keyboard-response","230","1120894","0.0-3.0-7.0-0.3","5ab7c19e1667e40001d7cd93","A3","batch1","pattern_show_trial_num","null","<p class=block-text>Trial 43 out of 78</p>","null","","","","","","","","","","","","","","","","","","","","","","","","","",""
"","","","","","image-keyboard-response","231","1122136","0.0-3.0-7.0-1.3","5ab7c19e1667e40001d7cd93","A3","batch1","pattern_response","1238.2000000029802","stim/no_26_1_w.png","j","pattern_10","j","true","","","","1238.2000000029802","true","38","","","","","","","","","","","","","","","","",""
"","","","","","html-keyboard-response","232","1123445","0.0-3.0-7.0-0.4","5ab7c19e1667e40001d7cd93","A3","batch1","pattern_show_trial_num","null","<p class=block-text>Trial 44 out of 78</p>","null","","","","","","","","","","","","","","","","","","","","","","","","","",""
"","","","","","image-keyboard-response","233","1124784","0.0-3.0-7.0-1.4","5ab7c19e1667e40001d7cd93","A3","batch1","pattern_response","1335.3999999985099","stim/no_17_1_w.png","j","pattern_04","j","true","","","","1335.3999999985099","true","39","","","","","","","","","","","","","","","","",""
"","","","","","html-keyboard-response","234","1126099","0.0-3.0-7.0-0.5","5ab7c19e1667e40001d7cd93","A3","batch1","pattern_show_trial_num","null","<p class=block-text>Trial 45 out of 78</p>","null","","","","","","","","","","","","","","","","","","","","","","","","","",""
"","","","","","image-keyboard-response","235","1126868","0.0-3.0-7.0-1.5","5ab7c19e1667e40001d7cd93","A3","batch1","pattern_response","764.2999999970198","stim/yes_14_hor_b1_w.png","f","pattern_43","f","true","","","","764.2999999970198","true","40","","","","","","","","","","","","","","","","",""
"","","","","","html-keyboard-response","236","1128180","0.0-3.0-7.0-0.6","5ab7c19e1667e40001d7cd93","A3","batch1","pattern_show_trial_num","null","<p class=block-text>Trial 46 out of 78</p>","null","","","","","","","","","","","","","","","","","","","","","","","","","",""
"","","","","","image-keyboard-response","237","1128964","0.0-3.0-7.0-1.6","5ab7c19e1667e40001d7cd93","A3","batch1","pattern_response","778.7000000029802","stim/yes_17_dia_w1.png","f","pattern_45","f","true","","","","778.7000000029802","true","41","","","","","","","","","","","","","","","","",""
"","","","","","html-keyboard-response","238","1130270","0.0-3.0-7.0-0.7","5ab7c19e1667e40001d7cd93","A3","batch1","pattern_show_trial_num","null","<p class=block-text>Trial 47 out of 78</p>","null","","","","","","","","","","","","","","","","","","","","","","","","","",""
"","","","","","image-keyboard-response","239","1133844","0.0-3.0-7.0-1.7","5ab7c19e1667e40001d7cd93","A3","batch1","pattern_response","3570.8000000044703","stim/no_52_1.png","j","pattern_32","j","true","","","","3570.8000000044703","true","42","","","","","","","","","","","","","","","","",""
"","","","","","html-keyboard-response","240","1135163","0.0-3.0-7.0-0.8","5ab7c19e1667e40001d7cd93","A3","batch1","pattern_show_trial_num","null","<p class=block-text>Trial 48 out of 78</p>","null","","","","","","","","","","","","","","","","","","","","","","","","","",""
"","","","","","image-keyboard-response","241","1136088","0.0-3.0-7.0-1.8","5ab7c19e1667e40001d7cd93","A3","batch1","pattern_response","919.5","stim/yes_43_ver_w1_w.png","f","pattern_65","f","true","","","","919.5","true","43","","","","","","","","","","","","","","","","",""
"","","","","","html-keyboard-response","242","1137409","0.0-3.0-7.0-0.9","5ab7c19e1667e40001d7cd93","A3","batch1","pattern_show_trial_num","null","<p class=block-text>Trial 49 out of 78</p>","null","","","","","","","","","","","","","","","","","","","","","","","","","",""
"","","","","","image-keyboard-response","243","1139621","0.0-3.0-7.0-1.9","5ab7c19e1667e40001d7cd93","A3","batch1","pattern_response","2208.39999999851","stim/no_42_1_w.png","j","pattern_22","j","true","","","","2208.39999999851","true","44","","","","","","","","","","","","","","","","",""
"","","","","","html-keyboard-response","244","1140926","0.0-3.0-7.0-0.10","5ab7c19e1667e40001d7cd93","A3","batch1","pattern_show_trial_num","null","<p class=block-text>Trial 50 out of 78</p>","null","","","","","","","","","","","","","","","","","","","","","","","","","",""
"","","","","","image-keyboard-response","245","1142054","0.0-3.0-7.0-1.10","5ab7c19e1667e40001d7cd93","A3","batch1","pattern_response","1122.9000000059605","stim/yes_40_dia_b1_b.png","f","pattern_63","f","true","","","","1122.9000000059605","true","45","","","","","","","","","","","","","","","","",""
"","","","","","html-keyboard-response","246","1143377","0.0-3.0-7.0-0.11","5ab7c19e1667e40001d7cd93","A3","batch1","pattern_show_trial_num","null","<p class=block-text>Trial 51 out of 78</p>","null","","","","","","","","","","","","","","","","","","","","","","","","","",""
"","","","","","image-keyboard-response","247","1146927","0.0-3.0-7.0-1.11","5ab7c19e1667e40001d7cd93","A3","batch1","pattern_response","3544.60000000149","stim/no_46_1_b.png","j","pattern_26","j","true","","","","3544.60000000149","true","46","","","","","","","","","","","","","","","","",""
"","","","","","html-keyboard-response","248","1148244","0.0-3.0-7.0-0.12","5ab7c19e1667e40001d7cd93","A3","batch1","pattern_show_trial_num","null","<p class=block-text>Trial 52 out of 78</p>","null","","","","","","","","","","","","","","","","","","","","","","","","","",""
"","","","","","image-keyboard-response","249","1149614","0.0-3.0-7.0-1.12","5ab7c19e1667e40001d7cd93","A3","batch1","pattern_response","1365","stim/yes_67_hor_b1.png","f","pattern_79","f","true","","","","1365","true","47","","","","","","","","","","","","","","","","",""
"","","","","","html-keyboard-response","250","1150938","0.0-3.0-7.0-0.13","5ab7c19e1667e40001d7cd93","A3","batch1","pattern_show_trial_num","null","<p class=block-text>Trial 53 out of 78</p>","null","","","","","","","","","","","","","","","","","","","","","","","","","",""
"","","","","","image-keyboard-response","251","1151694","0.0-3.0-7.0-1.13","5ab7c19e1667e40001d7cd93","A3","batch1","pattern_response","752","stim/yes_22_ver_w1.png","f","pattern_47","f","true","","","","752","true","48","","","","","","","","","","","","","","","","",""
"","","","","","html-keyboard-response","252","1152999","0.0-3.0-7.0-0.14","5ab7c19e1667e40001d7cd93","A3","batch1","pattern_show_trial_num","null","<p class=block-text>Trial 54 out of 78</p>","null","","","","","","","","","","","","","","","","","","","","","","","","","",""
"","","","","","image-keyboard-response","253","1156161","0.0-3.0-7.0-1.14","5ab7c19e1667e40001d7cd93","A3","batch1","pattern_response","3155.2999999970198","stim/yes_60_ver_b1_b.png","f","pattern_77","f","true","","","","3155.2999999970198","true","49","","","","","","","","","","","","","","","","",""
"","","","","","html-keyboard-response","254","1157483","0.0-3.0-7.0-0.15","5ab7c19e1667e40001d7cd93","A3","batch1","pattern_show_trial_num","null","<p class=block-text>Trial 55 out of 78</p>","null","","","","","","","","","","","","","","","","","","","","","","","","","",""
"","","","","","image-keyboard-response","255","1158805","0.0-3.0-7.0-1.15","5ab7c19e1667e40001d7cd93","A3","batch1","pattern_response","1316.3000000044703","stim/yes_31_hor_b1.png","f","pattern_55","f","true","","","","1316.3000000044703","true","50","","","","","","","","","","","","","","","","",""
"","","","","","html-keyboard-response","256","1160116","0.0-3.0-7.0-0.16","5ab7c19e1667e40001d7cd93","A3","batch1","pattern_show_trial_num","null","<p class=block-text>Trial 56 out of 78</p>","null","","","","","","","","","","","","","","","","","","","","","","","","","",""
"","","","","","image-keyboard-response","257","1160916","0.0-3.0-7.0-1.16","5ab7c19e1667e40001d7cd93","A3","batch1","pattern_response","793.3999999985099","stim/yes_25_hor_b1_b.png","f","pattern_49","f","true","","","","793.3999999985099","true","51","","","","","","","","","","","","","","","","",""
"","","","","","html-keyboard-response","258","1162224","0.0-3.0-7.0-0.17","5ab7c19e1667e40001d7cd93","A3","batch1","pattern_show_trial_num","null","<p class=block-text>Trial 57 out of 78</p>","null","","","","","","","","","","","","","","","","","","","","","","","","","",""
"","","","","","image-keyboard-response","259","1165028","0.0-3.0-7.0-1.17","5ab7c19e1667e40001d7cd93","A3","batch1","pattern_response","2799.39999999851","stim/no_34_1_b.png","j","pattern_16","j","true","","","","2799.39999999851","true","52","","","","","","","","","","","","","","","","",""
"","","","","","html-keyboard-response","260","1166353","0.0-3.0-7.0-0.18","5ab7c19e1667e40001d7cd93","A3","batch1","pattern_show_trial_num","null","<p class=block-text>Trial 58 out of 78</p>","null","","","","","","","","","","","","","","","","","","","","","","","","","",""
"","","","","","image-keyboard-response","261","1169182","0.0-3.0-7.0-1.18","5ab7c19e1667e40001d7cd93","A3","batch1","pattern_response","2824.10000000149","stim/no_38_1_b.png","j","pattern_20","j","true","","","","2824.10000000149","true","53","","","","","","","","","","","","","","","","",""
"","","","","","html-keyboard-response","262","1170510","0.0-3.0-7.0-0.19","5ab7c19e1667e40001d7cd93","A3","batch1","pattern_show_trial_num","null","<p class=block-text>Trial 59 out of 78</p>","null","","","","","","","","","","","","","","","","","","","","","","","","","",""
"","","","","","image-keyboard-response","263","1173095","0.0-3.0-7.0-1.19","5ab7c19e1667e40001d7cd93","A3","batch1","pattern_response","2581.10000000149","stim/no_36_2_w.png","j","pattern_18","j","true","","","","2581.10000000149","true","54","","","","","","","","","","","","","","","","",""
"","","","","","html-keyboard-response","264","1174423","0.0-3.0-7.0-0.20","5ab7c19e1667e40001d7cd93","A3","batch1","pattern_show_trial_num","null","<p class=block-text>Trial 60 out of 78</p>","null","","","","","","","","","","","","","","","","","","","","","","","","","",""
"","","","","","image-keyboard-response","265","1175960","0.0-3.0-7.0-1.20","5ab7c19e1667e40001d7cd93","A3","batch1","pattern_response","1532.6999999955297","stim/yes_29_ver_w1.png","f","pattern_53","f","true","","","","1532.6999999955297","true","55","","","","","","","","","","","","","","","","",""
"","","","","","html-keyboard-response","266","1177272","0.0-3.0-7.0-0.21","5ab7c19e1667e40001d7cd93","A3","batch1","pattern_show_trial_num","null","<p class=block-text>Trial 61 out of 78</p>","null","","","","","","","","","","","","","","","","","","","","","","","","","",""
"","","","","","image-keyboard-response","267","1178047","0.0-3.0-7.0-1.21","5ab7c19e1667e40001d7cd93","A3","batch1","pattern_response","771.6000000014901","stim/no_13_2_b.png","j","pattern_02","j","true","","","","771.6000000014901","true","56","","","","","","","","","","","","","","","","",""
"","","","","","html-keyboard-response","268","1179379","0.0-3.0-7.0-0.22","5ab7c19e1667e40001d7cd93","A3","batch1","pattern_show_trial_num","null","<p class=block-text>Trial 62 out of 78</p>","null","","","","","","","","","","","","","","","","","","","","","","","","","",""
"","","","","","image-keyboard-response","269","1180409","0.0-3.0-7.0-1.22","5ab7c19e1667e40001d7cd93","A3","batch1","pattern_response","1025.1000000014901","stim/yes_45_hor_b2_b.png","f","pattern_67","f","true","","","","1025.1000000014901","true","57","","","","","","","","","","","","","","","","",""
"","","","","","html-keyboard-response","270","1181726","0.0-3.0-7.0-0.23","5ab7c19e1667e40001d7cd93","A3","batch1","pattern_show_trial_num","null","<p class=block-text>Trial 63 out of 78</p>","null","","","","","","","","","","","","","","","","","","","","","","","","","",""
"","","","","","image-keyboard-response","271","1183615","0.0-3.0-7.0-1.23","5ab7c19e1667e40001d7cd93","A3","batch1","pattern_response","1884.8000000044703","stim/yes_37_dia_w1.png","f","pattern_59","f","true","","","","1884.8000000044703","true","58","","","","","","","","","","","","","","","","",""
"","","","","","html-keyboard-response","272","1184938","0.0-3.0-7.0-0.24","5ab7c19e1667e40001d7cd93","A3","batch1","pattern_show_trial_num","null","<p class=block-text>Trial 64 out of 78</p>","null","","","","","","","","","","","","","","","","","","","","","","","","","",""
"","","","","","image-keyboard-response","273","1185748","0.0-3.0-7.0-1.24","5ab7c19e1667e40001d7cd93","A3","batch1","pattern_response","806.2000000029802","stim/yes_35_dia_b1.png","f","pattern_57","f","true","","","","806.2000000029802","true","59","","","","","","","","","","","","","","","","",""
"","","","","","html-keyboard-response","274","1187058","0.0-3.0-7.0-0.25","5ab7c19e1667e40001d7cd93","A3","batch1","pattern_show_trial_num","null","<p class=block-text>Trial 65 out of 78</p>","null","","","","","","","","","","","","","","","","","","","","","","","","","",""
"","","","","","image-keyboard-response","275","1190540","0.0-3.0-7.0-1.25","5ab7c19e1667e40001d7cd93","A3","batch1","pattern_response","3479.2999999970198","stim/no_32_1_w.png","j","pattern_14","j","true","","","","3479.2999999970198","true","60","","","","","","","","","","","","","","","","",""
"","","","","","html-keyboard-response","276","1191855","0.0-3.0-7.0-0.26","5ab7c19e1667e40001d7cd93","A3","batch1","pattern_show_trial_num","null","<p class=block-text>Trial 66 out of 78</p>","null","","","","","","","","","","","","","","","","","","","","","","","","","",""
"","","","","","image-keyboard-response","277","1192646","0.0-3.0-7.0-1.26","5ab7c19e1667e40001d7cd93","A3","batch1","pattern_response","784.7999999970198","stim/yes_28_ver_b1.png","f","pattern_51","f","true","","","","784.7999999970198","true","61","","","","","","","","","","","","","","","","",""
"","","","","","html-keyboard-response","278","1193963","0.0-3.0-7.0-0.27","5ab7c19e1667e40001d7cd93","A3","batch1","pattern_show_trial_num","null","<p class=block-text>Trial 67 out of 78</p>","null","","","","","","","","","","","","","","","","","","","","","","","","","",""
"","","","","","image-keyboard-response","279","1196014","0.0-3.0-7.0-1.27","5ab7c19e1667e40001d7cd93","A3","batch1","pattern_response","2046.7000000029802","stim/no_29_1_b.png","j","pattern_12","j","true","","","","2046.7000000029802","true","62","","","","","","","","","","","","","","","","",""
"","","","","","html-keyboard-response","280","1197334","0.0-3.0-7.0-0.28","5ab7c19e1667e40001d7cd93","A3","batch1","pattern_show_trial_num","null","<p class=block-text>Trial 68 out of 78</p>","null","","","","","","","","","","","","","","","","","","","","","","","","","",""
"","","","","","image-keyboard-response","281","1198943","0.0-3.0-7.0-1.28","5ab7c19e1667e40001d7cd93","A3","batch1","pattern_response","1604.3999999985099","stim/yes_55_hor_w1_w.png","f","pattern_75","f","true","","","","1604.3999999985099","true","63","","","","","","","","","","","","","","","","",""
"","","","","","html-keyboard-response","282","1200270","0.0-3.0-7.0-0.29","5ab7c19e1667e40001d7cd93","A3","batch1","pattern_show_trial_num","null","<p class=block-text>Trial 69 out of 78</p>","null","","","","","","","","","","","","","","","","","","","","","","","","","",""
"","","","","","image-keyboard-response","283","1202648","0.0-3.0-7.0-1.29","5ab7c19e1667e40001d7cd93","A3","batch1","pattern_response","2374","stim/no_50_1.png","j","pattern_30","j","true","","","","2374","true","64","","","","","","","","","","","","","","","","",""
"","","","","","html-keyboard-response","284","1203965","0.0-3.0-7.0-0.30","5ab7c19e1667e40001d7cd93","A3","batch1","pattern_show_trial_num","null","<p class=block-text>Trial 70 out of 78</p>","null","","","","","","","","","","","","","","","","","","","","","","","","","",""
"","","","","","image-keyboard-response","285","1206006","0.0-3.0-7.0-1.30","5ab7c19e1667e40001d7cd93","A3","batch1","pattern_response","2035.5","stim/no_44_1.png","j","pattern_24","j","true","","","","2035.5","true","65","","","","","","","","","","","","","","","","",""
"","","","","","html-keyboard-response","286","1207328","0.0-3.0-7.0-0.31","5ab7c19e1667e40001d7cd93","A3","batch1","pattern_show_trial_num","null","<p class=block-text>Trial 71 out of 78</p>","null","","","","","","","","","","","","","","","","","","","","","","","","","",""
"","","","","","image-keyboard-response","287","1208735","0.0-3.0-7.0-1.31","5ab7c19e1667e40001d7cd93","A3","batch1","pattern_response","1402.3999999985099","stim/no_23_1.png","j","pattern_08","j","true","","","","1402.3999999985099","true","66","","","","","","","","","","","","","","","","",""
"","","","","","html-keyboard-response","288","1210057","0.0-3.0-7.0-0.32","5ab7c19e1667e40001d7cd93","A3","batch1","pattern_show_trial_num","null","<p class=block-text>Trial 72 out of 78</p>","null","","","","","","","","","","","","","","","","","","","","","","","","","",""
"","","","","","image-keyboard-response","289","1211975","0.0-3.0-7.0-1.32","5ab7c19e1667e40001d7cd93","A3","batch1","pattern_response","1915.1000000014901","stim/no_55_1_w.png","j","pattern_34","j","true","","","","1915.1000000014901","true","67","","","","","","","","","","","","","","","","",""
"","","","","","html-keyboard-response","290","1213293","0.0-3.0-7.0-0.33","5ab7c19e1667e40001d7cd93","A3","batch1","pattern_show_trial_num","null","<p class=block-text>Trial 73 out of 78</p>","null","","","","","","","","","","","","","","","","","","","","","","","","","",""
"","","","","","image-keyboard-response","291","1215400","0.0-3.0-7.0-1.33","5ab7c19e1667e40001d7cd93","A3","batch1","pattern_response","2102.60000000149","stim/no_48_1_w.png","j","pattern_28","j","true","","","","2102.60000000149","true","68","","","","","","","","","","","","","","","","",""
"","","","","","html-keyboard-response","292","1216722","0.0-3.0-7.0-0.34","5ab7c19e1667e40001d7cd93","A3","batch1","pattern_show_trial_num","null","<p class=block-text>Trial 74 out of 78</p>","null","","","","","","","","","","","","","","","","","","","","","","","","","",""
"","","","","","image-keyboard-response","293","1217997","0.0-3.0-7.0-1.34","5ab7c19e1667e40001d7cd93","A3","batch1","pattern_response","1271.3999999985099","stim/yes_52_ver_w1.png","f","pattern_73","f","true","","","","1271.3999999985099","true","69","","","","","","","","","","","","","","","","",""
"","","","","","html-keyboard-response","294","1219308","0.0-3.0-7.0-0.35","5ab7c19e1667e40001d7cd93","A3","batch1","pattern_show_trial_num","null","<p class=block-text>Trial 75 out of 78</p>","null","","","","","","","","","","","","","","","","","","","","","","","","","",""
"","","","","","image-keyboard-response","295","1221767","0.0-3.0-7.0-1.35","5ab7c19e1667e40001d7cd93","A3","batch1","pattern_response","2454.7000000029802","stim/no_62_1_w.png","j","pattern_36","j","true","","","","2454.7000000029802","true","70","","","","","","","","","","","","","","","","",""
"","","","","","html-keyboard-response","296","1223091","0.0-3.0-7.0-0.36","5ab7c19e1667e40001d7cd93","A3","batch1","pattern_show_trial_num","null","<p class=block-text>Trial 76 out of 78</p>","null","","","","","","","","","","","","","","","","","","","","","","","","","",""
"","","","","","image-keyboard-response","297","1224519","0.0-3.0-7.0-1.36","5ab7c19e1667e40001d7cd93","A3","batch1","pattern_response","1423.5","stim/no_20_1_w.png","j","pattern_06","j","true","","","","1423.5","true","71","","","","","","","","","","","","","","","","",""
"","","","","","html-keyboard-response","298","1225835","0.0-3.0-7.0-0.37","5ab7c19e1667e40001d7cd93","A3","batch1","pattern_show_trial_num","null","<p class=block-text>Trial 77 out of 78</p>","null","","","","","","","","","","","","","","","","","","","","","","","","","",""
"","","","","","image-keyboard-response","299","1228696","0.0-3.0-7.0-1.37","5ab7c19e1667e40001d7cd93","A3","batch1","pattern_response","2855.7000000029802","stim/yes_50_dia_w1.png","j","pattern_71","f","false","","","","2855.7000000029802","false","71","","","","","","","","","","","","","","","","",""
"","","","","","html-keyboard-response","300","1230007","0.0-3.0-7.0-0.38","5ab7c19e1667e40001d7cd93","A3","batch1","pattern_show_trial_num","null","<p class=block-text>Trial 78 out of 78</p>","null","","","","","","","","","","","","","","","","","","","","","","","","","",""
"","","","","","image-keyboard-response","301","1231885","0.0-3.0-7.0-1.38","5ab7c19e1667e40001d7cd93","A3","batch1","pattern_response","1873.5","stim/no_70_2.png","f","pattern_40","j","false","","","","1873.5","false","71","","","","","","","","","","","","","","","","",""
"","","","","","html-button-response","302","1237001","0.0-3.0-8.0","5ab7c19e1667e40001d7cd93","A3","batch1","","4597.5","<p class = block-text>This concludes the 4-in-a-row detection game.Thank you for your responses!<br>
            You responded correctly on 91% of the trials.<br>
            When you are ready, press ""Continue"" button to continue </p>","0","","","","","","","","","","","","","","","","","","","","","","","","","",""
"true","","","","","fullscreen","303","1244298","0.0-4.0-0.0","5ab7c19e1667e40001d7cd93","A3","batch1","","","","","","","","","","","","","","","","","","","","","","","","","","","","","",""
"","","","","","instructions","304","1359353","0.0-4.0-1.0-0.0-0.0","5ab7c19e1667e40001d7cd93","A3","batch1","tol-instructions","115051.90000000596","","","","","","","","[{""page_index"":0,""viewing_time"":36332.10000000149},{""page_index"":1,""viewing_time"":34351.5},{""page_index"":2,""viewing_time"":2139.89999999851},{""page_index"":3,""viewing_time"":3964.3000000044703},{""page_index"":4,""viewing_time"":8434},{""page_index"":5,""viewing_time"":27677.5},{""page_index"":6,""viewing_time"":2152}]","","","","","","","","","","","","","","","","","","","",""
"","","","","","html-button-response","305","1360959","0.0-4.0-1.0-1.0-0.0","5ab7c19e1667e40001d7cd93","A3","batch1","tol_enter_quiz","1603.6000000014901","<p class=block-text> Let's answer a few questions <br>","0","","","","","","","","","","","","","","","","","","","","","","","","","",""
"","","","","","html-button-response","306","1366037","0.0-4.0-1.0-1.0-1.0","5ab7c19e1667e40001d7cd93","A3","batch1","tol_quiz","5075.20000000298","<p class = block-text>True or False: You can only move the ball on top of a peg. <br></p>","0","","","true","","","","","","","","","","","","","","","","","","","","","","",""
"","","","","","html-button-response","307","1367493","0.0-4.0-1.0-1.0-2.0","5ab7c19e1667e40001d7cd93","A3","batch1","tol_quiz_feedback","1452.2000000029802","<p class = block-text>Correct! You can only move the ball on top of a peg.</p>","0","","","","","","","","","","","","","","","","","","","","","","","","","",""
"","","","","","html-button-response","308","1369208","0.0-4.0-1.0-1.0-3.0","5ab7c19e1667e40001d7cd93","A3","batch1","tol_quiz","1710.1999999955297","<p class = block-text>True or False: You should try to match your board with the target board with fewest moves possible. <br></p>","0","","","true","","","","","","","","","","","","","","","","","","","","","","",""
"","","","","","html-button-response","309","1369819","0.0-4.0-1.0-1.0-4.0","5ab7c19e1667e40001d7cd93","A3","batch1","tol_quiz_feedback","608.5","<p class = block-text>Correct! </p>","0","","","","","","","","","","","","","","","","","","","","","","","","","",""
"","","","","","html-button-response","310","1371078","0.0-4.0-2.0","5ab7c19e1667e40001d7cd93","A3","batch1","","1256.1999999955297","<p class=block-text> Now that you've understood the game, let's practice a few easier examples before we start!<br> <br>","0","","","","","","","","","","","","","","","","","","","","","","","","","",""
"","","","","","single-stim-button","311","1373557","0.0-4.0-3.0-0.0","5ab7c19e1667e40001d7cd93","A3","batch1","tol_practice","2474","","","","","","","","","","","","","","tol_peg_2","2474","2474","0","[[1,2,0],[0,0],[0]]","1","[[1,2,0],[0,0],[3]]","practice","2474","","","","","",""
"","","","","","single-stim-button","312","1374579","0.0-4.0-3.0-1.0","5ab7c19e1667e40001d7cd93","A3","batch1","tol_practice","1021","","","","","","","","","","","","","","tol_peg_3","1021","1021","0","[[1,2,0],[0,0],[3]]","1","[[1,2,0],[0,0],[3]]","practice","1021","","","","","",""
"","","","","","poldrack-single-stim","313","1375584","0.0-4.0-4.0","5ab7c19e1667e40001d7cd93","A3","batch1","tol_feedback","-1","","","","","true","","","","","","","","","","1000","1000","500","","","","","","-1","none","true","","0",""
"","","","","","single-stim-button","314","1379194","0.0-4.0-5.0-0.0","5ab7c19e1667e40001d7cd93","A3","batch1","tol_practice","3608","","","","","","","","","","","","","","tol_peg_1","3608","3608","0","[[1,0,0],[3,0],[0]]","2","[[0,0,0],[3,1],[2]]","practice","3608","","","","","",""
"","","","","","single-stim-button","315","1380063","0.0-4.0-5.0-1.0","5ab7c19e1667e40001d7cd93","A3","batch1","tol_practice","868","","","","","","","","","","","","","","tol_peg_3","868","868","0","[[1,0,0],[3,0],[2]]","2","[[0,0,0],[3,1],[2]]","practice","868","","","","","",""
"","","","","","single-stim-button","316","1380822","0.0-4.0-5.1-0.1","5ab7c19e1667e40001d7cd93","A3","batch1","tol_practice","758","","","","","","","","","","","","","","tol_peg_1","758","758","0","[[0,0,0],[3,0],[2]]","3","[[0,0,0],[3,1],[2]]","practice","758","","","","","",""
"","","","","","single-stim-button","317","1381510","0.0-4.0-5.1-1.1","5ab7c19e1667e40001d7cd93","A3","batch1","tol_practice","686","","","","","","","","","","","","","","tol_peg_2","686","686","0","[[0,0,0],[3,1],[2]]","3","[[0,0,0],[3,1],[2]]","practice","686","","","","","",""
"","","","","","poldrack-single-stim","318","1382521","0.0-4.0-6.0","5ab7c19e1667e40001d7cd93","A3","batch1","tol_feedback","-1","","","","","true","","","","","","","","","","1000","1000","500","","","","","","-1","none","true","","0",""
"","","","","","single-stim-button","319","1384502","0.0-4.0-7.0-0.0","5ab7c19e1667e40001d7cd93","A3","batch1","tol_practice","1979","","","","","","","","","","","","","","tol_peg_2","1979","1979","0","[[1,2,0],[0,0],[0]]","4","[[1,0,0],[2,0],[3]]","practice","1979","","","","","",""
"","","","","","single-stim-button","320","1385606","0.0-4.0-7.0-1.0","5ab7c19e1667e40001d7cd93","A3","batch1","tol_practice","1102","","","","","","","","","","","","","","tol_peg_3","1102","1102","0","[[1,2,0],[0,0],[3]]","4","[[1,0,0],[2,0],[3]]","practice","1102","","","","","",""
"","","","","","single-stim-button","321","1386134","0.0-4.0-7.1-0.1","5ab7c19e1667e40001d7cd93","A3","batch1","tol_practice","527","","","","","","","","","","","","","","tol_peg_1","527","527","0","[[1,0,0],[0,0],[3]]","5","[[1,0,0],[2,0],[3]]","practice","527","","","","","",""
"","","","","","single-stim-button","322","1386704","0.0-4.0-7.1-1.1","5ab7c19e1667e40001d7cd93","A3","batch1","tol_practice","568","","","","","","","","","","","","","","tol_peg_2","568","568","0","[[1,0,0],[2,0],[3]]","5","[[1,0,0],[2,0],[3]]","practice","568","","","","","",""
"","","","","","poldrack-single-stim","323","1387705","0.0-4.0-8.0","5ab7c19e1667e40001d7cd93","A3","batch1","tol_feedback","-1","","","","","true","","","","","","","","","","1000","1000","500","","","","","","-1","none","true","","0",""
"","","","","","html-button-response","324","1392372","0.0-4.0-9.0","5ab7c19e1667e40001d7cd93","A3","batch1","tol_instruction","4664.79999999702","<div class = centerbox><p class = center-block-text>Great job! You are done with practice trials<br>You are about to start official trials.<br> <br> Problem <strong>1</strong> out of 25 problems</p></div>","0","","","","","","","","","","","","","","","","","","","","","","","","","",""
"","","","","","single-stim-button","325","1398381","0.0-4.0-10.0-0.0","5ab7c19e1667e40001d7cd93","A3","batch1","tol_tohand","5005","","","","","","","","","","","","","","tol_peg_1","5005","5005","0","[[1,0,0],[3,0],[0]]","1","[[1,3,0],[2,0],[0]]","0","0","","","","","","3"
"","","","","","single-stim-button","326","1399076","0.0-4.0-10.0-1.0","5ab7c19e1667e40001d7cd93","A3","batch1","tol_toboard","692","","","","","","","","","","","","","","tol_peg_3","692","692","0","[[1,0,0],[3,0],[2]]","1","[[1,3,0],[2,0],[0]]","0","0","","","","","","3"
"","","","","","single-stim-button","327","1399547","0.0-4.0-10.1-0.1","5ab7c19e1667e40001d7cd93","A3","batch1","tol_tohand","469","","","","","","","","","","","","","","tol_peg_2","469","469","0","[[1,0,0],[0,0],[2]]","2","[[1,3,0],[2,0],[0]]","0","0","","","","","","3"
"","","","","","single-stim-button","328","1400152","0.0-4.0-10.1-1.1","5ab7c19e1667e40001d7cd93","A3","batch1","tol_toboard","604","","","","","","","","","","","","","","tol_peg_1","604","604","0","[[1,3,0],[0,0],[2]]","2","[[1,3,0],[2,0],[0]]","0","0","","","","","","3"
"","","","","","single-stim-button","329","1400916","0.0-4.0-10.2-0.2","5ab7c19e1667e40001d7cd93","A3","batch1","tol_tohand","762","","","","","","","","","","","","","","tol_peg_3","762","762","0","[[1,3,0],[0,0],[0]]","3","[[1,3,0],[2,0],[0]]","0","0","","","","","","3"
"","","","","","single-stim-button","330","1401558","0.0-4.0-10.2-1.2","5ab7c19e1667e40001d7cd93","A3","batch1","tol_toboard","640","","","","","","","","","","","","","","tol_peg_2","640","640","0","[[1,3,0],[2,0],[0]]","3","[[1,3,0],[2,0],[0]]","0","0","","","","","","3"
"","","","","","poldrack-single-stim","331","1402560","0.0-4.0-11.0","5ab7c19e1667e40001d7cd93","A3","batch1","tol_feedback","-1","","","","","true","","","","","","","","","","1000","1000","500","","","","","","-1","none","true","5005","6236",""
"","","","","","html-button-response","332","1403493","0.0-4.0-12.0","5ab7c19e1667e40001d7cd93","A3","batch1","tol_trial_num","929.6999999955297","<div class = centerbox><p class = center-block-text>problem <strong>2</strong> out of 25 problems</p></div>","0","","","","","","","","","","","","","","","","","","","","","","","","","",""
"","","","","","single-stim-button","333","1407761","0.0-4.0-13.0-0.0","5ab7c19e1667e40001d7cd93","A3","batch1","tol_tohand","4266","","","","","","","","","","","","","","tol_peg_1","4266","4266","0","[[1,0,0],[3,0],[0]]","1","[[2,1,3],[0,0],[0]]","1","0","","","","","","5"
"","","","","","single-stim-button","334","1408381","0.0-4.0-13.0-1.0","5ab7c19e1667e40001d7cd93","A3","batch1","tol_toboard","618","","","","","","","","","","","","","","tol_peg_3","618","618","0","[[1,0,0],[3,0],[2]]","1","[[2,1,3],[0,0],[0]]","1","0","","","","","","5"
"","","","","","single-stim-button","335","1412060","0.0-4.0-13.1-0.1","5ab7c19e1667e40001d7cd93","A3","batch1","tol_tohand","3678","","","","","","","","","","","","","","tol_peg_1","3678","3678","0","[[0,0,0],[3,0],[2]]","2","[[2,1,3],[0,0],[0]]","1","0","","","","","","5"
"","","","","","single-stim-button","336","1414113","0.0-4.0-13.1-1.1","5ab7c19e1667e40001d7cd93","A3","batch1","tol_toboard","2051","","","","","","","","","","","","","","tol_peg_1","2051","2051","0","[[1,0,0],[3,0],[2]]","2","[[2,1,3],[0,0],[0]]","1","0","","","","","","5"
"","","","","","single-stim-button","337","1418829","0.0-4.0-13.2-0.2","5ab7c19e1667e40001d7cd93","A3","batch1","tol_tohand","4714","","","","","","","","","","","","","","tol_peg_3","4714","4714","0","[[1,0,0],[3,0],[0]]","3","[[2,1,3],[0,0],[0]]","1","0","","","","","","5"
"","","","","","single-stim-button","338","1419369","0.0-4.0-13.2-1.2","5ab7c19e1667e40001d7cd93","A3","batch1","tol_toboard","539","","","","","","","","","","","","","","tol_peg_2","539","539","0","[[1,0,0],[3,2],[0]]","3","[[2,1,3],[0,0],[0]]","1","0","","","","","","5"
"","","","","","single-stim-button","339","1419887","0.0-4.0-13.3-0.3","5ab7c19e1667e40001d7cd93","A3","batch1","tol_tohand","516","","","","","","","","","","","","","","tol_peg_1","516","516","0","[[0,0,0],[3,2],[0]]","4","[[2,1,3],[0,0],[0]]","1","0","","","","","","5"
"","","","","","single-stim-button","340","1421013","0.0-4.0-13.3-1.3","5ab7c19e1667e40001d7cd93","A3","batch1","tol_toboard","1124","","","","","","","","","","","","","","tol_peg_3","1124","1124","0","[[0,0,0],[3,2],[1]]","4","[[2,1,3],[0,0],[0]]","1","0","","","","","","5"
"","","","","","single-stim-button","341","1421638","0.0-4.0-13.4-0.4","5ab7c19e1667e40001d7cd93","A3","batch1","tol_tohand","624","","","","","","","","","","","","","","tol_peg_2","624","624","0","[[0,0,0],[3,0],[1]]","5","[[2,1,3],[0,0],[0]]","1","0","","","","","","5"
"","","","","","single-stim-button","342","1422290","0.0-4.0-13.4-1.4","5ab7c19e1667e40001d7cd93","A3","batch1","tol_toboard","650","","","","","","","","","","","","","","tol_peg_1","650","650","0","[[2,0,0],[3,0],[1]]","5","[[2,1,3],[0,0],[0]]","1","0","","","","","","5"
"","","","","","single-stim-button","343","1422946","0.0-4.0-13.5-0.5","5ab7c19e1667e40001d7cd93","A3","batch1","tol_tohand","655","","","","","","","","","","","","","","tol_peg_3","655","655","0","[[2,0,0],[3,0],[0]]","6","[[2,1,3],[0,0],[0]]","1","0","","","","","","5"
"","","","","","single-stim-button","344","1424006","0.0-4.0-13.5-1.5","5ab7c19e1667e40001d7cd93","A3","batch1","tol_toboard","1058","","","","","","","","","","","","","","tol_peg_1","1058","1058","0","[[2,1,0],[3,0],[0]]","6","[[2,1,3],[0,0],[0]]","1","0","","","","","","5"
"","","","","","single-stim-button","345","1424453","0.0-4.0-13.6-0.6","5ab7c19e1667e40001d7cd93","A3","batch1","tol_tohand","445","","","","","","","","","","","","","","tol_peg_2","445","445","0","[[2,1,0],[0,0],[0]]","7","[[2,1,3],[0,0],[0]]","1","0","","","","","","5"
"","","","","","single-stim-button","346","1425155","0.0-4.0-13.6-1.6","5ab7c19e1667e40001d7cd93","A3","batch1","tol_toboard","699","","","","","","","","","","","","","","tol_peg_1","699","699","0","[[2,1,3],[0,0],[0]]","7","[[2,1,3],[0,0],[0]]","1","0","","","","","","5"
"","","","","","poldrack-single-stim","347","1426164","0.0-4.0-14.0","5ab7c19e1667e40001d7cd93","A3","batch1","tol_feedback","-1","","","","","true","","","","","","","","","","1000","1000","500","","","","","","-1","none","true","4266","14898",""
"","","","","","html-button-response","348","1427158","0.0-4.0-15.0","5ab7c19e1667e40001d7cd93","A3","batch1","tol_trial_num","992.2000000029802","<div class = centerbox><p class = center-block-text>problem <strong>3</strong> out of 25 problems</p></div>","0","","","","","","","","","","","","","","","","","","","","","","","","","",""
