"success","timeout","failed_images","failed_audio","failed_video","trial_type","trial_index","time_elapsed","internal_node_id","subject_id","study_id","session_id","view_history","rt","stimulus","response","task","correct","answer","item","fiar_detect_rt","fiar_detect_correct","total_correct_fiar_detect","post_trial_gap","choices","mouse_click","stim_duration","block_duration","timing_post_trial","current_position","tol_num_moves_made","tol_target","tol_problem_id","tol_rt","key_press","possible_responses","tol_correct","preplanning","tol_rt_per_trial","tol_min_moves","spm_correct","spm_rt"
"true","false","[]","[]","[]","preload","0","22923","0.0-0.0","5ab8026547a9f7000153a324","C3","batch3","","","","","","","","","","","","","","","","","","","","","","","","","","","","","",""
"true","","","","","fullscreen","1","111003","0.0-1.0-0.0","5ab8026547a9f7000153a324","C3","batch3","","","","","","","","","","","","","","","","","","","","","","","","","","","","","",""
"true","","","","","fullscreen","2","134234","0.0-2.0-0.0","5ab8026547a9f7000153a324","C3","batch3","","","","","","","","","","","","","","","","","","","","","","","","","","","","","",""
"","","","","","instructions","3","158899","0.0-2.0-1.0-0.0","5ab8026547a9f7000153a324","C3","batch3","[{""page_index"":0,""viewing_time"":15512.70000000298},{""page_index"":1,""viewing_time"":9149.5}]","24662.89999999851","","","","","","","","","","","","","","","","","","","","","","","","","","","",""
"","","","","","html-button-response","4","161432","0.0-2.0-1.0-1.0-0.0","5ab8026547a9f7000153a324","C3","batch3","","2531.60000000149","<p class=block-text> Let's answer a few questions <br>","0","pattern_enter_quiz","","","","","","","","","","","","","","","","","","","","","","","","",""
"","","","","","html-button-response","5","164381","0.0-2.0-1.0-1.0-1.0","5ab8026547a9f7000153a324","C3","batch3","","2947.10000000149","<p class = block-text>True or False: You will have as much time as you want to make each choice. <br></p>","1","pattern_quiz","true","","","","","","","","","","","","","","","","","","","","","","","",""
"","","","","","html-button-response","6","174267","0.0-2.0-1.0-1.0-2.0","5ab8026547a9f7000153a324","C3","batch3","","9881.79999999702","<p class = block-text>Correct! You should make your choice <strong> as fast as you can</strong>.</p>","0","pattern_quiz_feedback","","","","","","","","","","","","","","","","","","","","","","","","",""
"","","","","","html-button-response","7","179473","0.0-2.0-1.0-1.0-3.0","5ab8026547a9f7000153a324","C3","batch3","","5203.79999999702","<p class = block-text>True or False: You will look for 4 pieces in black or white color connected in a row either horizontally, vertically or diagonally. <br></p>","0","pattern_quiz","true","","","","","","","","","","","","","","","","","","","","","","","",""
"","","","","","html-button-response","8","181130","0.0-2.0-1.0-1.0-4.0","5ab8026547a9f7000153a324","C3","batch3","","1655.3999999985099","<p class = block-text>Correct! </p>","0","pattern_quiz_feedback","","","","","","","","","","","","","","","","","","","","","","","","",""
"","","","","","html-button-response","9","183179","0.0-2.0-2.0","5ab8026547a9f7000153a324","C3","batch3","","2045.2000000029802","<p class=block-text> Now that you've understood the game, let's do a few practice trials before we start!<br> <br>","0","pattern_enter_practice","","","","","","","","","","","","","","","","","","","","","","","","",""
"","","","","","image-keyboard-response","10","186427","0.0-2.0-3.0-0.0","5ab8026547a9f7000153a324","C3","batch3","","3242.7999999970198","stim/prac_no_16_1.png","f","pattern_practice","false","j","","","","","","","","","","","","","","","","","","","","","","",""
"","","","","","html-keyboard-response","11","187457","0.0-2.0-3.0-1.0","5ab8026547a9f7000153a324","C3","batch3","","null","<p style=""font-size:30px;color:red;"">Wrong.</p>","null","pattern_feedback","","","","","","","","","","","","","","","","","","","","","","","","",""
"","","","","","image-keyboard-response","12","188612","0.0-2.0-3.0-0.1","5ab8026547a9f7000153a324","C3","batch3","","1152.7000000029802","stim/prac_yes_16_ver_w1.png","f","pattern_practice","true","f","","","","","","","","","","","","","","","","","","","","","","",""
"","","","","","html-keyboard-response","13","189644","0.0-2.0-3.0-1.1","5ab8026547a9f7000153a324","C3","batch3","","null","<p style=""font-size:30px;color:green;"">Correct!</p>","null","pattern_feedback","","","","","","","","","","","","","","","","","","","","","","","","",""
"","","","","","image-keyboard-response","14","190914","0.0-2.0-3.0-0.2","5ab8026547a9f7000153a324","C3","batch3","","1268.2000000029802","stim/prac_no_18_1.png","j","pattern_practice","true","j","","","","","","","","","","","","","","","","","","","","","","",""
"","","","","","html-keyboard-response","15","191941","0.0-2.0-3.0-1.2","5ab8026547a9f7000153a324","C3","batch3","","null","<p style=""font-size:30px;color:green;"">Correct!</p>","null","pattern_feedback","","","","","","","","","","","","","","","","","","","","","","","","",""
"","","","","","image-keyboard-response","16","192692","0.0-2.0-3.0-0.3","5ab8026547a9f7000153a324","C3","batch3","","748.6999999955297","stim/prac_yes_18_hor_w1.png","f","pattern_practice","true","f","","","","","","","","","","","","","","","","","","","","","","",""
"","","","","","html-keyboard-response","17","193717","0.0-2.0-3.0-1.3","5ab8026547a9f7000153a324","C3","batch3","","null","<p style=""font-size:30px;color:green;"">Correct!</p>","null","pattern_feedback","","","","","","","","","","","","","","","","","","","","","","","","",""
"","","","","","image-keyboard-response","18","194977","0.0-2.0-3.0-0.4","5ab8026547a9f7000153a324","C3","batch3","","1257.3999999985099","stim/prac_yes_20_dia_b1.png","f","pattern_practice","true","f","","","","","","","","","","","","","","","","","","","","","","",""
"","","","","","html-keyboard-response","19","195991","0.0-2.0-3.0-1.4","5ab8026547a9f7000153a324","C3","batch3","","null","<p style=""font-size:30px;color:green;"">Correct!</p>","null","pattern_feedback","","","","","","","","","","","","","","","","","","","","","","","","",""
"","","","","","html-button-response","20","199978","0.0-2.0-4.0","5ab8026547a9f7000153a324","C3","batch3","","3984.89999999851","<p class=block-text> Good job! You are done with practice trials!<br>
        You responded correctly on 80% of the trials.<br>
        Press the button below to start official trials. Now you won't see any feedback about your response</p>","0","pattern_enter_official_trials","","","","","","","","","","","","","","","","","","","","","","","","",""
"","","","","","html-keyboard-response","21","200785","0.0-2.0-5.0-0.0","5ab8026547a9f7000153a324","C3","batch3","","null","<p class=block-text>Trial 1 out of 78</p>","null","pattern_show_trial_num","","","","","","","","","","","","","","","","","","","","","","","","",""
"","","","","","image-keyboard-response","22","203145","0.0-2.0-5.0-1.0","5ab8026547a9f7000153a324","C3","batch3","","2356.7999999970198","stim/no_37_2_w.png","j","pattern_response","true","j","pattern_19","2356.7999999970198","true","1","","","","","","","","","","","","","","","","","","",""
"","","","","","html-keyboard-response","23","204464","0.0-2.0-5.0-0.1","5ab8026547a9f7000153a324","C3","batch3","","null","<p class=block-text>Trial 2 out of 78</p>","null","pattern_show_trial_num","","","","","","","","","","","","","","","","","","","","","","","","",""
"","","","","","image-keyboard-response","24","207719","0.0-2.0-5.0-1.1","5ab8026547a9f7000153a324","C3","batch3","","3253","stim/no_53_1_b.png","j","pattern_response","true","j","pattern_33","3253","true","2","","","","","","","","","","","","","","","","","","",""
"","","","","","html-keyboard-response","25","209038","0.0-2.0-5.0-0.2","5ab8026547a9f7000153a324","C3","batch3","","null","<p class=block-text>Trial 3 out of 78</p>","null","pattern_show_trial_num","","","","","","","","","","","","","","","","","","","","","","","","",""
"","","","","","image-keyboard-response","26","212453","0.0-2.0-5.0-1.2","5ab8026547a9f7000153a324","C3","batch3","","3412.5","stim/no_39_1_w.png","j","pattern_response","true","j","pattern_21","3412.5","true","3","","","","","","","","","","","","","","","","","","",""
"","","","","","html-keyboard-response","27","213773","0.0-2.0-5.0-0.3","5ab8026547a9f7000153a324","C3","batch3","","null","<p class=block-text>Trial 4 out of 78</p>","null","pattern_show_trial_num","","","","","","","","","","","","","","","","","","","","","","","","",""
"","","","","","image-keyboard-response","28","214996","0.0-2.0-5.0-1.3","5ab8026547a9f7000153a324","C3","batch3","","1220.6000000014901","stim/yes_53_ver_b1_b.png","f","pattern_response","true","f","pattern_74","1220.6000000014901","true","4","","","","","","","","","","","","","","","","","","",""
"","","","","","html-keyboard-response","29","216322","0.0-2.0-5.0-0.4","5ab8026547a9f7000153a324","C3","batch3","","null","<p class=block-text>Trial 5 out of 78</p>","null","pattern_show_trial_num","","","","","","","","","","","","","","","","","","","","","","","","",""
"","","","","","image-keyboard-response","30","220486","0.0-2.0-5.0-1.4","5ab8026547a9f7000153a324","C3","batch3","","4162","stim/no_58_1_w.png","j","pattern_response","true","j","pattern_35","4162","true","5","","","","","","","","","","","","","","","","","","",""
"","","","","","html-keyboard-response","31","221805","0.0-2.0-5.0-0.5","5ab8026547a9f7000153a324","C3","batch3","","null","<p class=block-text>Trial 6 out of 78</p>","null","pattern_show_trial_num","","","","","","","","","","","","","","","","","","","","","","","","",""
"","","","","","image-keyboard-response","32","224697","0.0-2.0-5.0-1.5","5ab8026547a9f7000153a324","C3","batch3","","2889.7000000029802","stim/no_49_2_b.png","j","pattern_response","true","j","pattern_29","2889.7000000029802","true","6","","","","","","","","","","","","","","","","","","",""
"","","","","","html-keyboard-response","33","226015","0.0-2.0-5.0-0.6","5ab8026547a9f7000153a324","C3","batch3","","null","<p class=block-text>Trial 7 out of 78</p>","null","pattern_show_trial_num","","","","","","","","","","","","","","","","","","","","","","","","",""
"","","","","","image-keyboard-response","34","227283","0.0-2.0-5.0-1.6","5ab8026547a9f7000153a324","C3","batch3","","1265.8000000044703","stim/no_12_1.png","j","pattern_response","true","j","pattern_01","1265.8000000044703","true","7","","","","","","","","","","","","","","","","","","",""
"","","","","","html-keyboard-response","35","228592","0.0-2.0-5.0-0.7","5ab8026547a9f7000153a324","C3","batch3","","null","<p class=block-text>Trial 8 out of 78</p>","null","pattern_show_trial_num","","","","","","","","","","","","","","","","","","","","","","","","",""
"","","","","","image-keyboard-response","36","229958","0.0-2.0-5.0-1.7","5ab8026547a9f7000153a324","C3","batch3","","1363.7000000029802","stim/yes_46_ver_b1_b.png","f","pattern_response","true","f","pattern_68","1363.7000000029802","true","8","","","","","","","","","","","","","","","","","","",""
"","","","","","html-keyboard-response","37","231267","0.0-2.0-5.0-0.8","5ab8026547a9f7000153a324","C3","batch3","","null","<p class=block-text>Trial 9 out of 78</p>","null","pattern_show_trial_num","","","","","","","","","","","","","","","","","","","","","","","","",""
"","","","","","image-keyboard-response","38","234921","0.0-2.0-5.0-1.8","5ab8026547a9f7000153a324","C3","batch3","","3651.7000000029802","stim/no_51_1.png","j","pattern_response","true","j","pattern_31","3651.7000000029802","true","9","","","","","","","","","","","","","","","","","","",""
"","","","","","html-keyboard-response","39","236239","0.0-2.0-5.0-0.9","5ab8026547a9f7000153a324","C3","batch3","","null","<p class=block-text>Trial 10 out of 78</p>","null","pattern_show_trial_num","","","","","","","","","","","","","","","","","","","","","","","","",""
"","","","","","image-keyboard-response","40","239520","0.0-2.0-5.0-1.9","5ab8026547a9f7000153a324","C3","batch3","","3278.7000000029802","stim/yes_51_dia_b1.png","j","pattern_response","false","f","pattern_72","3278.7000000029802","false","9","","","","","","","","","","","","","","","","","","",""
"","","","","","html-keyboard-response","41","240841","0.0-2.0-5.0-0.10","5ab8026547a9f7000153a324","C3","batch3","","null","<p class=block-text>Trial 11 out of 78</p>","null","pattern_show_trial_num","","","","","","","","","","","","","","","","","","","","","","","","",""
"","","","","","image-keyboard-response","42","242647","0.0-2.0-5.0-1.10","5ab8026547a9f7000153a324","C3","batch3","","1804.3000000044703","stim/no_47_1_b.png","j","pattern_response","true","j","pattern_27","1804.3000000044703","true","10","","","","","","","","","","","","","","","","","","",""
"","","","","","html-keyboard-response","43","243977","0.0-2.0-5.0-0.11","5ab8026547a9f7000153a324","C3","batch3","","null","<p class=block-text>Trial 12 out of 78</p>","null","pattern_show_trial_num","","","","","","","","","","","","","","","","","","","","","","","","",""
"","","","","","image-keyboard-response","44","246685","0.0-2.0-5.0-1.11","5ab8026547a9f7000153a324","C3","batch3","","2706.2999999970198","stim/no_43_2_b.png","j","pattern_response","true","j","pattern_23","2706.2999999970198","true","11","","","","","","","","","","","","","","","","","","",""
"","","","","","html-keyboard-response","45","248006","0.0-2.0-5.0-0.12","5ab8026547a9f7000153a324","C3","batch3","","null","<p class=block-text>Trial 13 out of 78</p>","null","pattern_show_trial_num","","","","","","","","","","","","","","","","","","","","","","","","",""
"","","","","","image-keyboard-response","46","249628","0.0-2.0-5.0-1.12","5ab8026547a9f7000153a324","C3","batch3","","1620.2999999970198","stim/no_22_1_b.png","j","pattern_response","true","j","pattern_07","1620.2999999970198","true","12","","","","","","","","","","","","","","","","","","",""
"","","","","","html-keyboard-response","47","250952","0.0-2.0-5.0-0.13","5ab8026547a9f7000153a324","C3","batch3","","null","<p class=block-text>Trial 14 out of 78</p>","null","pattern_show_trial_num","","","","","","","","","","","","","","","","","","","","","","","","",""
"","","","","","image-keyboard-response","48","251732","0.0-2.0-5.0-1.13","5ab8026547a9f7000153a324","C3","batch3","","777.6000000014901","stim/yes_36_ver_w1_w.png","f","pattern_response","true","f","pattern_58","777.6000000014901","true","13","","","","","","","","","","","","","","","","","","",""
"","","","","","html-keyboard-response","49","253056","0.0-2.0-5.0-0.14","5ab8026547a9f7000153a324","C3","batch3","","null","<p class=block-text>Trial 15 out of 78</p>","null","pattern_show_trial_num","","","","","","","","","","","","","","","","","","","","","","","","",""
"","","","","","image-keyboard-response","50","253862","0.0-2.0-5.0-1.14","5ab8026547a9f7000153a324","C3","batch3","","804.5","stim/yes_39_hor_w1_w.png","f","pattern_response","true","f","pattern_62","804.5","true","14","","","","","","","","","","","","","","","","","","",""
"","","","","","html-keyboard-response","51","255181","0.0-2.0-5.0-0.15","5ab8026547a9f7000153a324","C3","batch3","","null","<p class=block-text>Trial 16 out of 78</p>","null","pattern_show_trial_num","","","","","","","","","","","","","","","","","","","","","","","","",""
"","","","","","image-keyboard-response","52","256051","0.0-2.0-5.0-1.15","5ab8026547a9f7000153a324","C3","batch3","","867.8000000044703","stim/yes_17_ver_b1_b.png","f","pattern_response","true","f","pattern_46","867.8000000044703","true","15","","","","","","","","","","","","","","","","","","",""
"","","","","","html-keyboard-response","53","257374","0.0-2.0-5.0-0.16","5ab8026547a9f7000153a324","C3","batch3","","null","<p class=block-text>Trial 17 out of 78</p>","null","pattern_show_trial_num","","","","","","","","","","","","","","","","","","","","","","","","",""
"","","","","","image-keyboard-response","54","259804","0.0-2.0-5.0-1.16","5ab8026547a9f7000153a324","C3","batch3","","2427.89999999851","stim/no_45_1_w.png","j","pattern_response","true","j","pattern_25","2427.89999999851","true","16","","","","","","","","","","","","","","","","","","",""
"","","","","","html-keyboard-response","55","261121","0.0-2.0-5.0-0.17","5ab8026547a9f7000153a324","C3","batch3","","null","<p class=block-text>Trial 18 out of 78</p>","null","pattern_show_trial_num","","","","","","","","","","","","","","","","","","","","","","","","",""
"","","","","","image-keyboard-response","56","263560","0.0-2.0-5.0-1.17","5ab8026547a9f7000153a324","C3","batch3","","2435.7999999970198","stim/yes_44_ver_w1_w.png","j","pattern_response","false","f","pattern_66","2435.7999999970198","false","16","","","","","","","","","","","","","","","","","","",""
"","","","","","html-keyboard-response","57","264889","0.0-2.0-5.0-0.18","5ab8026547a9f7000153a324","C3","batch3","","null","<p class=block-text>Trial 19 out of 78</p>","null","pattern_show_trial_num","","","","","","","","","","","","","","","","","","","","","","","","",""
"","","","","","image-keyboard-response","58","265782","0.0-2.0-5.0-1.18","5ab8026547a9f7000153a324","C3","batch3","","890.1000000014901","stim/yes_29_hor_b1_b.png","f","pattern_response","true","f","pattern_52","890.1000000014901","true","17","","","","","","","","","","","","","","","","","","",""
"","","","","","html-keyboard-response","59","267100","0.0-2.0-5.0-0.19","5ab8026547a9f7000153a324","C3","batch3","","null","<p class=block-text>Trial 20 out of 78</p>","null","pattern_show_trial_num","","","","","","","","","","","","","","","","","","","","","","","","",""
"","","","","","image-keyboard-response","60","268204","0.0-2.0-5.0-1.19","5ab8026547a9f7000153a324","C3","batch3","","1102.6000000014901","stim/yes_33_dia_w1_w.png","f","pattern_response","true","f","pattern_56","1102.6000000014901","true","18","","","","","","","","","","","","","","","","","","",""
"","","","","","html-keyboard-response","61","269523","0.0-2.0-5.0-0.20","5ab8026547a9f7000153a324","C3","batch3","","null","<p class=block-text>Trial 21 out of 78</p>","null","pattern_show_trial_num","","","","","","","","","","","","","","","","","","","","","","","","",""
"","","","","","image-keyboard-response","62","271235","0.0-2.0-5.0-1.20","5ab8026547a9f7000153a324","C3","batch3","","1710.2000000029802","stim/no_25_1_b.png","j","pattern_response","true","j","pattern_09","1710.2000000029802","true","19","","","","","","","","","","","","","","","","","","",""
"","","","","","html-keyboard-response","63","272542","0.0-2.0-5.0-0.21","5ab8026547a9f7000153a324","C3","batch3","","null","<p class=block-text>Trial 22 out of 78</p>","null","pattern_show_trial_num","","","","","","","","","","","","","","","","","","","","","","","","",""
"","","","","","image-keyboard-response","64","274597","0.0-2.0-5.0-1.21","5ab8026547a9f7000153a324","C3","batch3","","2053","stim/no_28_2.png","j","pattern_response","true","j","pattern_11","2053","true","20","","","","","","","","","","","","","","","","","","",""
"","","","","","html-keyboard-response","65","275925","0.0-2.0-5.0-0.22","5ab8026547a9f7000153a324","C3","batch3","","null","<p class=block-text>Trial 23 out of 78</p>","null","pattern_show_trial_num","","","","","","","","","","","","","","","","","","","","","","","","",""
"","","","","","image-keyboard-response","66","279727","0.0-2.0-5.0-1.22","5ab8026547a9f7000153a324","C3","batch3","","3799.6999999955297","stim/yes_58_dia_w1_w.png","f","pattern_response","true","f","pattern_76","3799.6999999955297","true","21","","","","","","","","","","","","","","","","","","",""
"","","","","","html-keyboard-response","67","281052","0.0-2.0-5.0-0.23","5ab8026547a9f7000153a324","C3","batch3","","null","<p class=block-text>Trial 24 out of 78</p>","null","pattern_show_trial_num","","","","","","","","","","","","","","","","","","","","","","","","",""
"","","","","","image-keyboard-response","68","283911","0.0-2.0-5.0-1.23","5ab8026547a9f7000153a324","C3","batch3","","2856.10000000149","stim/no_36_1_b.png","j","pattern_response","true","j","pattern_17","2856.10000000149","true","22","","","","","","","","","","","","","","","","","","",""
"","","","","","html-keyboard-response","69","285240","0.0-2.0-5.0-0.24","5ab8026547a9f7000153a324","C3","batch3","","null","<p class=block-text>Trial 25 out of 78</p>","null","pattern_show_trial_num","","","","","","","","","","","","","","","","","","","","","","","","",""
"","","","","","image-keyboard-response","70","287493","0.0-2.0-5.0-1.24","5ab8026547a9f7000153a324","C3","batch3","","2251.0999999940395","stim/no_30_1_b.png","j","pattern_response","true","j","pattern_13","2251.0999999940395","true","23","","","","","","","","","","","","","","","","","","",""
"","","","","","html-keyboard-response","71","288808","0.0-2.0-5.0-0.25","5ab8026547a9f7000153a324","C3","batch3","","null","<p class=block-text>Trial 26 out of 78</p>","null","pattern_show_trial_num","","","","","","","","","","","","","","","","","","","","","","","","",""
"","","","","","image-keyboard-response","72","290036","0.0-2.0-5.0-1.25","5ab8026547a9f7000153a324","C3","batch3","","1225.6000000014901","stim/yes_15_dia_b1u_b.png","f","pattern_response","true","f","pattern_44","1225.6000000014901","true","24","","","","","","","","","","","","","","","","","","",""
"","","","","","html-keyboard-response","73","291359","0.0-2.0-5.0-0.26","5ab8026547a9f7000153a324","C3","batch3","","null","<p class=block-text>Trial 27 out of 78</p>","null","pattern_show_trial_num","","","","","","","","","","","","","","","","","","","","","","","","",""
"","","","","","image-keyboard-response","74","295938","0.0-2.0-5.0-1.26","5ab8026547a9f7000153a324","C3","batch3","","4583","stim/no_67_1.png","j","pattern_response","true","j","pattern_39","4583","true","25","","","","","","","","","","","","","","","","","","",""
"","","","","","html-keyboard-response","75","297259","0.0-2.0-5.0-0.27","5ab8026547a9f7000153a324","C3","batch3","","null","<p class=block-text>Trial 28 out of 78</p>","null","pattern_show_trial_num","","","","","","","","","","","","","","","","","","","","","","","","",""
"","","","","","image-keyboard-response","76","298481","0.0-2.0-5.0-1.27","5ab8026547a9f7000153a324","C3","batch3","","1220.1000000014901","stim/yes_23_ver_b1.png","f","pattern_response","true","f","pattern_48","1220.1000000014901","true","26","","","","","","","","","","","","","","","","","","",""
"","","","","","html-keyboard-response","77","299785","0.0-2.0-5.0-0.28","5ab8026547a9f7000153a324","C3","batch3","","null","<p class=block-text>Trial 29 out of 78</p>","null","pattern_show_trial_num","","","","","","","","","","","","","","","","","","","","","","","","",""
"","","","","","image-keyboard-response","78","301143","0.0-2.0-5.0-1.28","5ab8026547a9f7000153a324","C3","batch3","","1355.8000000044703","stim/no_15_1_w.png","j","pattern_response","true","j","pattern_03","1355.8000000044703","true","27","","","","","","","","","","","","","","","","","","",""
"","","","","","html-keyboard-response","79","302459","0.0-2.0-5.0-0.29","5ab8026547a9f7000153a324","C3","batch3","","null","<p class=block-text>Trial 30 out of 78</p>","null","pattern_show_trial_num","","","","","","","","","","","","","","","","","","","","","","","","",""
"","","","","","image-keyboard-response","80","304911","0.0-2.0-5.0-1.29","5ab8026547a9f7000153a324","C3","batch3","","2450.5","stim/yes_42_dia_w1_w.png","f","pattern_response","true","f","pattern_64","2450.5","true","28","","","","","","","","","","","","","","","","","","",""
"","","","","","html-keyboard-response","81","306230","0.0-2.0-5.0-0.30","5ab8026547a9f7000153a324","C3","batch3","","null","<p class=block-text>Trial 31 out of 78</p>","null","pattern_show_trial_num","","","","","","","","","","","","","","","","","","","","","","","","",""
"","","","","","image-keyboard-response","82","307060","0.0-2.0-5.0-1.30","5ab8026547a9f7000153a324","C3","batch3","","828.2000000029802","stim/yes_12_hor_w1_w.png","f","pattern_response","true","f","pattern_42","828.2000000029802","true","29","","","","","","","","","","","","","","","","","","",""
"","","","","","html-keyboard-response","83","308384","0.0-2.0-5.0-0.31","5ab8026547a9f7000153a324","C3","batch3","","null","<p class=block-text>Trial 32 out of 78</p>","null","pattern_show_trial_num","","","","","","","","","","","","","","","","","","","","","","","","",""
"","","","","","image-keyboard-response","84","309435","0.0-2.0-5.0-1.31","5ab8026547a9f7000153a324","C3","batch3","","1048.8999999985099","stim/yes_30_ver_b1_b.png","f","pattern_response","true","f","pattern_54","1048.8999999985099","true","30","","","","","","","","","","","","","","","","","","",""
"","","","","","html-keyboard-response","85","310750","0.0-2.0-5.0-0.32","5ab8026547a9f7000153a324","C3","batch3","","null","<p class=block-text>Trial 33 out of 78</p>","null","pattern_show_trial_num","","","","","","","","","","","","","","","","","","","","","","","","",""
"","","","","","image-keyboard-response","86","311673","0.0-2.0-5.0-1.32","5ab8026547a9f7000153a324","C3","batch3","","920","stim/yes_49_hor_w1_b.png","f","pattern_response","true","f","pattern_70","920","true","31","","","","","","","","","","","","","","","","","","",""
"","","","","","html-keyboard-response","87","312996","0.0-2.0-5.0-0.33","5ab8026547a9f7000153a324","C3","batch3","","null","<p class=block-text>Trial 34 out of 78</p>","null","pattern_show_trial_num","","","","","","","","","","","","","","","","","","","","","","","","",""
"","","","","","image-keyboard-response","88","317368","0.0-2.0-5.0-1.33","5ab8026547a9f7000153a324","C3","batch3","","4370.80000000447","stim/no_33_1_b.png","j","pattern_response","true","j","pattern_15","4370.80000000447","true","32","","","","","","","","","","","","","","","","","","",""
"","","","","","html-keyboard-response","89","318684","0.0-2.0-5.0-0.34","5ab8026547a9f7000153a324","C3","batch3","","null","<p class=block-text>Trial 35 out of 78</p>","null","pattern_show_trial_num","","","","","","","","","","","","","","","","","","","","","","","","",""
"","","","","","image-keyboard-response","90","320155","0.0-2.0-5.0-1.34","5ab8026547a9f7000153a324","C3","batch3","","1462.8000000044703","stim/no_18_1_b.png","j","pattern_response","true","j","pattern_05","1462.8000000044703","true","33","","","","","","","","","","","","","","","","","","",""
"","","","","","html-keyboard-response","91","321486","0.0-2.0-5.0-0.35","5ab8026547a9f7000153a324","C3","batch3","","null","<p class=block-text>Trial 36 out of 78</p>","null","pattern_show_trial_num","","","","","","","","","","","","","","","","","","","","","","","","",""
"","","","","","image-keyboard-response","92","322984","0.0-2.0-5.0-1.35","5ab8026547a9f7000153a324","C3","batch3","","1495.6999999955297","stim/yes_70_ver_b1.png","f","pattern_response","true","f","pattern_80","1495.6999999955297","true","34","","","","","","","","","","","","","","","","","","",""
"","","","","","html-keyboard-response","93","324303","0.0-2.0-5.0-0.36","5ab8026547a9f7000153a324","C3","batch3","","null","<p class=block-text>Trial 37 out of 78</p>","null","pattern_show_trial_num","","","","","","","","","","","","","","","","","","","","","","","","",""
"","","","","","image-keyboard-response","94","326633","0.0-2.0-5.0-1.36","5ab8026547a9f7000153a324","C3","batch3","","2328.3000000044703","stim/yes_63_dia_b1.png","f","pattern_response","true","f","pattern_78","2328.3000000044703","true","35","","","","","","","","","","","","","","","","","","",""
"","","","","","html-keyboard-response","95","327949","0.0-2.0-5.0-0.37","5ab8026547a9f7000153a324","C3","batch3","","null","<p class=block-text>Trial 38 out of 78</p>","null","pattern_show_trial_num","","","","","","","","","","","","","","","","","","","","","","","","",""
"","","","","","image-keyboard-response","96","328984","0.0-2.0-5.0-1.37","5ab8026547a9f7000153a324","C3","batch3","","1032.3999999985099","stim/yes_26_dia_w2_w.png","f","pattern_response","true","f","pattern_50","1032.3999999985099","true","36","","","","","","","","","","","","","","","","","","",""
"","","","","","html-keyboard-response","97","330294","0.0-2.0-5.0-0.38","5ab8026547a9f7000153a324","C3","batch3","","null","<p class=block-text>Trial 39 out of 78</p>","null","pattern_show_trial_num","","","","","","","","","","","","","","","","","","","","","","","","",""
"","","","","","image-keyboard-response","98","331306","0.0-2.0-5.0-1.38","5ab8026547a9f7000153a324","C3","batch3","","1010.1000000014901","stim/yes_37_hor_w1_w.png","f","pattern_response","true","f","pattern_60","1010.1000000014901","true","37","","","","","","","","","","","","","","","","","","",""
"","","","","","image-keyboard-response","99","333764","0.0-2.0-6.0","5ab8026547a9f7000153a324","C3","batch3","","1942.0999999940395","stim/empty_board.png","j","attention_check","true","j","","","","","500","[""f"",""j""]","","","","","","","","","","","","","","","","",""
"","","","","","html-keyboard-response","100","334570","0.0-2.0-7.0-0.0","5ab8026547a9f7000153a324","C3","batch3","","null","<p class=block-text>Trial 40 out of 78</p>","null","pattern_show_trial_num","","","","","","","","","","","","","","","","","","","","","","","","",""
"","","","","","image-keyboard-response","101","341956","0.0-2.0-7.0-1.0","5ab8026547a9f7000153a324","C3","batch3","","7383.79999999702","stim/no_62_1_w.png","j","pattern_response","true","j","pattern_36","7383.79999999702","true","38","","","","","","","","","","","","","","","","","","",""
"","","","","","html-keyboard-response","102","343272","0.0-2.0-7.0-0.1","5ab8026547a9f7000153a324","C3","batch3","","null","<p class=block-text>Trial 41 out of 78</p>","null","pattern_show_trial_num","","","","","","","","","","","","","","","","","","","","","","","","",""
"","","","","","image-keyboard-response","103","344663","0.0-2.0-7.0-1.1","5ab8026547a9f7000153a324","C3","batch3","","1387.7999999970198","stim/no_13_2_b.png","j","pattern_response","true","j","pattern_02","1387.7999999970198","true","39","","","","","","","","","","","","","","","","","","",""
"","","","","","html-keyboard-response","104","345984","0.0-2.0-7.0-0.2","5ab8026547a9f7000153a324","C3","batch3","","null","<p class=block-text>Trial 42 out of 78</p>","null","pattern_show_trial_num","","","","","","","","","","","","","","","","","","","","","","","","",""
"","","","","","image-keyboard-response","105","350146","0.0-2.0-7.0-1.2","5ab8026547a9f7000153a324","C3","batch3","","4160.39999999851","stim/yes_37_dia_w1.png","f","pattern_response","true","f","pattern_59","4160.39999999851","true","40","","","","","","","","","","","","","","","","","","",""
"","","","","","html-keyboard-response","106","351468","0.0-2.0-7.0-0.3","5ab8026547a9f7000153a324","C3","batch3","","null","<p class=block-text>Trial 43 out of 78</p>","null","pattern_show_trial_num","","","","","","","","","","","","","","","","","","","","","","","","",""
"","","","","","image-keyboard-response","107","355812","0.0-2.0-7.0-1.3","5ab8026547a9f7000153a324","C3","batch3","","4342.30000000447","stim/no_44_1.png","f","pattern_response","false","j","pattern_24","4342.30000000447","false","40","","","","","","","","","","","","","","","","","","",""
"","","","","","html-keyboard-response","108","357143","0.0-2.0-7.0-0.4","5ab8026547a9f7000153a324","C3","batch3","","null","<p class=block-text>Trial 44 out of 78</p>","null","pattern_show_trial_num","","","","","","","","","","","","","","","","","","","","","","","","",""
"","","","","","image-keyboard-response","109","360802","0.0-2.0-7.0-1.4","5ab8026547a9f7000153a324","C3","batch3","","3656.6999999955297","stim/no_50_1.png","j","pattern_response","true","j","pattern_30","3656.6999999955297","true","41","","","","","","","","","","","","","","","","","","",""
"","","","","","html-keyboard-response","110","362114","0.0-2.0-7.0-0.5","5ab8026547a9f7000153a324","C3","batch3","","null","<p class=block-text>Trial 45 out of 78</p>","null","pattern_show_trial_num","","","","","","","","","","","","","","","","","","","","","","","","",""
"","","","","","image-keyboard-response","111","364752","0.0-2.0-7.0-1.5","5ab8026547a9f7000153a324","C3","batch3","","2635.39999999851","stim/yes_67_hor_b1.png","f","pattern_response","true","f","pattern_79","2635.39999999851","true","42","","","","","","","","","","","","","","","","","","",""
"","","","","","html-keyboard-response","112","366075","0.0-2.0-7.0-0.6","5ab8026547a9f7000153a324","C3","batch3","","null","<p class=block-text>Trial 46 out of 78</p>","null","pattern_show_trial_num","","","","","","","","","","","","","","","","","","","","","","","","",""
"","","","","","image-keyboard-response","113","368738","0.0-2.0-7.0-1.6","5ab8026547a9f7000153a324","C3","batch3","","2661.10000000149","stim/no_34_1_b.png","j","pattern_response","true","j","pattern_16","2661.10000000149","true","43","","","","","","","","","","","","","","","","","","",""
"","","","","","html-keyboard-response","114","370064","0.0-2.0-7.0-0.7","5ab8026547a9f7000153a324","C3","batch3","","null","<p class=block-text>Trial 47 out of 78</p>","null","pattern_show_trial_num","","","","","","","","","","","","","","","","","","","","","","","","",""
"","","","","","image-keyboard-response","115","371150","0.0-2.0-7.0-1.7","5ab8026547a9f7000153a324","C3","batch3","","1083.3999999985099","stim/yes_25_hor_b1_b.png","f","pattern_response","true","f","pattern_49","1083.3999999985099","true","44","","","","","","","","","","","","","","","","","","",""
"","","","","","html-keyboard-response","116","372474","0.0-2.0-7.0-0.8","5ab8026547a9f7000153a324","C3","batch3","","null","<p class=block-text>Trial 48 out of 78</p>","null","pattern_show_trial_num","","","","","","","","","","","","","","","","","","","","","","","","",""
"","","","","","image-keyboard-response","117","373577","0.0-2.0-7.0-1.8","5ab8026547a9f7000153a324","C3","batch3","","1100.8999999985099","stim/yes_28_ver_b1.png","f","pattern_response","true","f","pattern_51","1100.8999999985099","true","45","","","","","","","","","","","","","","","","","","",""
"","","","","","html-keyboard-response","118","374892","0.0-2.0-7.0-0.9","5ab8026547a9f7000153a324","C3","batch3","","null","<p class=block-text>Trial 49 out of 78</p>","null","pattern_show_trial_num","","","","","","","","","","","","","","","","","","","","","","","","",""
"","","","","","image-keyboard-response","119","376606","0.0-2.0-7.0-1.9","5ab8026547a9f7000153a324","C3","batch3","","1710.8999999985099","stim/no_17_1_w.png","f","pattern_response","false","j","pattern_04","1710.8999999985099","false","45","","","","","","","","","","","","","","","","","","",""
"","","","","","html-keyboard-response","120","377926","0.0-2.0-7.0-0.10","5ab8026547a9f7000153a324","C3","batch3","","null","<p class=block-text>Trial 50 out of 78</p>","null","pattern_show_trial_num","","","","","","","","","","","","","","","","","","","","","","","","",""
"","","","","","image-keyboard-response","121","379158","0.0-2.0-7.0-1.10","5ab8026547a9f7000153a324","C3","batch3","","1230.3000000044703","stim/yes_22_ver_w1.png","f","pattern_response","true","f","pattern_47","1230.3000000044703","true","46","","","","","","","","","","","","","","","","","","",""
"","","","","","html-keyboard-response","122","380474","0.0-2.0-7.0-0.11","5ab8026547a9f7000153a324","C3","batch3","","null","<p class=block-text>Trial 51 out of 78</p>","null","pattern_show_trial_num","","","","","","","","","","","","","","","","","","","","","","","","",""
"","","","","","image-keyboard-response","123","382607","0.0-2.0-7.0-1.11","5ab8026547a9f7000153a324","C3","batch3","","2130.5","stim/yes_60_ver_b1_b.png","f","pattern_response","true","f","pattern_77","2130.5","true","47","","","","","","","","","","","","","","","","","","",""
"","","","","","html-keyboard-response","124","383923","0.0-2.0-7.0-0.12","5ab8026547a9f7000153a324","C3","batch3","","null","<p class=block-text>Trial 52 out of 78</p>","null","pattern_show_trial_num","","","","","","","","","","","","","","","","","","","","","","","","",""
"","","","","","image-keyboard-response","125","384949","0.0-2.0-7.0-1.12","5ab8026547a9f7000153a324","C3","batch3","","1023.6999999955297","stim/yes_17_dia_w1.png","f","pattern_response","true","f","pattern_45","1023.6999999955297","true","48","","","","","","","","","","","","","","","","","","",""
"","","","","","html-keyboard-response","126","386270","0.0-2.0-7.0-0.13","5ab8026547a9f7000153a324","C3","batch3","","null","<p class=block-text>Trial 53 out of 78</p>","null","pattern_show_trial_num","","","","","","","","","","","","","","","","","","","","","","","","",""
"","","","","","image-keyboard-response","127","387038","0.0-2.0-7.0-1.13","5ab8026547a9f7000153a324","C3","batch3","","767","stim/yes_14_hor_b1_w.png","f","pattern_response","true","f","pattern_43","767","true","49","","","","","","","","","","","","","","","","","","",""
"","","","","","html-keyboard-response","128","388362","0.0-2.0-7.0-0.14","5ab8026547a9f7000153a324","C3","batch3","","null","<p class=block-text>Trial 54 out of 78</p>","null","pattern_show_trial_num","","","","","","","","","","","","","","","","","","","","","","","","",""
"","","","","","image-keyboard-response","129","392988","0.0-2.0-7.0-1.14","5ab8026547a9f7000153a324","C3","batch3","","4623.70000000298","stim/no_55_1_w.png","j","pattern_response","true","j","pattern_34","4623.70000000298","true","50","","","","","","","","","","","","","","","","","","",""
"","","","","","html-keyboard-response","130","394300","0.0-2.0-7.0-0.15","5ab8026547a9f7000153a324","C3","batch3","","null","<p class=block-text>Trial 55 out of 78</p>","null","pattern_show_trial_num","","","","","","","","","","","","","","","","","","","","","","","","",""
"","","","","","image-keyboard-response","131","395538","0.0-2.0-7.0-1.15","5ab8026547a9f7000153a324","C3","batch3","","1235.1000000014901","stim/yes_52_ver_w1.png","f","pattern_response","true","f","pattern_73","1235.1000000014901","true","51","","","","","","","","","","","","","","","","","","",""
"","","","","","html-keyboard-response","132","396861","0.0-2.0-7.0-0.16","5ab8026547a9f7000153a324","C3","batch3","","null","<p class=block-text>Trial 56 out of 78</p>","null","pattern_show_trial_num","","","","","","","","","","","","","","","","","","","","","","","","",""
"","","","","","image-keyboard-response","133","399745","0.0-2.0-7.0-1.16","5ab8026547a9f7000153a324","C3","batch3","","2882.60000000149","stim/no_38_1_b.png","j","pattern_response","true","j","pattern_20","2882.60000000149","true","52","","","","","","","","","","","","","","","","","","",""
"","","","","","html-keyboard-response","134","401061","0.0-2.0-7.0-0.17","5ab8026547a9f7000153a324","C3","batch3","","null","<p class=block-text>Trial 57 out of 78</p>","null","pattern_show_trial_num","","","","","","","","","","","","","","","","","","","","","","","","",""
"","","","","","image-keyboard-response","135","402696","0.0-2.0-7.0-1.17","5ab8026547a9f7000153a324","C3","batch3","","1632.3999999985099","stim/no_32_1_w.png","j","pattern_response","true","j","pattern_14","1632.3999999985099","true","53","","","","","","","","","","","","","","","","","","",""
"","","","","","html-keyboard-response","136","404024","0.0-2.0-7.0-0.18","5ab8026547a9f7000153a324","C3","batch3","","null","<p class=block-text>Trial 58 out of 78</p>","null","pattern_show_trial_num","","","","","","","","","","","","","","","","","","","","","","","","",""
"","","","","","image-keyboard-response","137","405561","0.0-2.0-7.0-1.18","5ab8026547a9f7000153a324","C3","batch3","","1535.2999999970198","stim/no_23_1.png","j","pattern_response","true","j","pattern_08","1535.2999999970198","true","54","","","","","","","","","","","","","","","","","","",""
"","","","","","html-keyboard-response","138","406871","0.0-2.0-7.0-0.19","5ab8026547a9f7000153a324","C3","batch3","","null","<p class=block-text>Trial 59 out of 78</p>","null","pattern_show_trial_num","","","","","","","","","","","","","","","","","","","","","","","","",""
"","","","","","image-keyboard-response","139","407908","0.0-2.0-7.0-1.19","5ab8026547a9f7000153a324","C3","batch3","","1034.8000000044703","stim/yes_35_dia_b1.png","f","pattern_response","true","f","pattern_57","1034.8000000044703","true","55","","","","","","","","","","","","","","","","","","",""
"","","","","","html-keyboard-response","140","409220","0.0-2.0-7.0-0.20","5ab8026547a9f7000153a324","C3","batch3","","null","<p class=block-text>Trial 60 out of 78</p>","null","pattern_show_trial_num","","","","","","","","","","","","","","","","","","","","","","","","",""
"","","","","","image-keyboard-response","141","410615","0.0-2.0-7.0-1.20","5ab8026547a9f7000153a324","C3","batch3","","1393.9000000059605","stim/yes_29_ver_w1.png","f","pattern_response","true","f","pattern_53","1393.9000000059605","true","56","","","","","","","","","","","","","","","","","","",""
"","","","","","html-keyboard-response","142","411940","0.0-2.0-7.0-0.21","5ab8026547a9f7000153a324","C3","batch3","","null","<p class=block-text>Trial 61 out of 78</p>","null","pattern_show_trial_num","","","","","","","","","","","","","","","","","","","","","","","","",""
"","","","","","image-keyboard-response","143","414537","0.0-2.0-7.0-1.21","5ab8026547a9f7000153a324","C3","batch3","","2594.7000000029802","stim/yes_48_dia_w1_w.png","j","pattern_response","false","f","pattern_69","2594.7000000029802","false","56","","","","","","","","","","","","","","","","","","",""
"","","","","","html-keyboard-response","144","415868","0.0-2.0-7.0-0.22","5ab8026547a9f7000153a324","C3","batch3","","null","<p class=block-text>Trial 62 out of 78</p>","null","pattern_show_trial_num","","","","","","","","","","","","","","","","","","","","","","","","",""
"","","","","","image-keyboard-response","145","417340","0.0-2.0-7.0-1.22","5ab8026547a9f7000153a324","C3","batch3","","1480.2000000029802","stim/yes_31_hor_b1.png","f","pattern_response","true","f","pattern_55","1480.2000000029802","true","57","","","","","","","","","","","","","","","","","","",""
"","","","","","html-keyboard-response","146","418647","0.0-2.0-7.0-0.23","5ab8026547a9f7000153a324","C3","batch3","","null","<p class=block-text>Trial 63 out of 78</p>","null","pattern_show_trial_num","","","","","","","","","","","","","","","","","","","","","","","","",""
"","","","","","image-keyboard-response","147","419468","0.0-2.0-7.0-1.23","5ab8026547a9f7000153a324","C3","batch3","","819","stim/yes_38_hor_b1_b.png","f","pattern_response","true","f","pattern_61","819","true","58","","","","","","","","","","","","","","","","","","",""
"","","","","","html-keyboard-response","148","420790","0.0-2.0-7.0-0.24","5ab8026547a9f7000153a324","C3","batch3","","null","<p class=block-text>Trial 64 out of 78</p>","null","pattern_show_trial_num","","","","","","","","","","","","","","","","","","","","","","","","",""
"","","","","","image-keyboard-response","149","424001","0.0-2.0-7.0-1.24","5ab8026547a9f7000153a324","C3","batch3","","3208.39999999851","stim/yes_50_dia_w1.png","j","pattern_response","false","f","pattern_71","3208.39999999851","false","58","","","","","","","","","","","","","","","","","","",""
"","","","","","html-keyboard-response","150","425324","0.0-2.0-7.0-0.25","5ab8026547a9f7000153a324","C3","batch3","","null","<p class=block-text>Trial 65 out of 78</p>","null","pattern_show_trial_num","","","","","","","","","","","","","","","","","","","","","","","","",""
"","","","","","image-keyboard-response","151","427774","0.0-2.0-7.0-1.25","5ab8026547a9f7000153a324","C3","batch3","","2447.5","stim/no_42_1_w.png","j","pattern_response","true","j","pattern_22","2447.5","true","59","","","","","","","","","","","","","","","","","","",""
"","","","","","html-keyboard-response","152","429097","0.0-2.0-7.0-0.26","5ab8026547a9f7000153a324","C3","batch3","","null","<p class=block-text>Trial 66 out of 78</p>","null","pattern_show_trial_num","","","","","","","","","","","","","","","","","","","","","","","","",""
"","","","","","image-keyboard-response","153","431532","0.0-2.0-7.0-1.26","5ab8026547a9f7000153a324","C3","batch3","","2431.89999999851","stim/no_29_1_b.png","j","pattern_response","true","j","pattern_12","2431.89999999851","true","60","","","","","","","","","","","","","","","","","","",""
"","","","","","html-keyboard-response","154","432842","0.0-2.0-7.0-0.27","5ab8026547a9f7000153a324","C3","batch3","","null","<p class=block-text>Trial 67 out of 78</p>","null","pattern_show_trial_num","","","","","","","","","","","","","","","","","","","","","","","","",""
"","","","","","image-keyboard-response","155","436662","0.0-2.0-7.0-1.27","5ab8026547a9f7000153a324","C3","batch3","","3818.3000000044703","stim/no_46_1_b.png","j","pattern_response","true","j","pattern_26","3818.3000000044703","true","61","","","","","","","","","","","","","","","","","","",""
"","","","","","html-keyboard-response","156","437984","0.0-2.0-7.0-0.28","5ab8026547a9f7000153a324","C3","batch3","","null","<p class=block-text>Trial 68 out of 78</p>","null","pattern_show_trial_num","","","","","","","","","","","","","","","","","","","","","","","","",""
"","","","","","image-keyboard-response","157","441953","0.0-2.0-7.0-1.28","5ab8026547a9f7000153a324","C3","batch3","","3966.39999999851","stim/no_48_1_w.png","j","pattern_response","true","j","pattern_28","3966.39999999851","true","62","","","","","","","","","","","","","","","","","","",""
"","","","","","html-keyboard-response","158","443264","0.0-2.0-7.0-0.29","5ab8026547a9f7000153a324","C3","batch3","","null","<p class=block-text>Trial 69 out of 78</p>","null","pattern_show_trial_num","","","","","","","","","","","","","","","","","","","","","","","","",""
"","","","","","image-keyboard-response","159","444555","0.0-2.0-7.0-1.29","5ab8026547a9f7000153a324","C3","batch3","","1288.5","stim/no_20_1_w.png","j","pattern_response","true","j","pattern_06","1288.5","true","63","","","","","","","","","","","","","","","","","","",""
"","","","","","html-keyboard-response","160","445874","0.0-2.0-7.0-0.30","5ab8026547a9f7000153a324","C3","batch3","","null","<p class=block-text>Trial 70 out of 78</p>","null","pattern_show_trial_num","","","","","","","","","","","","","","","","","","","","","","","","",""
"","","","","","image-keyboard-response","161","447025","0.0-2.0-7.0-1.30","5ab8026547a9f7000153a324","C3","batch3","","1148.3000000044703","stim/yes_55_hor_w1_w.png","f","pattern_response","true","f","pattern_75","1148.3000000044703","true","64","","","","","","","","","","","","","","","","","","",""
"","","","","","html-keyboard-response","162","448347","0.0-2.0-7.0-0.31","5ab8026547a9f7000153a324","C3","batch3","","null","<p class=block-text>Trial 71 out of 78</p>","null","pattern_show_trial_num","","","","","","","","","","","","","","","","","","","","","","","","",""
"","","","","","image-keyboard-response","163","455298","0.0-2.0-7.0-1.31","5ab8026547a9f7000153a324","C3","batch3","","6949.10000000149","stim/no_65_1_b.png","j","pattern_response","true","j","pattern_38","6949.10000000149","true","65","","","","","","","","","","","","","","","","","","",""
"","","","","","html-keyboard-response","164","456610","0.0-2.0-7.0-0.32","5ab8026547a9f7000153a324","C3","batch3","","null","<p class=block-text>Trial 72 out of 78</p>","null","pattern_show_trial_num","","","","","","","","","","","","","","","","","","","","","","","","",""
"","","","","","image-keyboard-response","165","459921","0.0-2.0-7.0-1.32","5ab8026547a9f7000153a324","C3","batch3","","3308.8000000044703","stim/no_36_2_w.png","j","pattern_response","true","j","pattern_18","3308.8000000044703","true","66","","","","","","","","","","","","","","","","","","",""
"","","","","","html-keyboard-response","166","461248","0.0-2.0-7.0-0.33","5ab8026547a9f7000153a324","C3","batch3","","null","<p class=block-text>Trial 73 out of 78</p>","null","pattern_show_trial_num","","","","","","","","","","","","","","","","","","","","","","","","",""
"","","","","","image-keyboard-response","167","462324","0.0-2.0-7.0-1.33","5ab8026547a9f7000153a324","C3","batch3","","1073.1000000014901","stim/yes_43_ver_w1_w.png","f","pattern_response","true","f","pattern_65","1073.1000000014901","true","67","","","","","","","","","","","","","","","","","","",""
"","","","","","html-keyboard-response","168","463643","0.0-2.0-7.0-0.34","5ab8026547a9f7000153a324","C3","batch3","","null","<p class=block-text>Trial 74 out of 78</p>","null","pattern_show_trial_num","","","","","","","","","","","","","","","","","","","","","","","","",""
"","","","","","image-keyboard-response","169","465865","0.0-2.0-7.0-1.34","5ab8026547a9f7000153a324","C3","batch3","","2220.89999999851","stim/no_52_1.png","j","pattern_response","true","j","pattern_32","2220.89999999851","true","68","","","","","","","","","","","","","","","","","","",""
"","","","","","html-keyboard-response","170","467181","0.0-2.0-7.0-0.35","5ab8026547a9f7000153a324","C3","batch3","","null","<p class=block-text>Trial 75 out of 78</p>","null","pattern_show_trial_num","","","","","","","","","","","","","","","","","","","","","","","","",""
"","","","","","image-keyboard-response","171","468910","0.0-2.0-7.0-1.35","5ab8026547a9f7000153a324","C3","batch3","","1727","stim/yes_40_dia_b1_b.png","f","pattern_response","true","f","pattern_63","1727","true","69","","","","","","","","","","","","","","","","","","",""
"","","","","","html-keyboard-response","172","470232","0.0-2.0-7.0-0.36","5ab8026547a9f7000153a324","C3","batch3","","null","<p class=block-text>Trial 76 out of 78</p>","null","pattern_show_trial_num","","","","","","","","","","","","","","","","","","","","","","","","",""
"","","","","","image-keyboard-response","173","471633","0.0-2.0-7.0-1.36","5ab8026547a9f7000153a324","C3","batch3","","1398.2000000029802","stim/no_26_1_w.png","j","pattern_response","true","j","pattern_10","1398.2000000029802","true","70","","","","","","","","","","","","","","","","","","",""
"","","","","","html-keyboard-response","174","472948","0.0-2.0-7.0-0.37","5ab8026547a9f7000153a324","C3","batch3","","null","<p class=block-text>Trial 77 out of 78</p>","null","pattern_show_trial_num","","","","","","","","","","","","","","","","","","","","","","","","",""
"","","","","","image-keyboard-response","175","477005","0.0-2.0-7.0-1.37","5ab8026547a9f7000153a324","C3","batch3","","4055.39999999851","stim/no_70_2.png","j","pattern_response","true","j","pattern_40","4055.39999999851","true","71","","","","","","","","","","","","","","","","","","",""
"","","","","","html-keyboard-response","176","478335","0.0-2.0-7.0-0.38","5ab8026547a9f7000153a324","C3","batch3","","null","<p class=block-text>Trial 78 out of 78</p>","null","pattern_show_trial_num","","","","","","","","","","","","","","","","","","","","","","","","",""
"","","","","","image-keyboard-response","177","479630","0.0-2.0-7.0-1.38","5ab8026547a9f7000153a324","C3","batch3","","1292.1000000014901","stim/yes_45_hor_b2_b.png","f","pattern_response","true","f","pattern_67","1292.1000000014901","true","72","","","","","","","","","","","","","","","","","","",""
"","","","","","html-button-response","178","483284","0.0-2.0-8.0","5ab8026547a9f7000153a324","C3","batch3","","3144.3000000044703","<p class = block-text>This concludes the 4-in-a-row detection game.Thank you for your responses!<br>
            You responded correctly on 92% of the trials.<br>
            When you are ready, press ""Continue"" button to continue </p>","0","","","","","","","","","","","","","","","","","","","","","","","","","",""
"true","","","","","fullscreen","179","489332","0.0-3.0-0.0","5ab8026547a9f7000153a324","C3","batch3","","","","","","","","","","","","","","","","","","","","","","","","","","","","","",""
"","","","","","instructions","180","544813","0.0-3.0-1.0-0.0-0.0","5ab8026547a9f7000153a324","C3","batch3","[{""page_index"":0,""viewing_time"":11182.29999999702},{""page_index"":1,""viewing_time"":6433.5},{""page_index"":2,""viewing_time"":4009.7000000029802},{""page_index"":3,""viewing_time"":8955.89999999851},{""page_index"":4,""viewing_time"":4114.20000000298},{""page_index"":5,""viewing_time"":200.79999999701977},{""page_index"":6,""viewing_time"":1976.8999999985099},{""page_index"":5,""viewing_time"":14385.20000000298},{""page_index"":6,""viewing_time"":4220.19999999553}]","55479.10000000149","","","tol-instructions","","","","","","","","","","","","","","","","","","","","","","","","",""
"","","","","","html-button-response","181","546502","0.0-3.0-1.0-1.0-0.0","5ab8026547a9f7000153a324","C3","batch3","","1688","<p class=block-text> Let's answer a few questions <br>","0","tol_enter_quiz","","","","","","","","","","","","","","","","","","","","","","","","",""
"","","","","","html-button-response","182","553353","0.0-3.0-1.0-1.0-1.0","5ab8026547a9f7000153a324","C3","batch3","","6848.70000000298","<p class = block-text>True or False: You can only move the ball on top of a peg. <br></p>","0","tol_quiz","true","","","","","","","","","","","","","","","","","","","","","","","",""
"","","","","","html-button-response","183","554892","0.0-3.0-1.0-1.0-2.0","5ab8026547a9f7000153a324","C3","batch3","","1538.1000000014901","<p class = block-text>Correct! You can only move the ball on top of a peg.</p>","0","tol_quiz_feedback","","","","","","","","","","","","","","","","","","","","","","","","",""
"","","","","","html-button-response","184","558313","0.0-3.0-1.0-1.0-3.0","5ab8026547a9f7000153a324","C3","batch3","","3418.60000000149","<p class = block-text>True or False: You should try to match your board with the target board with fewest moves possible. <br></p>","0","tol_quiz","true","","","","","","","","","","","","","","","","","","","","","","","",""
"","","","","","html-button-response","185","559445","0.0-3.0-1.0-1.0-4.0","5ab8026547a9f7000153a324","C3","batch3","","1130.5","<p class = block-text>Correct! </p>","0","tol_quiz_feedback","","","","","","","","","","","","","","","","","","","","","","","","",""
"","","","","","html-button-response","186","562194","0.0-3.0-2.0","5ab8026547a9f7000153a324","C3","batch3","","2747.2000000029802","<p class=block-text> Now that you've understood the game, let's practice a few easier examples before we start!<br> <br>","0","","","","","","","","","","","","","","","","","","","","","","","","","",""
"","","","","","single-stim-button","187","564421","0.0-3.0-3.0-0.0","5ab8026547a9f7000153a324","C3","batch3","","2224","","","tol_practice","","","","","","","","","tol_peg_2","2224","2224","0","[[1,2,0],[0,0],[0]]","1","[[1,2,0],[0,0],[3]]","practice","2224","","","","","","","",""
"","","","","","single-stim-button","188","566017","0.0-3.0-3.0-1.0","5ab8026547a9f7000153a324","C3","batch3","","1595","","","tol_practice","","","","","","","","","tol_peg_3","1595","1595","0","[[1,2,0],[0,0],[3]]","1","[[1,2,0],[0,0],[3]]","practice","1595","","","","","","","",""
"","","","","","poldrack-single-stim","189","567028","0.0-3.0-4.0","5ab8026547a9f7000153a324","C3","batch3","","-1","","","tol_feedback","true","","","","","","","","","1000","1000","500","","","","","","-1","none","true","","0","","",""
"","","","","","single-stim-button","190","570083","0.0-3.0-5.0-0.0","5ab8026547a9f7000153a324","C3","batch3","","3054","","","tol_practice","","","","","","","","","tol_peg_1","3054","3054","0","[[1,0,0],[3,0],[0]]","2","[[0,0,0],[3,1],[2]]","practice","3054","","","","","","","",""
"","","","","","single-stim-button","191","571677","0.0-3.0-5.0-1.0","5ab8026547a9f7000153a324","C3","batch3","","1593","","","tol_practice","","","","","","","","","tol_peg_3","1593","1593","0","[[1,0,0],[3,0],[2]]","2","[[0,0,0],[3,1],[2]]","practice","1593","","","","","","","",""
"","","","","","single-stim-button","192","572822","0.0-3.0-5.1-0.1","5ab8026547a9f7000153a324","C3","batch3","","1144","","","tol_practice","","","","","","","","","tol_peg_1","1144","1144","0","[[0,0,0],[3,0],[2]]","3","[[0,0,0],[3,1],[2]]","practice","1144","","","","","","","",""
"","","","","","single-stim-button","193","574050","0.0-3.0-5.1-1.1","5ab8026547a9f7000153a324","C3","batch3","","1226","","","tol_practice","","","","","","","","","tol_peg_2","1226","1226","0","[[0,0,0],[3,1],[2]]","3","[[0,0,0],[3,1],[2]]","practice","1226","","","","","","","",""
"","","","","","poldrack-single-stim","194","575060","0.0-3.0-6.0","5ab8026547a9f7000153a324","C3","batch3","","-1","","","tol_feedback","true","","","","","","","","","1000","1000","500","","","","","","-1","none","true","","0","","",""
"","","","","","single-stim-button","195","577865","0.0-3.0-7.0-0.0","5ab8026547a9f7000153a324","C3","batch3","","2803","","","tol_practice","","","","","","","","","tol_peg_2","2803","2803","0","[[1,2,0],[0,0],[0]]","4","[[1,0,0],[2,0],[3]]","practice","2803","","","","","","","",""
"","","","","","single-stim-button","196","579230","0.0-3.0-7.0-1.0","5ab8026547a9f7000153a324","C3","batch3","","1364","","","tol_practice","","","","","","","","","tol_peg_3","1364","1364","0","[[1,2,0],[0,0],[3]]","4","[[1,0,0],[2,0],[3]]","practice","1364","","","","","","","",""
"","","","","","single-stim-button","197","580430","0.0-3.0-7.1-0.1","5ab8026547a9f7000153a324","C3","batch3","","1199","","","tol_practice","","","","","","","","","tol_peg_1","1199","1199","0","[[1,0,0],[0,0],[3]]","5","[[1,0,0],[2,0],[3]]","practice","1199","","","","","","","",""
"","","","","","single-stim-button","198","581969","0.0-3.0-7.1-1.1","5ab8026547a9f7000153a324","C3","batch3","","1537","","","tol_practice","","","","","","","","","tol_peg_2","1537","1537","0","[[1,0,0],[2,0],[3]]","5","[[1,0,0],[2,0],[3]]","practice","1537","","","","","","","",""
"","","","","","poldrack-single-stim","199","582978","0.0-3.0-8.0","5ab8026547a9f7000153a324","C3","batch3","","-1","","","tol_feedback","true","","","","","","","","","1000","1000","500","","","","","","-1","none","true","","0","","",""
"","","","","","html-button-response","200","587169","0.0-3.0-9.0","5ab8026547a9f7000153a324","C3","batch3","","4189.69999999553","<div class = centerbox><p class = center-block-text>Great job! You are done with practice trials<br>You are about to start official trials.<br> <br> Problem <strong>1</strong> out of 25 problems</p></div>","0","tol_instruction","","","","","","","","","","","","","","","","","","","","","","","","",""
"","","","","","single-stim-button","201","591762","0.0-3.0-10.0-0.0","5ab8026547a9f7000153a324","C3","batch3","","3587","","","tol_tohand","","","","","","","","","tol_peg_1","3587","3587","0","[[1,0,0],[3,0],[0]]","1","[[1,3,0],[2,0],[0]]","0","0","","","","","","3","",""
"","","","","","single-stim-button","202","593568","0.0-3.0-10.0-1.0","5ab8026547a9f7000153a324","C3","batch3","","1804","","","tol_toboard","","","","","","","","","tol_peg_3","1804","1804","0","[[1,0,0],[3,0],[2]]","1","[[1,3,0],[2,0],[0]]","0","0","","","","","","3","",""
"","","","","","single-stim-button","203","594486","0.0-3.0-10.1-0.1","5ab8026547a9f7000153a324","C3","batch3","","916","","","tol_tohand","","","","","","","","","tol_peg_2","916","916","0","[[1,0,0],[0,0],[2]]","2","[[1,3,0],[2,0],[0]]","0","0","","","","","","3","",""
"","","","","","single-stim-button","204","595797","0.0-3.0-10.1-1.1","5ab8026547a9f7000153a324","C3","batch3","","1310","","","tol_toboard","","","","","","","","","tol_peg_1","1310","1310","0","[[1,3,0],[0,0],[2]]","2","[[1,3,0],[2,0],[0]]","0","0","","","","","","3","",""
"","","","","","single-stim-button","205","596817","0.0-3.0-10.2-0.2","5ab8026547a9f7000153a324","C3","batch3","","1018","","","tol_tohand","","","","","","","","","tol_peg_3","1018","1018","0","[[1,3,0],[0,0],[0]]","3","[[1,3,0],[2,0],[0]]","0","0","","","","","","3","",""
"","","","","","single-stim-button","206","598834","0.0-3.0-10.2-1.2","5ab8026547a9f7000153a324","C3","batch3","","2016","","","tol_toboard","","","","","","","","","tol_peg_2","2016","2016","0","[[1,3,0],[2,0],[0]]","3","[[1,3,0],[2,0],[0]]","0","0","","","","","","3","",""
"","","","","","poldrack-single-stim","207","599844","0.0-3.0-11.0","5ab8026547a9f7000153a324","C3","batch3","","-1","","","tol_feedback","true","","","","","","","","","1000","1000","500","","","","","","-1","none","true","3587","5521","","",""
"","","","","","html-button-response","208","601644","0.0-3.0-12.0","5ab8026547a9f7000153a324","C3","batch3","","1798.8999999985099","<div class = centerbox><p class = center-block-text>problem <strong>2</strong> out of 25 problems</p></div>","0","tol_trial_num","","","","","","","","","","","","","","","","","","","","","","","","",""
"","","","","","single-stim-button","209","605098","0.0-3.0-13.0-0.0","5ab8026547a9f7000153a324","C3","batch3","","3452","","","tol_tohand","","","","","","","","","tol_peg_1","3452","3452","0","[[1,0,0],[3,0],[0]]","1","[[2,1,3],[0,0],[0]]","1","0","","","","","","5","",""
"","","","","","single-stim-button","210","608088","0.0-3.0-13.0-1.0","5ab8026547a9f7000153a324","C3","batch3","","2989","","","tol_toboard","","","","","","","","","tol_peg_3","2989","2989","0","[[1,0,0],[3,0],[2]]","1","[[2,1,3],[0,0],[0]]","1","0","","","","","","5","",""
"","","","","","single-stim-button","211","609086","0.0-3.0-13.1-0.1","5ab8026547a9f7000153a324","C3","batch3","","996","","","tol_tohand","","","","","","","","","tol_peg_1","996","996","0","[[0,0,0],[3,0],[2]]","2","[[2,1,3],[0,0],[0]]","1","0","","","","","","5","",""
"","","","","","single-stim-button","212","610786","0.0-3.0-13.1-1.1","5ab8026547a9f7000153a324","C3","batch3","","1698","","","tol_toboard","","","","","","","","","tol_peg_2","1698","1698","0","[[0,0,0],[3,1],[2]]","2","[[2,1,3],[0,0],[0]]","1","0","","","","","","5","",""
"","","","","","single-stim-button","213","612284","0.0-3.0-13.2-0.2","5ab8026547a9f7000153a324","C3","batch3","","1497","","","tol_tohand","","","","","","","","","tol_peg_3","1497","1497","0","[[0,0,0],[3,1],[0]]","3","[[2,1,3],[0,0],[0]]","1","0","","","","","","5","",""
"","","","","","single-stim-button","214","614813","0.0-3.0-13.2-1.2","5ab8026547a9f7000153a324","C3","batch3","","2527","","","tol_toboard","","","","","","","","","tol_peg_1","2527","2527","0","[[2,0,0],[3,1],[0]]","3","[[2,1,3],[0,0],[0]]","1","0","","","","","","5","",""
"","","","","","single-stim-button","215","616298","0.0-3.0-13.3-0.3","5ab8026547a9f7000153a324","C3","batch3","","1483","","","tol_tohand","","","","","","","","","tol_peg_2","1483","1483","0","[[2,0,0],[3,0],[0]]","4","[[2,1,3],[0,0],[0]]","1","0","","","","","","5","",""
"","","","","","single-stim-button","216","617727","0.0-3.0-13.3-1.3","5ab8026547a9f7000153a324","C3","batch3","","1427","","","tol_toboard","","","","","","","","","tol_peg_1","1427","1427","0","[[2,1,0],[3,0],[0]]","4","[[2,1,3],[0,0],[0]]","1","0","","","","","","5","",""
"","","","","","single-stim-button","217","618708","0.0-3.0-13.4-0.4","5ab8026547a9f7000153a324","C3","batch3","","980","","","tol_tohand","","","","","","","","","tol_peg_2","980","980","0","[[2,1,0],[0,0],[0]]","5","[[2,1,3],[0,0],[0]]","1","0","","","","","","5","",""
"","","","","","single-stim-button","218","619901","0.0-3.0-13.4-1.4","5ab8026547a9f7000153a324","C3","batch3","","1193","","","tol_toboard","","","","","","","","","tol_peg_1","1193","1193","0","[[2,1,3],[0,0],[0]]","5","[[2,1,3],[0,0],[0]]","1","0","","","","","","5","",""
"","","","","","poldrack-single-stim","219","620914","0.0-3.0-14.0","5ab8026547a9f7000153a324","C3","batch3","","-1","","","tol_feedback","true","","","","","","","","","1000","1000","500","","","","","","-1","none","true","3452","8408","","",""
"","","","","","html-button-response","220","622827","0.0-3.0-15.0","5ab8026547a9f7000153a324","C3","batch3","","1912.3000000044703","<div class = centerbox><p class = center-block-text>problem <strong>3</strong> out of 25 problems</p></div>","0","tol_trial_num","","","","","","","","","","","","","","","","","","","","","","","","",""
"","","","","","single-stim-button","221","625869","0.0-3.0-16.0-0.0","5ab8026547a9f7000153a324","C3","batch3","","3040","","","tol_tohand","","","","","","","","","tol_peg_1","3040","3040","0","[[2,0,0],[0,0],[1]]","1","[[1,2,0],[3,0],[0]]","2","0","","","","","","4","",""
"","","","","","single-stim-button","222","627253","0.0-3.0-16.0-1.0","5ab8026547a9f7000153a324","C3","batch3","","1382","","","tol_toboard","","","","","","","","","tol_peg_2","1382","1382","0","[[2,0,0],[3,0],[1]]","1","[[1,2,0],[3,0],[0]]","2","0","","","","","","4","",""
"","","","","","single-stim-button","223","628992","0.0-3.0-16.1-0.1","5ab8026547a9f7000153a324","C3","batch3","","1738","","","tol_tohand","","","","","","","","","tol_peg_1","1738","1738","0","[[0,0,0],[3,0],[1]]","2","[[1,2,0],[3,0],[0]]","2","0","","","","","","4","",""
"","","","","","single-stim-button","224","630249","0.0-3.0-16.1-1.1","5ab8026547a9f7000153a324","C3","batch3","","1256","","","tol_toboard","","","","","","","","","tol_peg_2","1256","1256","0","[[0,0,0],[3,2],[1]]","2","[[1,2,0],[3,0],[0]]","2","0","","","","","","4","",""
"","","","","","single-stim-button","225","631343","0.0-3.0-16.2-0.2","5ab8026547a9f7000153a324","C3","batch3","","1093","","","tol_tohand","","","","","","","","","tol_peg_3","1093","1093","0","[[0,0,0],[3,2],[0]]","3","[[1,2,0],[3,0],[0]]","2","0","","","","","","4","",""
"","","","","","single-stim-button","226","632713","0.0-3.0-16.2-1.2","5ab8026547a9f7000153a324","C3","batch3","","1369","","","tol_toboard","","","","","","","","","tol_peg_1","1369","1369","0","[[1,0,0],[3,2],[0]]","3","[[1,2,0],[3,0],[0]]","2","0","","","","","","4","",""
"","","","","","single-stim-button","227","633618","0.0-3.0-16.3-0.3","5ab8026547a9f7000153a324","C3","batch3","","903","","","tol_tohand","","","","","","","","","tol_peg_2","903","903","0","[[1,0,0],[3,0],[0]]","4","[[1,2,0],[3,0],[0]]","2","0","","","","","","4","",""
"","","","","","single-stim-button","228","634840","0.0-3.0-16.3-1.3","5ab8026547a9f7000153a324","C3","batch3","","1220","","","tol_toboard","","","","","","","","","tol_peg_1","1220","1220","0","[[1,2,0],[3,0],[0]]","4","[[1,2,0],[3,0],[0]]","2","0","","","","","","4","",""
"","","","","","poldrack-single-stim","229","635851","0.0-3.0-17.0","5ab8026547a9f7000153a324","C3","batch3","","-1","","","tol_feedback","true","","","","","","","","","1000","1000","500","","","","","","-1","none","true","3040","6774","","",""
"","","","","","html-button-response","230","637420","0.0-3.0-18.0","5ab8026547a9f7000153a324","C3","batch3","","1567.6000000014901","<div class = centerbox><p class = center-block-text>problem <strong>4</strong> out of 25 problems</p></div>","0","tol_trial_num","","","","","","","","","","","","","","","","","","","","","","","","",""
"","","","","","single-stim-button","231","641671","0.0-3.0-19.0-0.0","5ab8026547a9f7000153a324","C3","batch3","","4250","","","tol_tohand","","","","","","","","","tol_peg_2","4250","4250","0","[[3,0,0],[2,0],[0]]","1","[[3,0,0],[1,0],[2]]","3","0","","","","","","3","",""
"","","","","","single-stim-button","232","643112","0.0-3.0-19.0-1.0","5ab8026547a9f7000153a324","C3","batch3","","1440","","","tol_toboard","","","","","","","","","tol_peg_1","1440","1440","0","[[3,1,0],[2,0],[0]]","1","[[3,0,0],[1,0],[2]]","3","0","","","","","","3","",""
"","","","","","single-stim-button","233","644047","0.0-3.0-19.1-0.1","5ab8026547a9f7000153a324","C3","batch3","","933","","","tol_tohand","","","","","","","","","tol_peg_2","933","933","0","[[3,1,0],[0,0],[0]]","2","[[3,0,0],[1,0],[2]]","3","0","","","","","","3","",""
"","","","","","single-stim-button","234","645521","0.0-3.0-19.1-1.1","5ab8026547a9f7000153a324","C3","batch3","","1473","","","tol_toboard","","","","","","","","","tol_peg_3","1473","1473","0","[[3,1,0],[0,0],[2]]","2","[[3,0,0],[1,0],[2]]","3","0","","","","","","3","",""
"","","","","","single-stim-button","235","647046","0.0-3.0-19.2-0.2","5ab8026547a9f7000153a324","C3","batch3","","1523","","","tol_tohand","","","","","","","","","tol_peg_1","1523","1523","0","[[3,0,0],[0,0],[2]]","3","[[3,0,0],[1,0],[2]]","3","0","","","","","","3","",""
"","","","","","single-stim-button","236","648529","0.0-3.0-19.2-1.2","5ab8026547a9f7000153a324","C3","batch3","","1481","","","tol_toboard","","","","","","","","","tol_peg_2","1481","1481","0","[[3,0,0],[1,0],[2]]","3","[[3,0,0],[1,0],[2]]","3","0","","","","","","3","",""
"","","","","","poldrack-single-stim","237","649542","0.0-3.0-20.0","5ab8026547a9f7000153a324","C3","batch3","","-1","","","tol_feedback","true","","","","","","","","","1000","1000","500","","","","","","-1","none","true","4250","6706","","",""
"","","","","","html-button-response","238","651164","0.0-3.0-21.0","5ab8026547a9f7000153a324","C3","batch3","","1620.5","<div class = centerbox><p class = center-block-text>problem <strong>5</strong> out of 25 problems</p></div>","0","tol_trial_num","","","","","","","","","","","","","","","","","","","","","","","","",""
"","","","","","single-stim-button","239","673978","0.0-3.0-22.0-0.0","5ab8026547a9f7000153a324","C3","batch3","","22812","","","tol_tohand","","","","","","","","","tol_peg_1","22812","22812","0","[[0,0,0],[2,0],[3]]","1","[[0,0,0],[1,2],[3]]","4","0","","","","","","7","",""
"","","","","","single-stim-button","240","675529","0.0-3.0-22.0-1.0","5ab8026547a9f7000153a324","C3","batch3","","1549","","","tol_toboard","","","","","","","","","tol_peg_2","1549","1549","0","[[0,0,0],[2,1],[3]]","1","[[0,0,0],[1,2],[3]]","4","0","","","","","","7","",""
"","","","","","single-stim-button","241","677244","0.0-3.0-22.1-0.1","5ab8026547a9f7000153a324","C3","batch3","","1714","","","tol_tohand","","","","","","","","","tol_peg_3","1714","1714","0","[[0,0,0],[2,1],[0]]","2","[[0,0,0],[1,2],[3]]","4","0","","","","","","7","",""
"","","","","","single-stim-button","242","679802","0.0-3.0-22.1-1.1","5ab8026547a9f7000153a324","C3","batch3","","2557","","","tol_toboard","","","","","","","","","tol_peg_1","2557","2557","0","[[3,0,0],[2,1],[0]]","2","[[0,0,0],[1,2],[3]]","4","0","","","","","","7","",""
"","","","","","single-stim-button","243","680881","0.0-3.0-22.2-0.2","5ab8026547a9f7000153a324","C3","batch3","","1078","","","tol_tohand","","","","","","","","","tol_peg_2","1078","1078","0","[[3,0,0],[2,0],[0]]","3","[[0,0,0],[1,2],[3]]","4","0","","","","","","7","",""
"","","","","","single-stim-button","244","686103","0.0-3.0-22.2-1.2","5ab8026547a9f7000153a324","C3","batch3","","5220","","","tol_toboard","","","","","","","","","tol_peg_1","5220","5220","0","[[3,1,0],[2,0],[0]]","3","[[0,0,0],[1,2],[3]]","4","0","","","","","","7","",""
"","","","","","single-stim-button","245","687045","0.0-3.0-22.3-0.3","5ab8026547a9f7000153a324","C3","batch3","","941","","","tol_tohand","","","","","","","","","tol_peg_2","941","941","0","[[3,1,0],[0,0],[0]]","4","[[0,0,0],[1,2],[3]]","4","0","","","","","","7","",""
"","","","","","single-stim-button","246","688562","0.0-3.0-22.3-1.3","5ab8026547a9f7000153a324","C3","batch3","","1515","","","tol_toboard","","","","","","","","","tol_peg_3","1515","1515","0","[[3,1,0],[0,0],[2]]","4","[[0,0,0],[1,2],[3]]","4","0","","","","","","7","",""
"","","","","","single-stim-button","247","689545","0.0-3.0-22.4-0.4","5ab8026547a9f7000153a324","C3","batch3","","981","","","tol_tohand","","","","","","","","","tol_peg_1","981","981","0","[[3,0,0],[0,0],[2]]","5","[[0,0,0],[1,2],[3]]","4","0","","","","","","7","",""
"","","","","","single-stim-button","248","690869","0.0-3.0-22.4-1.4","5ab8026547a9f7000153a324","C3","batch3","","1322","","","tol_toboard","","","","","","","","","tol_peg_2","1322","1322","0","[[3,0,0],[1,0],[2]]","5","[[0,0,0],[1,2],[3]]","4","0","","","","","","7","",""
"","","","","","single-stim-button","249","691858","0.0-3.0-22.5-0.5","5ab8026547a9f7000153a324","C3","batch3","","988","","","tol_tohand","","","","","","","","","tol_peg_3","988","988","0","[[3,0,0],[1,0],[0]]","6","[[0,0,0],[1,2],[3]]","4","0","","","","","","7","",""
"","","","","","single-stim-button","250","693155","0.0-3.0-22.5-1.5","5ab8026547a9f7000153a324","C3","batch3","","1296","","","tol_toboard","","","","","","","","","tol_peg_2","1296","1296","0","[[3,0,0],[1,2],[0]]","6","[[0,0,0],[1,2],[3]]","4","0","","","","","","7","",""
"","","","","","single-stim-button","251","694262","0.0-3.0-22.6-0.6","5ab8026547a9f7000153a324","C3","batch3","","1105","","","tol_tohand","","","","","","","","","tol_peg_1","1105","1105","0","[[0,0,0],[1,2],[0]]","7","[[0,0,0],[1,2],[3]]","4","0","","","","","","7","",""
"","","","","","single-stim-button","252","695530","0.0-3.0-22.6-1.6","5ab8026547a9f7000153a324","C3","batch3","","1267","","","tol_toboard","","","","","","","","","tol_peg_3","1267","1267","0","[[0,0,0],[1,2],[3]]","7","[[0,0,0],[1,2],[3]]","4","0","","","","","","7","",""
"","","","","","poldrack-single-stim","253","696536","0.0-3.0-23.0","5ab8026547a9f7000153a324","C3","batch3","","-1","","","tol_feedback","true","","","","","","","","","1000","1000","500","","","","","","-1","none","true","22812","29619","","",""
"","","","","","html-button-response","254","697820","0.0-3.0-24.0","5ab8026547a9f7000153a324","C3","batch3","","1282.1000000014901","<div class = centerbox><p class = center-block-text>problem <strong>6</strong> out of 25 problems</p></div>","0","tol_trial_num","","","","","","","","","","","","","","","","","","","","","","","","",""
"","","","","","single-stim-button","255","705719","0.0-3.0-25.0-0.0","5ab8026547a9f7000153a324","C3","batch3","","7897","","","tol_tohand","","","","","","","","","tol_peg_3","7897","7897","0","[[0,0,0],[1,2],[0]]","1","[[1,0,0],[2,3],[0]]","5","0","","","","","","6","",""
"","","","","","single-stim-button","256","707547","0.0-3.0-25.0-1.0","5ab8026547a9f7000153a324","C3","batch3","","1826","","","tol_toboard","","","","","","","","","tol_peg_1","1826","1826","0","[[3,0,0],[1,2],[0]]","1","[[1,0,0],[2,3],[0]]","5","0","","","","","","6","",""
"","","","","","single-stim-button","257","708959","0.0-3.0-25.1-0.1","5ab8026547a9f7000153a324","C3","batch3","","1412","","","tol_tohand","","","","","","","","","tol_peg_2","1412","1412","0","[[3,0,0],[1,0],[0]]","2","[[1,0,0],[2,3],[0]]","5","0","","","","","","6","",""
"","","","","","single-stim-button","258","710335","0.0-3.0-25.1-1.1","5ab8026547a9f7000153a324","C3","batch3","","1374","","","tol_toboard","","","","","","","","","tol_peg_3","1374","1374","0","[[3,0,0],[1,0],[2]]","2","[[1,0,0],[2,3],[0]]","5","0","","","","","","6","",""
"","","","","","single-stim-button","259","712095","0.0-3.0-25.2-0.2","5ab8026547a9f7000153a324","C3","batch3","","1760","","","tol_tohand","","","","","","","","","tol_peg_2","1760","1760","0","[[3,0,0],[0,0],[2]]","3","[[1,0,0],[2,3],[0]]","5","0","","","","","","6","",""
"","","","","","single-stim-button","260","713660","0.0-3.0-25.2-1.2","5ab8026547a9f7000153a324","C3","batch3","","1563","","","tol_toboard","","","","","","","","","tol_peg_1","1563","1563","0","[[3,1,0],[0,0],[2]]","3","[[1,0,0],[2,3],[0]]","5","0","","","","","","6","",""
"","","","","","single-stim-button","261","714938","0.0-3.0-25.3-0.3","5ab8026547a9f7000153a324","C3","batch3","","1276","","","tol_tohand","","","","","","","","","tol_peg_3","1276","1276","0","[[3,1,0],[0,0],[0]]","4","[[1,0,0],[2,3],[0]]","5","0","","","","","","6","",""
"","","","","","single-stim-button","262","716415","0.0-3.0-25.3-1.3","5ab8026547a9f7000153a324","C3","batch3","","1476","","","tol_toboard","","","","","","","","","tol_peg_2","1476","1476","0","[[3,1,0],[2,0],[0]]","4","[[1,0,0],[2,3],[0]]","5","0","","","","","","6","",""
"","","","","","single-stim-button","263","717682","0.0-3.0-25.4-0.4","5ab8026547a9f7000153a324","C3","batch3","","1266","","","tol_tohand","","","","","","","","","tol_peg_1","1266","1266","0","[[3,0,0],[2,0],[0]]","5","[[1,0,0],[2,3],[0]]","5","0","","","","","","6","",""
"","","","","","single-stim-button","264","718896","0.0-3.0-25.4-1.4","5ab8026547a9f7000153a324","C3","batch3","","1213","","","tol_toboard","","","","","","","","","tol_peg_3","1213","1213","0","[[3,0,0],[2,0],[1]]","5","[[1,0,0],[2,3],[0]]","5","0","","","","","","6","",""
"","","","","","single-stim-button","265","720023","0.0-3.0-25.5-0.5","5ab8026547a9f7000153a324","C3","batch3","","1126","","","tol_tohand","","","","","","","","","tol_peg_1","1126","1126","0","[[0,0,0],[2,0],[1]]","6","[[1,0,0],[2,3],[0]]","5","0","","","","","","6","",""
"","","","","","single-stim-button","266","720951","0.0-3.0-25.5-1.5","5ab8026547a9f7000153a324","C3","batch3","","926","","","tol_toboard","","","","","","","","","tol_peg_2","926","926","0","[[0,0,0],[2,3],[1]]","6","[[1,0,0],[2,3],[0]]","5","0","","","","","","6","",""
"","","","","","single-stim-button","267","721809","0.0-3.0-25.6-0.6","5ab8026547a9f7000153a324","C3","batch3","","856","","","tol_tohand","","","","","","","","","tol_peg_3","856","856","0","[[0,0,0],[2,3],[0]]","7","[[1,0,0],[2,3],[0]]","5","0","","","","","","6","",""
"","","","","","single-stim-button","268","724162","0.0-3.0-25.6-1.6","5ab8026547a9f7000153a324","C3","batch3","","2352","","","tol_toboard","","","","","","","","","tol_peg_1","2352","2352","0","[[1,0,0],[2,3],[0]]","7","[[1,0,0],[2,3],[0]]","5","0","","","","","","6","",""
"","","","","","poldrack-single-stim","269","725168","0.0-3.0-26.0","5ab8026547a9f7000153a324","C3","batch3","","-1","","","tol_feedback","true","","","","","","","","","1000","1000","500","","","","","","-1","none","true","7897","15593","","",""
"","","","","","html-button-response","270","727371","0.0-3.0-27.0","5ab8026547a9f7000153a324","C3","batch3","","2202.39999999851","<div class = centerbox><p class = center-block-text>problem <strong>7</strong> out of 25 problems</p></div>","0","tol_trial_num","","","","","","","","","","","","","","","","","","","","","","","","",""
"","","","","","single-stim-button","271","742798","0.0-3.0-28.0-0.0","5ab8026547a9f7000153a324","C3","batch3","","15426","","","tol_tohand","","","","","","","","","tol_peg_3","15426","15426","0","[[2,1,0],[0,0],[0]]","1","[[1,2,0],[3,0],[0]]","6","0","","","","","","5","",""
"","","","","","single-stim-button","272","744099","0.0-3.0-28.0-1.0","5ab8026547a9f7000153a324","C3","batch3","","1299","","","tol_toboard","","","","","","","","","tol_peg_2","1299","1299","0","[[2,1,0],[3,0],[0]]","1","[[1,2,0],[3,0],[0]]","6","0","","","","","","5","",""
"","","","","","single-stim-button","273","745521","0.0-3.0-28.1-0.1","5ab8026547a9f7000153a324","C3","batch3","","1420","","","tol_tohand","","","","","","","","","tol_peg_1","1420","1420","0","[[2,0,0],[3,0],[0]]","2","[[1,2,0],[3,0],[0]]","6","0","","","","","","5","",""
"","","","","","single-stim-button","274","746665","0.0-3.0-28.1-1.1","5ab8026547a9f7000153a324","C3","batch3","","1143","","","tol_toboard","","","","","","","","","tol_peg_2","1143","1143","0","[[2,0,0],[3,1],[0]]","2","[[1,2,0],[3,0],[0]]","6","0","","","","","","5","",""
"","","","","","single-stim-button","275","748594","0.0-3.0-28.2-0.2","5ab8026547a9f7000153a324","C3","batch3","","1927","","","tol_tohand","","","","","","","","","tol_peg_1","1927","1927","0","[[0,0,0],[3,1],[0]]","3","[[1,2,0],[3,0],[0]]","6","0","","","","","","5","",""
"","","","","","single-stim-button","276","749957","0.0-3.0-28.2-1.2","5ab8026547a9f7000153a324","C3","batch3","","1361","","","tol_toboard","","","","","","","","","tol_peg_3","1361","1361","0","[[0,0,0],[3,1],[2]]","3","[[1,2,0],[3,0],[0]]","6","0","","","","","","5","",""
"","","","","","single-stim-button","277","750167","0.0-3.0-28.3-0.3","5ab8026547a9f7000153a324","C3","batch3","","209","","","tol_tohand","","","","","","","","","tol_peg_3","209","209","0","[[0,0,0],[3,1],[0]]","4","[[1,2,0],[3,0],[0]]","6","0","","","","","","5","",""
"","","","","","single-stim-button","278","752146","0.0-3.0-28.3-1.3","5ab8026547a9f7000153a324","C3","batch3","","1977","","","tol_toboard","","","","","","","","","tol_peg_3","1977","1977","0","[[0,0,0],[3,1],[2]]","4","[[1,2,0],[3,0],[0]]","6","0","","","","","","5","",""
"","","","","","single-stim-button","279","753315","0.0-3.0-28.4-0.4","5ab8026547a9f7000153a324","C3","batch3","","1168","","","tol_tohand","","","","","","","","","tol_peg_2","1168","1168","0","[[0,0,0],[3,0],[2]]","5","[[1,2,0],[3,0],[0]]","6","0","","","","","","5","",""
"","","","","","single-stim-button","280","754792","0.0-3.0-28.4-1.4","5ab8026547a9f7000153a324","C3","batch3","","1476","","","tol_toboard","","","","","","","","","tol_peg_1","1476","1476","0","[[1,0,0],[3,0],[2]]","5","[[1,2,0],[3,0],[0]]","6","0","","","","","","5","",""
"","","","","","single-stim-button","281","755934","0.0-3.0-28.5-0.5","5ab8026547a9f7000153a324","C3","batch3","","1140","","","tol_tohand","","","","","","","","","tol_peg_3","1140","1140","0","[[1,0,0],[3,0],[0]]","6","[[1,2,0],[3,0],[0]]","6","0","","","","","","5","",""
"","","","","","single-stim-button","282","757041","0.0-3.0-28.5-1.5","5ab8026547a9f7000153a324","C3","batch3","","1106","","","tol_toboard","","","","","","","","","tol_peg_1","1106","1106","0","[[1,2,0],[3,0],[0]]","6","[[1,2,0],[3,0],[0]]","6","0","","","","","","5","",""
"","","","","","poldrack-single-stim","283","758048","0.0-3.0-29.0","5ab8026547a9f7000153a324","C3","batch3","","-1","","","tol_feedback","true","","","","","","","","","1000","1000","500","","","","","","-1","none","true","15426","21290","","",""
"","","","","","html-button-response","284","763665","0.0-3.0-30.0","5ab8026547a9f7000153a324","C3","batch3","","5616.20000000298","<div class = centerbox><p class = center-block-text>problem <strong>8</strong> out of 25 problems</p></div>","0","tol_trial_num","","","","","","","","","","","","","","","","","","","","","","","","",""
"","","","","","single-stim-button","285","768498","0.0-3.0-31.0-0.0","5ab8026547a9f7000153a324","C3","batch3","","4831","","","tol_tohand","","","","","","","","","tol_peg_3","4831","4831","0","[[0,0,0],[2,3],[0]]","1","[[1,2,0],[3,0],[0]]","7","0","","","","","","4","",""
"","","","","","single-stim-button","286","770713","0.0-3.0-31.0-1.0","5ab8026547a9f7000153a324","C3","batch3","","2213","","","tol_toboard","","","","","","","","","tol_peg_1","2213","2213","0","[[1,0,0],[2,3],[0]]","1","[[1,2,0],[3,0],[0]]","7","0","","","","","","4","",""
"","","","","","single-stim-button","287","772000","0.0-3.0-31.1-0.1","5ab8026547a9f7000153a324","C3","batch3","","1286","","","tol_tohand","","","","","","","","","tol_peg_2","1286","1286","0","[[1,0,0],[2,0],[0]]","2","[[1,2,0],[3,0],[0]]","7","0","","","","","","4","",""
"","","","","","single-stim-button","288","773079","0.0-3.0-31.1-1.1","5ab8026547a9f7000153a324","C3","batch3","","1079","","","tol_toboard","","","","","","","","","tol_peg_3","1079","1079","0","[[1,0,0],[2,0],[3]]","2","[[1,2,0],[3,0],[0]]","7","0","","","","","","4","",""
"","","","","","single-stim-button","289","774115","0.0-3.0-31.2-0.2","5ab8026547a9f7000153a324","C3","batch3","","1035","","","tol_tohand","","","","","","","","","tol_peg_2","1035","1035","0","[[1,0,0],[0,0],[3]]","3","[[1,2,0],[3,0],[0]]","7","0","","","","","","4","",""
"","","","","","single-stim-button","290","775374","0.0-3.0-31.2-1.2","5ab8026547a9f7000153a324","C3","batch3","","1258","","","tol_toboard","","","","","","","","","tol_peg_1","1258","1258","0","[[1,2,0],[0,0],[3]]","3","[[1,2,0],[3,0],[0]]","7","0","","","","","","4","",""
"","","","","","single-stim-button","291","776400","0.0-3.0-31.3-0.3","5ab8026547a9f7000153a324","C3","batch3","","1024","","","tol_tohand","","","","","","","","","tol_peg_3","1024","1024","0","[[1,2,0],[0,0],[0]]","4","[[1,2,0],[3,0],[0]]","7","0","","","","","","4","",""
"","","","","","single-stim-button","292","777641","0.0-3.0-31.3-1.3","5ab8026547a9f7000153a324","C3","batch3","","1240","","","tol_toboard","","","","","","","","","tol_peg_2","1240","1240","0","[[1,2,0],[3,0],[0]]","4","[[1,2,0],[3,0],[0]]","7","0","","","","","","4","",""
"","","","","","poldrack-single-stim","293","778651","0.0-3.0-32.0","5ab8026547a9f7000153a324","C3","batch3","","-1","","","tol_feedback","true","","","","","","","","","1000","1000","500","","","","","","-1","none","true","4831","8176","","",""
"","","","","","html-button-response","294","780144","0.0-3.0-33.0","5ab8026547a9f7000153a324","C3","batch3","","1491.7999999970198","<div class = centerbox><p class = center-block-text>problem <strong>9</strong> out of 25 problems</p></div>","0","tol_trial_num","","","","","","","","","","","","","","","","","","","","","","","","",""
"","","","","","single-stim-button","295","788868","0.0-3.0-34.0-0.0","5ab8026547a9f7000153a324","C3","batch3","","8722","","","tol_tohand","","","","","","","","","tol_peg_3","8722","8722","0","[[3,2,0],[0,0],[0]]","1","[[2,1,0],[3,0],[0]]","8","0","","","","","","6","",""
"","","","","","single-stim-button","296","790339","0.0-3.0-34.0-1.0","5ab8026547a9f7000153a324","C3","batch3","","1470","","","tol_toboard","","","","","","","","","tol_peg_2","1470","1470","0","[[3,2,0],[1,0],[0]]","1","[[2,1,0],[3,0],[0]]","8","0","","","","","","6","",""
"","","","","","single-stim-button","297","793781","0.0-3.0-34.1-0.1","5ab8026547a9f7000153a324","C3","batch3","","3441","","","tol_tohand","","","","","","","","","tol_peg_1","3441","3441","0","[[3,0,0],[1,0],[0]]","2","[[2,1,0],[3,0],[0]]","8","0","","","","","","6","",""
"","","","","","single-stim-button","298","795075","0.0-3.0-34.1-1.1","5ab8026547a9f7000153a324","C3","batch3","","1292","","","tol_toboard","","","","","","","","","tol_peg_2","1292","1292","0","[[3,0,0],[1,2],[0]]","2","[[2,1,0],[3,0],[0]]","8","0","","","","","","6","",""
"","","","","","single-stim-button","299","796772","0.0-3.0-34.2-0.2","5ab8026547a9f7000153a324","C3","batch3","","1696","","","tol_tohand","","","","","","","","","tol_peg_1","1696","1696","0","[[0,0,0],[1,2],[0]]","3","[[2,1,0],[3,0],[0]]","8","0","","","","","","6","",""
"","","","","","single-stim-button","300","798389","0.0-3.0-34.2-1.2","5ab8026547a9f7000153a324","C3","batch3","","1616","","","tol_toboard","","","","","","","","","tol_peg_3","1616","1616","0","[[0,0,0],[1,2],[3]]","3","[[2,1,0],[3,0],[0]]","8","0","","","","","","6","",""
"","","","","","single-stim-button","301","799347","0.0-3.0-34.3-0.3","5ab8026547a9f7000153a324","C3","batch3","","956","","","tol_tohand","","","","","","","","","tol_peg_2","956","956","0","[[0,0,0],[1,0],[3]]","4","[[2,1,0],[3,0],[0]]","8","0","","","","","","6","",""
"","","","","","single-stim-button","302","800645","0.0-3.0-34.3-1.3","5ab8026547a9f7000153a324","C3","batch3","","1297","","","tol_toboard","","","","","","","","","tol_peg_1","1297","1297","0","[[2,0,0],[1,0],[3]]","4","[[2,1,0],[3,0],[0]]","8","0","","","","","","6","",""
"","","","","","single-stim-button","303","801480","0.0-3.0-34.4-0.4","5ab8026547a9f7000153a324","C3","batch3","","834","","","tol_tohand","","","","","","","","","tol_peg_2","834","834","0","[[2,0,0],[0,0],[3]]","5","[[2,1,0],[3,0],[0]]","8","0","","","","","","6","",""
"","","","","","single-stim-button","304","803195","0.0-3.0-34.4-1.4","5ab8026547a9f7000153a324","C3","batch3","","1713","","","tol_toboard","","","","","","","","","tol_peg_1","1713","1713","0","[[2,1,0],[0,0],[3]]","5","[[2,1,0],[3,0],[0]]","8","0","","","","","","6","",""
"","","","","","single-stim-button","305","804296","0.0-3.0-34.5-0.5","5ab8026547a9f7000153a324","C3","batch3","","1100","","","tol_tohand","","","","","","","","","tol_peg_3","1100","1100","0","[[2,1,0],[0,0],[0]]","6","[[2,1,0],[3,0],[0]]","8","0","","","","","","6","",""
"","","","","","single-stim-button","306","805580","0.0-3.0-34.5-1.5","5ab8026547a9f7000153a324","C3","batch3","","1282","","","tol_toboard","","","","","","","","","tol_peg_2","1282","1282","0","[[2,1,0],[3,0],[0]]","6","[[2,1,0],[3,0],[0]]","8","0","","","","","","6","",""
"","","","","","poldrack-single-stim","307","806587","0.0-3.0-35.0","5ab8026547a9f7000153a324","C3","batch3","","-1","","","tol_feedback","true","","","","","","","","","1000","1000","500","","","","","","-1","none","true","8722","16749","","",""
"","","","","","html-button-response","308","808464","0.0-3.0-36.0","5ab8026547a9f7000153a324","C3","batch3","","1875.1000000014901","<div class = centerbox><p class = center-block-text>problem <strong>10</strong> out of 25 problems</p></div>","0","tol_trial_num","","","","","","","","","","","","","","","","","","","","","","","","",""
"","","","","","single-stim-button","309","813197","0.0-3.0-37.0-0.0","5ab8026547a9f7000153a324","C3","batch3","","4731","","","tol_tohand","","","","","","","","","tol_peg_2","4731","4731","0","[[3,0,0],[0,0],[2]]","1","[[3,0,0],[2,1],[0]]","9","0","","","","","","3","",""
"","","","","","single-stim-button","310","814349","0.0-3.0-37.0-1.0","5ab8026547a9f7000153a324","C3","batch3","","1150","","","tol_toboard","","","","","","","","","tol_peg_1","1150","1150","0","[[3,1,0],[0,0],[2]]","1","[[3,0,0],[2,1],[0]]","9","0","","","","","","3","",""
"","","","","","single-stim-button","311","815649","0.0-3.0-37.1-0.1","5ab8026547a9f7000153a324","C3","batch3","","1298","","","tol_tohand","","","","","","","","","tol_peg_3","1298","1298","0","[[3,1,0],[0,0],[0]]","2","[[3,0,0],[2,1],[0]]","9","0","","","","","","3","",""
"","","","","","single-stim-button","312","816844","0.0-3.0-37.1-1.1","5ab8026547a9f7000153a324","C3","batch3","","1193","","","tol_toboard","","","","","","","","","tol_peg_2","1193","1193","0","[[3,1,0],[2,0],[0]]","2","[[3,0,0],[2,1],[0]]","9","0","","","","","","3","",""
"","","","","","single-stim-button","313","818262","0.0-3.0-37.2-0.2","5ab8026547a9f7000153a324","C3","batch3","","1417","","","tol_tohand","","","","","","","","","tol_peg_1","1417","1417","0","[[3,0,0],[2,0],[0]]","3","[[3,0,0],[2,1],[0]]","9","0","","","","","","3","",""
"","","","","","single-stim-button","314","819547","0.0-3.0-37.2-1.2","5ab8026547a9f7000153a324","C3","batch3","","1284","","","tol_toboard","","","","","","","","","tol_peg_2","1284","1284","0","[[3,0,0],[2,1],[0]]","3","[[3,0,0],[2,1],[0]]","9","0","","","","","","3","",""
"","","","","","poldrack-single-stim","315","820560","0.0-3.0-38.0","5ab8026547a9f7000153a324","C3","batch3","","-1","","","tol_feedback","true","","","","","","","","","1000","1000","500","","","","","","-1","none","true","4731","7446","","",""
"","","","","","html-button-response","316","822049","0.0-3.0-39.0","5ab8026547a9f7000153a324","C3","batch3","","1487","<div class = centerbox><p class = center-block-text>problem <strong>11</strong> out of 25 problems</p></div>","0","tol_trial_num","","","","","","","","","","","","","","","","","","","","","","","","",""
"","","","","","single-stim-button","317","832414","0.0-3.0-40.0-0.0","5ab8026547a9f7000153a324","C3","batch3","","10363","","","tol_tohand","","","","","","","","","tol_peg_1","10363","10363","0","[[1,0,0],[3,0],[0]]","1","[[2,0,0],[1,3],[0]]","10","0","","","","","","6","",""
"","","","","","single-stim-button","318","833719","0.0-3.0-40.0-1.0","5ab8026547a9f7000153a324","C3","batch3","","1303","","","tol_toboard","","","","","","","","","tol_peg_2","1303","1303","0","[[1,0,0],[3,2],[0]]","1","[[2,0,0],[1,3],[0]]","10","0","","","","","","6","",""
"","","","","","single-stim-button","319","834938","0.0-3.0-40.1-0.1","5ab8026547a9f7000153a324","C3","batch3","","1217","","","tol_tohand","","","","","","","","","tol_peg_1","1217","1217","0","[[0,0,0],[3,2],[0]]","2","[[2,0,0],[1,3],[0]]","10","0","","","","","","6","",""
"","","","","","single-stim-button","320","836358","0.0-3.0-40.1-1.1","5ab8026547a9f7000153a324","C3","batch3","","1420","","","tol_toboard","","","","","","","","","tol_peg_3","1420","1420","0","[[0,0,0],[3,2],[1]]","2","[[2,0,0],[1,3],[0]]","10","0","","","","","","6","",""
"","","","","","single-stim-button","321","837614","0.0-3.0-40.2-0.2","5ab8026547a9f7000153a324","C3","batch3","","1254","","","tol_tohand","","","","","","","","","tol_peg_2","1254","1254","0","[[0,0,0],[3,0],[1]]","3","[[2,0,0],[1,3],[0]]","10","0","","","","","","6","",""
"","","","","","single-stim-button","322","838939","0.0-3.0-40.2-1.2","5ab8026547a9f7000153a324","C3","batch3","","1323","","","tol_toboard","","","","","","","","","tol_peg_1","1323","1323","0","[[2,0,0],[3,0],[1]]","3","[[2,0,0],[1,3],[0]]","10","0","","","","","","6","",""
"","","","","","single-stim-button","323","839791","0.0-3.0-40.3-0.3","5ab8026547a9f7000153a324","C3","batch3","","850","","","tol_tohand","","","","","","","","","tol_peg_2","850","850","0","[[2,0,0],[0,0],[1]]","4","[[2,0,0],[1,3],[0]]","10","0","","","","","","6","",""
"","","","","","single-stim-button","324","840865","0.0-3.0-40.3-1.3","5ab8026547a9f7000153a324","C3","batch3","","1072","","","tol_toboard","","","","","","","","","tol_peg_1","1072","1072","0","[[2,3,0],[0,0],[1]]","4","[[2,0,0],[1,3],[0]]","10","0","","","","","","6","",""
"","","","","","single-stim-button","325","842043","0.0-3.0-40.4-0.4","5ab8026547a9f7000153a324","C3","batch3","","1178","","","tol_tohand","","","","","","","","","tol_peg_3","1178","1178","0","[[2,3,0],[0,0],[0]]","5","[[2,0,0],[1,3],[0]]","10","0","","","","","","6","",""
"","","","","","single-stim-button","326","843630","0.0-3.0-40.4-1.4","5ab8026547a9f7000153a324","C3","batch3","","1585","","","tol_toboard","","","","","","","","","tol_peg_2","1585","1585","0","[[2,3,0],[1,0],[0]]","5","[[2,0,0],[1,3],[0]]","10","0","","","","","","6","",""
"","","","","","single-stim-button","327","844717","0.0-3.0-40.5-0.5","5ab8026547a9f7000153a324","C3","batch3","","1087","","","tol_tohand","","","","","","","","","tol_peg_1","1087","1087","0","[[2,0,0],[1,0],[0]]","6","[[2,0,0],[1,3],[0]]","10","0","","","","","","6","",""
"","","","","","single-stim-button","328","846468","0.0-3.0-40.5-1.5","5ab8026547a9f7000153a324","C3","batch3","","1749","","","tol_toboard","","","","","","","","","tol_peg_2","1749","1749","0","[[2,0,0],[1,3],[0]]","6","[[2,0,0],[1,3],[0]]","10","0","","","","","","6","",""
"","","","","","poldrack-single-stim","329","847482","0.0-3.0-41.0","5ab8026547a9f7000153a324","C3","batch3","","-1","","","tol_feedback","true","","","","","","","","","1000","1000","500","","","","","","-1","none","true","10363","15949","","",""
"","","","","","html-button-response","330","849876","0.0-3.0-42.0","5ab8026547a9f7000153a324","C3","batch3","","2392","<div class = centerbox><p class = center-block-text>problem <strong>12</strong> out of 25 problems</p></div>","0","tol_trial_num","","","","","","","","","","","","","","","","","","","","","","","","",""
"","","","","","single-stim-button","331","853764","0.0-3.0-43.0-0.0","5ab8026547a9f7000153a324","C3","batch3","","3887","","","tol_tohand","","","","","","","","","tol_peg_1","3887","3887","0","[[1,0,0],[3,0],[0]]","1","[[2,3,0],[0,0],[1]]","11","0","","","","","","4","",""
"","","","","","single-stim-button","332","854964","0.0-3.0-43.0-1.0","5ab8026547a9f7000153a324","C3","batch3","","1199","","","tol_toboard","","","","","","","","","tol_peg_2","1199","1199","0","[[1,0,0],[3,2],[0]]","1","[[2,3,0],[0,0],[1]]","11","0","","","","","","4","",""
"","","","","","single-stim-button","333","855872","0.0-3.0-43.1-0.1","5ab8026547a9f7000153a324","C3","batch3","","907","","","tol_tohand","","","","","","","","","tol_peg_1","907","907","0","[[0,0,0],[3,2],[0]]","2","[[2,3,0],[0,0],[1]]","11","0","","","","","","4","",""
"","","","","","single-stim-button","334","857361","0.0-3.0-43.1-1.1","5ab8026547a9f7000153a324","C3","batch3","","1488","","","tol_toboard","","","","","","","","","tol_peg_3","1488","1488","0","[[0,0,0],[3,2],[1]]","2","[[2,3,0],[0,0],[1]]","11","0","","","","","","4","",""
"","","","","","single-stim-button","335","858435","0.0-3.0-43.2-0.2","5ab8026547a9f7000153a324","C3","batch3","","1072","","","tol_tohand","","","","","","","","","tol_peg_2","1072","1072","0","[[0,0,0],[3,0],[1]]","3","[[2,3,0],[0,0],[1]]","11","0","","","","","","4","",""
"","","","","","single-stim-button","336","859767","0.0-3.0-43.2-1.2","5ab8026547a9f7000153a324","C3","batch3","","1331","","","tol_toboard","","","","","","","","","tol_peg_1","1331","1331","0","[[2,0,0],[3,0],[1]]","3","[[2,3,0],[0,0],[1]]","11","0","","","","","","4","",""
"","","","","","single-stim-button","337","861249","0.0-3.0-43.3-0.3","5ab8026547a9f7000153a324","C3","batch3","","1481","","","tol_tohand","","","","","","","","","tol_peg_2","1481","1481","0","[[2,0,0],[0,0],[1]]","4","[[2,3,0],[0,0],[1]]","11","0","","","","","","4","",""
"","","","","","single-stim-button","338","862667","0.0-3.0-43.3-1.3","5ab8026547a9f7000153a324","C3","batch3","","1417","","","tol_toboard","","","","","","","","","tol_peg_1","1417","1417","0","[[2,3,0],[0,0],[1]]","4","[[2,3,0],[0,0],[1]]","11","0","","","","","","4","",""
"","","","","","poldrack-single-stim","339","863680","0.0-3.0-44.0","5ab8026547a9f7000153a324","C3","batch3","","-1","","","tol_feedback","true","","","","","","","","","1000","1000","500","","","","","","-1","none","true","3887","7347","","",""
"","","","","","html-button-response","340","865325","0.0-3.0-45.0","5ab8026547a9f7000153a324","C3","batch3","","1643.6999999955297","<div class = centerbox><p class = center-block-text>problem <strong>13</strong> out of 25 problems</p></div>","0","tol_trial_num","","","","","","","","","","","","","","","","","","","","","","","","",""
"","","","","","single-stim-button","341","884585","0.0-3.0-46.0-0.0","5ab8026547a9f7000153a324","C3","batch3","","19258","","","tol_tohand","","","","","","","","","tol_peg_1","19258","19258","0","[[1,0,0],[3,0],[0]]","1","[[0,0,0],[2,3],[1]]","12","0","","","","","","4","",""
"","","","","","single-stim-button","342","888564","0.0-3.0-46.0-1.0","5ab8026547a9f7000153a324","C3","batch3","","3978","","","tol_toboard","","","","","","","","","tol_peg_3","3978","3978","0","[[1,0,0],[3,0],[2]]","1","[[0,0,0],[2,3],[1]]","12","0","","","","","","4","",""
"","","","","","single-stim-button","343","889742","0.0-3.0-46.1-0.1","5ab8026547a9f7000153a324","C3","batch3","","1176","","","tol_tohand","","","","","","","","","tol_peg_1","1176","1176","0","[[0,0,0],[3,0],[2]]","2","[[0,0,0],[2,3],[1]]","12","0","","","","","","4","",""
"","","","","","single-stim-button","344","891113","0.0-3.0-46.1-1.1","5ab8026547a9f7000153a324","C3","batch3","","1371","","","tol_toboard","","","","","","","","","tol_peg_2","1371","1371","0","[[0,0,0],[3,1],[2]]","2","[[0,0,0],[2,3],[1]]","12","0","","","","","","4","",""
"","","","","","single-stim-button","345","892029","0.0-3.0-46.2-0.2","5ab8026547a9f7000153a324","C3","batch3","","914","","","tol_tohand","","","","","","","","","tol_peg_3","914","914","0","[[0,0,0],[3,1],[0]]","3","[[0,0,0],[2,3],[1]]","12","0","","","","","","4","",""
"","","","","","single-stim-button","346","893461","0.0-3.0-46.2-1.2","5ab8026547a9f7000153a324","C3","batch3","","1431","","","tol_toboard","","","","","","","","","tol_peg_1","1431","1431","0","[[2,0,0],[3,1],[0]]","3","[[0,0,0],[2,3],[1]]","12","0","","","","","","4","",""
"","","","","","single-stim-button","347","894442","0.0-3.0-46.3-0.3","5ab8026547a9f7000153a324","C3","batch3","","979","","","tol_tohand","","","","","","","","","tol_peg_2","979","979","0","[[2,0,0],[3,0],[0]]","4","[[0,0,0],[2,3],[1]]","12","0","","","","","","4","",""
