"success","timeout","failed_images","failed_audio","failed_video","trial_type","trial_index","time_elapsed","internal_node_id","subject_id","study_id","session_id","view_history","rt","stimulus","response","task","correct","answer","item","fiar_detect_rt","fiar_detect_correct","total_correct_fiar_detect","post_trial_gap","choices","spm_correct","spm_rt","mouse_click","stim_duration","block_duration","timing_post_trial","current_position","tol_num_moves_made","tol_target","tol_problem_id","tol_rt","key_press","possible_responses","tol_correct","preplanning","tol_rt_per_trial","tol_min_moves"
"true","false","[]","[]","[]","preload","0","2565","0.0-0.0","5ac50a19a3ba7a0001b4a483","D2","batch4","","","","","","","","","","","","","","","","","","","","","","","","","","","","","",""
"true","","","","","fullscreen","1","11298","0.0-1.0-0.0","5ac50a19a3ba7a0001b4a483","D2","batch4","","","","","","","","","","","","","","","","","","","","","","","","","","","","","",""
"true","","","","","fullscreen","2","19898","0.0-2.0-0.0","5ac50a19a3ba7a0001b4a483","D2","batch4","","","","","","","","","","","","","","","","","","","","","","","","","","","","","",""
"","","","","","instructions","3","31452","0.0-2.0-1.0-0.0","5ac50a19a3ba7a0001b4a483","D2","batch4","[{""page_index"":0,""viewing_time"":7957},{""page_index"":1,""viewing_time"":3591}]","11550.10000000894","","","","","","","","","","","","","","","","","","","","","","","","","","","",""
"","","","","","html-button-response","4","33524","0.0-2.0-1.0-1.0-0.0","5ac50a19a3ba7a0001b4a483","D2","batch4","","2066.4000000059605","<p class=block-text> Let's answer a few questions <br>","0","pattern_enter_quiz","","","","","","","","","","","","","","","","","","","","","","","","",""
"","","","","","html-button-response","5","35596","0.0-2.0-1.0-1.0-1.0","5ac50a19a3ba7a0001b4a483","D2","batch4","","2063.7999999970198","<p class = block-text>True or False: You will have as much time as you want to make each choice. <br></p>","1","pattern_quiz","true","","","","","","","","","","","","","","","","","","","","","","","",""
"","","","","","html-button-response","6","36929","0.0-2.0-1.0-1.0-2.0","5ac50a19a3ba7a0001b4a483","D2","batch4","","1327.3999999910593","<p class = block-text>Correct! You should make your choice <strong> as fast as you can</strong>.</p>","0","pattern_quiz_feedback","","","","","","","","","","","","","","","","","","","","","","","","",""
"","","","","","html-button-response","7","39667","0.0-2.0-1.0-1.0-3.0","5ac50a19a3ba7a0001b4a483","D2","batch4","","2734.2000000029802","<p class = block-text>True or False: You will look for 4 pieces in black or white color connected in a row either horizontally, vertically or diagonally. <br></p>","0","pattern_quiz","true","","","","","","","","","","","","","","","","","","","","","","","",""
"","","","","","html-button-response","8","41522","0.0-2.0-1.0-1.0-4.0","5ac50a19a3ba7a0001b4a483","D2","batch4","","1850.5999999940395","<p class = block-text>Correct! </p>","0","pattern_quiz_feedback","","","","","","","","","","","","","","","","","","","","","","","","",""
"","","","","","html-button-response","9","42976","0.0-2.0-2.0","5ac50a19a3ba7a0001b4a483","D2","batch4","","1448.1000000089407","<p class=block-text> Now that you've understood the game, let's do a few practice trials before we start!<br> <br>","0","pattern_enter_practice","","","","","","","","","","","","","","","","","","","","","","","","",""
"","","","","","image-keyboard-response","10","44706","0.0-2.0-3.0-0.0","5ac50a19a3ba7a0001b4a483","D2","batch4","","1670.300000011921","stim/prac_yes_20_dia_b1.png","f","pattern_practice","true","f","","","","","","","","","","","","","","","","","","","","","","",""
"","","","","","html-keyboard-response","11","45714","0.0-2.0-3.0-1.0","5ac50a19a3ba7a0001b4a483","D2","batch4","","null","<p style=""font-size:30px;color:green;"">Correct!</p>","null","pattern_feedback","","","","","","","","","","","","","","","","","","","","","","","","",""
"","","","","","image-keyboard-response","12","46787","0.0-2.0-3.0-0.1","5ac50a19a3ba7a0001b4a483","D2","batch4","","1068.199999988079","stim/prac_yes_16_ver_w1.png","f","pattern_practice","true","f","","","","","","","","","","","","","","","","","","","","","","",""
"","","","","","html-keyboard-response","13","47794","0.0-2.0-3.0-1.1","5ac50a19a3ba7a0001b4a483","D2","batch4","","null","<p style=""font-size:30px;color:green;"">Correct!</p>","null","pattern_feedback","","","","","","","","","","","","","","","","","","","","","","","","",""
"","","","","","image-keyboard-response","14","48519","0.0-2.0-3.0-0.2","5ac50a19a3ba7a0001b4a483","D2","batch4","","720.5","stim/prac_yes_18_hor_w1.png","f","pattern_practice","true","f","","","","","","","","","","","","","","","","","","","","","","",""
"","","","","","html-keyboard-response","15","49530","0.0-2.0-3.0-1.2","5ac50a19a3ba7a0001b4a483","D2","batch4","","null","<p style=""font-size:30px;color:green;"">Correct!</p>","null","pattern_feedback","","","","","","","","","","","","","","","","","","","","","","","","",""
"","","","","","image-keyboard-response","16","50562","0.0-2.0-3.0-0.3","5ac50a19a3ba7a0001b4a483","D2","batch4","","1025.0999999940395","stim/prac_no_16_1.png","f","pattern_practice","false","j","","","","","","","","","","","","","","","","","","","","","","",""
"","","","","","html-keyboard-response","17","51570","0.0-2.0-3.0-1.3","5ac50a19a3ba7a0001b4a483","D2","batch4","","null","<p style=""font-size:30px;color:red;"">Wrong.</p>","null","pattern_feedback","","","","","","","","","","","","","","","","","","","","","","","","",""
"","","","","","image-keyboard-response","18","52742","0.0-2.0-3.0-0.4","5ac50a19a3ba7a0001b4a483","D2","batch4","","1166.300000011921","stim/prac_no_18_1.png","j","pattern_practice","true","j","","","","","","","","","","","","","","","","","","","","","","",""
"","","","","","html-keyboard-response","19","53754","0.0-2.0-3.0-1.4","5ac50a19a3ba7a0001b4a483","D2","batch4","","null","<p style=""font-size:30px;color:green;"">Correct!</p>","null","pattern_feedback","","","","","","","","","","","","","","","","","","","","","","","","",""
"","","","","","html-button-response","20","56075","0.0-2.0-4.0","5ac50a19a3ba7a0001b4a483","D2","batch4","","2315.5","<p class=block-text> Good job! You are done with practice trials!<br>
        You responded correctly on 80% of the trials.<br>
        Press the button below to start official trials. Now you won't see any feedback about your response</p>","0","pattern_enter_official_trials","","","","","","","","","","","","","","","","","","","","","","","","",""
"","","","","","html-keyboard-response","21","56882","0.0-2.0-5.0-0.0","5ac50a19a3ba7a0001b4a483","D2","batch4","","null","<p class=block-text>Trial 1 out of 78</p>","null","pattern_show_trial_num","","","","","","","","","","","","","","","","","","","","","","","","",""
"","","","","","image-keyboard-response","22","60779","0.0-2.0-5.0-1.0","5ac50a19a3ba7a0001b4a483","D2","batch4","","3892.6000000089407","stim/yes_42_dia_w1_w.png","f","pattern_response","true","f","pattern_64","3892.6000000089407","true","1","","","","","","","","","","","","","","","","","","",""
"","","","","","html-keyboard-response","23","62090","0.0-2.0-5.0-0.1","5ac50a19a3ba7a0001b4a483","D2","batch4","","null","<p class=block-text>Trial 2 out of 78</p>","null","pattern_show_trial_num","","","","","","","","","","","","","","","","","","","","","","","","",""
"","","","","","image-keyboard-response","24","62904","0.0-2.0-5.0-1.1","5ac50a19a3ba7a0001b4a483","D2","batch4","","809.4000000059605","stim/yes_17_ver_b1_b.png","f","pattern_response","true","f","pattern_46","809.4000000059605","true","2","","","","","","","","","","","","","","","","","","",""
"","","","","","html-keyboard-response","25","64218","0.0-2.0-5.0-0.2","5ac50a19a3ba7a0001b4a483","D2","batch4","","null","<p class=block-text>Trial 3 out of 78</p>","null","pattern_show_trial_num","","","","","","","","","","","","","","","","","","","","","","","","",""
"","","","","","image-keyboard-response","26","65501","0.0-2.0-5.0-1.2","5ac50a19a3ba7a0001b4a483","D2","batch4","","1278.0999999940395","stim/no_12_1.png","j","pattern_response","true","j","pattern_01","1278.0999999940395","true","3","","","","","","","","","","","","","","","","","","",""
"","","","","","html-keyboard-response","27","66810","0.0-2.0-5.0-0.3","5ac50a19a3ba7a0001b4a483","D2","batch4","","null","<p class=block-text>Trial 4 out of 78</p>","null","pattern_show_trial_num","","","","","","","","","","","","","","","","","","","","","","","","",""
"","","","","","image-keyboard-response","28","68941","0.0-2.0-5.0-1.3","5ac50a19a3ba7a0001b4a483","D2","batch4","","2125.7999999970198","stim/no_30_1_b.png","j","pattern_response","true","j","pattern_13","2125.7999999970198","true","4","","","","","","","","","","","","","","","","","","",""
"","","","","","html-keyboard-response","29","70258","0.0-2.0-5.0-0.4","5ac50a19a3ba7a0001b4a483","D2","batch4","","null","<p class=block-text>Trial 5 out of 78</p>","null","pattern_show_trial_num","","","","","","","","","","","","","","","","","","","","","","","","",""
"","","","","","image-keyboard-response","30","74829","0.0-2.0-5.0-1.4","5ac50a19a3ba7a0001b4a483","D2","batch4","","4565.20000000298","stim/no_51_1.png","j","pattern_response","true","j","pattern_31","4565.20000000298","true","5","","","","","","","","","","","","","","","","","","",""
"","","","","","html-keyboard-response","31","76146","0.0-2.0-5.0-0.5","5ac50a19a3ba7a0001b4a483","D2","batch4","","null","<p class=block-text>Trial 6 out of 78</p>","null","pattern_show_trial_num","","","","","","","","","","","","","","","","","","","","","","","","",""
"","","","","","image-keyboard-response","32","77543","0.0-2.0-5.0-1.5","5ac50a19a3ba7a0001b4a483","D2","batch4","","1391.5","stim/no_22_1_b.png","j","pattern_response","true","j","pattern_07","1391.5","true","6","","","","","","","","","","","","","","","","","","",""
"","","","","","html-keyboard-response","33","78858","0.0-2.0-5.0-0.6","5ac50a19a3ba7a0001b4a483","D2","batch4","","null","<p class=block-text>Trial 7 out of 78</p>","null","pattern_show_trial_num","","","","","","","","","","","","","","","","","","","","","","","","",""
"","","","","","image-keyboard-response","34","80897","0.0-2.0-5.0-1.6","5ac50a19a3ba7a0001b4a483","D2","batch4","","2033.7999999970198","stim/no_25_1_b.png","j","pattern_response","true","j","pattern_09","2033.7999999970198","true","7","","","","","","","","","","","","","","","","","","",""
"","","","","","html-keyboard-response","35","82210","0.0-2.0-5.0-0.7","5ac50a19a3ba7a0001b4a483","D2","batch4","","null","<p class=block-text>Trial 8 out of 78</p>","null","pattern_show_trial_num","","","","","","","","","","","","","","","","","","","","","","","","",""
"","","","","","image-keyboard-response","36","83017","0.0-2.0-5.0-1.7","5ac50a19a3ba7a0001b4a483","D2","batch4","","801.0999999940395","stim/yes_12_hor_w1_w.png","f","pattern_response","true","f","pattern_42","801.0999999940395","true","8","","","","","","","","","","","","","","","","","","",""
"","","","","","html-keyboard-response","37","84330","0.0-2.0-5.0-0.8","5ac50a19a3ba7a0001b4a483","D2","batch4","","null","<p class=block-text>Trial 9 out of 78</p>","null","pattern_show_trial_num","","","","","","","","","","","","","","","","","","","","","","","","",""
"","","","","","image-keyboard-response","38","85638","0.0-2.0-5.0-1.8","5ac50a19a3ba7a0001b4a483","D2","batch4","","1302.7999999970198","stim/yes_70_ver_b1.png","f","pattern_response","true","f","pattern_80","1302.7999999970198","true","9","","","","","","","","","","","","","","","","","","",""
"","","","","","html-keyboard-response","39","86954","0.0-2.0-5.0-0.9","5ac50a19a3ba7a0001b4a483","D2","batch4","","null","<p class=block-text>Trial 10 out of 78</p>","null","pattern_show_trial_num","","","","","","","","","","","","","","","","","","","","","","","","",""
"","","","","","image-keyboard-response","40","91853","0.0-2.0-5.0-1.9","5ac50a19a3ba7a0001b4a483","D2","batch4","","4892.79999999702","stim/no_67_1.png","j","pattern_response","true","j","pattern_39","4892.79999999702","true","10","","","","","","","","","","","","","","","","","","",""
"","","","","","html-keyboard-response","41","93170","0.0-2.0-5.0-0.10","5ac50a19a3ba7a0001b4a483","D2","batch4","","null","<p class=block-text>Trial 11 out of 78</p>","null","pattern_show_trial_num","","","","","","","","","","","","","","","","","","","","","","","","",""
"","","","","","image-keyboard-response","42","95858","0.0-2.0-5.0-1.10","5ac50a19a3ba7a0001b4a483","D2","batch4","","2682","stim/no_43_2_b.png","j","pattern_response","true","j","pattern_23","2682","true","11","","","","","","","","","","","","","","","","","","",""
"","","","","","html-keyboard-response","43","97170","0.0-2.0-5.0-0.11","5ac50a19a3ba7a0001b4a483","D2","batch4","","null","<p class=block-text>Trial 12 out of 78</p>","null","pattern_show_trial_num","","","","","","","","","","","","","","","","","","","","","","","","",""
"","","","","","image-keyboard-response","44","100333","0.0-2.0-5.0-1.11","5ac50a19a3ba7a0001b4a483","D2","batch4","","3157","stim/no_49_2_b.png","j","pattern_response","true","j","pattern_29","3157","true","12","","","","","","","","","","","","","","","","","","",""
"","","","","","html-keyboard-response","45","101642","0.0-2.0-5.0-0.12","5ac50a19a3ba7a0001b4a483","D2","batch4","","null","<p class=block-text>Trial 13 out of 78</p>","null","pattern_show_trial_num","","","","","","","","","","","","","","","","","","","","","","","","",""
"","","","","","image-keyboard-response","46","103940","0.0-2.0-5.0-1.12","5ac50a19a3ba7a0001b4a483","D2","batch4","","2292.4000000059605","stim/no_36_1_b.png","j","pattern_response","true","j","pattern_17","2292.4000000059605","true","13","","","","","","","","","","","","","","","","","","",""
"","","","","","html-keyboard-response","47","105250","0.0-2.0-5.0-0.13","5ac50a19a3ba7a0001b4a483","D2","batch4","","null","<p class=block-text>Trial 14 out of 78</p>","null","pattern_show_trial_num","","","","","","","","","","","","","","","","","","","","","","","","",""
"","","","","","image-keyboard-response","48","106332","0.0-2.0-5.0-1.13","5ac50a19a3ba7a0001b4a483","D2","batch4","","1075.2999999970198","stim/yes_46_ver_b1_b.png","f","pattern_response","true","f","pattern_68","1075.2999999970198","true","14","","","","","","","","","","","","","","","","","","",""
"","","","","","html-keyboard-response","49","107642","0.0-2.0-5.0-0.14","5ac50a19a3ba7a0001b4a483","D2","batch4","","null","<p class=block-text>Trial 15 out of 78</p>","null","pattern_show_trial_num","","","","","","","","","","","","","","","","","","","","","","","","",""
"","","","","","image-keyboard-response","50","108553","0.0-2.0-5.0-1.14","5ac50a19a3ba7a0001b4a483","D2","batch4","","906.1000000089407","stim/yes_39_hor_w1_w.png","f","pattern_response","true","f","pattern_62","906.1000000089407","true","15","","","","","","","","","","","","","","","","","","",""
"","","","","","html-keyboard-response","51","109866","0.0-2.0-5.0-0.15","5ac50a19a3ba7a0001b4a483","D2","batch4","","null","<p class=block-text>Trial 16 out of 78</p>","null","pattern_show_trial_num","","","","","","","","","","","","","","","","","","","","","","","","",""
"","","","","","image-keyboard-response","52","113333","0.0-2.0-5.0-1.15","5ac50a19a3ba7a0001b4a483","D2","batch4","","3462.5","stim/no_58_1_w.png","j","pattern_response","true","j","pattern_35","3462.5","true","16","","","","","","","","","","","","","","","","","","",""
"","","","","","html-keyboard-response","53","114650","0.0-2.0-5.0-0.16","5ac50a19a3ba7a0001b4a483","D2","batch4","","null","<p class=block-text>Trial 17 out of 78</p>","null","pattern_show_trial_num","","","","","","","","","","","","","","","","","","","","","","","","",""
"","","","","","image-keyboard-response","54","115742","0.0-2.0-5.0-1.16","5ac50a19a3ba7a0001b4a483","D2","batch4","","1084.2000000029802","stim/yes_23_ver_b1.png","f","pattern_response","true","f","pattern_48","1084.2000000029802","true","17","","","","","","","","","","","","","","","","","","",""
"","","","","","html-keyboard-response","55","117058","0.0-2.0-5.0-0.17","5ac50a19a3ba7a0001b4a483","D2","batch4","","null","<p class=block-text>Trial 18 out of 78</p>","null","pattern_show_trial_num","","","","","","","","","","","","","","","","","","","","","","","","",""
"","","","","","image-keyboard-response","56","120542","0.0-2.0-5.0-1.17","5ac50a19a3ba7a0001b4a483","D2","batch4","","3477.8999999910593","stim/no_53_1_b.png","j","pattern_response","true","j","pattern_33","3477.8999999910593","true","18","","","","","","","","","","","","","","","","","","",""
"","","","","","html-keyboard-response","57","121914","0.0-2.0-5.0-0.18","5ac50a19a3ba7a0001b4a483","D2","batch4","","null","<p class=block-text>Trial 19 out of 78</p>","null","pattern_show_trial_num","","","","","","","","","","","","","","","","","","","","","","","","",""
"","","","","","image-keyboard-response","58","123421","0.0-2.0-5.0-1.18","5ac50a19a3ba7a0001b4a483","D2","batch4","","1499.0999999940395","stim/yes_30_ver_b1_b.png","f","pattern_response","true","f","pattern_54","1499.0999999940395","true","19","","","","","","","","","","","","","","","","","","",""
"","","","","","html-keyboard-response","59","124730","0.0-2.0-5.0-0.19","5ac50a19a3ba7a0001b4a483","D2","batch4","","null","<p class=block-text>Trial 20 out of 78</p>","null","pattern_show_trial_num","","","","","","","","","","","","","","","","","","","","","","","","",""
"","","","","","image-keyboard-response","60","127337","0.0-2.0-5.0-1.19","5ac50a19a3ba7a0001b4a483","D2","batch4","","2602.1000000089407","stim/no_45_1_w.png","j","pattern_response","true","j","pattern_25","2602.1000000089407","true","20","","","","","","","","","","","","","","","","","","",""
"","","","","","html-keyboard-response","61","128652","0.0-2.0-5.0-0.20","5ac50a19a3ba7a0001b4a483","D2","batch4","","null","<p class=block-text>Trial 21 out of 78</p>","null","pattern_show_trial_num","","","","","","","","","","","","","","","","","","","","","","","","",""
"","","","","","image-keyboard-response","62","129584","0.0-2.0-5.0-1.20","5ac50a19a3ba7a0001b4a483","D2","batch4","","925","stim/no_15_1_w.png","j","pattern_response","true","j","pattern_03","925","true","21","","","","","","","","","","","","","","","","","","",""
"","","","","","html-keyboard-response","63","130898","0.0-2.0-5.0-0.21","5ac50a19a3ba7a0001b4a483","D2","batch4","","null","<p class=block-text>Trial 22 out of 78</p>","null","pattern_show_trial_num","","","","","","","","","","","","","","","","","","","","","","","","",""
"","","","","","image-keyboard-response","64","131869","0.0-2.0-5.0-1.21","5ac50a19a3ba7a0001b4a483","D2","batch4","","967","stim/yes_33_dia_w1_w.png","f","pattern_response","true","f","pattern_56","967","true","22","","","","","","","","","","","","","","","","","","",""
"","","","","","html-keyboard-response","65","133186","0.0-2.0-5.0-0.22","5ac50a19a3ba7a0001b4a483","D2","batch4","","null","<p class=block-text>Trial 23 out of 78</p>","null","pattern_show_trial_num","","","","","","","","","","","","","","","","","","","","","","","","",""
"","","","","","image-keyboard-response","66","136134","0.0-2.0-5.0-1.22","5ac50a19a3ba7a0001b4a483","D2","batch4","","2942.5999999940395","stim/no_39_1_w.png","j","pattern_response","true","j","pattern_21","2942.5999999940395","true","23","","","","","","","","","","","","","","","","","","",""
"","","","","","html-keyboard-response","67","137450","0.0-2.0-5.0-0.23","5ac50a19a3ba7a0001b4a483","D2","batch4","","null","<p class=block-text>Trial 24 out of 78</p>","null","pattern_show_trial_num","","","","","","","","","","","","","","","","","","","","","","","","",""
"","","","","","image-keyboard-response","68","138706","0.0-2.0-5.0-1.23","5ac50a19a3ba7a0001b4a483","D2","batch4","","1250.2000000029802","stim/no_28_2.png","j","pattern_response","true","j","pattern_11","1250.2000000029802","true","24","","","","","","","","","","","","","","","","","","",""
"","","","","","html-keyboard-response","69","140018","0.0-2.0-5.0-0.24","5ac50a19a3ba7a0001b4a483","D2","batch4","","null","<p class=block-text>Trial 25 out of 78</p>","null","pattern_show_trial_num","","","","","","","","","","","","","","","","","","","","","","","","",""
"","","","","","image-keyboard-response","70","140979","0.0-2.0-5.0-1.24","5ac50a19a3ba7a0001b4a483","D2","batch4","","956.7999999970198","stim/yes_36_ver_w1_w.png","f","pattern_response","true","f","pattern_58","956.7999999970198","true","25","","","","","","","","","","","","","","","","","","",""
"","","","","","html-keyboard-response","71","142290","0.0-2.0-5.0-0.25","5ac50a19a3ba7a0001b4a483","D2","batch4","","null","<p class=block-text>Trial 26 out of 78</p>","null","pattern_show_trial_num","","","","","","","","","","","","","","","","","","","","","","","","",""
"","","","","","image-keyboard-response","72","143639","0.0-2.0-5.0-1.25","5ac50a19a3ba7a0001b4a483","D2","batch4","","1344.2999999970198","stim/yes_37_hor_w1_w.png","f","pattern_response","true","f","pattern_60","1344.2999999970198","true","26","","","","","","","","","","","","","","","","","","",""
"","","","","","html-keyboard-response","73","144955","0.0-2.0-5.0-0.26","5ac50a19a3ba7a0001b4a483","D2","batch4","","null","<p class=block-text>Trial 27 out of 78</p>","null","pattern_show_trial_num","","","","","","","","","","","","","","","","","","","","","","","","",""
"","","","","","image-keyboard-response","74","149164","0.0-2.0-5.0-1.26","5ac50a19a3ba7a0001b4a483","D2","batch4","","4204.9000000059605","stim/yes_63_dia_b1.png","j","pattern_response","false","f","pattern_78","4204.9000000059605","false","26","","","","","","","","","","","","","","","","","","",""
"","","","","","html-keyboard-response","75","150474","0.0-2.0-5.0-0.27","5ac50a19a3ba7a0001b4a483","D2","batch4","","null","<p class=block-text>Trial 28 out of 78</p>","null","pattern_show_trial_num","","","","","","","","","","","","","","","","","","","","","","","","",""
"","","","","","image-keyboard-response","76","154113","0.0-2.0-5.0-1.27","5ac50a19a3ba7a0001b4a483","D2","batch4","","3631.9000000059605","stim/yes_51_dia_b1.png","j","pattern_response","false","f","pattern_72","3631.9000000059605","false","26","","","","","","","","","","","","","","","","","","",""
"","","","","","html-keyboard-response","77","155426","0.0-2.0-5.0-0.28","5ac50a19a3ba7a0001b4a483","D2","batch4","","null","<p class=block-text>Trial 29 out of 78</p>","null","pattern_show_trial_num","","","","","","","","","","","","","","","","","","","","","","","","",""
"","","","","","image-keyboard-response","78","157106","0.0-2.0-5.0-1.28","5ac50a19a3ba7a0001b4a483","D2","batch4","","1670.2000000029802","stim/no_33_1_b.png","j","pattern_response","true","j","pattern_15","1670.2000000029802","true","27","","","","","","","","","","","","","","","","","","",""
"","","","","","html-keyboard-response","79","158418","0.0-2.0-5.0-0.29","5ac50a19a3ba7a0001b4a483","D2","batch4","","null","<p class=block-text>Trial 30 out of 78</p>","null","pattern_show_trial_num","","","","","","","","","","","","","","","","","","","","","","","","",""
"","","","","","image-keyboard-response","80","160916","0.0-2.0-5.0-1.29","5ac50a19a3ba7a0001b4a483","D2","batch4","","2492.7999999970198","stim/no_47_1_b.png","j","pattern_response","true","j","pattern_27","2492.7999999970198","true","28","","","","","","","","","","","","","","","","","","",""
"","","","","","html-keyboard-response","81","162226","0.0-2.0-5.0-0.30","5ac50a19a3ba7a0001b4a483","D2","batch4","","null","<p class=block-text>Trial 31 out of 78</p>","null","pattern_show_trial_num","","","","","","","","","","","","","","","","","","","","","","","","",""
"","","","","","image-keyboard-response","82","163346","0.0-2.0-5.0-1.30","5ac50a19a3ba7a0001b4a483","D2","batch4","","1114.0999999940395","stim/yes_53_ver_b1_b.png","f","pattern_response","true","f","pattern_74","1114.0999999940395","true","29","","","","","","","","","","","","","","","","","","",""
"","","","","","html-keyboard-response","83","164658","0.0-2.0-5.0-0.31","5ac50a19a3ba7a0001b4a483","D2","batch4","","null","<p class=block-text>Trial 32 out of 78</p>","null","pattern_show_trial_num","","","","","","","","","","","","","","","","","","","","","","","","",""
"","","","","","image-keyboard-response","84","166933","0.0-2.0-5.0-1.31","5ac50a19a3ba7a0001b4a483","D2","batch4","","2269.5","stim/yes_49_hor_w1_b.png","j","pattern_response","false","f","pattern_70","2269.5","false","29","","","","","","","","","","","","","","","","","","",""
"","","","","","html-keyboard-response","85","168250","0.0-2.0-5.0-0.32","5ac50a19a3ba7a0001b4a483","D2","batch4","","null","<p class=block-text>Trial 33 out of 78</p>","null","pattern_show_trial_num","","","","","","","","","","","","","","","","","","","","","","","","",""
"","","","","","image-keyboard-response","86","169084","0.0-2.0-5.0-1.32","5ac50a19a3ba7a0001b4a483","D2","batch4","","827.6000000089407","stim/yes_26_dia_w2_w.png","f","pattern_response","true","f","pattern_50","827.6000000089407","true","30","","","","","","","","","","","","","","","","","","",""
"","","","","","html-keyboard-response","87","170394","0.0-2.0-5.0-0.33","5ac50a19a3ba7a0001b4a483","D2","batch4","","null","<p class=block-text>Trial 34 out of 78</p>","null","pattern_show_trial_num","","","","","","","","","","","","","","","","","","","","","","","","",""
"","","","","","image-keyboard-response","88","171221","0.0-2.0-5.0-1.33","5ac50a19a3ba7a0001b4a483","D2","batch4","","822","stim/yes_15_dia_b1u_b.png","f","pattern_response","true","f","pattern_44","822","true","31","","","","","","","","","","","","","","","","","","",""
"","","","","","html-keyboard-response","89","172530","0.0-2.0-5.0-0.34","5ac50a19a3ba7a0001b4a483","D2","batch4","","null","<p class=block-text>Trial 35 out of 78</p>","null","pattern_show_trial_num","","","","","","","","","","","","","","","","","","","","","","","","",""
"","","","","","image-keyboard-response","90","175557","0.0-2.0-5.0-1.34","5ac50a19a3ba7a0001b4a483","D2","batch4","","3021.5999999940395","stim/no_37_2_w.png","j","pattern_response","true","j","pattern_19","3021.5999999940395","true","32","","","","","","","","","","","","","","","","","","",""
"","","","","","html-keyboard-response","91","176866","0.0-2.0-5.0-0.35","5ac50a19a3ba7a0001b4a483","D2","batch4","","null","<p class=block-text>Trial 36 out of 78</p>","null","pattern_show_trial_num","","","","","","","","","","","","","","","","","","","","","","","","",""
"","","","","","image-keyboard-response","92","177765","0.0-2.0-5.0-1.35","5ac50a19a3ba7a0001b4a483","D2","batch4","","892.2000000029802","stim/yes_29_hor_b1_b.png","f","pattern_response","true","f","pattern_52","892.2000000029802","true","33","","","","","","","","","","","","","","","","","","",""
"","","","","","html-keyboard-response","93","179074","0.0-2.0-5.0-0.36","5ac50a19a3ba7a0001b4a483","D2","batch4","","null","<p class=block-text>Trial 37 out of 78</p>","null","pattern_show_trial_num","","","","","","","","","","","","","","","","","","","","","","","","",""
"","","","","","image-keyboard-response","94","182684","0.0-2.0-5.0-1.36","5ac50a19a3ba7a0001b4a483","D2","batch4","","3604.4000000059605","stim/yes_58_dia_w1_w.png","j","pattern_response","false","f","pattern_76","3604.4000000059605","false","33","","","","","","","","","","","","","","","","","","",""
"","","","","","html-keyboard-response","95","183994","0.0-2.0-5.0-0.37","5ac50a19a3ba7a0001b4a483","D2","batch4","","null","<p class=block-text>Trial 38 out of 78</p>","null","pattern_show_trial_num","","","","","","","","","","","","","","","","","","","","","","","","",""
"","","","","","image-keyboard-response","96","185572","0.0-2.0-5.0-1.37","5ac50a19a3ba7a0001b4a483","D2","batch4","","1571.2000000029802","stim/no_18_1_b.png","j","pattern_response","true","j","pattern_05","1571.2000000029802","true","34","","","","","","","","","","","","","","","","","","",""
"","","","","","html-keyboard-response","97","186882","0.0-2.0-5.0-0.38","5ac50a19a3ba7a0001b4a483","D2","batch4","","null","<p class=block-text>Trial 39 out of 78</p>","null","pattern_show_trial_num","","","","","","","","","","","","","","","","","","","","","","","","",""
"","","","","","image-keyboard-response","98","188024","0.0-2.0-5.0-1.38","5ac50a19a3ba7a0001b4a483","D2","batch4","","1137.2999999970198","stim/yes_44_ver_w1_w.png","f","pattern_response","true","f","pattern_66","1137.2999999970198","true","35","","","","","","","","","","","","","","","","","","",""
"","","","","","image-keyboard-response","99","189757","0.0-2.0-6.0","5ac50a19a3ba7a0001b4a483","D2","batch4","","1223.9000000059605","stim/empty_board.png","j","attention_check","true","j","","","","","500","[""f"",""j""]","","","","","","","","","","","","","","","","",""
"","","","","","html-keyboard-response","100","190562","0.0-2.0-7.0-0.0","5ac50a19a3ba7a0001b4a483","D2","batch4","","null","<p class=block-text>Trial 40 out of 78</p>","null","pattern_show_trial_num","","","","","","","","","","","","","","","","","","","","","","","","",""
"","","","","","image-keyboard-response","101","193238","0.0-2.0-7.0-1.0","5ac50a19a3ba7a0001b4a483","D2","batch4","","2670.2000000029802","stim/yes_48_dia_w1_w.png","j","pattern_response","false","f","pattern_69","2670.2000000029802","false","35","","","","","","","","","","","","","","","","","","",""
"","","","","","html-keyboard-response","102","194554","0.0-2.0-7.0-0.1","5ac50a19a3ba7a0001b4a483","D2","batch4","","null","<p class=block-text>Trial 41 out of 78</p>","null","pattern_show_trial_num","","","","","","","","","","","","","","","","","","","","","","","","",""
"","","","","","image-keyboard-response","103","195544","0.0-2.0-7.0-1.1","5ac50a19a3ba7a0001b4a483","D2","batch4","","986.6000000089407","stim/yes_29_ver_w1.png","f","pattern_response","true","f","pattern_53","986.6000000089407","true","36","","","","","","","","","","","","","","","","","","",""
"","","","","","html-keyboard-response","104","196858","0.0-2.0-7.0-0.2","5ac50a19a3ba7a0001b4a483","D2","batch4","","null","<p class=block-text>Trial 42 out of 78</p>","null","pattern_show_trial_num","","","","","","","","","","","","","","","","","","","","","","","","",""
"","","","","","image-keyboard-response","105","198023","0.0-2.0-7.0-1.2","5ac50a19a3ba7a0001b4a483","D2","batch4","","1130.2999999970198","stim/no_26_1_w.png","j","pattern_response","true","j","pattern_10","1130.2999999970198","true","37","","","","","","","","","","","","","","","","","","",""
"","","","","","html-keyboard-response","106","199339","0.0-2.0-7.0-0.3","5ac50a19a3ba7a0001b4a483","D2","batch4","","null","<p class=block-text>Trial 43 out of 78</p>","null","pattern_show_trial_num","","","","","","","","","","","","","","","","","","","","","","","","",""
"","","","","","image-keyboard-response","107","202802","0.0-2.0-7.0-1.3","5ac50a19a3ba7a0001b4a483","D2","batch4","","3457.8999999910593","stim/yes_67_hor_b1.png","j","pattern_response","false","f","pattern_79","3457.8999999910593","false","37","","","","","","","","","","","","","","","","","","",""
"","","","","","html-keyboard-response","108","204114","0.0-2.0-7.0-0.4","5ac50a19a3ba7a0001b4a483","D2","batch4","","null","<p class=block-text>Trial 44 out of 78</p>","null","pattern_show_trial_num","","","","","","","","","","","","","","","","","","","","","","","","",""
"","","","","","image-keyboard-response","109","205229","0.0-2.0-7.0-1.4","5ac50a19a3ba7a0001b4a483","D2","batch4","","1109.5","stim/yes_55_hor_w1_w.png","f","pattern_response","true","f","pattern_75","1109.5","true","38","","","","","","","","","","","","","","","","","","",""
"","","","","","html-keyboard-response","110","206538","0.0-2.0-7.0-0.5","5ac50a19a3ba7a0001b4a483","D2","batch4","","null","<p class=block-text>Trial 45 out of 78</p>","null","pattern_show_trial_num","","","","","","","","","","","","","","","","","","","","","","","","",""
"","","","","","image-keyboard-response","111","207313","0.0-2.0-7.0-1.5","5ac50a19a3ba7a0001b4a483","D2","batch4","","770.2000000029802","stim/yes_17_dia_w1.png","f","pattern_response","true","f","pattern_45","770.2000000029802","true","39","","","","","","","","","","","","","","","","","","",""
"","","","","","html-keyboard-response","112","208626","0.0-2.0-7.0-0.6","5ac50a19a3ba7a0001b4a483","D2","batch4","","null","<p class=block-text>Trial 46 out of 78</p>","null","pattern_show_trial_num","","","","","","","","","","","","","","","","","","","","","","","","",""
"","","","","","image-keyboard-response","113","211315","0.0-2.0-7.0-1.6","5ac50a19a3ba7a0001b4a483","D2","batch4","","2684.2999999970198","stim/no_62_1_w.png","j","pattern_response","true","j","pattern_36","2684.2999999970198","true","40","","","","","","","","","","","","","","","","","","",""
"","","","","","html-keyboard-response","114","212626","0.0-2.0-7.0-0.7","5ac50a19a3ba7a0001b4a483","D2","batch4","","null","<p class=block-text>Trial 47 out of 78</p>","null","pattern_show_trial_num","","","","","","","","","","","","","","","","","","","","","","","","",""
"","","","","","image-keyboard-response","115","214265","0.0-2.0-7.0-1.7","5ac50a19a3ba7a0001b4a483","D2","batch4","","1633.5","stim/yes_35_dia_b1.png","f","pattern_response","true","f","pattern_57","1633.5","true","41","","","","","","","","","","","","","","","","","","",""
"","","","","","html-keyboard-response","116","215578","0.0-2.0-7.0-0.8","5ac50a19a3ba7a0001b4a483","D2","batch4","","null","<p class=block-text>Trial 48 out of 78</p>","null","pattern_show_trial_num","","","","","","","","","","","","","","","","","","","","","","","","",""
"","","","","","image-keyboard-response","117","218513","0.0-2.0-7.0-1.8","5ac50a19a3ba7a0001b4a483","D2","batch4","","2929.7000000029802","stim/yes_45_hor_b2_b.png","f","pattern_response","true","f","pattern_67","2929.7000000029802","true","42","","","","","","","","","","","","","","","","","","",""
"","","","","","html-keyboard-response","118","219826","0.0-2.0-7.0-0.9","5ac50a19a3ba7a0001b4a483","D2","batch4","","null","<p class=block-text>Trial 49 out of 78</p>","null","pattern_show_trial_num","","","","","","","","","","","","","","","","","","","","","","","","",""
"","","","","","image-keyboard-response","119","220883","0.0-2.0-7.0-1.9","5ac50a19a3ba7a0001b4a483","D2","batch4","","1051.7999999970198","stim/yes_40_dia_b1_b.png","f","pattern_response","true","f","pattern_63","1051.7999999970198","true","43","","","","","","","","","","","","","","","","","","",""
"","","","","","html-keyboard-response","120","222194","0.0-2.0-7.0-0.10","5ac50a19a3ba7a0001b4a483","D2","batch4","","null","<p class=block-text>Trial 50 out of 78</p>","null","pattern_show_trial_num","","","","","","","","","","","","","","","","","","","","","","","","",""
"","","","","","image-keyboard-response","121","223367","0.0-2.0-7.0-1.10","5ac50a19a3ba7a0001b4a483","D2","batch4","","1168.7000000029802","stim/no_20_1_w.png","j","pattern_response","true","j","pattern_06","1168.7000000029802","true","44","","","","","","","","","","","","","","","","","","",""
"","","","","","html-keyboard-response","122","224682","0.0-2.0-7.0-0.11","5ac50a19a3ba7a0001b4a483","D2","batch4","","null","<p class=block-text>Trial 51 out of 78</p>","null","pattern_show_trial_num","","","","","","","","","","","","","","","","","","","","","","","","",""
"","","","","","image-keyboard-response","123","228494","0.0-2.0-7.0-1.11","5ac50a19a3ba7a0001b4a483","D2","batch4","","3806.6000000089407","stim/no_70_2.png","j","pattern_response","true","j","pattern_40","3806.6000000089407","true","45","","","","","","","","","","","","","","","","","","",""
"","","","","","html-keyboard-response","124","229810","0.0-2.0-7.0-0.12","5ac50a19a3ba7a0001b4a483","D2","batch4","","null","<p class=block-text>Trial 52 out of 78</p>","null","pattern_show_trial_num","","","","","","","","","","","","","","","","","","","","","","","","",""
"","","","","","image-keyboard-response","125","232139","0.0-2.0-7.0-1.12","5ac50a19a3ba7a0001b4a483","D2","batch4","","2322.2999999970198","stim/yes_37_dia_w1.png","f","pattern_response","true","f","pattern_59","2322.2999999970198","true","46","","","","","","","","","","","","","","","","","","",""
"","","","","","html-keyboard-response","126","233450","0.0-2.0-7.0-0.13","5ac50a19a3ba7a0001b4a483","D2","batch4","","null","<p class=block-text>Trial 53 out of 78</p>","null","pattern_show_trial_num","","","","","","","","","","","","","","","","","","","","","","","","",""
"","","","","","image-keyboard-response","127","236283","0.0-2.0-7.0-1.13","5ac50a19a3ba7a0001b4a483","D2","batch4","","2828","stim/no_36_2_w.png","j","pattern_response","true","j","pattern_18","2828","true","47","","","","","","","","","","","","","","","","","","",""
"","","","","","html-keyboard-response","128","237594","0.0-2.0-7.0-0.14","5ac50a19a3ba7a0001b4a483","D2","batch4","","null","<p class=block-text>Trial 54 out of 78</p>","null","pattern_show_trial_num","","","","","","","","","","","","","","","","","","","","","","","","",""
"","","","","","image-keyboard-response","129","240324","0.0-2.0-7.0-1.14","5ac50a19a3ba7a0001b4a483","D2","batch4","","2725.8999999910593","stim/yes_52_ver_w1.png","f","pattern_response","true","f","pattern_73","2725.8999999910593","true","48","","","","","","","","","","","","","","","","","","",""
"","","","","","html-keyboard-response","130","241634","0.0-2.0-7.0-0.15","5ac50a19a3ba7a0001b4a483","D2","batch4","","null","<p class=block-text>Trial 55 out of 78</p>","null","pattern_show_trial_num","","","","","","","","","","","","","","","","","","","","","","","","",""
"","","","","","image-keyboard-response","131","245556","0.0-2.0-7.0-1.15","5ac50a19a3ba7a0001b4a483","D2","batch4","","3916.3999999910593","stim/yes_50_dia_w1.png","j","pattern_response","false","f","pattern_71","3916.3999999910593","false","48","","","","","","","","","","","","","","","","","","",""
"","","","","","html-keyboard-response","132","246866","0.0-2.0-7.0-0.16","5ac50a19a3ba7a0001b4a483","D2","batch4","","null","<p class=block-text>Trial 56 out of 78</p>","null","pattern_show_trial_num","","","","","","","","","","","","","","","","","","","","","","","","",""
"","","","","","image-keyboard-response","133","248086","0.0-2.0-7.0-1.16","5ac50a19a3ba7a0001b4a483","D2","batch4","","1214.5999999940395","stim/no_17_1_w.png","j","pattern_response","true","j","pattern_04","1214.5999999940395","true","49","","","","","","","","","","","","","","","","","","",""
"","","","","","html-keyboard-response","134","249402","0.0-2.0-7.0-0.17","5ac50a19a3ba7a0001b4a483","D2","batch4","","null","<p class=block-text>Trial 57 out of 78</p>","null","pattern_show_trial_num","","","","","","","","","","","","","","","","","","","","","","","","",""
"","","","","","image-keyboard-response","135","251731","0.0-2.0-7.0-1.17","5ac50a19a3ba7a0001b4a483","D2","batch4","","2324.0999999940395","stim/no_23_1.png","j","pattern_response","true","j","pattern_08","2324.0999999940395","true","50","","","","","","","","","","","","","","","","","","",""
"","","","","","html-keyboard-response","136","253042","0.0-2.0-7.0-0.18","5ac50a19a3ba7a0001b4a483","D2","batch4","","null","<p class=block-text>Trial 58 out of 78</p>","null","pattern_show_trial_num","","","","","","","","","","","","","","","","","","","","","","","","",""
"","","","","","image-keyboard-response","137","256462","0.0-2.0-7.0-1.18","5ac50a19a3ba7a0001b4a483","D2","batch4","","3413.2999999970198","stim/no_42_1_w.png","j","pattern_response","true","j","pattern_22","3413.2999999970198","true","51","","","","","","","","","","","","","","","","","","",""
"","","","","","html-keyboard-response","138","257778","0.0-2.0-7.0-0.19","5ac50a19a3ba7a0001b4a483","D2","batch4","","null","<p class=block-text>Trial 59 out of 78</p>","null","pattern_show_trial_num","","","","","","","","","","","","","","","","","","","","","","","","",""
"","","","","","image-keyboard-response","139","260792","0.0-2.0-7.0-1.19","5ac50a19a3ba7a0001b4a483","D2","batch4","","3007.2999999970198","stim/no_46_1_b.png","j","pattern_response","true","j","pattern_26","3007.2999999970198","true","52","","","","","","","","","","","","","","","","","","",""
"","","","","","html-keyboard-response","140","262106","0.0-2.0-7.0-0.20","5ac50a19a3ba7a0001b4a483","D2","batch4","","null","<p class=block-text>Trial 60 out of 78</p>","null","pattern_show_trial_num","","","","","","","","","","","","","","","","","","","","","","","","",""
"","","","","","image-keyboard-response","141","265447","0.0-2.0-7.0-1.20","5ac50a19a3ba7a0001b4a483","D2","batch4","","3334.5","stim/no_50_1.png","j","pattern_response","true","j","pattern_30","3334.5","true","53","","","","","","","","","","","","","","","","","","",""
"","","","","","html-keyboard-response","142","266762","0.0-2.0-7.0-0.21","5ac50a19a3ba7a0001b4a483","D2","batch4","","null","<p class=block-text>Trial 61 out of 78</p>","null","pattern_show_trial_num","","","","","","","","","","","","","","","","","","","","","","","","",""
"","","","","","image-keyboard-response","143","270042","0.0-2.0-7.0-1.21","5ac50a19a3ba7a0001b4a483","D2","batch4","","3273.5","stim/no_44_1.png","j","pattern_response","true","j","pattern_24","3273.5","true","54","","","","","","","","","","","","","","","","","","",""
"","","","","","html-keyboard-response","144","271354","0.0-2.0-7.0-0.22","5ac50a19a3ba7a0001b4a483","D2","batch4","","null","<p class=block-text>Trial 62 out of 78</p>","null","pattern_show_trial_num","","","","","","","","","","","","","","","","","","","","","","","","",""
"","","","","","image-keyboard-response","145","272366","0.0-2.0-7.0-1.22","5ac50a19a3ba7a0001b4a483","D2","batch4","","1005.1000000089407","stim/no_13_2_b.png","j","pattern_response","true","j","pattern_02","1005.1000000089407","true","55","","","","","","","","","","","","","","","","","","",""
"","","","","","html-keyboard-response","146","273682","0.0-2.0-7.0-0.23","5ac50a19a3ba7a0001b4a483","D2","batch4","","null","<p class=block-text>Trial 63 out of 78</p>","null","pattern_show_trial_num","","","","","","","","","","","","","","","","","","","","","","","","",""
"","","","","","image-keyboard-response","147","274916","0.0-2.0-7.0-1.23","5ac50a19a3ba7a0001b4a483","D2","batch4","","1230.4000000059605","stim/yes_31_hor_b1.png","j","pattern_response","false","f","pattern_55","1230.4000000059605","false","55","","","","","","","","","","","","","","","","","","",""
"","","","","","html-keyboard-response","148","276226","0.0-2.0-7.0-0.24","5ac50a19a3ba7a0001b4a483","D2","batch4","","null","<p class=block-text>Trial 64 out of 78</p>","null","pattern_show_trial_num","","","","","","","","","","","","","","","","","","","","","","","","",""
"","","","","","image-keyboard-response","149","277075","0.0-2.0-7.0-1.24","5ac50a19a3ba7a0001b4a483","D2","batch4","","843.5","stim/yes_28_ver_b1.png","f","pattern_response","true","f","pattern_51","843.5","true","56","","","","","","","","","","","","","","","","","","",""
"","","","","","html-keyboard-response","150","278386","0.0-2.0-7.0-0.25","5ac50a19a3ba7a0001b4a483","D2","batch4","","null","<p class=block-text>Trial 65 out of 78</p>","null","pattern_show_trial_num","","","","","","","","","","","","","","","","","","","","","","","","",""
"","","","","","image-keyboard-response","151","279212","0.0-2.0-7.0-1.25","5ac50a19a3ba7a0001b4a483","D2","batch4","","820.4000000059605","stim/yes_25_hor_b1_b.png","f","pattern_response","true","f","pattern_49","820.4000000059605","true","57","","","","","","","","","","","","","","","","","","",""
"","","","","","html-keyboard-response","152","280522","0.0-2.0-7.0-0.26","5ac50a19a3ba7a0001b4a483","D2","batch4","","null","<p class=block-text>Trial 66 out of 78</p>","null","pattern_show_trial_num","","","","","","","","","","","","","","","","","","","","","","","","",""
"","","","","","image-keyboard-response","153","282539","0.0-2.0-7.0-1.26","5ac50a19a3ba7a0001b4a483","D2","batch4","","2010.7999999970198","stim/no_29_1_b.png","j","pattern_response","true","j","pattern_12","2010.7999999970198","true","58","","","","","","","","","","","","","","","","","","",""
"","","","","","html-keyboard-response","154","283850","0.0-2.0-7.0-0.27","5ac50a19a3ba7a0001b4a483","D2","batch4","","null","<p class=block-text>Trial 67 out of 78</p>","null","pattern_show_trial_num","","","","","","","","","","","","","","","","","","","","","","","","",""
"","","","","","image-keyboard-response","155","287631","0.0-2.0-7.0-1.27","5ac50a19a3ba7a0001b4a483","D2","batch4","","3774","stim/no_48_1_w.png","j","pattern_response","true","j","pattern_28","3774","true","59","","","","","","","","","","","","","","","","","","",""
"","","","","","html-keyboard-response","156","288946","0.0-2.0-7.0-0.28","5ac50a19a3ba7a0001b4a483","D2","batch4","","null","<p class=block-text>Trial 68 out of 78</p>","null","pattern_show_trial_num","","","","","","","","","","","","","","","","","","","","","","","","",""
"","","","","","image-keyboard-response","157","290486","0.0-2.0-7.0-1.28","5ac50a19a3ba7a0001b4a483","D2","batch4","","1477.7000000029802","stim/yes_60_ver_b1_b.png","f","pattern_response","true","f","pattern_77","1477.7000000029802","true","60","","","","","","","","","","","","","","","","","","",""
"","","","","","html-keyboard-response","158","291802","0.0-2.0-7.0-0.29","5ac50a19a3ba7a0001b4a483","D2","batch4","","null","<p class=block-text>Trial 69 out of 78</p>","null","pattern_show_trial_num","","","","","","","","","","","","","","","","","","","","","","","","",""
"","","","","","image-keyboard-response","159","295653","0.0-2.0-7.0-1.29","5ac50a19a3ba7a0001b4a483","D2","batch4","","3845.1000000089407","stim/no_32_1_w.png","j","pattern_response","true","j","pattern_14","3845.1000000089407","true","61","","","","","","","","","","","","","","","","","","",""
"","","","","","html-keyboard-response","160","296962","0.0-2.0-7.0-0.30","5ac50a19a3ba7a0001b4a483","D2","batch4","","null","<p class=block-text>Trial 70 out of 78</p>","null","pattern_show_trial_num","","","","","","","","","","","","","","","","","","","","","","","","",""
"","","","","","image-keyboard-response","161","299589","0.0-2.0-7.0-1.30","5ac50a19a3ba7a0001b4a483","D2","batch4","","2621.0999999940395","stim/no_52_1.png","j","pattern_response","true","j","pattern_32","2621.0999999940395","true","62","","","","","","","","","","","","","","","","","","",""
"","","","","","html-keyboard-response","162","300906","0.0-2.0-7.0-0.31","5ac50a19a3ba7a0001b4a483","D2","batch4","","null","<p class=block-text>Trial 71 out of 78</p>","null","pattern_show_trial_num","","","","","","","","","","","","","","","","","","","","","","","","",""
"","","","","","image-keyboard-response","163","301685","0.0-2.0-7.0-1.31","5ac50a19a3ba7a0001b4a483","D2","batch4","","773.6000000089407","stim/yes_22_ver_w1.png","f","pattern_response","true","f","pattern_47","773.6000000089407","true","63","","","","","","","","","","","","","","","","","","",""
"","","","","","html-keyboard-response","164","303002","0.0-2.0-7.0-0.32","5ac50a19a3ba7a0001b4a483","D2","batch4","","null","<p class=block-text>Trial 72 out of 78</p>","null","pattern_show_trial_num","","","","","","","","","","","","","","","","","","","","","","","","",""
"","","","","","image-keyboard-response","165","305587","0.0-2.0-7.0-1.32","5ac50a19a3ba7a0001b4a483","D2","batch4","","2580.2000000029802","stim/no_38_1_b.png","j","pattern_response","true","j","pattern_20","2580.2000000029802","true","64","","","","","","","","","","","","","","","","","","",""
"","","","","","html-keyboard-response","166","306898","0.0-2.0-7.0-0.33","5ac50a19a3ba7a0001b4a483","D2","batch4","","null","<p class=block-text>Trial 73 out of 78</p>","null","pattern_show_trial_num","","","","","","","","","","","","","","","","","","","","","","","","",""
"","","","","","image-keyboard-response","167","310613","0.0-2.0-7.0-1.33","5ac50a19a3ba7a0001b4a483","D2","batch4","","3709","stim/no_55_1_w.png","j","pattern_response","true","j","pattern_34","3709","true","65","","","","","","","","","","","","","","","","","","",""
"","","","","","html-keyboard-response","168","311922","0.0-2.0-7.0-0.34","5ac50a19a3ba7a0001b4a483","D2","batch4","","null","<p class=block-text>Trial 74 out of 78</p>","null","pattern_show_trial_num","","","","","","","","","","","","","","","","","","","","","","","","",""
"","","","","","image-keyboard-response","169","314236","0.0-2.0-7.0-1.34","5ac50a19a3ba7a0001b4a483","D2","batch4","","2306.7999999970198","stim/no_34_1_b.png","j","pattern_response","true","j","pattern_16","2306.7999999970198","true","66","","","","","","","","","","","","","","","","","","",""
"","","","","","html-keyboard-response","170","315546","0.0-2.0-7.0-0.35","5ac50a19a3ba7a0001b4a483","D2","batch4","","null","<p class=block-text>Trial 75 out of 78</p>","null","pattern_show_trial_num","","","","","","","","","","","","","","","","","","","","","","","","",""
"","","","","","image-keyboard-response","171","316552","0.0-2.0-7.0-1.35","5ac50a19a3ba7a0001b4a483","D2","batch4","","1001","stim/yes_43_ver_w1_w.png","f","pattern_response","true","f","pattern_65","1001","true","67","","","","","","","","","","","","","","","","","","",""
"","","","","","html-keyboard-response","172","317866","0.0-2.0-7.0-0.36","5ac50a19a3ba7a0001b4a483","D2","batch4","","null","<p class=block-text>Trial 76 out of 78</p>","null","pattern_show_trial_num","","","","","","","","","","","","","","","","","","","","","","","","",""
"","","","","","image-keyboard-response","173","322446","0.0-2.0-7.0-1.36","5ac50a19a3ba7a0001b4a483","D2","batch4","","4575.5","stim/no_65_1_b.png","j","pattern_response","true","j","pattern_38","4575.5","true","68","","","","","","","","","","","","","","","","","","",""
"","","","","","html-keyboard-response","174","323762","0.0-2.0-7.0-0.37","5ac50a19a3ba7a0001b4a483","D2","batch4","","null","<p class=block-text>Trial 77 out of 78</p>","null","pattern_show_trial_num","","","","","","","","","","","","","","","","","","","","","","","","",""
"","","","","","image-keyboard-response","175","324675","0.0-2.0-7.0-1.37","5ac50a19a3ba7a0001b4a483","D2","batch4","","907.4000000059605","stim/yes_38_hor_b1_b.png","f","pattern_response","true","f","pattern_61","907.4000000059605","true","69","","","","","","","","","","","","","","","","","","",""
"","","","","","html-keyboard-response","176","325987","0.0-2.0-7.0-0.38","5ac50a19a3ba7a0001b4a483","D2","batch4","","null","<p class=block-text>Trial 78 out of 78</p>","null","pattern_show_trial_num","","","","","","","","","","","","","","","","","","","","","","","","",""
"","","","","","image-keyboard-response","177","326848","0.0-2.0-7.0-1.38","5ac50a19a3ba7a0001b4a483","D2","batch4","","854.6999999880791","stim/yes_14_hor_b1_w.png","f","pattern_response","true","f","pattern_43","854.6999999880791","true","70","","","","","","","","","","","","","","","","","","",""
"","","","","","html-button-response","178","707497","0.0-2.0-8.0","5ac50a19a3ba7a0001b4a483","D2","batch4","","380138.39999999106","<p class = block-text>This concludes the 4-in-a-row detection game.Thank you for your responses!<br>
            You responded correctly on 90% of the trials.<br>
            When you are ready, press ""Continue"" button to continue </p>","0","","","","","","","","","","","","","","","","","","","","","","","","","",""
"true","","","","","fullscreen","179","710194","0.0-3.0-0.0","5ac50a19a3ba7a0001b4a483","D2","batch4","","","","","spm_fullscreen","","","","","","","","","","","","","","","","","","","","","","","","",""
"","","","","","html-button-response","180","712249","0.0-3.0-1.0","5ac50a19a3ba7a0001b4a483","D2","batch4","","2049.800000011921","<p class = block-text><b>Instructions</b> <br>This is a widely used intelligence test in research. <br>In this test, a figure with a missing piece will be presented.<br>Below the figure are alternative pieces to complete the figure, only one of which is correct.<br> Different figures might involve different principles for obtaining the missing piece<br>Your job is to select the most logical piece to complete the figure.</p>","0","","","","","","","","","","","","","","","","","","","","","","","","","",""
"","","","","","html-keyboard-response","181","713058","0.0-3.0-2.0-0.0","5ac50a19a3ba7a0001b4a483","D2","batch4","","null","<p class=block-text>Trial 1 out of 60</p>","null","spm_show_trial_num","","","","","","","","","","","","","","","","","","","","","","","","",""
"","","","","","image-button-response","182","718638","0.0-3.0-2.0-1.0","5ac50a19a3ba7a0001b4a483","D2","batch4","","5568.5","img/question_1_1.jpeg","3","spm_respsonse","1","4","mat_01","","","","","","1","5568.5","","","","","","","","","","","","","","",""
"","","","","","html-keyboard-response","183","719698","0.0-3.0-2.0-0.1","5ac50a19a3ba7a0001b4a483","D2","batch4","","null","<p class=block-text>Trial 2 out of 60</p>","null","spm_show_trial_num","","","","","","","","","","","","","","","","","","","","","","","","",""
"","","","","","image-button-response","184","722563","0.0-3.0-2.0-1.1","5ac50a19a3ba7a0001b4a483","D2","batch4","","2856.9000000059605","img/question_1_2.jpeg","4","spm_respsonse","1","5","mat_02","","","","","","1","2856.9000000059605","","","","","","","","","","","","","","",""
"","","","","","html-keyboard-response","185","723625","0.0-3.0-2.0-0.2","5ac50a19a3ba7a0001b4a483","D2","batch4","","null","<p class=block-text>Trial 3 out of 60</p>","null","spm_show_trial_num","","","","","","","","","","","","","","","","","","","","","","","","",""
"","","","","","image-button-response","186","726577","0.0-3.0-2.0-1.2","5ac50a19a3ba7a0001b4a483","D2","batch4","","2946.7000000029802","img/question_1_3.jpeg","0","spm_respsonse","1","1","mat_03","","","","","","1","2946.7000000029802","","","","","","","","","","","","","","",""
"","","","","","html-keyboard-response","187","727641","0.0-3.0-2.0-0.3","5ac50a19a3ba7a0001b4a483","D2","batch4","","null","<p class=block-text>Trial 4 out of 60</p>","null","spm_show_trial_num","","","","","","","","","","","","","","","","","","","","","","","","",""
"","","","","","image-button-response","188","729962","0.0-3.0-2.0-1.3","5ac50a19a3ba7a0001b4a483","D2","batch4","","2316.2999999970198","img/question_1_4.jpeg","1","spm_respsonse","1","2","mat_04","","","","","","1","2316.2999999970198","","","","","","","","","","","","","","",""
"","","","","","html-keyboard-response","189","731026","0.0-3.0-2.0-0.4","5ac50a19a3ba7a0001b4a483","D2","batch4","","null","<p class=block-text>Trial 5 out of 60</p>","null","spm_show_trial_num","","","","","","","","","","","","","","","","","","","","","","","","",""
"","","","","","image-button-response","190","733235","0.0-3.0-2.0-1.4","5ac50a19a3ba7a0001b4a483","D2","batch4","","2202.300000011921","img/question_1_5.jpeg","4","spm_respsonse","0","6","mat_05","","","","","","0","2202.300000011921","","","","","","","","","","","","","","",""
"","","","","","html-keyboard-response","191","734298","0.0-3.0-2.0-0.5","5ac50a19a3ba7a0001b4a483","D2","batch4","","null","<p class=block-text>Trial 6 out of 60</p>","null","spm_show_trial_num","","","","","","","","","","","","","","","","","","","","","","","","",""
"","","","","","image-button-response","192","737370","0.0-3.0-2.0-1.5","5ac50a19a3ba7a0001b4a483","D2","batch4","","3064.4000000059605","img/question_1_6.jpeg","2","spm_respsonse","1","3","mat_06","","","","","","1","3064.4000000059605","","","","","","","","","","","","","","",""
"","","","","","html-keyboard-response","193","738434","0.0-3.0-2.0-0.6","5ac50a19a3ba7a0001b4a483","D2","batch4","","null","<p class=block-text>Trial 7 out of 60</p>","null","spm_show_trial_num","","","","","","","","","","","","","","","","","","","","","","","","",""
"","","","","","image-button-response","194","741539","0.0-3.0-2.0-1.6","5ac50a19a3ba7a0001b4a483","D2","batch4","","3096.8999999910593","img/question_1_7.jpeg","5","spm_respsonse","1","6","mat_07","","","","","","1","3096.8999999910593","","","","","","","","","","","","","","",""
"","","","","","html-keyboard-response","195","742602","0.0-3.0-2.0-0.7","5ac50a19a3ba7a0001b4a483","D2","batch4","","null","<p class=block-text>Trial 8 out of 60</p>","null","spm_show_trial_num","","","","","","","","","","","","","","","","","","","","","","","","",""
"","","","","","image-button-response","196","746440","0.0-3.0-2.0-1.7","5ac50a19a3ba7a0001b4a483","D2","batch4","","3829.7999999970198","img/question_1_8.jpeg","1","spm_respsonse","1","2","mat_08","","","","","","1","3829.7999999970198","","","","","","","","","","","","","","",""
"","","","","","html-keyboard-response","197","747506","0.0-3.0-2.0-0.8","5ac50a19a3ba7a0001b4a483","D2","batch4","","null","<p class=block-text>Trial 9 out of 60</p>","null","spm_show_trial_num","","","","","","","","","","","","","","","","","","","","","","","","",""
"","","","","","image-button-response","198","751940","0.0-3.0-2.0-1.8","5ac50a19a3ba7a0001b4a483","D2","batch4","","4425.5","img/question_1_9.jpeg","0","spm_respsonse","1","1","mat_09","","","","","","1","4425.5","","","","","","","","","","","","","","",""
"","","","","","html-keyboard-response","199","753002","0.0-3.0-2.0-0.9","5ac50a19a3ba7a0001b4a483","D2","batch4","","null","<p class=block-text>Trial 10 out of 60</p>","null","spm_show_trial_num","","","","","","","","","","","","","","","","","","","","","","","","",""
"","","","","","image-button-response","200","758355","0.0-3.0-2.0-1.9","5ac50a19a3ba7a0001b4a483","D2","batch4","","5344.100000008941","img/question_1_10.jpeg","2","spm_respsonse","1","3","mat_10","","","","","","1","5344.100000008941","","","","","","","","","","","","","","",""
"","","","","","html-keyboard-response","201","759418","0.0-3.0-2.0-0.10","5ac50a19a3ba7a0001b4a483","D2","batch4","","null","<p class=block-text>Trial 11 out of 60</p>","null","spm_show_trial_num","","","","","","","","","","","","","","","","","","","","","","","","",""
"","","","","","image-button-response","202","769914","0.0-3.0-2.0-1.10","5ac50a19a3ba7a0001b4a483","D2","batch4","","10488.09999999404","img/question_1_11.jpeg","4","spm_respsonse","0","4","mat_11","","","","","","0","10488.09999999404","","","","","","","","","","","","","","",""
"","","","","","html-keyboard-response","203","770978","0.0-3.0-2.0-0.11","5ac50a19a3ba7a0001b4a483","D2","batch4","","null","<p class=block-text>Trial 12 out of 60</p>","null","spm_show_trial_num","","","","","","","","","","","","","","","","","","","","","","","","",""
"","","","","","image-button-response","204","776652","0.0-3.0-2.0-1.11","5ac50a19a3ba7a0001b4a483","D2","batch4","","5666.5999999940395","img/question_1_12.jpeg","0","spm_respsonse","0","5","mat_12","","","","","","0","5666.5999999940395","","","","","","","","","","","","","","",""
"","","","","","html-keyboard-response","205","777714","0.0-3.0-2.0-0.12","5ac50a19a3ba7a0001b4a483","D2","batch4","","null","<p class=block-text>Trial 13 out of 60</p>","null","spm_show_trial_num","","","","","","","","","","","","","","","","","","","","","","","","",""
"","","","","","image-button-response","206","781708","0.0-3.0-2.0-1.12","5ac50a19a3ba7a0001b4a483","D2","batch4","","3985.2000000029802","img/question_2_1.jpeg","1","spm_respsonse","1","2","mat_13","","","","","","1","3985.2000000029802","","","","","","","","","","","","","","",""
"","","","","","html-keyboard-response","207","782770","0.0-3.0-2.0-0.13","5ac50a19a3ba7a0001b4a483","D2","batch4","","null","<p class=block-text>Trial 14 out of 60</p>","null","spm_show_trial_num","","","","","","","","","","","","","","","","","","","","","","","","",""
"","","","","","image-button-response","208","788419","0.0-3.0-2.0-1.13","5ac50a19a3ba7a0001b4a483","D2","batch4","","5641.5999999940395","img/question_2_2.jpeg","5","spm_respsonse","1","6","mat_14","","","","","","1","5641.5999999940395","","","","","","","","","","","","","","",""
"","","","","","html-keyboard-response","209","789482","0.0-3.0-2.0-0.14","5ac50a19a3ba7a0001b4a483","D2","batch4","","null","<p class=block-text>Trial 15 out of 60</p>","null","spm_show_trial_num","","","","","","","","","","","","","","","","","","","","","","","","",""
"","","","","","image-button-response","210","792812","0.0-3.0-2.0-1.14","5ac50a19a3ba7a0001b4a483","D2","batch4","","3324.4000000059605","img/question_2_3.jpeg","0","spm_respsonse","1","1","mat_15","","","","","","1","3324.4000000059605","","","","","","","","","","","","","","",""
"","","","","","html-keyboard-response","211","793874","0.0-3.0-2.0-0.15","5ac50a19a3ba7a0001b4a483","D2","batch4","","null","<p class=block-text>Trial 16 out of 60</p>","null","spm_show_trial_num","","","","","","","","","","","","","","","","","","","","","","","","",""
"","","","","","image-button-response","212","796835","0.0-3.0-2.0-1.15","5ac50a19a3ba7a0001b4a483","D2","batch4","","2953.0999999940395","img/question_2_4.jpeg","1","spm_respsonse","1","2","mat_16","","","","","","1","2953.0999999940395","","","","","","","","","","","","","","",""
"","","","","","html-keyboard-response","213","797898","0.0-3.0-2.0-0.16","5ac50a19a3ba7a0001b4a483","D2","batch4","","null","<p class=block-text>Trial 17 out of 60</p>","null","spm_show_trial_num","","","","","","","","","","","","","","","","","","","","","","","","",""
"","","","","","image-button-response","214","801738","0.0-3.0-2.0-1.16","5ac50a19a3ba7a0001b4a483","D2","batch4","","3833","img/question_2_5.jpeg","0","spm_respsonse","1","1","mat_17","","","","","","1","3833","","","","","","","","","","","","","","",""
"","","","","","html-keyboard-response","215","802802","0.0-3.0-2.0-0.17","5ac50a19a3ba7a0001b4a483","D2","batch4","","null","<p class=block-text>Trial 18 out of 60</p>","null","spm_show_trial_num","","","","","","","","","","","","","","","","","","","","","","","","",""
"","","","","","image-button-response","216","809331","0.0-3.0-2.0-1.17","5ac50a19a3ba7a0001b4a483","D2","batch4","","6521.70000000298","img/question_2_6.jpeg","2","spm_respsonse","1","3","mat_18","","","","","","1","6521.70000000298","","","","","","","","","","","","","","",""
"","","","","","html-keyboard-response","217","810394","0.0-3.0-2.0-0.18","5ac50a19a3ba7a0001b4a483","D2","batch4","","null","<p class=block-text>Trial 19 out of 60</p>","null","spm_show_trial_num","","","","","","","","","","","","","","","","","","","","","","","","",""
"","","","","","image-button-response","218","819332","0.0-3.0-2.0-1.18","5ac50a19a3ba7a0001b4a483","D2","batch4","","8929.90000000596","img/question_2_7.jpeg","0","spm_respsonse","0","5","mat_19","","","","","","0","8929.90000000596","","","","","","","","","","","","","","",""
"","","","","","html-keyboard-response","219","820394","0.0-3.0-2.0-0.19","5ac50a19a3ba7a0001b4a483","D2","batch4","","null","<p class=block-text>Trial 20 out of 60</p>","null","spm_show_trial_num","","","","","","","","","","","","","","","","","","","","","","","","",""
"","","","","","image-button-response","220","827813","0.0-3.0-2.0-1.19","5ac50a19a3ba7a0001b4a483","D2","batch4","","7410.0999999940395","img/question_2_8.jpeg","4","spm_respsonse","0","6","mat_20","","","","","","0","7410.0999999940395","","","","","","","","","","","","","","",""
"","","","","","html-keyboard-response","221","828874","0.0-3.0-2.0-0.20","5ac50a19a3ba7a0001b4a483","D2","batch4","","null","<p class=block-text>Trial 21 out of 60</p>","null","spm_show_trial_num","","","","","","","","","","","","","","","","","","","","","","","","",""
"","","","","","image-button-response","222","833951","0.0-3.0-2.0-1.20","5ac50a19a3ba7a0001b4a483","D2","batch4","","5070.29999999702","img/question_2_9.jpeg","3","spm_respsonse","1","4","mat_21","","","","","","1","5070.29999999702","","","","","","","","","","","","","","",""
"","","","","","html-keyboard-response","223","835018","0.0-3.0-2.0-0.21","5ac50a19a3ba7a0001b4a483","D2","batch4","","null","<p class=block-text>Trial 22 out of 60</p>","null","spm_show_trial_num","","","","","","","","","","","","","","","","","","","","","","","","",""
"","","","","","image-button-response","224","838642","0.0-3.0-2.0-1.21","5ac50a19a3ba7a0001b4a483","D2","batch4","","3617.1000000089407","img/question_2_10.jpeg","2","spm_respsonse","1","3","mat_22","","","","","","1","3617.1000000089407","","","","","","","","","","","","","","",""
"","","","","","html-keyboard-response","225","839706","0.0-3.0-2.0-0.22","5ac50a19a3ba7a0001b4a483","D2","batch4","","null","<p class=block-text>Trial 23 out of 60</p>","null","spm_show_trial_num","","","","","","","","","","","","","","","","","","","","","","","","",""
"","","","","","image-button-response","226","845026","0.0-3.0-2.0-1.22","5ac50a19a3ba7a0001b4a483","D2","batch4","","5311.9000000059605","img/question_2_11.jpeg","3","spm_respsonse","1","4","mat_23","","","","","","1","5311.9000000059605","","","","","","","","","","","","","","",""
"","","","","","html-keyboard-response","227","846090","0.0-3.0-2.0-0.23","5ac50a19a3ba7a0001b4a483","D2","batch4","","null","<p class=block-text>Trial 24 out of 60</p>","null","spm_show_trial_num","","","","","","","","","","","","","","","","","","","","","","","","",""
"","","","","","image-button-response","228","855124","0.0-3.0-2.0-1.23","5ac50a19a3ba7a0001b4a483","D2","batch4","","9025.29999999702","img/question_2_12.jpeg","5","spm_respsonse","0","5","mat_24","","","","","","0","9025.29999999702","","","","","","","","","","","","","","",""
"","","","","","html-button-response","229","857786","0.0-3.0-3.0","5ac50a19a3ba7a0001b4a483","D2","batch4","","2401.7999999970198","<p class = block-text>Attention check: Please choose 1<br></p>","0","attention_check","true","","","","","","","","","","","","","","","","","","","","","","","",""
"","","","","","html-keyboard-response","230","858594","0.0-3.0-4.0-0.0","5ac50a19a3ba7a0001b4a483","D2","batch4","","null","<p class=block-text>Trial 25 out of 60</p>","null","spm_show_trial_num","","","","","","","","","","","","","","","","","","","","","","","","",""
"","","","","","image-button-response","231","866299","0.0-3.0-4.0-1.0","5ac50a19a3ba7a0001b4a483","D2","batch4","","7696.20000000298","img/question_3_1.jpeg","7","spm_respsonse","1","8","mat_25","","","","","","1","7696.20000000298","","","","","","","","","","","","","","",""
"","","","","","html-keyboard-response","232","867362","0.0-3.0-4.0-0.1","5ac50a19a3ba7a0001b4a483","D2","batch4","","null","<p class=block-text>Trial 26 out of 60</p>","null","spm_show_trial_num","","","","","","","","","","","","","","","","","","","","","","","","",""
"","","","","","image-button-response","233","871609","0.0-3.0-4.0-1.1","5ac50a19a3ba7a0001b4a483","D2","batch4","","4238.70000000298","img/question_3_2.jpeg","1","spm_respsonse","1","2","mat_26","","","","","","1","4238.70000000298","","","","","","","","","","","","","","",""
"","","","","","html-keyboard-response","234","872674","0.0-3.0-4.0-0.2","5ac50a19a3ba7a0001b4a483","D2","batch4","","null","<p class=block-text>Trial 27 out of 60</p>","null","spm_show_trial_num","","","","","","","","","","","","","","","","","","","","","","","","",""
"","","","","","image-button-response","235","877828","0.0-3.0-4.0-1.2","5ac50a19a3ba7a0001b4a483","D2","batch4","","5144.20000000298","img/question_3_3.jpeg","2","spm_respsonse","1","3","mat_27","","","","","","1","5144.20000000298","","","","","","","","","","","","","","",""
"","","","","","html-keyboard-response","236","878890","0.0-3.0-4.0-0.3","5ac50a19a3ba7a0001b4a483","D2","batch4","","null","<p class=block-text>Trial 28 out of 60</p>","null","spm_show_trial_num","","","","","","","","","","","","","","","","","","","","","","","","",""
"","","","","","image-button-response","237","887723","0.0-3.0-4.0-1.3","5ac50a19a3ba7a0001b4a483","D2","batch4","","8824","img/question_3_4.jpeg","3","spm_respsonse","0","8","mat_28","","","","","","0","8824","","","","","","","","","","","","","","",""
"","","","","","html-keyboard-response","238","888786","0.0-3.0-4.0-0.4","5ac50a19a3ba7a0001b4a483","D2","batch4","","null","<p class=block-text>Trial 29 out of 60</p>","null","spm_show_trial_num","","","","","","","","","","","","","","","","","","","","","","","","",""
"","","","","","image-button-response","239","892387","0.0-3.0-4.0-1.4","5ac50a19a3ba7a0001b4a483","D2","batch4","","3591.5","img/question_3_5.jpeg","6","spm_respsonse","1","7","mat_29","","","","","","1","3591.5","","","","","","","","","","","","","","",""
"","","","","","html-keyboard-response","240","893450","0.0-3.0-4.0-0.5","5ac50a19a3ba7a0001b4a483","D2","batch4","","null","<p class=block-text>Trial 30 out of 60</p>","null","spm_show_trial_num","","","","","","","","","","","","","","","","","","","","","","","","",""
"","","","","","image-button-response","241","900091","0.0-3.0-4.0-1.5","5ac50a19a3ba7a0001b4a483","D2","batch4","","6632.899999991059","img/question_3_6.jpeg","3","spm_respsonse","1","4","mat_30","","","","","","1","6632.899999991059","","","","","","","","","","","","","","",""
"","","","","","html-keyboard-response","242","901154","0.0-3.0-4.0-0.6","5ac50a19a3ba7a0001b4a483","D2","batch4","","null","<p class=block-text>Trial 31 out of 60</p>","null","spm_show_trial_num","","","","","","","","","","","","","","","","","","","","","","","","",""
"","","","","","image-button-response","243","906386","0.0-3.0-4.0-1.6","5ac50a19a3ba7a0001b4a483","D2","batch4","","5225","img/question_3_7.jpeg","3","spm_respsonse","0","5","mat_31","","","","","","0","5225","","","","","","","","","","","","","","",""
"","","","","","html-keyboard-response","244","907450","0.0-3.0-4.0-0.7","5ac50a19a3ba7a0001b4a483","D2","batch4","","null","<p class=block-text>Trial 32 out of 60</p>","null","spm_show_trial_num","","","","","","","","","","","","","","","","","","","","","","","","",""
"","","","","","image-button-response","245","911993","0.0-3.0-4.0-1.7","5ac50a19a3ba7a0001b4a483","D2","batch4","","4535.5","img/question_3_8.jpeg","3","spm_respsonse","0","1","mat_32","","","","","","0","4535.5","","","","","","","","","","","","","","",""
"","","","","","html-keyboard-response","246","913058","0.0-3.0-4.0-0.8","5ac50a19a3ba7a0001b4a483","D2","batch4","","null","<p class=block-text>Trial 33 out of 60</p>","null","spm_show_trial_num","","","","","","","","","","","","","","","","","","","","","","","","",""
"","","","","","image-button-response","247","919924","0.0-3.0-4.0-1.8","5ac50a19a3ba7a0001b4a483","D2","batch4","","6857.9000000059605","img/question_3_9.jpeg","6","spm_respsonse","1","7","mat_33","","","","","","1","6857.9000000059605","","","","","","","","","","","","","","",""
"","","","","","html-keyboard-response","248","920986","0.0-3.0-4.0-0.9","5ac50a19a3ba7a0001b4a483","D2","batch4","","null","<p class=block-text>Trial 34 out of 60</p>","null","spm_show_trial_num","","","","","","","","","","","","","","","","","","","","","","","","",""
"","","","","","image-button-response","249","926552","0.0-3.0-4.0-1.9","5ac50a19a3ba7a0001b4a483","D2","batch4","","5557.9000000059605","img/question_3_10.jpeg","7","spm_respsonse","0","6","mat_34","","","","","","0","5557.9000000059605","","","","","","","","","","","","","","",""
"","","","","","html-keyboard-response","250","927618","0.0-3.0-4.0-0.10","5ac50a19a3ba7a0001b4a483","D2","batch4","","null","<p class=block-text>Trial 35 out of 60</p>","null","spm_show_trial_num","","","","","","","","","","","","","","","","","","","","","","","","",""
"","","","","","image-button-response","251","940388","0.0-3.0-4.0-1.10","5ac50a19a3ba7a0001b4a483","D2","batch4","","12762.20000000298","img/question_3_11.jpeg","4","spm_respsonse","0","1","mat_35","","","","","","0","12762.20000000298","","","","","","","","","","","","","","",""
"","","","","","html-keyboard-response","252","941450","0.0-3.0-4.0-0.11","5ac50a19a3ba7a0001b4a483","D2","batch4","","null","<p class=block-text>Trial 36 out of 60</p>","null","spm_show_trial_num","","","","","","","","","","","","","","","","","","","","","","","","",""
"","","","","","image-button-response","253","952091","0.0-3.0-4.0-1.11","5ac50a19a3ba7a0001b4a483","D2","batch4","","10632.800000011921","img/question_3_12.jpeg","2","spm_respsonse","0","2","mat_36","","","","","","0","10632.800000011921","","","","","","","","","","","","","","",""
"","","","","","html-keyboard-response","254","953154","0.0-3.0-4.0-0.12","5ac50a19a3ba7a0001b4a483","D2","batch4","","null","<p class=block-text>Trial 37 out of 60</p>","null","spm_show_trial_num","","","","","","","","","","","","","","","","","","","","","","","","",""
"","","","","","image-button-response","255","956683","0.0-3.0-4.0-1.12","5ac50a19a3ba7a0001b4a483","D2","batch4","","3519.5","img/question_4_1.jpeg","2","spm_respsonse","1","3","mat_37","","","","","","1","3519.5","","","","","","","","","","","","","","",""
"","","","","","html-keyboard-response","256","957746","0.0-3.0-4.0-0.13","5ac50a19a3ba7a0001b4a483","D2","batch4","","null","<p class=block-text>Trial 38 out of 60</p>","null","spm_show_trial_num","","","","","","","","","","","","","","","","","","","","","","","","",""
"","","","","","image-button-response","257","963308","0.0-3.0-4.0-1.13","5ac50a19a3ba7a0001b4a483","D2","batch4","","5553.899999991059","img/question_4_2.jpeg","3","spm_respsonse","1","4","mat_38","","","","","","1","5553.899999991059","","","","","","","","","","","","","","",""
"","","","","","html-keyboard-response","258","964370","0.0-3.0-4.0-0.14","5ac50a19a3ba7a0001b4a483","D2","batch4","","null","<p class=block-text>Trial 39 out of 60</p>","null","spm_show_trial_num","","","","","","","","","","","","","","","","","","","","","","","","",""
"","","","","","image-button-response","259","971146","0.0-3.0-4.0-1.14","5ac50a19a3ba7a0001b4a483","D2","batch4","","6768","img/question_4_3.jpeg","2","spm_respsonse","1","3","mat_39","","","","","","1","6768","","","","","","","","","","","","","","",""
"","","","","","html-keyboard-response","260","972211","0.0-3.0-4.0-0.15","5ac50a19a3ba7a0001b4a483","D2","batch4","","null","<p class=block-text>Trial 40 out of 60</p>","null","spm_show_trial_num","","","","","","","","","","","","","","","","","","","","","","","","",""
"","","","","","image-button-response","261","980629","0.0-3.0-4.0-1.15","5ac50a19a3ba7a0001b4a483","D2","batch4","","8409.29999999702","img/question_4_4.jpeg","6","spm_respsonse","1","7","mat_40","","","","","","1","8409.29999999702","","","","","","","","","","","","","","",""
"","","","","","html-keyboard-response","262","981690","0.0-3.0-4.0-0.16","5ac50a19a3ba7a0001b4a483","D2","batch4","","null","<p class=block-text>Trial 41 out of 60</p>","null","spm_show_trial_num","","","","","","","","","","","","","","","","","","","","","","","","",""
"","","","","","image-button-response","263","990609","0.0-3.0-4.0-1.16","5ac50a19a3ba7a0001b4a483","D2","batch4","","8911","img/question_4_5.jpeg","1","spm_respsonse","0","8","mat_41","","","","","","0","8911","","","","","","","","","","","","","","",""
"","","","","","html-keyboard-response","264","991674","0.0-3.0-4.0-0.17","5ac50a19a3ba7a0001b4a483","D2","batch4","","null","<p class=block-text>Trial 42 out of 60</p>","null","spm_show_trial_num","","","","","","","","","","","","","","","","","","","","","","","","",""
"","","","","","image-button-response","265","1002931","0.0-3.0-4.0-1.17","5ac50a19a3ba7a0001b4a483","D2","batch4","","11249.20000000298","img/question_4_6.jpeg","5","spm_respsonse","1","6","mat_42","","","","","","1","11249.20000000298","","","","","","","","","","","","","","",""
"","","","","","html-keyboard-response","266","1003994","0.0-3.0-4.0-0.18","5ac50a19a3ba7a0001b4a483","D2","batch4","","null","<p class=block-text>Trial 43 out of 60</p>","null","spm_show_trial_num","","","","","","","","","","","","","","","","","","","","","","","","",""
"","","","","","image-button-response","267","1014707","0.0-3.0-4.0-1.18","5ac50a19a3ba7a0001b4a483","D2","batch4","","10704.40000000596","img/question_4_7.jpeg","4","spm_respsonse","1","5","mat_43","","","","","","1","10704.40000000596","","","","","","","","","","","","","","",""
"","","","","","html-keyboard-response","268","1015770","0.0-3.0-4.0-0.19","5ac50a19a3ba7a0001b4a483","D2","batch4","","null","<p class=block-text>Trial 44 out of 60</p>","null","spm_show_trial_num","","","","","","","","","","","","","","","","","","","","","","","","",""
"","","","","","image-button-response","269","1027381","0.0-3.0-4.0-1.19","5ac50a19a3ba7a0001b4a483","D2","batch4","","11602.40000000596","img/question_4_8.jpeg","3","spm_respsonse","1","4","mat_44","","","","","","1","11602.40000000596","","","","","","","","","","","","","","",""
"","","","","","html-keyboard-response","270","1028442","0.0-3.0-4.0-0.20","5ac50a19a3ba7a0001b4a483","D2","batch4","","null","<p class=block-text>Trial 45 out of 60</p>","null","spm_show_trial_num","","","","","","","","","","","","","","","","","","","","","","","","",""
"","","","","","image-button-response","271","1038462","0.0-3.0-4.0-1.20","5ac50a19a3ba7a0001b4a483","D2","batch4","","10012.70000000298","img/question_4_9.jpeg","3","spm_respsonse","0","1","mat_45","","","","","","0","10012.70000000298","","","","","","","","","","","","","","",""
"","","","","","html-keyboard-response","272","1039522","0.0-3.0-4.0-0.21","5ac50a19a3ba7a0001b4a483","D2","batch4","","null","<p class=block-text>Trial 46 out of 60</p>","null","spm_show_trial_num","","","","","","","","","","","","","","","","","","","","","","","","",""
"","","","","","image-button-response","273","1064668","0.0-3.0-4.0-1.21","5ac50a19a3ba7a0001b4a483","D2","batch4","","25139","img/question_4_10.jpeg","1","spm_respsonse","1","2","mat_46","","","","","","1","25139","","","","","","","","","","","","","","",""
"","","","","","html-keyboard-response","274","1065730","0.0-3.0-4.0-0.22","5ac50a19a3ba7a0001b4a483","D2","batch4","","null","<p class=block-text>Trial 47 out of 60</p>","null","spm_show_trial_num","","","","","","","","","","","","","","","","","","","","","","","","",""
"","","","","","image-button-response","275","1078741","0.0-3.0-4.0-1.22","5ac50a19a3ba7a0001b4a483","D2","batch4","","13002.20000000298","img/question_4_11.jpeg","4","spm_respsonse","1","5","mat_47","","","","","","1","13002.20000000298","","","","","","","","","","","","","","",""
"","","","","","html-keyboard-response","276","1079802","0.0-3.0-4.0-0.23","5ac50a19a3ba7a0001b4a483","D2","batch4","","null","<p class=block-text>Trial 48 out of 60</p>","null","spm_show_trial_num","","","","","","","","","","","","","","","","","","","","","","","","",""
"","","","","","image-button-response","277","1094628","0.0-3.0-4.0-1.23","5ac50a19a3ba7a0001b4a483","D2","batch4","","14818.39999999106","img/question_4_12.jpeg","0","spm_respsonse","0","6","mat_48","","","","","","0","14818.39999999106","","","","","","","","","","","","","","",""
"","","","","","html-keyboard-response","278","1095690","0.0-3.0-4.0-0.24","5ac50a19a3ba7a0001b4a483","D2","batch4","","null","<p class=block-text>Trial 49 out of 60</p>","null","spm_show_trial_num","","","","","","","","","","","","","","","","","","","","","","","","",""
"","","","","","image-button-response","279","1104676","0.0-3.0-4.0-1.24","5ac50a19a3ba7a0001b4a483","D2","batch4","","8978.20000000298","img/question_5_1.jpeg","6","spm_respsonse","1","7","mat_49","","","","","","1","8978.20000000298","","","","","","","","","","","","","","",""
"","","","","","html-keyboard-response","280","1105738","0.0-3.0-4.0-0.25","5ac50a19a3ba7a0001b4a483","D2","batch4","","null","<p class=block-text>Trial 50 out of 60</p>","null","spm_show_trial_num","","","","","","","","","","","","","","","","","","","","","","","","",""
"","","","","","image-button-response","281","1119285","0.0-3.0-4.0-1.25","5ac50a19a3ba7a0001b4a483","D2","batch4","","13538.79999999702","img/question_5_2.jpeg","4","spm_respsonse","0","6","mat_50","","","","","","0","13538.79999999702","","","","","","","","","","","","","","",""
"","","","","","html-keyboard-response","282","1120346","0.0-3.0-4.0-0.26","5ac50a19a3ba7a0001b4a483","D2","batch4","","null","<p class=block-text>Trial 51 out of 60</p>","null","spm_show_trial_num","","","","","","","","","","","","","","","","","","","","","","","","",""
"","","","","","image-button-response","283","1133020","0.0-3.0-4.0-1.26","5ac50a19a3ba7a0001b4a483","D2","batch4","","12664.90000000596","img/question_5_3.jpeg","7","spm_respsonse","1","8","mat_51","","","","","","1","12664.90000000596","","","","","","","","","","","","","","",""
"","","","","","html-keyboard-response","284","1134082","0.0-3.0-4.0-0.27","5ac50a19a3ba7a0001b4a483","D2","batch4","","null","<p class=block-text>Trial 52 out of 60</p>","null","spm_show_trial_num","","","","","","","","","","","","","","","","","","","","","","","","",""
"","","","","","image-button-response","285","1143932","0.0-3.0-4.0-1.27","5ac50a19a3ba7a0001b4a483","D2","batch4","","9840.79999999702","img/question_5_4.jpeg","2","spm_respsonse","0","2","mat_52","","","","","","0","9840.79999999702","","","","","","","","","","","","","","",""
"","","","","","html-keyboard-response","286","1144994","0.0-3.0-4.0-0.28","5ac50a19a3ba7a0001b4a483","D2","batch4","","null","<p class=block-text>Trial 53 out of 60</p>","null","spm_show_trial_num","","","","","","","","","","","","","","","","","","","","","","","","",""
"","","","","","image-button-response","287","1151225","0.0-3.0-4.0-1.28","5ac50a19a3ba7a0001b4a483","D2","batch4","","6223.5","img/question_5_5.jpeg","3","spm_respsonse","0","1","mat_53","","","","","","0","6223.5","","","","","","","","","","","","","","",""
"","","","","","html-keyboard-response","288","1152290","0.0-3.0-4.0-0.29","5ac50a19a3ba7a0001b4a483","D2","batch4","","null","<p class=block-text>Trial 54 out of 60</p>","null","spm_show_trial_num","","","","","","","","","","","","","","","","","","","","","","","","",""
"","","","","","image-button-response","289","1163915","0.0-3.0-4.0-1.29","5ac50a19a3ba7a0001b4a483","D2","batch4","","11616.300000011921","img/question_5_6.jpeg","4","spm_respsonse","1","5","mat_54","","","","","","1","11616.300000011921","","","","","","","","","","","","","","",""
"","","","","","html-keyboard-response","290","1164978","0.0-3.0-4.0-0.30","5ac50a19a3ba7a0001b4a483","D2","batch4","","null","<p class=block-text>Trial 55 out of 60</p>","null","spm_show_trial_num","","","","","","","","","","","","","","","","","","","","","","","","",""
"","","","","","image-button-response","291","1184058","0.0-3.0-4.0-1.30","5ac50a19a3ba7a0001b4a483","D2","batch4","","19071.20000000298","img/question_5_7.jpeg","0","spm_respsonse","1","1","mat_55","","","","","","1","19071.20000000298","","","","","","","","","","","","","","",""
"","","","","","html-keyboard-response","292","1185122","0.0-3.0-4.0-0.31","5ac50a19a3ba7a0001b4a483","D2","batch4","","null","<p class=block-text>Trial 56 out of 60</p>","null","spm_show_trial_num","","","","","","","","","","","","","","","","","","","","","","","","",""
"","","","","","image-button-response","293","1202364","0.0-3.0-4.0-1.31","5ac50a19a3ba7a0001b4a483","D2","batch4","","17233.5","img/question_5_8.jpeg","0","spm_respsonse","0","6","mat_56","","","","","","0","17233.5","","","","","","","","","","","","","","",""
"","","","","","html-keyboard-response","294","1203426","0.0-3.0-4.0-0.32","5ac50a19a3ba7a0001b4a483","D2","batch4","","null","<p class=block-text>Trial 57 out of 60</p>","null","spm_show_trial_num","","","","","","","","","","","","","","","","","","","","","","","","",""
"","","","","","image-button-response","295","1212195","0.0-3.0-4.0-1.32","5ac50a19a3ba7a0001b4a483","D2","batch4","","8760.59999999404","img/question_5_9.jpeg","6","spm_respsonse","0","3","mat_57","","","","","","0","8760.59999999404","","","","","","","","","","","","","","",""
"","","","","","html-keyboard-response","296","1213258","0.0-3.0-4.0-0.33","5ac50a19a3ba7a0001b4a483","D2","batch4","","null","<p class=block-text>Trial 58 out of 60</p>","null","spm_show_trial_num","","","","","","","","","","","","","","","","","","","","","","","","",""
"","","","","","image-button-response","297","1228518","0.0-3.0-4.0-1.33","5ac50a19a3ba7a0001b4a483","D2","batch4","","15253.699999988079","img/question_5_10.jpeg","0","spm_respsonse","0","2","mat_58","","","","","","0","15253.699999988079","","","","","","","","","","","","","","",""
"","","","","","html-keyboard-response","298","1229586","0.0-3.0-4.0-0.34","5ac50a19a3ba7a0001b4a483","D2","batch4","","null","<p class=block-text>Trial 59 out of 60</p>","null","spm_show_trial_num","","","","","","","","","","","","","","","","","","","","","","","","",""
"","","","","","image-button-response","299","1236979","0.0-3.0-4.0-1.34","5ac50a19a3ba7a0001b4a483","D2","batch4","","7384.399999991059","img/question_5_11.jpeg","6","spm_respsonse","0","4","mat_59","","","","","","0","7384.399999991059","","","","","","","","","","","","","","",""
"","","","","","html-keyboard-response","300","1238042","0.0-3.0-4.0-0.35","5ac50a19a3ba7a0001b4a483","D2","batch4","","null","<p class=block-text>Trial 60 out of 60</p>","null","spm_show_trial_num","","","","","","","","","","","","","","","","","","","","","","","","",""
"","","","","","image-button-response","301","1246228","0.0-3.0-4.0-1.35","5ac50a19a3ba7a0001b4a483","D2","batch4","","8177.79999999702","img/question_5_12.jpeg","4","spm_respsonse","1","5","mat_60","","","","","","1","8177.79999999702","","","","","","","","","","","","","","",""
"","","","","","html-button-response","302","1248936","0.0-3.0-5.0","5ac50a19a3ba7a0001b4a483","D2","batch4","","2450.7999999970198","<p class= block-text>This concludes the Standard Progressive Matrix game. Thank you for your responses!<br> When you are ready, click the button continue</p>","0","spm_goodbye","","","","","","","","","","","","","","","","","","","","","","","","",""
"true","","","","","fullscreen","303","1251970","0.0-4.0-0.0","5ac50a19a3ba7a0001b4a483","D2","batch4","","","","","","","","","","","","","","","","","","","","","","","","","","","","","",""
"","","","","","instructions","304","1278457","0.0-4.0-1.0-0.0-0.0","5ac50a19a3ba7a0001b4a483","D2","batch4","[{""page_index"":0,""viewing_time"":6091.0999999940395},{""page_index"":1,""viewing_time"":4126.9000000059605},{""page_index"":2,""viewing_time"":3754.199999988079},{""page_index"":3,""viewing_time"":2872.1000000089407},{""page_index"":4,""viewing_time"":3375.3999999910593},{""page_index"":5,""viewing_time"":3912.1000000089407},{""page_index"":6,""viewing_time"":2351.7000000029802}]","26484.89999999106","","","tol-instructions","","","","","","","","","","","","","","","","","","","","","","","","",""
"","","","","","html-button-response","305","1279619","0.0-4.0-1.0-1.0-0.0","5ac50a19a3ba7a0001b4a483","D2","batch4","","1158","<p class=block-text> Let's answer a few questions <br>","0","tol_enter_quiz","","","","","","","","","","","","","","","","","","","","","","","","",""
"","","","","","html-button-response","306","1282706","0.0-4.0-1.0-1.0-1.0","5ac50a19a3ba7a0001b4a483","D2","batch4","","3082.2999999970198","<p class = block-text>True or False: You can only move the ball on top of a peg. <br></p>","0","tol_quiz","true","","","","","","","","","","","","","","","","","","","","","","","",""
"","","","","","html-button-response","307","1283978","0.0-4.0-1.0-1.0-2.0","5ac50a19a3ba7a0001b4a483","D2","batch4","","1266","<p class = block-text>Correct! You can only move the ball on top of a peg.</p>","0","tol_quiz_feedback","","","","","","","","","","","","","","","","","","","","","","","","",""
"","","","","","html-button-response","308","1286714","0.0-4.0-1.0-1.0-3.0","5ac50a19a3ba7a0001b4a483","D2","batch4","","2731.6000000089407","<p class = block-text>True or False: You should try to match your board with the target board with fewest moves possible. <br></p>","0","tol_quiz","true","","","","","","","","","","","","","","","","","","","","","","","",""
"","","","","","html-button-response","309","1288104","0.0-4.0-1.0-1.0-4.0","5ac50a19a3ba7a0001b4a483","D2","batch4","","1385.5","<p class = block-text>Correct! </p>","0","tol_quiz_feedback","","","","","","","","","","","","","","","","","","","","","","","","",""
"","","","","","html-button-response","310","1289489","0.0-4.0-2.0","5ac50a19a3ba7a0001b4a483","D2","batch4","","1377.8999999910593","<p class=block-text> Now that you've understood the game, let's practice a few easier examples before we start!<br> <br>","0","","","","","","","","","","","","","","","","","","","","","","","","","",""
"","","","","","single-stim-button","311","1293315","0.0-4.0-3.0-0.0","5ac50a19a3ba7a0001b4a483","D2","batch4","","3816","","","tol_practice","","","","","","","","","","","tol_peg_2","3816","3816","0","[[1,2,0],[0,0],[0]]","1","[[1,2,0],[0,0],[3]]","practice","3816","","","","","",""
"","","","","","single-stim-button","312","1295524","0.0-4.0-3.0-1.0","5ac50a19a3ba7a0001b4a483","D2","batch4","","2204","","","tol_practice","","","","","","","","","","","tol_peg_3","2204","2204","0","[[1,2,0],[0,0],[3]]","1","[[1,2,0],[0,0],[3]]","practice","2204","","","","","",""
"","","","","","poldrack-single-stim","313","1296531","0.0-4.0-4.0","5ac50a19a3ba7a0001b4a483","D2","batch4","","-1","","","tol_feedback","true","","","","","","","","","","","1000","1000","500","","","","","","-1","none","true","","0",""
"","","","","","single-stim-button","314","1300130","0.0-4.0-5.0-0.0","5ac50a19a3ba7a0001b4a483","D2","batch4","","3595","","","tol_practice","","","","","","","","","","","tol_peg_1","3595","3595","0","[[1,0,0],[3,0],[0]]","2","[[0,0,0],[3,1],[2]]","practice","3595","","","","","",""
"","","","","","single-stim-button","315","1302744","0.0-4.0-5.0-1.0","5ac50a19a3ba7a0001b4a483","D2","batch4","","2611","","","tol_practice","","","","","","","","","","","tol_peg_3","2611","2611","0","[[1,0,0],[3,0],[2]]","2","[[0,0,0],[3,1],[2]]","practice","2611","","","","","",""
"","","","","","single-stim-button","316","1303955","0.0-4.0-5.1-0.1","5ac50a19a3ba7a0001b4a483","D2","batch4","","1208","","","tol_practice","","","","","","","","","","","tol_peg_1","1208","1208","0","[[0,0,0],[3,0],[2]]","3","[[0,0,0],[3,1],[2]]","practice","1208","","","","","",""
"","","","","","single-stim-button","317","1305354","0.0-4.0-5.1-1.1","5ac50a19a3ba7a0001b4a483","D2","batch4","","1396","","","tol_practice","","","","","","","","","","","tol_peg_2","1396","1396","0","[[0,0,0],[3,1],[2]]","3","[[0,0,0],[3,1],[2]]","practice","1396","","","","","",""
"","","","","","poldrack-single-stim","318","1306364","0.0-4.0-6.0","5ac50a19a3ba7a0001b4a483","D2","batch4","","-1","","","tol_feedback","true","","","","","","","","","","","1000","1000","500","","","","","","-1","none","true","","0",""
"","","","","","single-stim-button","319","1309601","0.0-4.0-7.0-0.0","5ac50a19a3ba7a0001b4a483","D2","batch4","","3235","","","tol_practice","","","","","","","","","","","tol_peg_2","3235","3235","0","[[1,2,0],[0,0],[0]]","4","[[1,0,0],[2,0],[3]]","practice","3235","","","","","",""
"","","","","","single-stim-button","320","1314020","0.0-4.0-7.0-1.0","5ac50a19a3ba7a0001b4a483","D2","batch4","","4415","","","tol_practice","","","","","","","","","","","tol_peg_3","4415","4415","0","[[1,2,0],[0,0],[3]]","4","[[1,0,0],[2,0],[3]]","practice","4415","","","","","",""
"","","","","","single-stim-button","321","1315041","0.0-4.0-7.1-0.1","5ac50a19a3ba7a0001b4a483","D2","batch4","","1017","","","tol_practice","","","","","","","","","","","tol_peg_1","1017","1017","0","[[1,0,0],[0,0],[3]]","5","[[1,0,0],[2,0],[3]]","practice","1017","","","","","",""
"","","","","","single-stim-button","322","1316386","0.0-4.0-7.1-1.1","5ac50a19a3ba7a0001b4a483","D2","batch4","","1342","","","tol_practice","","","","","","","","","","","tol_peg_2","1342","1342","0","[[1,0,0],[2,0],[3]]","5","[[1,0,0],[2,0],[3]]","practice","1342","","","","","",""
"","","","","","poldrack-single-stim","323","1317396","0.0-4.0-8.0","5ac50a19a3ba7a0001b4a483","D2","batch4","","-1","","","tol_feedback","true","","","","","","","","","","","1000","1000","500","","","","","","-1","none","true","","0",""
"","","","","","html-button-response","324","1319250","0.0-4.0-9.0","5ac50a19a3ba7a0001b4a483","D2","batch4","","1850.3999999910593","<div class = centerbox><p class = center-block-text>Great job! You are done with practice trials<br>You are about to start official trials.<br> <br> Problem <strong>1</strong> out of 25 problems</p></div>","0","tol_instruction","","","","","","","","","","","","","","","","","","","","","","","","",""
"","","","","","single-stim-button","325","1325404","0.0-4.0-10.0-0.0","5ac50a19a3ba7a0001b4a483","D2","batch4","","5142","","","tol_tohand","","","","","","","","","","","tol_peg_1","5142","5142","0","[[1,0,0],[3,0],[0]]","1","[[1,3,0],[2,0],[0]]","0","0","","","","","","3"
"","","","","","single-stim-button","326","1327778","0.0-4.0-10.0-1.0","5ac50a19a3ba7a0001b4a483","D2","batch4","","2371","","","tol_toboard","","","","","","","","","","","tol_peg_3","2371","2371","0","[[1,0,0],[3,0],[2]]","1","[[1,3,0],[2,0],[0]]","0","0","","","","","","3"
"","","","","","single-stim-button","327","1329049","0.0-4.0-10.1-0.1","5ac50a19a3ba7a0001b4a483","D2","batch4","","1267","","","tol_tohand","","","","","","","","","","","tol_peg_2","1267","1267","0","[[1,0,0],[0,0],[2]]","2","[[1,3,0],[2,0],[0]]","0","0","","","","","","3"
"","","","","","single-stim-button","328","1331223","0.0-4.0-10.1-1.1","5ac50a19a3ba7a0001b4a483","D2","batch4","","2171","","","tol_toboard","","","","","","","","","","","tol_peg_1","2171","2171","0","[[1,3,0],[0,0],[2]]","2","[[1,3,0],[2,0],[0]]","0","0","","","","","","3"
"","","","","","single-stim-button","329","1332466","0.0-4.0-10.2-0.2","5ac50a19a3ba7a0001b4a483","D2","batch4","","1240","","","tol_tohand","","","","","","","","","","","tol_peg_3","1240","1240","0","[[1,3,0],[0,0],[0]]","3","[[1,3,0],[2,0],[0]]","0","0","","","","","","3"
"","","","","","single-stim-button","330","1333564","0.0-4.0-10.2-1.2","5ac50a19a3ba7a0001b4a483","D2","batch4","","1095","","","tol_toboard","","","","","","","","","","","tol_peg_2","1095","1095","0","[[1,3,0],[2,0],[0]]","3","[[1,3,0],[2,0],[0]]","0","0","","","","","","3"
"","","","","","poldrack-single-stim","331","1334571","0.0-4.0-11.0","5ac50a19a3ba7a0001b4a483","D2","batch4","","-1","","","tol_feedback","true","","","","","","","","","","","1000","1000","500","","","","","","-1","none","true","5142","7649",""
"","","","","","html-button-response","332","1336147","0.0-4.0-12.0","5ac50a19a3ba7a0001b4a483","D2","batch4","","1572.5","<div class = centerbox><p class = center-block-text>problem <strong>2</strong> out of 25 problems</p></div>","0","tol_trial_num","","","","","","","","","","","","","","","","","","","","","","","","",""
"","","","","","single-stim-button","333","1342193","0.0-4.0-13.0-0.0","5ac50a19a3ba7a0001b4a483","D2","batch4","","6042","","","tol_tohand","","","","","","","","","","","tol_peg_2","6042","6042","0","[[1,2,0],[0,0],[0]]","1","[[2,1,3],[0,0],[0]]","1","0","","","","","","5"
"","","","","","single-stim-button","334","1344035","0.0-4.0-13.0-1.0","5ac50a19a3ba7a0001b4a483","D2","batch4","","1838","","","tol_toboard","","","","","","","","","","","tol_peg_1","1838","1838","0","[[1,2,3],[0,0],[0]]","1","[[2,1,3],[0,0],[0]]","1","0","","","","","","5"
"","","","","","single-stim-button","335","1345794","0.0-4.0-13.1-0.1","5ac50a19a3ba7a0001b4a483","D2","batch4","","1756","","","tol_tohand","","","","","","","","","","","tol_peg_1","1756","1756","0","[[1,2,0],[0,0],[0]]","2","[[2,1,3],[0,0],[0]]","1","0","","","","","","5"
"","","","","","single-stim-button","336","1348611","0.0-4.0-13.1-1.1","5ac50a19a3ba7a0001b4a483","D2","batch4","","2814","","","tol_toboard","","","","","","","","","","","tol_peg_3","2814","2814","0","[[1,2,0],[0,0],[3]]","2","[[2,1,3],[0,0],[0]]","1","0","","","","","","5"
"","","","","","single-stim-button","337","1349882","0.0-4.0-13.2-0.2","5ac50a19a3ba7a0001b4a483","D2","batch4","","1266","","","tol_tohand","","","","","","","","","","","tol_peg_1","1266","1266","0","[[1,0,0],[0,0],[3]]","3","[[2,1,3],[0,0],[0]]","1","0","","","","","","5"
"","","","","","single-stim-button","338","1352184","0.0-4.0-13.2-1.2","5ac50a19a3ba7a0001b4a483","D2","batch4","","2300","","","tol_toboard","","","","","","","","","","","tol_peg_2","2300","2300","0","[[1,0,0],[2,0],[3]]","3","[[2,1,3],[0,0],[0]]","1","0","","","","","","5"
"","","","","","single-stim-button","339","1353611","0.0-4.0-13.3-0.3","5ac50a19a3ba7a0001b4a483","D2","batch4","","1423","","","tol_tohand","","","","","","","","","","","tol_peg_1","1423","1423","0","[[0,0,0],[2,0],[3]]","4","[[2,1,3],[0,0],[0]]","1","0","","","","","","5"
"","","","","","single-stim-button","340","1359317","0.0-4.0-13.3-1.3","5ac50a19a3ba7a0001b4a483","D2","batch4","","5703","","","tol_toboard","","","","","","","","","","","tol_peg_2","5703","5703","0","[[0,0,0],[2,1],[3]]","4","[[2,1,3],[0,0],[0]]","1","0","","","","","","5"
"","","","","","single-stim-button","341","1361664","0.0-4.0-13.4-0.4","5ac50a19a3ba7a0001b4a483","D2","batch4","","2344","","","tol_tohand","","","","","","","","","","","tol_peg_2","2344","2344","0","[[0,0,0],[2,0],[3]]","5","[[2,1,3],[0,0],[0]]","1","0","","","","","","5"
"","","","","","single-stim-button","342","1364825","0.0-4.0-13.4-1.4","5ac50a19a3ba7a0001b4a483","D2","batch4","","3158","","","tol_toboard","","","","","","","","","","","tol_peg_1","3158","3158","0","[[1,0,0],[2,0],[3]]","5","[[2,1,3],[0,0],[0]]","1","0","","","","","","5"
"","","","","","single-stim-button","343","1366130","0.0-4.0-13.5-0.5","5ac50a19a3ba7a0001b4a483","D2","batch4","","1301","","","tol_tohand","","","","","","","","","","","tol_peg_3","1301","1301","0","[[1,0,0],[2,0],[0]]","6","[[2,1,3],[0,0],[0]]","1","0","","","","","","5"
"","","","","","single-stim-button","344","1368665","0.0-4.0-13.5-1.5","5ac50a19a3ba7a0001b4a483","D2","batch4","","2532","","","tol_toboard","","","","","","","","","","","tol_peg_2","2532","2532","0","[[1,0,0],[2,3],[0]]","6","[[2,1,3],[0,0],[0]]","1","0","","","","","","5"
"","","","","","single-stim-button","345","1370156","0.0-4.0-13.6-0.6","5ac50a19a3ba7a0001b4a483","D2","batch4","","1488","","","tol_tohand","","","","","","","","","","","tol_peg_1","1488","1488","0","[[0,0,0],[2,3],[0]]","7","[[2,1,3],[0,0],[0]]","1","0","","","","","","5"
"","","","","","single-stim-button","346","1373890","0.0-4.0-13.6-1.6","5ac50a19a3ba7a0001b4a483","D2","batch4","","3731","","","tol_toboard","","","","","","","","","","","tol_peg_3","3731","3731","0","[[0,0,0],[2,3],[1]]","7","[[2,1,3],[0,0],[0]]","1","0","","","","","","5"
"","","","","","single-stim-button","347","1375168","0.0-4.0-13.7-0.7","5ac50a19a3ba7a0001b4a483","D2","batch4","","1275","","","tol_tohand","","","","","","","","","","","tol_peg_2","1275","1275","0","[[0,0,0],[2,0],[1]]","8","[[2,1,3],[0,0],[0]]","1","0","","","","","","5"
