"success","timeout","failed_images","failed_audio","failed_video","trial_type","trial_index","time_elapsed","internal_node_id","subject_id","study_id","session_id","view_history","rt","stimulus","response","task","correct","answer","item","fiar_detect_rt","fiar_detect_correct","total_correct_fiar_detect","post_trial_gap","choices","mouse_click","stim_duration","block_duration","timing_post_trial","current_position","tol_num_moves_made","tol_target","tol_problem_id","tol_rt","key_press","possible_responses","tol_correct","preplanning","tol_rt_per_trial","tol_min_moves","spm_correct","spm_rt"
"true","false","[]","[]","[]","preload","0","3124","0.0-0.0","5acb7b0ae1099600016acdd6","C3","batch3","","","","","","","","","","","","","","","","","","","","","","","","","","","","","",""
"true","","","","","fullscreen","1","16410","0.0-1.0-0.0","5acb7b0ae1099600016acdd6","C3","batch3","","","","","","","","","","","","","","","","","","","","","","","","","","","","","",""
"true","","","","","fullscreen","2","20250","0.0-2.0-0.0","5acb7b0ae1099600016acdd6","C3","batch3","","","","","","","","","","","","","","","","","","","","","","","","","","","","","",""
"","","","","","instructions","3","32773","0.0-2.0-1.0-0.0","5acb7b0ae1099600016acdd6","C3","batch3","[{""page_index"":0,""viewing_time"":7094.399999976158},{""page_index"":1,""viewing_time"":5419.100000023842}]","12515.799999952316","","","","","","","","","","","","","","","","","","","","","","","","","","","",""
"","","","","","html-button-response","4","34084","0.0-2.0-1.0-1.0-0.0","5acb7b0ae1099600016acdd6","C3","batch3","","1302.2999999523163","<p class=block-text> Let's answer a few questions <br>","0","pattern_enter_quiz","","","","","","","","","","","","","","","","","","","","","","","","",""
"","","","","","html-button-response","5","36448","0.0-2.0-1.0-1.0-1.0","5acb7b0ae1099600016acdd6","C3","batch3","","2357.6999999284744","<p class = block-text>True or False: You will have as much time as you want to make each choice. <br></p>","1","pattern_quiz","true","","","","","","","","","","","","","","","","","","","","","","","",""
"","","","","","html-button-response","6","37819","0.0-2.0-1.0-1.0-2.0","5acb7b0ae1099600016acdd6","C3","batch3","","1365.6000000238419","<p class = block-text>Correct! You should make your choice <strong> as fast as you can</strong>.</p>","0","pattern_quiz_feedback","","","","","","","","","","","","","","","","","","","","","","","","",""
"","","","","","html-button-response","7","42737","0.0-2.0-1.0-1.0-3.0","5acb7b0ae1099600016acdd6","C3","batch3","","4912.5","<p class = block-text>True or False: You will look for 4 pieces in black or white color connected in a row either horizontally, vertically or diagonally. <br></p>","0","pattern_quiz","true","","","","","","","","","","","","","","","","","","","","","","","",""
"","","","","","html-button-response","8","43970","0.0-2.0-1.0-1.0-4.0","5acb7b0ae1099600016acdd6","C3","batch3","","1223.1999999284744","<p class = block-text>Correct! </p>","0","pattern_quiz_feedback","","","","","","","","","","","","","","","","","","","","","","","","",""
"","","","","","html-button-response","9","46304","0.0-2.0-2.0","5acb7b0ae1099600016acdd6","C3","batch3","","2326.8000000715256","<p class=block-text> Now that you've understood the game, let's do a few practice trials before we start!<br> <br>","0","pattern_enter_practice","","","","","","","","","","","","","","","","","","","","","","","","",""
"","","","","","image-keyboard-response","10","50076","0.0-2.0-3.0-0.0","5acb7b0ae1099600016acdd6","C3","batch3","","3714.100000023842","stim/prac_yes_16_ver_w1.png","f","pattern_practice","true","f","","","","","","","","","","","","","","","","","","","","","","",""
"","","","","","html-keyboard-response","11","51086","0.0-2.0-3.0-1.0","5acb7b0ae1099600016acdd6","C3","batch3","","null","<p style=""font-size:30px;color:green;"">Correct!</p>","null","pattern_feedback","","","","","","","","","","","","","","","","","","","","","","","","",""
"","","","","","image-keyboard-response","12","53416","0.0-2.0-3.0-0.1","5acb7b0ae1099600016acdd6","C3","batch3","","2323.6999999284744","stim/prac_no_16_1.png","j","pattern_practice","true","j","","","","","","","","","","","","","","","","","","","","","","",""
"","","","","","html-keyboard-response","13","54427","0.0-2.0-3.0-1.1","5acb7b0ae1099600016acdd6","C3","batch3","","null","<p style=""font-size:30px;color:green;"">Correct!</p>","null","pattern_feedback","","","","","","","","","","","","","","","","","","","","","","","","",""
"","","","","","image-keyboard-response","14","55831","0.0-2.0-3.0-0.2","5acb7b0ae1099600016acdd6","C3","batch3","","1394.8000000715256","stim/prac_no_18_1.png","j","pattern_practice","true","j","","","","","","","","","","","","","","","","","","","","","","",""
"","","","","","html-keyboard-response","15","56837","0.0-2.0-3.0-1.2","5acb7b0ae1099600016acdd6","C3","batch3","","null","<p style=""font-size:30px;color:green;"">Correct!</p>","null","pattern_feedback","","","","","","","","","","","","","","","","","","","","","","","","",""
"","","","","","image-keyboard-response","16","57781","0.0-2.0-3.0-0.3","5acb7b0ae1099600016acdd6","C3","batch3","","932.7000000476837","stim/prac_yes_18_hor_w1.png","f","pattern_practice","true","f","","","","","","","","","","","","","","","","","","","","","","",""
"","","","","","html-keyboard-response","17","58786","0.0-2.0-3.0-1.3","5acb7b0ae1099600016acdd6","C3","batch3","","null","<p style=""font-size:30px;color:green;"">Correct!</p>","null","pattern_feedback","","","","","","","","","","","","","","","","","","","","","","","","",""
"","","","","","image-keyboard-response","18","60513","0.0-2.0-3.0-0.4","5acb7b0ae1099600016acdd6","C3","batch3","","1716.8999999761581","stim/prac_yes_20_dia_b1.png","j","pattern_practice","false","f","","","","","","","","","","","","","","","","","","","","","","",""
"","","","","","html-keyboard-response","19","61518","0.0-2.0-3.0-1.4","5acb7b0ae1099600016acdd6","C3","batch3","","null","<p style=""font-size:30px;color:red;"">Wrong.</p>","null","pattern_feedback","","","","","","","","","","","","","","","","","","","","","","","","",""
"","","","","","html-button-response","20","65387","0.0-2.0-4.0","5acb7b0ae1099600016acdd6","C3","batch3","","3860.8000000715256","<p class=block-text> Good job! You are done with practice trials!<br>
        You responded correctly on 80% of the trials.<br>
        Press the button below to start official trials. Now you won't see any feedback about your response</p>","0","pattern_enter_official_trials","","","","","","","","","","","","","","","","","","","","","","","","",""
"","","","","","html-keyboard-response","21","66194","0.0-2.0-5.0-0.0","5acb7b0ae1099600016acdd6","C3","batch3","","null","<p class=block-text>Trial 1 out of 78</p>","null","pattern_show_trial_num","","","","","","","","","","","","","","","","","","","","","","","","",""
"","","","","","image-keyboard-response","22","68272","0.0-2.0-5.0-1.0","5acb7b0ae1099600016acdd6","C3","batch3","","2068.399999976158","stim/yes_12_hor_w1_w.png","f","pattern_response","true","f","pattern_42","2068.399999976158","true","1","","","","","","","","","","","","","","","","","","",""
"","","","","","html-keyboard-response","23","69577","0.0-2.0-5.0-0.1","5acb7b0ae1099600016acdd6","C3","batch3","","null","<p class=block-text>Trial 2 out of 78</p>","null","pattern_show_trial_num","","","","","","","","","","","","","","","","","","","","","","","","",""
"","","","","","image-keyboard-response","24","70618","0.0-2.0-5.0-1.1","5acb7b0ae1099600016acdd6","C3","batch3","","1034.0999999046326","stim/yes_37_hor_w1_w.png","f","pattern_response","true","f","pattern_60","1034.0999999046326","true","2","","","","","","","","","","","","","","","","","","",""
"","","","","","html-keyboard-response","25","71922","0.0-2.0-5.0-0.2","5acb7b0ae1099600016acdd6","C3","batch3","","null","<p class=block-text>Trial 3 out of 78</p>","null","pattern_show_trial_num","","","","","","","","","","","","","","","","","","","","","","","","",""
"","","","","","image-keyboard-response","26","72823","0.0-2.0-5.0-1.2","5acb7b0ae1099600016acdd6","C3","batch3","","892.3999999761581","stim/yes_29_hor_b1_b.png","f","pattern_response","true","f","pattern_52","892.3999999761581","true","3","","","","","","","","","","","","","","","","","","",""
"","","","","","html-keyboard-response","27","74127","0.0-2.0-5.0-0.3","5acb7b0ae1099600016acdd6","C3","batch3","","null","<p class=block-text>Trial 4 out of 78</p>","null","pattern_show_trial_num","","","","","","","","","","","","","","","","","","","","","","","","",""
"","","","","","image-keyboard-response","28","74827","0.0-2.0-5.0-1.3","5acb7b0ae1099600016acdd6","C3","batch3","","688","stim/yes_17_ver_b1_b.png","f","pattern_response","true","f","pattern_46","688","true","4","","","","","","","","","","","","","","","","","","",""
"","","","","","html-keyboard-response","29","76132","0.0-2.0-5.0-0.4","5acb7b0ae1099600016acdd6","C3","batch3","","null","<p class=block-text>Trial 5 out of 78</p>","null","pattern_show_trial_num","","","","","","","","","","","","","","","","","","","","","","","","",""
"","","","","","image-keyboard-response","30","77218","0.0-2.0-5.0-1.4","5acb7b0ae1099600016acdd6","C3","batch3","","1075.7999999523163","stim/yes_23_ver_b1.png","f","pattern_response","true","f","pattern_48","1075.7999999523163","true","5","","","","","","","","","","","","","","","","","","",""
"","","","","","html-keyboard-response","31","78522","0.0-2.0-5.0-0.5","5acb7b0ae1099600016acdd6","C3","batch3","","null","<p class=block-text>Trial 6 out of 78</p>","null","pattern_show_trial_num","","","","","","","","","","","","","","","","","","","","","","","","",""
"","","","","","image-keyboard-response","32","81658","0.0-2.0-5.0-1.5","5acb7b0ae1099600016acdd6","C3","batch3","","3126.3000000715256","stim/no_67_1.png","j","pattern_response","true","j","pattern_39","3126.3000000715256","true","6","","","","","","","","","","","","","","","","","","",""
"","","","","","html-keyboard-response","33","82965","0.0-2.0-5.0-0.6","5acb7b0ae1099600016acdd6","C3","batch3","","null","<p class=block-text>Trial 7 out of 78</p>","null","pattern_show_trial_num","","","","","","","","","","","","","","","","","","","","","","","","",""
"","","","","","image-keyboard-response","34","85577","0.0-2.0-5.0-1.6","5acb7b0ae1099600016acdd6","C3","batch3","","2603.2000000476837","stim/no_47_1_b.png","j","pattern_response","true","j","pattern_27","2603.2000000476837","true","7","","","","","","","","","","","","","","","","","","",""
"","","","","","html-keyboard-response","35","86881","0.0-2.0-5.0-0.7","5acb7b0ae1099600016acdd6","C3","batch3","","null","<p class=block-text>Trial 8 out of 78</p>","null","pattern_show_trial_num","","","","","","","","","","","","","","","","","","","","","","","","",""
"","","","","","image-keyboard-response","36","90163","0.0-2.0-5.0-1.7","5acb7b0ae1099600016acdd6","C3","batch3","","3276.2000000476837","stim/yes_58_dia_w1_w.png","j","pattern_response","false","f","pattern_76","3276.2000000476837","false","7","","","","","","","","","","","","","","","","","","",""
"","","","","","html-keyboard-response","37","91467","0.0-2.0-5.0-0.8","5acb7b0ae1099600016acdd6","C3","batch3","","null","<p class=block-text>Trial 9 out of 78</p>","null","pattern_show_trial_num","","","","","","","","","","","","","","","","","","","","","","","","",""
"","","","","","image-keyboard-response","38","92887","0.0-2.0-5.0-1.8","5acb7b0ae1099600016acdd6","C3","batch3","","1415.6999999284744","stim/yes_33_dia_w1_w.png","j","pattern_response","false","f","pattern_56","1415.6999999284744","false","7","","","","","","","","","","","","","","","","","","",""
"","","","","","html-keyboard-response","39","94191","0.0-2.0-5.0-0.9","5acb7b0ae1099600016acdd6","C3","batch3","","null","<p class=block-text>Trial 10 out of 78</p>","null","pattern_show_trial_num","","","","","","","","","","","","","","","","","","","","","","","","",""
"","","","","","image-keyboard-response","40","95282","0.0-2.0-5.0-1.9","5acb7b0ae1099600016acdd6","C3","batch3","","1079.6000000238419","stim/yes_30_ver_b1_b.png","f","pattern_response","true","f","pattern_54","1079.6000000238419","true","8","","","","","","","","","","","","","","","","","","",""
"","","","","","html-keyboard-response","41","96586","0.0-2.0-5.0-0.10","5acb7b0ae1099600016acdd6","C3","batch3","","null","<p class=block-text>Trial 11 out of 78</p>","null","pattern_show_trial_num","","","","","","","","","","","","","","","","","","","","","","","","",""
"","","","","","image-keyboard-response","42","99251","0.0-2.0-5.0-1.10","5acb7b0ae1099600016acdd6","C3","batch3","","2660.7999999523163","stim/no_25_1_b.png","j","pattern_response","true","j","pattern_09","2660.7999999523163","true","9","","","","","","","","","","","","","","","","","","",""
"","","","","","html-keyboard-response","43","100554","0.0-2.0-5.0-0.11","5acb7b0ae1099600016acdd6","C3","batch3","","null","<p class=block-text>Trial 12 out of 78</p>","null","pattern_show_trial_num","","","","","","","","","","","","","","","","","","","","","","","","",""
"","","","","","image-keyboard-response","44","101453","0.0-2.0-5.0-1.11","5acb7b0ae1099600016acdd6","C3","batch3","","889.6999999284744","stim/no_15_1_w.png","j","pattern_response","true","j","pattern_03","889.6999999284744","true","10","","","","","","","","","","","","","","","","","","",""
"","","","","","html-keyboard-response","45","102757","0.0-2.0-5.0-0.12","5acb7b0ae1099600016acdd6","C3","batch3","","null","<p class=block-text>Trial 13 out of 78</p>","null","pattern_show_trial_num","","","","","","","","","","","","","","","","","","","","","","","","",""
"","","","","","image-keyboard-response","46","105685","0.0-2.0-5.0-1.12","5acb7b0ae1099600016acdd6","C3","batch3","","2921.5","stim/no_43_2_b.png","j","pattern_response","true","j","pattern_23","2921.5","true","11","","","","","","","","","","","","","","","","","","",""
"","","","","","html-keyboard-response","47","106990","0.0-2.0-5.0-0.13","5acb7b0ae1099600016acdd6","C3","batch3","","null","<p class=block-text>Trial 14 out of 78</p>","null","pattern_show_trial_num","","","","","","","","","","","","","","","","","","","","","","","","",""
"","","","","","image-keyboard-response","48","108305","0.0-2.0-5.0-1.13","5acb7b0ae1099600016acdd6","C3","batch3","","1303.1000000238419","stim/yes_49_hor_w1_b.png","f","pattern_response","true","f","pattern_70","1303.1000000238419","true","12","","","","","","","","","","","","","","","","","","",""
"","","","","","html-keyboard-response","49","109610","0.0-2.0-5.0-0.14","5acb7b0ae1099600016acdd6","C3","batch3","","null","<p class=block-text>Trial 15 out of 78</p>","null","pattern_show_trial_num","","","","","","","","","","","","","","","","","","","","","","","","",""
"","","","","","image-keyboard-response","50","112243","0.0-2.0-5.0-1.14","5acb7b0ae1099600016acdd6","C3","batch3","","2628","stim/yes_46_ver_b1_b.png","j","pattern_response","false","f","pattern_68","2628","false","12","","","","","","","","","","","","","","","","","","",""
"","","","","","html-keyboard-response","51","113548","0.0-2.0-5.0-0.15","5acb7b0ae1099600016acdd6","C3","batch3","","null","<p class=block-text>Trial 16 out of 78</p>","null","pattern_show_trial_num","","","","","","","","","","","","","","","","","","","","","","","","",""
"","","","","","image-keyboard-response","52","114473","0.0-2.0-5.0-1.15","5acb7b0ae1099600016acdd6","C3","batch3","","916.8000000715256","stim/no_12_1.png","j","pattern_response","true","j","pattern_01","916.8000000715256","true","13","","","","","","","","","","","","","","","","","","",""
"","","","","","html-keyboard-response","53","115778","0.0-2.0-5.0-0.16","5acb7b0ae1099600016acdd6","C3","batch3","","null","<p class=block-text>Trial 17 out of 78</p>","null","pattern_show_trial_num","","","","","","","","","","","","","","","","","","","","","","","","",""
"","","","","","image-keyboard-response","54","120440","0.0-2.0-5.0-1.16","5acb7b0ae1099600016acdd6","C3","batch3","","4652.700000047684","stim/no_53_1_b.png","j","pattern_response","true","j","pattern_33","4652.700000047684","true","14","","","","","","","","","","","","","","","","","","",""
"","","","","","html-keyboard-response","55","121747","0.0-2.0-5.0-0.17","5acb7b0ae1099600016acdd6","C3","batch3","","null","<p class=block-text>Trial 18 out of 78</p>","null","pattern_show_trial_num","","","","","","","","","","","","","","","","","","","","","","","","",""
"","","","","","image-keyboard-response","56","124586","0.0-2.0-5.0-1.17","5acb7b0ae1099600016acdd6","C3","batch3","","2832.2000000476837","stim/no_30_1_b.png","j","pattern_response","true","j","pattern_13","2832.2000000476837","true","15","","","","","","","","","","","","","","","","","","",""
"","","","","","html-keyboard-response","57","125890","0.0-2.0-5.0-0.18","5acb7b0ae1099600016acdd6","C3","batch3","","null","<p class=block-text>Trial 19 out of 78</p>","null","pattern_show_trial_num","","","","","","","","","","","","","","","","","","","","","","","","",""
"","","","","","image-keyboard-response","58","131516","0.0-2.0-5.0-1.18","5acb7b0ae1099600016acdd6","C3","batch3","","5619.700000047684","stim/no_58_1_w.png","j","pattern_response","true","j","pattern_35","5619.700000047684","true","16","","","","","","","","","","","","","","","","","","",""
"","","","","","html-keyboard-response","59","132868","0.0-2.0-5.0-0.19","5acb7b0ae1099600016acdd6","C3","batch3","","null","<p class=block-text>Trial 20 out of 78</p>","null","pattern_show_trial_num","","","","","","","","","","","","","","","","","","","","","","","","",""
"","","","","","image-keyboard-response","60","137866","0.0-2.0-5.0-1.19","5acb7b0ae1099600016acdd6","C3","batch3","","4989.299999952316","stim/no_51_1.png","j","pattern_response","true","j","pattern_31","4989.299999952316","true","17","","","","","","","","","","","","","","","","","","",""
"","","","","","html-keyboard-response","61","139171","0.0-2.0-5.0-0.20","5acb7b0ae1099600016acdd6","C3","batch3","","null","<p class=block-text>Trial 21 out of 78</p>","null","pattern_show_trial_num","","","","","","","","","","","","","","","","","","","","","","","","",""
"","","","","","image-keyboard-response","62","140450","0.0-2.0-5.0-1.20","5acb7b0ae1099600016acdd6","C3","batch3","","1264.2999999523163","stim/yes_36_ver_w1_w.png","f","pattern_response","true","f","pattern_58","1264.2999999523163","true","18","","","","","","","","","","","","","","","","","","",""
"","","","","","html-keyboard-response","63","141756","0.0-2.0-5.0-0.21","5acb7b0ae1099600016acdd6","C3","batch3","","null","<p class=block-text>Trial 22 out of 78</p>","null","pattern_show_trial_num","","","","","","","","","","","","","","","","","","","","","","","","",""
"","","","","","image-keyboard-response","64","145004","0.0-2.0-5.0-1.21","5acb7b0ae1099600016acdd6","C3","batch3","","3241.600000023842","stim/no_37_2_w.png","j","pattern_response","true","j","pattern_19","3241.600000023842","true","19","","","","","","","","","","","","","","","","","","",""
"","","","","","html-keyboard-response","65","146309","0.0-2.0-5.0-0.22","5acb7b0ae1099600016acdd6","C3","batch3","","null","<p class=block-text>Trial 23 out of 78</p>","null","pattern_show_trial_num","","","","","","","","","","","","","","","","","","","","","","","","",""
"","","","","","image-keyboard-response","66","149202","0.0-2.0-5.0-1.22","5acb7b0ae1099600016acdd6","C3","batch3","","2882.899999976158","stim/yes_51_dia_b1.png","j","pattern_response","false","f","pattern_72","2882.899999976158","false","19","","","","","","","","","","","","","","","","","","",""
"","","","","","html-keyboard-response","67","150506","0.0-2.0-5.0-0.23","5acb7b0ae1099600016acdd6","C3","batch3","","null","<p class=block-text>Trial 24 out of 78</p>","null","pattern_show_trial_num","","","","","","","","","","","","","","","","","","","","","","","","",""
"","","","","","image-keyboard-response","68","153526","0.0-2.0-5.0-1.23","5acb7b0ae1099600016acdd6","C3","batch3","","3012.7000000476837","stim/no_39_1_w.png","j","pattern_response","true","j","pattern_21","3012.7000000476837","true","20","","","","","","","","","","","","","","","","","","",""
"","","","","","html-keyboard-response","69","154835","0.0-2.0-5.0-0.24","5acb7b0ae1099600016acdd6","C3","batch3","","null","<p class=block-text>Trial 25 out of 78</p>","null","pattern_show_trial_num","","","","","","","","","","","","","","","","","","","","","","","","",""
"","","","","","image-keyboard-response","70","157856","0.0-2.0-5.0-1.24","5acb7b0ae1099600016acdd6","C3","batch3","","3010.600000023842","stim/yes_42_dia_w1_w.png","j","pattern_response","false","f","pattern_64","3010.600000023842","false","20","","","","","","","","","","","","","","","","","","",""
"","","","","","html-keyboard-response","71","159161","0.0-2.0-5.0-0.25","5acb7b0ae1099600016acdd6","C3","batch3","","null","<p class=block-text>Trial 26 out of 78</p>","null","pattern_show_trial_num","","","","","","","","","","","","","","","","","","","","","","","","",""
"","","","","","image-keyboard-response","72","163704","0.0-2.0-5.0-1.25","5acb7b0ae1099600016acdd6","C3","batch3","","4530.399999976158","stim/yes_53_ver_b1_b.png","j","pattern_response","false","f","pattern_74","4530.399999976158","false","20","","","","","","","","","","","","","","","","","","",""
"","","","","","html-keyboard-response","73","165008","0.0-2.0-5.0-0.26","5acb7b0ae1099600016acdd6","C3","batch3","","null","<p class=block-text>Trial 27 out of 78</p>","null","pattern_show_trial_num","","","","","","","","","","","","","","","","","","","","","","","","",""
"","","","","","image-keyboard-response","74","166018","0.0-2.0-5.0-1.26","5acb7b0ae1099600016acdd6","C3","batch3","","1001.7000000476837","stim/no_18_1_b.png","j","pattern_response","true","j","pattern_05","1001.7000000476837","true","21","","","","","","","","","","","","","","","","","","",""
"","","","","","html-keyboard-response","75","167323","0.0-2.0-5.0-0.27","5acb7b0ae1099600016acdd6","C3","batch3","","null","<p class=block-text>Trial 28 out of 78</p>","null","pattern_show_trial_num","","","","","","","","","","","","","","","","","","","","","","","","",""
"","","","","","image-keyboard-response","76","168880","0.0-2.0-5.0-1.27","5acb7b0ae1099600016acdd6","C3","batch3","","1549.5","stim/yes_26_dia_w2_w.png","f","pattern_response","true","f","pattern_50","1549.5","true","22","","","","","","","","","","","","","","","","","","",""
"","","","","","html-keyboard-response","77","170182","0.0-2.0-5.0-0.28","5acb7b0ae1099600016acdd6","C3","batch3","","null","<p class=block-text>Trial 29 out of 78</p>","null","pattern_show_trial_num","","","","","","","","","","","","","","","","","","","","","","","","",""
"","","","","","image-keyboard-response","78","173775","0.0-2.0-5.0-1.28","5acb7b0ae1099600016acdd6","C3","batch3","","3582.100000023842","stim/no_45_1_w.png","j","pattern_response","true","j","pattern_25","3582.100000023842","true","23","","","","","","","","","","","","","","","","","","",""
"","","","","","html-keyboard-response","79","175078","0.0-2.0-5.0-0.29","5acb7b0ae1099600016acdd6","C3","batch3","","null","<p class=block-text>Trial 30 out of 78</p>","null","pattern_show_trial_num","","","","","","","","","","","","","","","","","","","","","","","","",""
"","","","","","image-keyboard-response","80","176227","0.0-2.0-5.0-1.29","5acb7b0ae1099600016acdd6","C3","batch3","","1141.6000000238419","stim/yes_15_dia_b1u_b.png","f","pattern_response","true","f","pattern_44","1141.6000000238419","true","24","","","","","","","","","","","","","","","","","","",""
"","","","","","html-keyboard-response","81","177531","0.0-2.0-5.0-0.30","5acb7b0ae1099600016acdd6","C3","batch3","","null","<p class=block-text>Trial 31 out of 78</p>","null","pattern_show_trial_num","","","","","","","","","","","","","","","","","","","","","","","","",""
"","","","","","image-keyboard-response","82","181118","0.0-2.0-5.0-1.30","5acb7b0ae1099600016acdd6","C3","batch3","","3576.7000000476837","stim/no_36_1_b.png","j","pattern_response","true","j","pattern_17","3576.7000000476837","true","25","","","","","","","","","","","","","","","","","","",""
"","","","","","html-keyboard-response","83","182423","0.0-2.0-5.0-0.31","5acb7b0ae1099600016acdd6","C3","batch3","","null","<p class=block-text>Trial 32 out of 78</p>","null","pattern_show_trial_num","","","","","","","","","","","","","","","","","","","","","","","","",""
"","","","","","image-keyboard-response","84","185263","0.0-2.0-5.0-1.31","5acb7b0ae1099600016acdd6","C3","batch3","","2828.5","stim/no_33_1_b.png","j","pattern_response","true","j","pattern_15","2828.5","true","26","","","","","","","","","","","","","","","","","","",""
"","","","","","html-keyboard-response","85","186567","0.0-2.0-5.0-0.32","5acb7b0ae1099600016acdd6","C3","batch3","","null","<p class=block-text>Trial 33 out of 78</p>","null","pattern_show_trial_num","","","","","","","","","","","","","","","","","","","","","","","","",""
"","","","","","image-keyboard-response","86","189834","0.0-2.0-5.0-1.32","5acb7b0ae1099600016acdd6","C3","batch3","","3253.7000000476837","stim/no_49_2_b.png","j","pattern_response","true","j","pattern_29","3253.7000000476837","true","27","","","","","","","","","","","","","","","","","","",""
"","","","","","html-keyboard-response","87","191140","0.0-2.0-5.0-0.33","5acb7b0ae1099600016acdd6","C3","batch3","","null","<p class=block-text>Trial 34 out of 78</p>","null","pattern_show_trial_num","","","","","","","","","","","","","","","","","","","","","","","","",""
"","","","","","image-keyboard-response","88","192680","0.0-2.0-5.0-1.33","5acb7b0ae1099600016acdd6","C3","batch3","","1527.6000000238419","stim/yes_44_ver_w1_w.png","f","pattern_response","true","f","pattern_66","1527.6000000238419","true","28","","","","","","","","","","","","","","","","","","",""
"","","","","","html-keyboard-response","89","193984","0.0-2.0-5.0-0.34","5acb7b0ae1099600016acdd6","C3","batch3","","null","<p class=block-text>Trial 35 out of 78</p>","null","pattern_show_trial_num","","","","","","","","","","","","","","","","","","","","","","","","",""
"","","","","","image-keyboard-response","90","197053","0.0-2.0-5.0-1.34","5acb7b0ae1099600016acdd6","C3","batch3","","3061.3000000715256","stim/no_28_2.png","j","pattern_response","true","j","pattern_11","3061.3000000715256","true","29","","","","","","","","","","","","","","","","","","",""
"","","","","","html-keyboard-response","91","198358","0.0-2.0-5.0-0.35","5acb7b0ae1099600016acdd6","C3","batch3","","null","<p class=block-text>Trial 36 out of 78</p>","null","pattern_show_trial_num","","","","","","","","","","","","","","","","","","","","","","","","",""
"","","","","","image-keyboard-response","92","199336","0.0-2.0-5.0-1.35","5acb7b0ae1099600016acdd6","C3","batch3","","966.5","stim/yes_39_hor_w1_w.png","f","pattern_response","true","f","pattern_62","966.5","true","30","","","","","","","","","","","","","","","","","","",""
"","","","","","html-keyboard-response","93","200641","0.0-2.0-5.0-0.36","5acb7b0ae1099600016acdd6","C3","batch3","","null","<p class=block-text>Trial 37 out of 78</p>","null","pattern_show_trial_num","","","","","","","","","","","","","","","","","","","","","","","","",""
"","","","","","image-keyboard-response","94","205079","0.0-2.0-5.0-1.36","5acb7b0ae1099600016acdd6","C3","batch3","","4430.800000071526","stim/yes_63_dia_b1.png","j","pattern_response","false","f","pattern_78","4430.800000071526","false","30","","","","","","","","","","","","","","","","","","",""
"","","","","","html-keyboard-response","95","206385","0.0-2.0-5.0-0.37","5acb7b0ae1099600016acdd6","C3","batch3","","null","<p class=block-text>Trial 38 out of 78</p>","null","pattern_show_trial_num","","","","","","","","","","","","","","","","","","","","","","","","",""
"","","","","","image-keyboard-response","96","209168","0.0-2.0-5.0-1.37","5acb7b0ae1099600016acdd6","C3","batch3","","2775","stim/no_22_1_b.png","j","pattern_response","true","j","pattern_07","2775","true","31","","","","","","","","","","","","","","","","","","",""
"","","","","","html-keyboard-response","97","210473","0.0-2.0-5.0-0.38","5acb7b0ae1099600016acdd6","C3","batch3","","null","<p class=block-text>Trial 39 out of 78</p>","null","pattern_show_trial_num","","","","","","","","","","","","","","","","","","","","","","","","",""
"","","","","","image-keyboard-response","98","216088","0.0-2.0-5.0-1.38","5acb7b0ae1099600016acdd6","C3","batch3","","5603.5","stim/yes_70_ver_b1.png","j","pattern_response","false","f","pattern_80","5603.5","false","31","","","","","","","","","","","","","","","","","","",""
"","","","","","image-keyboard-response","99","218368","0.0-2.0-6.0","5acb7b0ae1099600016acdd6","C3","batch3","","1772","stim/empty_board.png","j","attention_check","true","j","","","","","500","[""f"",""j""]","","","","","","","","","","","","","","","","",""
"","","","","","html-keyboard-response","100","219173","0.0-2.0-7.0-0.0","5acb7b0ae1099600016acdd6","C3","batch3","","null","<p class=block-text>Trial 40 out of 78</p>","null","pattern_show_trial_num","","","","","","","","","","","","","","","","","","","","","","","","",""
"","","","","","image-keyboard-response","101","223171","0.0-2.0-7.0-1.0","5acb7b0ae1099600016acdd6","C3","batch3","","3985.6999999284744","stim/no_52_1.png","j","pattern_response","true","j","pattern_32","3985.6999999284744","true","32","","","","","","","","","","","","","","","","","","",""
"","","","","","html-keyboard-response","102","224476","0.0-2.0-7.0-0.1","5acb7b0ae1099600016acdd6","C3","batch3","","null","<p class=block-text>Trial 41 out of 78</p>","null","pattern_show_trial_num","","","","","","","","","","","","","","","","","","","","","","","","",""
"","","","","","image-keyboard-response","103","225888","0.0-2.0-7.0-1.1","5acb7b0ae1099600016acdd6","C3","batch3","","1402.5","stim/yes_60_ver_b1_b.png","f","pattern_response","true","f","pattern_77","1402.5","true","33","","","","","","","","","","","","","","","","","","",""
"","","","","","html-keyboard-response","104","227194","0.0-2.0-7.0-0.2","5acb7b0ae1099600016acdd6","C3","batch3","","null","<p class=block-text>Trial 42 out of 78</p>","null","pattern_show_trial_num","","","","","","","","","","","","","","","","","","","","","","","","",""
"","","","","","image-keyboard-response","105","229489","0.0-2.0-7.0-1.2","5acb7b0ae1099600016acdd6","C3","batch3","","2284.100000023842","stim/yes_38_hor_b1_b.png","j","pattern_response","false","f","pattern_61","2284.100000023842","false","33","","","","","","","","","","","","","","","","","","",""
"","","","","","html-keyboard-response","106","230794","0.0-2.0-7.0-0.3","5acb7b0ae1099600016acdd6","C3","batch3","","null","<p class=block-text>Trial 43 out of 78</p>","null","pattern_show_trial_num","","","","","","","","","","","","","","","","","","","","","","","","",""
"","","","","","image-keyboard-response","107","234488","0.0-2.0-7.0-1.3","5acb7b0ae1099600016acdd6","C3","batch3","","3683.2999999523163","stim/yes_48_dia_w1_w.png","j","pattern_response","false","f","pattern_69","3683.2999999523163","false","33","","","","","","","","","","","","","","","","","","",""
"","","","","","html-keyboard-response","108","235792","0.0-2.0-7.0-0.4","5acb7b0ae1099600016acdd6","C3","batch3","","null","<p class=block-text>Trial 44 out of 78</p>","null","pattern_show_trial_num","","","","","","","","","","","","","","","","","","","","","","","","",""
"","","","","","image-keyboard-response","109","237864","0.0-2.0-7.0-1.4","5acb7b0ae1099600016acdd6","C3","batch3","","2061.3000000715256","stim/yes_37_dia_w1.png","f","pattern_response","true","f","pattern_59","2061.3000000715256","true","34","","","","","","","","","","","","","","","","","","",""
"","","","","","html-keyboard-response","110","239169","0.0-2.0-7.0-0.5","5acb7b0ae1099600016acdd6","C3","batch3","","null","<p class=block-text>Trial 45 out of 78</p>","null","pattern_show_trial_num","","","","","","","","","","","","","","","","","","","","","","","","",""
"","","","","","image-keyboard-response","111","241032","0.0-2.0-7.0-1.5","5acb7b0ae1099600016acdd6","C3","batch3","","1852.6000000238419","stim/no_23_1.png","j","pattern_response","true","j","pattern_08","1852.6000000238419","true","35","","","","","","","","","","","","","","","","","","",""
"","","","","","html-keyboard-response","112","242336","0.0-2.0-7.0-0.6","5acb7b0ae1099600016acdd6","C3","batch3","","null","<p class=block-text>Trial 46 out of 78</p>","null","pattern_show_trial_num","","","","","","","","","","","","","","","","","","","","","","","","",""
"","","","","","image-keyboard-response","113","243333","0.0-2.0-7.0-1.6","5acb7b0ae1099600016acdd6","C3","batch3","","988.7000000476837","stim/no_13_2_b.png","j","pattern_response","true","j","pattern_02","988.7000000476837","true","36","","","","","","","","","","","","","","","","","","",""
"","","","","","html-keyboard-response","114","244637","0.0-2.0-7.0-0.7","5acb7b0ae1099600016acdd6","C3","batch3","","null","<p class=block-text>Trial 47 out of 78</p>","null","pattern_show_trial_num","","","","","","","","","","","","","","","","","","","","","","","","",""
"","","","","","image-keyboard-response","115","246982","0.0-2.0-7.0-1.7","5acb7b0ae1099600016acdd6","C3","batch3","","2337.2000000476837","stim/no_32_1_w.png","j","pattern_response","true","j","pattern_14","2337.2000000476837","true","37","","","","","","","","","","","","","","","","","","",""
"","","","","","html-keyboard-response","116","248286","0.0-2.0-7.0-0.8","5acb7b0ae1099600016acdd6","C3","batch3","","null","<p class=block-text>Trial 48 out of 78</p>","null","pattern_show_trial_num","","","","","","","","","","","","","","","","","","","","","","","","",""
"","","","","","image-keyboard-response","117","254543","0.0-2.0-7.0-1.8","5acb7b0ae1099600016acdd6","C3","batch3","","6250.699999928474","stim/no_70_2.png","j","pattern_response","true","j","pattern_40","6250.699999928474","true","38","","","","","","","","","","","","","","","","","","",""
"","","","","","html-keyboard-response","118","255848","0.0-2.0-7.0-0.9","5acb7b0ae1099600016acdd6","C3","batch3","","null","<p class=block-text>Trial 49 out of 78</p>","null","pattern_show_trial_num","","","","","","","","","","","","","","","","","","","","","","","","",""
"","","","","","image-keyboard-response","119","257386","0.0-2.0-7.0-1.9","5acb7b0ae1099600016acdd6","C3","batch3","","1524","stim/yes_17_dia_w1.png","f","pattern_response","true","f","pattern_45","1524","true","39","","","","","","","","","","","","","","","","","","",""
"","","","","","html-keyboard-response","120","258690","0.0-2.0-7.0-0.10","5acb7b0ae1099600016acdd6","C3","batch3","","null","<p class=block-text>Trial 50 out of 78</p>","null","pattern_show_trial_num","","","","","","","","","","","","","","","","","","","","","","","","",""
"","","","","","image-keyboard-response","121","262130","0.0-2.0-7.0-1.10","5acb7b0ae1099600016acdd6","C3","batch3","","3431.5999999046326","stim/no_46_1_b.png","j","pattern_response","true","j","pattern_26","3431.5999999046326","true","40","","","","","","","","","","","","","","","","","","",""
"","","","","","html-keyboard-response","122","263435","0.0-2.0-7.0-0.11","5acb7b0ae1099600016acdd6","C3","batch3","","null","<p class=block-text>Trial 51 out of 78</p>","null","pattern_show_trial_num","","","","","","","","","","","","","","","","","","","","","","","","",""
"","","","","","image-keyboard-response","123","268429","0.0-2.0-7.0-1.11","5acb7b0ae1099600016acdd6","C3","batch3","","4985.700000047684","stim/no_65_1_b.png","j","pattern_response","true","j","pattern_38","4985.700000047684","true","41","","","","","","","","","","","","","","","","","","",""
"","","","","","html-keyboard-response","124","269733","0.0-2.0-7.0-0.12","5acb7b0ae1099600016acdd6","C3","batch3","","null","<p class=block-text>Trial 52 out of 78</p>","null","pattern_show_trial_num","","","","","","","","","","","","","","","","","","","","","","","","",""
"","","","","","image-keyboard-response","125","271031","0.0-2.0-7.0-1.12","5acb7b0ae1099600016acdd6","C3","batch3","","1284.3999999761581","stim/yes_28_ver_b1.png","f","pattern_response","true","f","pattern_51","1284.3999999761581","true","42","","","","","","","","","","","","","","","","","","",""
"","","","","","html-keyboard-response","126","272337","0.0-2.0-7.0-0.13","5acb7b0ae1099600016acdd6","C3","batch3","","null","<p class=block-text>Trial 53 out of 78</p>","null","pattern_show_trial_num","","","","","","","","","","","","","","","","","","","","","","","","",""
"","","","","","image-keyboard-response","127","273125","0.0-2.0-7.0-1.13","5acb7b0ae1099600016acdd6","C3","batch3","","780.1999999284744","stim/yes_25_hor_b1_b.png","f","pattern_response","true","f","pattern_49","780.1999999284744","true","43","","","","","","","","","","","","","","","","","","",""
"","","","","","html-keyboard-response","128","274428","0.0-2.0-7.0-0.14","5acb7b0ae1099600016acdd6","C3","batch3","","null","<p class=block-text>Trial 54 out of 78</p>","null","pattern_show_trial_num","","","","","","","","","","","","","","","","","","","","","","","","",""
"","","","","","image-keyboard-response","129","275461","0.0-2.0-7.0-1.14","5acb7b0ae1099600016acdd6","C3","batch3","","1023.7999999523163","stim/yes_55_hor_w1_w.png","f","pattern_response","true","f","pattern_75","1023.7999999523163","true","44","","","","","","","","","","","","","","","","","","",""
"","","","","","html-keyboard-response","130","276766","0.0-2.0-7.0-0.15","5acb7b0ae1099600016acdd6","C3","batch3","","null","<p class=block-text>Trial 55 out of 78</p>","null","pattern_show_trial_num","","","","","","","","","","","","","","","","","","","","","","","","",""
"","","","","","image-keyboard-response","131","281714","0.0-2.0-7.0-1.15","5acb7b0ae1099600016acdd6","C3","batch3","","4939.799999952316","stim/no_62_1_w.png","j","pattern_response","true","j","pattern_36","4939.799999952316","true","45","","","","","","","","","","","","","","","","","","",""
"","","","","","html-keyboard-response","132","283019","0.0-2.0-7.0-0.16","5acb7b0ae1099600016acdd6","C3","batch3","","null","<p class=block-text>Trial 56 out of 78</p>","null","pattern_show_trial_num","","","","","","","","","","","","","","","","","","","","","","","","",""
"","","","","","image-keyboard-response","133","286384","0.0-2.0-7.0-1.16","5acb7b0ae1099600016acdd6","C3","batch3","","3354.899999976158","stim/no_44_1.png","j","pattern_response","true","j","pattern_24","3354.899999976158","true","46","","","","","","","","","","","","","","","","","","",""
"","","","","","html-keyboard-response","134","287687","0.0-2.0-7.0-0.17","5acb7b0ae1099600016acdd6","C3","batch3","","null","<p class=block-text>Trial 57 out of 78</p>","null","pattern_show_trial_num","","","","","","","","","","","","","","","","","","","","","","","","",""
"","","","","","image-keyboard-response","135","291268","0.0-2.0-7.0-1.17","5acb7b0ae1099600016acdd6","C3","batch3","","3576","stim/no_36_2_w.png","j","pattern_response","true","j","pattern_18","3576","true","47","","","","","","","","","","","","","","","","","","",""
"","","","","","html-keyboard-response","136","292572","0.0-2.0-7.0-0.18","5acb7b0ae1099600016acdd6","C3","batch3","","null","<p class=block-text>Trial 58 out of 78</p>","null","pattern_show_trial_num","","","","","","","","","","","","","","","","","","","","","","","","",""
"","","","","","image-keyboard-response","137","297363","0.0-2.0-7.0-1.18","5acb7b0ae1099600016acdd6","C3","batch3","","4779.399999976158","stim/yes_67_hor_b1.png","j","pattern_response","false","f","pattern_79","4779.399999976158","false","47","","","","","","","","","","","","","","","","","","",""
"","","","","","html-keyboard-response","138","298668","0.0-2.0-7.0-0.19","5acb7b0ae1099600016acdd6","C3","batch3","","null","<p class=block-text>Trial 59 out of 78</p>","null","pattern_show_trial_num","","","","","","","","","","","","","","","","","","","","","","","","",""
"","","","","","image-keyboard-response","139","301117","0.0-2.0-7.0-1.19","5acb7b0ae1099600016acdd6","C3","batch3","","2435.899999976158","stim/yes_35_dia_b1.png","f","pattern_response","true","f","pattern_57","2435.899999976158","true","48","","","","","","","","","","","","","","","","","","",""
"","","","","","html-keyboard-response","140","302419","0.0-2.0-7.0-0.20","5acb7b0ae1099600016acdd6","C3","batch3","","null","<p class=block-text>Trial 60 out of 78</p>","null","pattern_show_trial_num","","","","","","","","","","","","","","","","","","","","","","","","",""
"","","","","","image-keyboard-response","141","304042","0.0-2.0-7.0-1.20","5acb7b0ae1099600016acdd6","C3","batch3","","1614.0999999046326","stim/no_26_1_w.png","j","pattern_response","true","j","pattern_10","1614.0999999046326","true","49","","","","","","","","","","","","","","","","","","",""
"","","","","","html-keyboard-response","142","305348","0.0-2.0-7.0-0.21","5acb7b0ae1099600016acdd6","C3","batch3","","null","<p class=block-text>Trial 61 out of 78</p>","null","pattern_show_trial_num","","","","","","","","","","","","","","","","","","","","","","","","",""
"","","","","","image-keyboard-response","143","306468","0.0-2.0-7.0-1.21","5acb7b0ae1099600016acdd6","C3","batch3","","1111.1000000238419","stim/yes_22_ver_w1.png","f","pattern_response","true","f","pattern_47","1111.1000000238419","true","50","","","","","","","","","","","","","","","","","","",""
"","","","","","html-keyboard-response","144","307772","0.0-2.0-7.0-0.22","5acb7b0ae1099600016acdd6","C3","batch3","","null","<p class=block-text>Trial 62 out of 78</p>","null","pattern_show_trial_num","","","","","","","","","","","","","","","","","","","","","","","","",""
"","","","","","image-keyboard-response","145","308919","0.0-2.0-7.0-1.22","5acb7b0ae1099600016acdd6","C3","batch3","","1141.9000000953674","stim/no_17_1_w.png","j","pattern_response","true","j","pattern_04","1141.9000000953674","true","51","","","","","","","","","","","","","","","","","","",""
"","","","","","html-keyboard-response","146","310221","0.0-2.0-7.0-0.23","5acb7b0ae1099600016acdd6","C3","batch3","","null","<p class=block-text>Trial 63 out of 78</p>","null","pattern_show_trial_num","","","","","","","","","","","","","","","","","","","","","","","","",""
"","","","","","image-keyboard-response","147","314223","0.0-2.0-7.0-1.23","5acb7b0ae1099600016acdd6","C3","batch3","","3997.8000000715256","stim/no_48_1_w.png","j","pattern_response","true","j","pattern_28","3997.8000000715256","true","52","","","","","","","","","","","","","","","","","","",""
"","","","","","html-keyboard-response","148","315528","0.0-2.0-7.0-0.24","5acb7b0ae1099600016acdd6","C3","batch3","","null","<p class=block-text>Trial 64 out of 78</p>","null","pattern_show_trial_num","","","","","","","","","","","","","","","","","","","","","","","","",""
"","","","","","image-keyboard-response","149","318290","0.0-2.0-7.0-1.24","5acb7b0ae1099600016acdd6","C3","batch3","","2745.899999976158","stim/no_34_1_b.png","j","pattern_response","true","j","pattern_16","2745.899999976158","true","53","","","","","","","","","","","","","","","","","","",""
"","","","","","html-keyboard-response","150","319593","0.0-2.0-7.0-0.25","5acb7b0ae1099600016acdd6","C3","batch3","","null","<p class=block-text>Trial 65 out of 78</p>","null","pattern_show_trial_num","","","","","","","","","","","","","","","","","","","","","","","","",""
"","","","","","image-keyboard-response","151","321184","0.0-2.0-7.0-1.25","5acb7b0ae1099600016acdd6","C3","batch3","","1581.7000000476837","stim/yes_52_ver_w1.png","f","pattern_response","true","f","pattern_73","1581.7000000476837","true","54","","","","","","","","","","","","","","","","","","",""
"","","","","","html-keyboard-response","152","322486","0.0-2.0-7.0-0.26","5acb7b0ae1099600016acdd6","C3","batch3","","null","<p class=block-text>Trial 66 out of 78</p>","null","pattern_show_trial_num","","","","","","","","","","","","","","","","","","","","","","","","",""
"","","","","","image-keyboard-response","153","323813","0.0-2.0-7.0-1.26","5acb7b0ae1099600016acdd6","C3","batch3","","1313.1999999284744","stim/no_29_1_b.png","j","pattern_response","true","j","pattern_12","1313.1999999284744","true","55","","","","","","","","","","","","","","","","","","",""
"","","","","","html-keyboard-response","154","325116","0.0-2.0-7.0-0.27","5acb7b0ae1099600016acdd6","C3","batch3","","null","<p class=block-text>Trial 67 out of 78</p>","null","pattern_show_trial_num","","","","","","","","","","","","","","","","","","","","","","","","",""
"","","","","","image-keyboard-response","155","326444","0.0-2.0-7.0-1.27","5acb7b0ae1099600016acdd6","C3","batch3","","1323.6999999284744","stim/no_20_1_w.png","j","pattern_response","true","j","pattern_06","1323.6999999284744","true","56","","","","","","","","","","","","","","","","","","",""
"","","","","","html-keyboard-response","156","327750","0.0-2.0-7.0-0.28","5acb7b0ae1099600016acdd6","C3","batch3","","null","<p class=block-text>Trial 68 out of 78</p>","null","pattern_show_trial_num","","","","","","","","","","","","","","","","","","","","","","","","",""
"","","","","","image-keyboard-response","157","330221","0.0-2.0-7.0-1.28","5acb7b0ae1099600016acdd6","C3","batch3","","2464.899999976158","stim/yes_40_dia_b1_b.png","j","pattern_response","false","f","pattern_63","2464.899999976158","false","56","","","","","","","","","","","","","","","","","","",""
"","","","","","html-keyboard-response","158","331526","0.0-2.0-7.0-0.29","5acb7b0ae1099600016acdd6","C3","batch3","","null","<p class=block-text>Trial 69 out of 78</p>","null","pattern_show_trial_num","","","","","","","","","","","","","","","","","","","","","","","","",""
"","","","","","image-keyboard-response","159","333316","0.0-2.0-7.0-1.29","5acb7b0ae1099600016acdd6","C3","batch3","","1780.6999999284744","stim/no_42_1_w.png","j","pattern_response","true","j","pattern_22","1780.6999999284744","true","57","","","","","","","","","","","","","","","","","","",""
"","","","","","html-keyboard-response","160","334619","0.0-2.0-7.0-0.30","5acb7b0ae1099600016acdd6","C3","batch3","","null","<p class=block-text>Trial 70 out of 78</p>","null","pattern_show_trial_num","","","","","","","","","","","","","","","","","","","","","","","","",""
"","","","","","image-keyboard-response","161","336786","0.0-2.0-7.0-1.30","5acb7b0ae1099600016acdd6","C3","batch3","","2154","stim/yes_31_hor_b1.png","f","pattern_response","true","f","pattern_55","2154","true","58","","","","","","","","","","","","","","","","","","",""
"","","","","","html-keyboard-response","162","338089","0.0-2.0-7.0-0.31","5acb7b0ae1099600016acdd6","C3","batch3","","null","<p class=block-text>Trial 71 out of 78</p>","null","pattern_show_trial_num","","","","","","","","","","","","","","","","","","","","","","","","",""
"","","","","","image-keyboard-response","163","338831","0.0-2.0-7.0-1.31","5acb7b0ae1099600016acdd6","C3","batch3","","732.2999999523163","stim/yes_14_hor_b1_w.png","f","pattern_response","true","f","pattern_43","732.2999999523163","true","59","","","","","","","","","","","","","","","","","","",""
"","","","","","html-keyboard-response","164","340134","0.0-2.0-7.0-0.32","5acb7b0ae1099600016acdd6","C3","batch3","","null","<p class=block-text>Trial 72 out of 78</p>","null","pattern_show_trial_num","","","","","","","","","","","","","","","","","","","","","","","","",""
"","","","","","image-keyboard-response","165","342910","0.0-2.0-7.0-1.32","5acb7b0ae1099600016acdd6","C3","batch3","","2766.5","stim/no_50_1.png","j","pattern_response","true","j","pattern_30","2766.5","true","60","","","","","","","","","","","","","","","","","","",""
"","","","","","html-keyboard-response","166","344215","0.0-2.0-7.0-0.33","5acb7b0ae1099600016acdd6","C3","batch3","","null","<p class=block-text>Trial 73 out of 78</p>","null","pattern_show_trial_num","","","","","","","","","","","","","","","","","","","","","","","","",""
"","","","","","image-keyboard-response","167","345505","0.0-2.0-7.0-1.33","5acb7b0ae1099600016acdd6","C3","batch3","","1279.9000000953674","stim/yes_45_hor_b2_b.png","f","pattern_response","true","f","pattern_67","1279.9000000953674","true","61","","","","","","","","","","","","","","","","","","",""
"","","","","","html-keyboard-response","168","346808","0.0-2.0-7.0-0.34","5acb7b0ae1099600016acdd6","C3","batch3","","null","<p class=block-text>Trial 74 out of 78</p>","null","pattern_show_trial_num","","","","","","","","","","","","","","","","","","","","","","","","",""
"","","","","","image-keyboard-response","169","349077","0.0-2.0-7.0-1.34","5acb7b0ae1099600016acdd6","C3","batch3","","2263.2999999523163","stim/no_38_1_b.png","j","pattern_response","true","j","pattern_20","2263.2999999523163","true","62","","","","","","","","","","","","","","","","","","",""
"","","","","","html-keyboard-response","170","350380","0.0-2.0-7.0-0.35","5acb7b0ae1099600016acdd6","C3","batch3","","null","<p class=block-text>Trial 75 out of 78</p>","null","pattern_show_trial_num","","","","","","","","","","","","","","","","","","","","","","","","",""
"","","","","","image-keyboard-response","171","351756","0.0-2.0-7.0-1.35","5acb7b0ae1099600016acdd6","C3","batch3","","1365.8999999761581","stim/yes_43_ver_w1_w.png","f","pattern_response","true","f","pattern_65","1365.8999999761581","true","63","","","","","","","","","","","","","","","","","","",""
"","","","","","html-keyboard-response","172","353059","0.0-2.0-7.0-0.36","5acb7b0ae1099600016acdd6","C3","batch3","","null","<p class=block-text>Trial 76 out of 78</p>","null","pattern_show_trial_num","","","","","","","","","","","","","","","","","","","","","","","","",""
"","","","","","image-keyboard-response","173","354712","0.0-2.0-7.0-1.36","5acb7b0ae1099600016acdd6","C3","batch3","","1645.5","stim/yes_29_ver_w1.png","f","pattern_response","true","f","pattern_53","1645.5","true","64","","","","","","","","","","","","","","","","","","",""
"","","","","","html-keyboard-response","174","356018","0.0-2.0-7.0-0.37","5acb7b0ae1099600016acdd6","C3","batch3","","null","<p class=block-text>Trial 77 out of 78</p>","null","pattern_show_trial_num","","","","","","","","","","","","","","","","","","","","","","","","",""
"","","","","","image-keyboard-response","175","359753","0.0-2.0-7.0-1.37","5acb7b0ae1099600016acdd6","C3","batch3","","3726.600000023842","stim/yes_50_dia_w1.png","j","pattern_response","false","f","pattern_71","3726.600000023842","false","64","","","","","","","","","","","","","","","","","","",""
"","","","","","html-keyboard-response","176","361060","0.0-2.0-7.0-0.38","5acb7b0ae1099600016acdd6","C3","batch3","","null","<p class=block-text>Trial 78 out of 78</p>","null","pattern_show_trial_num","","","","","","","","","","","","","","","","","","","","","","","","",""
"","","","","","image-keyboard-response","177","364313","0.0-2.0-7.0-1.38","5acb7b0ae1099600016acdd6","C3","batch3","","3241.100000023842","stim/no_55_1_w.png","j","pattern_response","true","j","pattern_34","3241.100000023842","true","65","","","","","","","","","","","","","","","","","","",""
"","","","","","html-button-response","178","368593","0.0-2.0-8.0","5acb7b0ae1099600016acdd6","C3","batch3","","3769.5","<p class = block-text>This concludes the 4-in-a-row detection game.Thank you for your responses!<br>
            You responded correctly on 83% of the trials.<br>
            When you are ready, press ""Continue"" button to continue </p>","0","","","","","","","","","","","","","","","","","","","","","","","","","",""
"true","","","","","fullscreen","179","371546","0.0-3.0-0.0","5acb7b0ae1099600016acdd6","C3","batch3","","","","","","","","","","","","","","","","","","","","","","","","","","","","","",""
"","","","","","instructions","180","419593","0.0-3.0-1.0-0.0-0.0","5acb7b0ae1099600016acdd6","C3","batch3","[{""page_index"":0,""viewing_time"":13108.200000047684},{""page_index"":1,""viewing_time"":6687.399999976158},{""page_index"":2,""viewing_time"":6152.899999976158},{""page_index"":3,""viewing_time"":9751.100000023842},{""page_index"":4,""viewing_time"":5350.399999976158},{""page_index"":5,""viewing_time"":3835.5},{""page_index"":6,""viewing_time"":3157.600000023842}]","48044.700000047684","","","tol-instructions","","","","","","","","","","","","","","","","","","","","","","","","",""
"","","","","","html-button-response","181","420571","0.0-3.0-1.0-1.0-0.0","5acb7b0ae1099600016acdd6","C3","batch3","","972.2000000476837","<p class=block-text> Let's answer a few questions <br>","0","tol_enter_quiz","","","","","","","","","","","","","","","","","","","","","","","","",""
"","","","","","html-button-response","182","425860","0.0-3.0-1.0-1.0-1.0","5acb7b0ae1099600016acdd6","C3","batch3","","5281.5","<p class = block-text>True or False: You can only move the ball on top of a peg. <br></p>","0","tol_quiz","true","","","","","","","","","","","","","","","","","","","","","","","",""
"","","","","","html-button-response","183","427289","0.0-3.0-1.0-1.0-2.0","5acb7b0ae1099600016acdd6","C3","batch3","","1424.2000000476837","<p class = block-text>Correct! You can only move the ball on top of a peg.</p>","0","tol_quiz_feedback","","","","","","","","","","","","","","","","","","","","","","","","",""
"","","","","","html-button-response","184","430091","0.0-3.0-1.0-1.0-3.0","5acb7b0ae1099600016acdd6","C3","batch3","","2790.600000023842","<p class = block-text>True or False: You should try to match your board with the target board with fewest moves possible. <br></p>","0","tol_quiz","true","","","","","","","","","","","","","","","","","","","","","","","",""
"","","","","","html-button-response","185","430834","0.0-3.0-1.0-1.0-4.0","5acb7b0ae1099600016acdd6","C3","batch3","","734.3999999761581","<p class = block-text>Correct! </p>","0","tol_quiz_feedback","","","","","","","","","","","","","","","","","","","","","","","","",""
"","","","","","html-button-response","186","431967","0.0-3.0-2.0","5acb7b0ae1099600016acdd6","C3","batch3","","1127.6999999284744","<p class=block-text> Now that you've understood the game, let's practice a few easier examples before we start!<br> <br>","0","","","","","","","","","","","","","","","","","","","","","","","","","",""
"","","","","","single-stim-button","187","435284","0.0-3.0-3.0-0.0","5acb7b0ae1099600016acdd6","C3","batch3","","3308","","","tol_practice","","","","","","","","","tol_peg_2","3308","3308","0","[[1,2,0],[0,0],[0]]","1","[[1,2,0],[0,0],[3]]","practice","3308","","","","","","","",""
"","","","","","single-stim-button","188","436593","0.0-3.0-3.0-1.0","5acb7b0ae1099600016acdd6","C3","batch3","","1305","","","tol_practice","","","","","","","","","tol_peg_3","1305","1305","0","[[1,2,0],[0,0],[3]]","1","[[1,2,0],[0,0],[3]]","practice","1305","","","","","","","",""
"","","","","","poldrack-single-stim","189","437600","0.0-3.0-4.0","5acb7b0ae1099600016acdd6","C3","batch3","","-1","","","tol_feedback","true","","","","","","","","","1000","1000","500","","","","","","-1","none","true","","0","","",""
"","","","","","single-stim-button","190","440555","0.0-3.0-5.0-0.0","5acb7b0ae1099600016acdd6","C3","batch3","","2949","","","tol_practice","","","","","","","","","tol_peg_2","2949","2949","0","[[1,2,0],[0,0],[0]]","2","[[0,0,0],[3,1],[2]]","practice","2949","","","","","","","",""
"","","","","","single-stim-button","191","445545","0.0-3.0-5.0-1.0","5acb7b0ae1099600016acdd6","C3","batch3","","4985","","","tol_practice","","","","","","","","","tol_peg_2","4985","4985","0","[[1,2,0],[3,0],[0]]","2","[[0,0,0],[3,1],[2]]","practice","4985","","","","","","","",""
"","","","","","single-stim-button","192","449151","0.0-3.0-5.1-0.1","5acb7b0ae1099600016acdd6","C3","batch3","","3599","","","tol_practice","","","","","","","","","tol_peg_1","3599","3599","0","[[1,0,0],[3,0],[0]]","3","[[0,0,0],[3,1],[2]]","practice","3599","","","","","","","",""
"","","","","","single-stim-button","193","450066","0.0-3.0-5.1-1.1","5acb7b0ae1099600016acdd6","C3","batch3","","912","","","tol_practice","","","","","","","","","tol_peg_3","912","912","0","[[1,0,0],[3,0],[2]]","3","[[0,0,0],[3,1],[2]]","practice","912","","","","","","","",""
"","","","","","single-stim-button","194","452095","0.0-3.0-5.2-0.2","5acb7b0ae1099600016acdd6","C3","batch3","","2021","","","tol_practice","","","","","","","","","tol_peg_1","2021","2021","0","[[0,0,0],[3,0],[2]]","4","[[0,0,0],[3,1],[2]]","practice","2021","","","","","","","",""
"","","","","","single-stim-button","195","453281","0.0-3.0-5.2-1.2","5acb7b0ae1099600016acdd6","C3","batch3","","1177","","","tol_practice","","","","","","","","","tol_peg_2","1177","1177","0","[[0,0,0],[3,1],[2]]","4","[[0,0,0],[3,1],[2]]","practice","1177","","","","","","","",""
"","","","","","poldrack-single-stim","196","454289","0.0-3.0-6.0","5acb7b0ae1099600016acdd6","C3","batch3","","-1","","","tol_feedback","true","","","","","","","","","1000","1000","500","","","","","","-1","none","true","","0","","",""
"","","","","","single-stim-button","197","457811","0.0-3.0-7.0-0.0","5acb7b0ae1099600016acdd6","C3","batch3","","3516","","","tol_practice","","","","","","","","","tol_peg_2","3516","3516","0","[[1,2,0],[0,0],[0]]","5","[[1,0,0],[2,0],[3]]","practice","3516","","","","","","","",""
"","","","","","single-stim-button","198","458693","0.0-3.0-7.0-1.0","5acb7b0ae1099600016acdd6","C3","batch3","","876","","","tol_practice","","","","","","","","","tol_peg_3","876","876","0","[[1,2,0],[0,0],[3]]","5","[[1,0,0],[2,0],[3]]","practice","876","","","","","","","",""
"","","","","","single-stim-button","199","460479","0.0-3.0-7.1-0.1","5acb7b0ae1099600016acdd6","C3","batch3","","1779","","","tol_practice","","","","","","","","","tol_peg_1","1779","1779","0","[[1,0,0],[0,0],[3]]","6","[[1,0,0],[2,0],[3]]","practice","1779","","","","","","","",""
"","","","","","single-stim-button","200","461445","0.0-3.0-7.1-1.1","5acb7b0ae1099600016acdd6","C3","batch3","","960","","","tol_practice","","","","","","","","","tol_peg_2","960","960","0","[[1,0,0],[2,0],[3]]","6","[[1,0,0],[2,0],[3]]","practice","960","","","","","","","",""
"","","","","","poldrack-single-stim","201","462462","0.0-3.0-8.0","5acb7b0ae1099600016acdd6","C3","batch3","","-1","","","tol_feedback","true","","","","","","","","","1000","1000","500","","","","","","-1","none","true","","0","","",""
"","","","","","html-button-response","202","464742","0.0-3.0-9.0","5acb7b0ae1099600016acdd6","C3","batch3","","2272","<div class = centerbox><p class = center-block-text>Great job! You are done with practice trials<br>You are about to start official trials.<br> <br> Problem <strong>1</strong> out of 25 problems</p></div>","0","tol_instruction","","","","","","","","","","","","","","","","","","","","","","","","",""
"","","","","","single-stim-button","203","469726","0.0-3.0-10.0-0.0","5acb7b0ae1099600016acdd6","C3","batch3","","3976","","","tol_tohand","","","","","","","","","tol_peg_1","3976","3976","0","[[1,0,0],[3,0],[0]]","1","[[1,3,0],[2,0],[0]]","0","0","","","","","","3","",""
"","","","","","single-stim-button","204","472399","0.0-3.0-10.0-1.0","5acb7b0ae1099600016acdd6","C3","batch3","","2666","","","tol_toboard","","","","","","","","","tol_peg_3","2666","2666","0","[[1,0,0],[3,0],[2]]","1","[[1,3,0],[2,0],[0]]","0","0","","","","","","3","",""
"","","","","","single-stim-button","205","474041","0.0-3.0-10.1-0.1","5acb7b0ae1099600016acdd6","C3","batch3","","1638","","","tol_tohand","","","","","","","","","tol_peg_2","1638","1638","0","[[1,0,0],[0,0],[2]]","2","[[1,3,0],[2,0],[0]]","0","0","","","","","","3","",""
"","","","","","single-stim-button","206","474901","0.0-3.0-10.1-1.1","5acb7b0ae1099600016acdd6","C3","batch3","","855","","","tol_toboard","","","","","","","","","tol_peg_1","855","855","0","[[1,3,0],[0,0],[2]]","2","[[1,3,0],[2,0],[0]]","0","0","","","","","","3","",""
"","","","","","single-stim-button","207","476586","0.0-3.0-10.2-0.2","5acb7b0ae1099600016acdd6","C3","batch3","","1680","","","tol_tohand","","","","","","","","","tol_peg_3","1680","1680","0","[[1,3,0],[0,0],[0]]","3","[[1,3,0],[2,0],[0]]","0","0","","","","","","3","",""
"","","","","","single-stim-button","208","477550","0.0-3.0-10.2-1.2","5acb7b0ae1099600016acdd6","C3","batch3","","960","","","tol_toboard","","","","","","","","","tol_peg_2","960","960","0","[[1,3,0],[2,0],[0]]","3","[[1,3,0],[2,0],[0]]","0","0","","","","","","3","",""
"","","","","","poldrack-single-stim","209","478558","0.0-3.0-11.0","5acb7b0ae1099600016acdd6","C3","batch3","","-1","","","tol_feedback","true","","","","","","","","","1000","1000","500","","","","","","-1","none","true","3976","7294","","",""
"","","","","","html-button-response","210","479609","0.0-3.0-12.0","5acb7b0ae1099600016acdd6","C3","batch3","","1044.8999999761581","<div class = centerbox><p class = center-block-text>problem <strong>2</strong> out of 25 problems</p></div>","0","tol_trial_num","","","","","","","","","","","","","","","","","","","","","","","","",""
"","","","","","single-stim-button","211","482887","0.0-3.0-13.0-0.0","5acb7b0ae1099600016acdd6","C3","batch3","","3268","","","tol_tohand","","","","","","","","","tol_peg_1","3268","3268","0","[[1,0,0],[3,0],[0]]","1","[[2,1,3],[0,0],[0]]","1","0","","","","","","5","",""
"","","","","","single-stim-button","212","484310","0.0-3.0-13.0-1.0","5acb7b0ae1099600016acdd6","C3","batch3","","1415","","","tol_toboard","","","","","","","","","tol_peg_3","1415","1415","0","[[1,0,0],[3,0],[2]]","1","[[2,1,3],[0,0],[0]]","1","0","","","","","","5","",""
"","","","","","single-stim-button","213","485427","0.0-3.0-13.1-0.1","5acb7b0ae1099600016acdd6","C3","batch3","","1111","","","tol_tohand","","","","","","","","","tol_peg_1","1111","1111","0","[[0,0,0],[3,0],[2]]","2","[[2,1,3],[0,0],[0]]","1","0","","","","","","5","",""
"","","","","","single-stim-button","214","487925","0.0-3.0-13.1-1.1","5acb7b0ae1099600016acdd6","C3","batch3","","2494","","","tol_toboard","","","","","","","","","tol_peg_2","2494","2494","0","[[0,0,0],[3,1],[2]]","2","[[2,1,3],[0,0],[0]]","1","0","","","","","","5","",""
"","","","","","single-stim-button","215","489102","0.0-3.0-13.2-0.2","5acb7b0ae1099600016acdd6","C3","batch3","","1169","","","tol_tohand","","","","","","","","","tol_peg_3","1169","1169","0","[[0,0,0],[3,1],[0]]","3","[[2,1,3],[0,0],[0]]","1","0","","","","","","5","",""
"","","","","","single-stim-button","216","490362","0.0-3.0-13.2-1.2","5acb7b0ae1099600016acdd6","C3","batch3","","1254","","","tol_toboard","","","","","","","","","tol_peg_1","1254","1254","0","[[2,0,0],[3,1],[0]]","3","[[2,1,3],[0,0],[0]]","1","0","","","","","","5","",""
"","","","","","single-stim-button","217","491608","0.0-3.0-13.3-0.3","5acb7b0ae1099600016acdd6","C3","batch3","","1242","","","tol_tohand","","","","","","","","","tol_peg_2","1242","1242","0","[[2,0,0],[3,0],[0]]","4","[[2,1,3],[0,0],[0]]","1","0","","","","","","5","",""
"","","","","","single-stim-button","218","492637","0.0-3.0-13.3-1.3","5acb7b0ae1099600016acdd6","C3","batch3","","1025","","","tol_toboard","","","","","","","","","tol_peg_1","1025","1025","0","[[2,1,0],[3,0],[0]]","4","[[2,1,3],[0,0],[0]]","1","0","","","","","","5","",""
"","","","","","single-stim-button","219","494285","0.0-3.0-13.4-0.4","5acb7b0ae1099600016acdd6","C3","batch3","","1643","","","tol_tohand","","","","","","","","","tol_peg_2","1643","1643","0","[[2,1,0],[0,0],[0]]","5","[[2,1,3],[0,0],[0]]","1","0","","","","","","5","",""
"","","","","","single-stim-button","220","495257","0.0-3.0-13.4-1.4","5acb7b0ae1099600016acdd6","C3","batch3","","967","","","tol_toboard","","","","","","","","","tol_peg_1","967","967","0","[[2,1,3],[0,0],[0]]","5","[[2,1,3],[0,0],[0]]","1","0","","","","","","5","",""
"","","","","","poldrack-single-stim","221","496265","0.0-3.0-14.0","5acb7b0ae1099600016acdd6","C3","batch3","","-1","","","tol_feedback","true","","","","","","","","","1000","1000","500","","","","","","-1","none","true","3268","8433","","",""
"","","","","","html-button-response","222","497077","0.0-3.0-15.0","5acb7b0ae1099600016acdd6","C3","batch3","","804.5","<div class = centerbox><p class = center-block-text>problem <strong>3</strong> out of 25 problems</p></div>","0","tol_trial_num","","","","","","","","","","","","","","","","","","","","","","","","",""
"","","","","","single-stim-button","223","501525","0.0-3.0-16.0-0.0","5acb7b0ae1099600016acdd6","C3","batch3","","4440","","","tol_tohand","","","","","","","","","tol_peg_1","4440","4440","0","[[2,0,0],[0,0],[1]]","1","[[1,2,0],[3,0],[0]]","2","0","","","","","","4","",""
"","","","","","single-stim-button","224","502910","0.0-3.0-16.0-1.0","5acb7b0ae1099600016acdd6","C3","batch3","","1379","","","tol_toboard","","","","","","","","","tol_peg_2","1379","1379","0","[[2,0,0],[3,0],[1]]","1","[[1,2,0],[3,0],[0]]","2","0","","","","","","4","",""
"","","","","","single-stim-button","225","504969","0.0-3.0-16.1-0.1","5acb7b0ae1099600016acdd6","C3","batch3","","2055","","","tol_tohand","","","","","","","","","tol_peg_1","2055","2055","0","[[0,0,0],[3,0],[1]]","2","[[1,2,0],[3,0],[0]]","2","0","","","","","","4","",""
"","","","","","single-stim-button","226","505854","0.0-3.0-16.1-1.1","5acb7b0ae1099600016acdd6","C3","batch3","","879","","","tol_toboard","","","","","","","","","tol_peg_2","879","879","0","[[0,0,0],[3,2],[1]]","2","[[1,2,0],[3,0],[0]]","2","0","","","","","","4","",""
"","","","","","single-stim-button","227","506768","0.0-3.0-16.2-0.2","5acb7b0ae1099600016acdd6","C3","batch3","","908","","","tol_tohand","","","","","","","","","tol_peg_3","908","908","0","[[0,0,0],[3,2],[0]]","3","[[1,2,0],[3,0],[0]]","2","0","","","","","","4","",""
"","","","","","single-stim-button","228","507518","0.0-3.0-16.2-1.2","5acb7b0ae1099600016acdd6","C3","batch3","","744","","","tol_toboard","","","","","","","","","tol_peg_1","744","744","0","[[1,0,0],[3,2],[0]]","3","[[1,2,0],[3,0],[0]]","2","0","","","","","","4","",""
"","","","","","single-stim-button","229","508101","0.0-3.0-16.3-0.3","5acb7b0ae1099600016acdd6","C3","batch3","","575","","","tol_tohand","","","","","","","","","tol_peg_2","575","575","0","[[1,0,0],[3,0],[0]]","4","[[1,2,0],[3,0],[0]]","2","0","","","","","","4","",""
"","","","","","single-stim-button","230","509111","0.0-3.0-16.3-1.3","5acb7b0ae1099600016acdd6","C3","batch3","","1003","","","tol_toboard","","","","","","","","","tol_peg_1","1003","1003","0","[[1,2,0],[3,0],[0]]","4","[[1,2,0],[3,0],[0]]","2","0","","","","","","4","",""
"","","","","","poldrack-single-stim","231","510120","0.0-3.0-17.0","5acb7b0ae1099600016acdd6","C3","batch3","","-1","","","tol_feedback","true","","","","","","","","","1000","1000","500","","","","","","-1","none","true","4440","7978","","",""
"","","","","","html-button-response","232","511219","0.0-3.0-18.0","5acb7b0ae1099600016acdd6","C3","batch3","","1090.6000000238419","<div class = centerbox><p class = center-block-text>problem <strong>4</strong> out of 25 problems</p></div>","0","tol_trial_num","","","","","","","","","","","","","","","","","","","","","","","","",""
"","","","","","single-stim-button","233","514680","0.0-3.0-19.0-0.0","5acb7b0ae1099600016acdd6","C3","batch3","","3450","","","tol_tohand","","","","","","","","","tol_peg_2","3450","3450","0","[[3,0,0],[2,0],[0]]","1","[[3,0,0],[1,0],[2]]","3","0","","","","","","3","",""
"","","","","","single-stim-button","234","516182","0.0-3.0-19.0-1.0","5acb7b0ae1099600016acdd6","C3","batch3","","1495","","","tol_toboard","","","","","","","","","tol_peg_1","1495","1495","0","[[3,1,0],[2,0],[0]]","1","[[3,0,0],[1,0],[2]]","3","0","","","","","","3","",""
"","","","","","single-stim-button","235","518203","0.0-3.0-19.1-0.1","5acb7b0ae1099600016acdd6","C3","batch3","","2015","","","tol_tohand","","","","","","","","","tol_peg_2","2015","2015","0","[[3,1,0],[0,0],[0]]","2","[[3,0,0],[1,0],[2]]","3","0","","","","","","3","",""
"","","","","","single-stim-button","236","519094","0.0-3.0-19.1-1.1","5acb7b0ae1099600016acdd6","C3","batch3","","881","","","tol_toboard","","","","","","","","","tol_peg_3","881","881","0","[[3,1,0],[0,0],[2]]","2","[[3,0,0],[1,0],[2]]","3","0","","","","","","3","",""
"","","","","","single-stim-button","237","519903","0.0-3.0-19.2-0.2","5acb7b0ae1099600016acdd6","C3","batch3","","801","","","tol_tohand","","","","","","","","","tol_peg_1","801","801","0","[[3,0,0],[0,0],[2]]","3","[[3,0,0],[1,0],[2]]","3","0","","","","","","3","",""
"","","","","","single-stim-button","238","520680","0.0-3.0-19.2-1.2","5acb7b0ae1099600016acdd6","C3","batch3","","770","","","tol_toboard","","","","","","","","","tol_peg_2","770","770","0","[[3,0,0],[1,0],[2]]","3","[[3,0,0],[1,0],[2]]","3","0","","","","","","3","",""
"","","","","","poldrack-single-stim","239","521688","0.0-3.0-20.0","5acb7b0ae1099600016acdd6","C3","batch3","","-1","","","tol_feedback","true","","","","","","","","","1000","1000","500","","","","","","-1","none","true","3450","6266","","",""
"","","","","","html-button-response","240","522553","0.0-3.0-21.0","5acb7b0ae1099600016acdd6","C3","batch3","","860.7000000476837","<div class = centerbox><p class = center-block-text>problem <strong>5</strong> out of 25 problems</p></div>","0","tol_trial_num","","","","","","","","","","","","","","","","","","","","","","","","",""
"","","","","","single-stim-button","241","529973","0.0-3.0-22.0-0.0","5acb7b0ae1099600016acdd6","C3","batch3","","7412","","","tol_tohand","","","","","","","","","tol_peg_3","7412","7412","0","[[1,0,0],[2,0],[0]]","1","[[0,0,0],[1,2],[3]]","4","0","","","","","","7","",""
"","","","","","single-stim-button","242","532269","0.0-3.0-22.0-1.0","5acb7b0ae1099600016acdd6","C3","batch3","","2289","","","tol_toboard","","","","","","","","","tol_peg_1","2289","2289","0","[[1,3,0],[2,0],[0]]","1","[[0,0,0],[1,2],[3]]","4","0","","","","","","7","",""
"","","","","","single-stim-button","243","537093","0.0-3.0-22.1-0.1","5acb7b0ae1099600016acdd6","C3","batch3","","4816","","","tol_tohand","","","","","","","","","tol_peg_1","4816","4816","0","[[1,0,0],[2,0],[0]]","2","[[0,0,0],[1,2],[3]]","4","0","","","","","","7","",""
"","","","","","single-stim-button","244","537972","0.0-3.0-22.1-1.1","5acb7b0ae1099600016acdd6","C3","batch3","","873","","","tol_toboard","","","","","","","","","tol_peg_1","873","873","0","[[1,3,0],[2,0],[0]]","2","[[0,0,0],[1,2],[3]]","4","0","","","","","","7","",""
"","","","","","single-stim-button","245","538932","0.0-3.0-22.2-0.2","5acb7b0ae1099600016acdd6","C3","batch3","","956","","","tol_tohand","","","","","","","","","tol_peg_1","956","956","0","[[1,0,0],[2,0],[0]]","3","[[0,0,0],[1,2],[3]]","4","0","","","","","","7","",""
"","","","","","single-stim-button","246","539738","0.0-3.0-22.2-1.2","5acb7b0ae1099600016acdd6","C3","batch3","","803","","","tol_toboard","","","","","","","","","tol_peg_3","803","803","0","[[1,0,0],[2,0],[3]]","3","[[0,0,0],[1,2],[3]]","4","0","","","","","","7","",""
"","","","","","single-stim-button","247","540540","0.0-3.0-22.3-0.3","5acb7b0ae1099600016acdd6","C3","batch3","","797","","","tol_tohand","","","","","","","","","tol_peg_1","797","797","0","[[0,0,0],[2,0],[3]]","4","[[0,0,0],[1,2],[3]]","4","0","","","","","","7","",""
"","","","","","single-stim-button","248","547786","0.0-3.0-22.3-1.3","5acb7b0ae1099600016acdd6","C3","batch3","","7243","","","tol_toboard","","","","","","","","","tol_peg_1","7243","7243","0","[[1,0,0],[2,0],[3]]","4","[[0,0,0],[1,2],[3]]","4","0","","","","","","7","",""
"","","","","","single-stim-button","249","548102","0.0-3.0-22.4-0.4","5acb7b0ae1099600016acdd6","C3","batch3","","309","","","tol_tohand","","","","","","","","","tol_peg_1","309","309","0","[[0,0,0],[2,0],[3]]","5","[[0,0,0],[1,2],[3]]","4","0","","","","","","7","",""
"","","","","","single-stim-button","250","548613","0.0-3.0-22.4-1.4","5acb7b0ae1099600016acdd6","C3","batch3","","503","","","tol_toboard","","","","","","","","","tol_peg_1","503","503","0","[[1,0,0],[2,0],[3]]","5","[[0,0,0],[1,2],[3]]","4","0","","","","","","7","",""
"","","","","","single-stim-button","251","549381","0.0-3.0-22.5-0.5","5acb7b0ae1099600016acdd6","C3","batch3","","763","","","tol_tohand","","","","","","","","","tol_peg_3","763","763","0","[[1,0,0],[2,0],[0]]","6","[[0,0,0],[1,2],[3]]","4","0","","","","","","7","",""
"","","","","","single-stim-button","252","551730","0.0-3.0-22.5-1.5","5acb7b0ae1099600016acdd6","C3","batch3","","2345","","","tol_toboard","","","","","","","","","tol_peg_1","2345","2345","0","[[1,3,0],[2,0],[0]]","6","[[0,0,0],[1,2],[3]]","4","0","","","","","","7","",""
"","","","","","single-stim-button","253","552464","0.0-3.0-22.6-0.6","5acb7b0ae1099600016acdd6","C3","batch3","","731","","","tol_tohand","","","","","","","","","tol_peg_2","731","731","0","[[1,3,0],[0,0],[0]]","7","[[0,0,0],[1,2],[3]]","4","0","","","","","","7","",""
"","","","","","single-stim-button","254","553699","0.0-3.0-22.6-1.6","5acb7b0ae1099600016acdd6","C3","batch3","","1229","","","tol_toboard","","","","","","","","","tol_peg_3","1229","1229","0","[[1,3,0],[0,0],[2]]","7","[[0,0,0],[1,2],[3]]","4","0","","","","","","7","",""
"","","","","","single-stim-button","255","555058","0.0-3.0-22.7-0.7","5acb7b0ae1099600016acdd6","C3","batch3","","1354","","","tol_tohand","","","","","","","","","tol_peg_1","1354","1354","0","[[1,0,0],[0,0],[2]]","8","[[0,0,0],[1,2],[3]]","4","0","","","","","","7","",""
"","","","","","single-stim-button","256","556645","0.0-3.0-22.7-1.7","5acb7b0ae1099600016acdd6","C3","batch3","","1582","","","tol_toboard","","","","","","","","","tol_peg_1","1582","1582","0","[[1,3,0],[0,0],[2]]","8","[[0,0,0],[1,2],[3]]","4","0","","","","","","7","",""
"","","","","","single-stim-button","257","558143","0.0-3.0-22.8-0.8","5acb7b0ae1099600016acdd6","C3","batch3","","1488","","","tol_tohand","","","","","","","","","tol_peg_1","1488","1488","0","[[1,0,0],[0,0],[2]]","9","[[0,0,0],[1,2],[3]]","4","0","","","","","","7","",""
"","","","","","single-stim-button","258","558838","0.0-3.0-22.8-1.8","5acb7b0ae1099600016acdd6","C3","batch3","","688","","","tol_toboard","","","","","","","","","tol_peg_2","688","688","0","[[1,0,0],[3,0],[2]]","9","[[0,0,0],[1,2],[3]]","4","0","","","","","","7","",""
"","","","","","single-stim-button","259","559757","0.0-3.0-22.9-0.9","5acb7b0ae1099600016acdd6","C3","batch3","","913","","","tol_tohand","","","","","","","","","tol_peg_1","913","913","0","[[0,0,0],[3,0],[2]]","10","[[0,0,0],[1,2],[3]]","4","0","","","","","","7","",""
"","","","","","single-stim-button","260","560826","0.0-3.0-22.9-1.9","5acb7b0ae1099600016acdd6","C3","batch3","","1066","","","tol_toboard","","","","","","","","","tol_peg_2","1066","1066","0","[[0,0,0],[3,1],[2]]","10","[[0,0,0],[1,2],[3]]","4","0","","","","","","7","",""
"","","","","","single-stim-button","261","562753","0.0-3.0-22.10-0.10","5acb7b0ae1099600016acdd6","C3","batch3","","1925","","","tol_tohand","","","","","","","","","tol_peg_2","1925","1925","0","[[0,0,0],[3,0],[2]]","11","[[0,0,0],[1,2],[3]]","4","0","","","","","","7","",""
"","","","","","single-stim-button","262","568012","0.0-3.0-22.10-1.10","5acb7b0ae1099600016acdd6","C3","batch3","","5252","","","tol_toboard","","","","","","","","","tol_peg_1","5252","5252","0","[[1,0,0],[3,0],[2]]","11","[[0,0,0],[1,2],[3]]","4","0","","","","","","7","",""
"","","","","","single-stim-button","263","569184","0.0-3.0-22.11-0.11","5acb7b0ae1099600016acdd6","C3","batch3","","1164","","","tol_tohand","","","","","","","","","tol_peg_2","1164","1164","0","[[1,0,0],[0,0],[2]]","12","[[0,0,0],[1,2],[3]]","4","0","","","","","","7","",""
"","","","","","single-stim-button","264","570729","0.0-3.0-22.11-1.11","5acb7b0ae1099600016acdd6","C3","batch3","","1538","","","tol_toboard","","","","","","","","","tol_peg_1","1538","1538","0","[[1,3,0],[0,0],[2]]","12","[[0,0,0],[1,2],[3]]","4","0","","","","","","7","",""
"","","","","","single-stim-button","265","572651","0.0-3.0-22.12-0.12","5acb7b0ae1099600016acdd6","C3","batch3","","1918","","","tol_tohand","","","","","","","","","tol_peg_3","1918","1918","0","[[1,3,0],[0,0],[0]]","13","[[0,0,0],[1,2],[3]]","4","0","","","","","","7","",""
"","","","","","single-stim-button","266","573720","0.0-3.0-22.12-1.12","5acb7b0ae1099600016acdd6","C3","batch3","","1066","","","tol_toboard","","","","","","","","","tol_peg_1","1066","1066","0","[[1,3,2],[0,0],[0]]","13","[[0,0,0],[1,2],[3]]","4","0","","","","","","7","",""
"","","","","","single-stim-button","267","575201","0.0-3.0-22.13-0.13","5acb7b0ae1099600016acdd6","C3","batch3","","1478","","","tol_tohand","","","","","","","","","tol_peg_1","1478","1478","0","[[1,3,0],[0,0],[0]]","14","[[0,0,0],[1,2],[3]]","4","0","","","","","","7","",""
"","","","","","single-stim-button","268","577072","0.0-3.0-22.13-1.13","5acb7b0ae1099600016acdd6","C3","batch3","","1863","","","tol_toboard","","","","","","","","","tol_peg_1","1863","1863","0","[[1,3,2],[0,0],[0]]","14","[[0,0,0],[1,2],[3]]","4","0","","","","","","7","",""
"","","","","","single-stim-button","269","578960","0.0-3.0-22.14-0.14","5acb7b0ae1099600016acdd6","C3","batch3","","1883","","","tol_tohand","","","","","","","","","tol_peg_1","1883","1883","0","[[1,3,0],[0,0],[0]]","15","[[0,0,0],[1,2],[3]]","4","0","","","","","","7","",""
"","","","","","single-stim-button","270","582602","0.0-3.0-22.14-1.14","5acb7b0ae1099600016acdd6","C3","batch3","","3637","","","tol_toboard","","","","","","","","","tol_peg_1","3637","3637","0","[[1,3,2],[0,0],[0]]","15","[[0,0,0],[1,2],[3]]","4","0","","","","","","7","",""
"","","","","","single-stim-button","271","583610","0.0-3.0-22.15-0.15","5acb7b0ae1099600016acdd6","C3","batch3","","1003","","","tol_tohand","","","","","","","","","tol_peg_1","1003","1003","0","[[1,3,0],[0,0],[0]]","16","[[0,0,0],[1,2],[3]]","4","0","","","","","","7","",""
"","","","","","single-stim-button","272","584766","0.0-3.0-22.15-1.15","5acb7b0ae1099600016acdd6","C3","batch3","","1151","","","tol_toboard","","","","","","","","","tol_peg_2","1151","1151","0","[[1,3,0],[2,0],[0]]","16","[[0,0,0],[1,2],[3]]","4","0","","","","","","7","",""
"","","","","","single-stim-button","273","585476","0.0-3.0-22.16-0.16","5acb7b0ae1099600016acdd6","C3","batch3","","705","","","tol_tohand","","","","","","","","","tol_peg_1","705","705","0","[[1,0,0],[2,0],[0]]","17","[[0,0,0],[1,2],[3]]","4","0","","","","","","7","",""
"","","","","","single-stim-button","274","586767","0.0-3.0-22.16-1.16","5acb7b0ae1099600016acdd6","C3","batch3","","1283","","","tol_toboard","","","","","","","","","tol_peg_3","1283","1283","0","[[1,0,0],[2,0],[3]]","17","[[0,0,0],[1,2],[3]]","4","0","","","","","","7","",""
"","","","","","single-stim-button","275","587436","0.0-3.0-22.17-0.17","5acb7b0ae1099600016acdd6","C3","batch3","","663","","","tol_tohand","","","","","","","","","tol_peg_1","663","663","0","[[0,0,0],[2,0],[3]]","18","[[0,0,0],[1,2],[3]]","4","0","","","","","","7","",""
"","","","","","single-stim-button","276","589105","0.0-3.0-22.17-1.17","5acb7b0ae1099600016acdd6","C3","batch3","","1658","","","tol_toboard","","","","","","","","","tol_peg_2","1658","1658","0","[[0,0,0],[2,1],[3]]","18","[[0,0,0],[1,2],[3]]","4","0","","","","","","7","",""
"","","","","","single-stim-button","277","591181","0.0-3.0-22.18-0.18","5acb7b0ae1099600016acdd6","C3","batch3","","2071","","","tol_tohand","","","","","","","","","tol_peg_2","2071","2071","0","[[0,0,0],[2,0],[3]]","19","[[0,0,0],[1,2],[3]]","4","0","","","","","","7","",""
"","","","","","single-stim-button","278","591785","0.0-3.0-22.18-1.18","5acb7b0ae1099600016acdd6","C3","batch3","","596","","","tol_toboard","","","","","","","","","tol_peg_2","596","596","0","[[0,0,0],[2,1],[3]]","19","[[0,0,0],[1,2],[3]]","4","0","","","","","","7","",""
"","","","","","single-stim-button","279","592483","0.0-3.0-22.19-0.19","5acb7b0ae1099600016acdd6","C3","batch3","","695","","","tol_tohand","","","","","","","","","tol_peg_2","695","695","0","[[0,0,0],[2,0],[3]]","20","[[0,0,0],[1,2],[3]]","4","0","","","","","","7","",""
"","","","","","single-stim-button","280","593291","0.0-3.0-22.19-1.19","5acb7b0ae1099600016acdd6","C3","batch3","","805","","","tol_toboard","","","","","","","","","tol_peg_1","805","805","0","[[1,0,0],[2,0],[3]]","20","[[0,0,0],[1,2],[3]]","4","0","","","","","","7","",""
"","","","","","single-stim-button","281","594295","0.0-3.0-22.20-0.20","5acb7b0ae1099600016acdd6","C3","batch3","","1000","","","tol_tohand","","","","","","","","","tol_peg_2","1000","1000","0","[[1,0,0],[0,0],[3]]","21","[[0,0,0],[1,2],[3]]","4","0","","","","","","7","",""
"","","","","","single-stim-button","282","595394","0.0-3.0-22.20-1.20","5acb7b0ae1099600016acdd6","C3","batch3","","1096","","","tol_toboard","","","","","","","","","tol_peg_1","1096","1096","0","[[1,2,0],[0,0],[3]]","21","[[0,0,0],[1,2],[3]]","4","0","","","","","","7","",""
"","","","","","single-stim-button","283","597297","0.0-3.0-22.21-0.21","5acb7b0ae1099600016acdd6","C3","batch3","","1900","","","tol_tohand","","","","","","","","","tol_peg_3","1900","1900","0","[[1,2,0],[0,0],[0]]","22","[[0,0,0],[1,2],[3]]","4","0","","","","","","7","",""
"","","","","","single-stim-button","284","598542","0.0-3.0-22.21-1.21","5acb7b0ae1099600016acdd6","C3","batch3","","1238","","","tol_toboard","","","","","","","","","tol_peg_2","1238","1238","0","[[1,2,0],[3,0],[0]]","22","[[0,0,0],[1,2],[3]]","4","0","","","","","","7","",""
"","","","","","single-stim-button","285","599441","0.0-3.0-22.22-0.22","5acb7b0ae1099600016acdd6","C3","batch3","","894","","","tol_tohand","","","","","","","","","tol_peg_1","894","894","0","[[1,0,0],[3,0],[0]]","23","[[0,0,0],[1,2],[3]]","4","0","","","","","","7","",""
"","","","","","single-stim-button","286","602442","0.0-3.0-22.22-1.22","5acb7b0ae1099600016acdd6","C3","batch3","","2999","","","tol_toboard","","","","","","","","","tol_peg_3","2999","2999","0","[[1,0,0],[3,0],[2]]","23","[[0,0,0],[1,2],[3]]","4","0","","","","","","7","",""
"","","","","","single-stim-button","287","603226","0.0-3.0-22.23-0.23","5acb7b0ae1099600016acdd6","C3","batch3","","780","","","tol_tohand","","","","","","","","","tol_peg_1","780","780","0","[[0,0,0],[3,0],[2]]","24","[[0,0,0],[1,2],[3]]","4","0","","","","","","7","",""
"","","","","","single-stim-button","288","605544","0.0-3.0-22.23-1.23","5acb7b0ae1099600016acdd6","C3","batch3","","2310","","","tol_toboard","","","","","","","","","tol_peg_2","2310","2310","0","[[0,0,0],[3,1],[2]]","24","[[0,0,0],[1,2],[3]]","4","0","","","","","","7","",""
"","","","","","single-stim-button","289","606998","0.0-3.0-22.24-0.24","5acb7b0ae1099600016acdd6","C3","batch3","","1451","","","tol_tohand","","","","","","","","","tol_peg_3","1451","1451","0","[[0,0,0],[3,1],[0]]","25","[[0,0,0],[1,2],[3]]","4","0","","","","","","7","",""
"","","","","","single-stim-button","290","607961","0.0-3.0-22.24-1.24","5acb7b0ae1099600016acdd6","C3","batch3","","959","","","tol_toboard","","","","","","","","","tol_peg_1","959","959","0","[[2,0,0],[3,1],[0]]","25","[[0,0,0],[1,2],[3]]","4","0","","","","","","7","",""
"","","","","","single-stim-button","291","610030","0.0-3.0-22.25-0.25","5acb7b0ae1099600016acdd6","C3","batch3","","2063","","","tol_tohand","","","","","","","","","tol_peg_2","2063","2063","0","[[2,0,0],[3,0],[0]]","26","[[0,0,0],[1,2],[3]]","4","0","","","","","","7","",""
"","","","","","single-stim-button","292","612116","0.0-3.0-22.25-1.25","5acb7b0ae1099600016acdd6","C3","batch3","","2080","","","tol_toboard","","","","","","","","","tol_peg_1","2080","2080","0","[[2,1,0],[3,0],[0]]","26","[[0,0,0],[1,2],[3]]","4","0","","","","","","7","",""
"","","","","","single-stim-button","293","612729","0.0-3.0-22.26-0.26","5acb7b0ae1099600016acdd6","C3","batch3","","608","","","tol_tohand","","","","","","","","","tol_peg_2","608","608","0","[[2,1,0],[0,0],[0]]","27","[[0,0,0],[1,2],[3]]","4","0","","","","","","7","",""
"","","","","","single-stim-button","294","613819","0.0-3.0-22.26-1.26","5acb7b0ae1099600016acdd6","C3","batch3","","1087","","","tol_toboard","","","","","","","","","tol_peg_3","1087","1087","0","[[2,1,0],[0,0],[3]]","27","[[0,0,0],[1,2],[3]]","4","0","","","","","","7","",""
"","","","","","single-stim-button","295","614951","0.0-3.0-22.27-0.27","5acb7b0ae1099600016acdd6","C3","batch3","","1124","","","tol_tohand","","","","","","","","","tol_peg_1","1124","1124","0","[[2,0,0],[0,0],[3]]","28","[[0,0,0],[1,2],[3]]","4","0","","","","","","7","",""
"","","","","","single-stim-button","296","616027","0.0-3.0-22.27-1.27","5acb7b0ae1099600016acdd6","C3","batch3","","1071","","","tol_toboard","","","","","","","","","tol_peg_2","1071","1071","0","[[2,0,0],[1,0],[3]]","28","[[0,0,0],[1,2],[3]]","4","0","","","","","","7","",""
"","","","","","single-stim-button","297","616642","0.0-3.0-22.28-0.28","5acb7b0ae1099600016acdd6","C3","batch3","","611","","","tol_tohand","","","","","","","","","tol_peg_1","611","611","0","[[0,0,0],[1,0],[3]]","29","[[0,0,0],[1,2],[3]]","4","0","","","","","","7","",""
"","","","","","single-stim-button","298","617548","0.0-3.0-22.28-1.28","5acb7b0ae1099600016acdd6","C3","batch3","","902","","","tol_toboard","","","","","","","","","tol_peg_2","902","902","0","[[0,0,0],[1,2],[3]]","29","[[0,0,0],[1,2],[3]]","4","0","","","","","","7","",""
"","","","","","poldrack-single-stim","299","618556","0.0-3.0-23.0","5acb7b0ae1099600016acdd6","C3","batch3","","-1","","","tol_feedback","true","","","","","","","","","1000","1000","500","","","","","","-1","none","true","7412","43475","","",""
"","","","","","html-button-response","300","619586","0.0-3.0-24.0","5acb7b0ae1099600016acdd6","C3","batch3","","1020.1000000238419","<div class = centerbox><p class = center-block-text>problem <strong>6</strong> out of 25 problems</p></div>","0","tol_trial_num","","","","","","","","","","","","","","","","","","","","","","","","",""
"","","","","","single-stim-button","301","622632","0.0-3.0-25.0-0.0","5acb7b0ae1099600016acdd6","C3","batch3","","3042","","","tol_tohand","","","","","","","","","tol_peg_3","3042","3042","0","[[0,0,0],[1,2],[0]]","1","[[1,0,0],[2,3],[0]]","5","0","","","","","","6","",""
"","","","","","single-stim-button","302","623976","0.0-3.0-25.0-1.0","5acb7b0ae1099600016acdd6","C3","batch3","","1336","","","tol_toboard","","","","","","","","","tol_peg_1","1336","1336","0","[[3,0,0],[1,2],[0]]","1","[[1,0,0],[2,3],[0]]","5","0","","","","","","6","",""
"","","","","","single-stim-button","303","625554","0.0-3.0-25.1-0.1","5acb7b0ae1099600016acdd6","C3","batch3","","1574","","","tol_tohand","","","","","","","","","tol_peg_2","1574","1574","0","[[3,0,0],[1,0],[0]]","2","[[1,0,0],[2,3],[0]]","5","0","","","","","","6","",""
"","","","","","single-stim-button","304","626807","0.0-3.0-25.1-1.1","5acb7b0ae1099600016acdd6","C3","batch3","","1245","","","tol_toboard","","","","","","","","","tol_peg_3","1245","1245","0","[[3,0,0],[1,0],[2]]","2","[[1,0,0],[2,3],[0]]","5","0","","","","","","6","",""
"","","","","","single-stim-button","305","629079","0.0-3.0-25.2-0.2","5acb7b0ae1099600016acdd6","C3","batch3","","2264","","","tol_tohand","","","","","","","","","tol_peg_1","2264","2264","0","[[0,0,0],[1,0],[2]]","3","[[1,0,0],[2,3],[0]]","5","0","","","","","","6","",""
"","","","","","single-stim-button","306","631312","0.0-3.0-25.2-1.2","5acb7b0ae1099600016acdd6","C3","batch3","","2225","","","tol_toboard","","","","","","","","","tol_peg_2","2225","2225","0","[[0,0,0],[1,3],[2]]","3","[[1,0,0],[2,3],[0]]","5","0","","","","","","6","",""
"","","","","","single-stim-button","307","633514","0.0-3.0-25.3-0.3","5acb7b0ae1099600016acdd6","C3","batch3","","2199","","","tol_tohand","","","","","","","","","tol_peg_2","2199","2199","0","[[0,0,0],[1,0],[2]]","4","[[1,0,0],[2,3],[0]]","5","0","","","","","","6","",""
"","","","","","single-stim-button","308","634358","0.0-3.0-25.3-1.3","5acb7b0ae1099600016acdd6","C3","batch3","","839","","","tol_toboard","","","","","","","","","tol_peg_2","839","839","0","[[0,0,0],[1,3],[2]]","4","[[1,0,0],[2,3],[0]]","5","0","","","","","","6","",""
"","","","","","single-stim-button","309","634972","0.0-3.0-25.4-0.4","5acb7b0ae1099600016acdd6","C3","batch3","","608","","","tol_tohand","","","","","","","","","tol_peg_2","608","608","0","[[0,0,0],[1,0],[2]]","5","[[1,0,0],[2,3],[0]]","5","0","","","","","","6","",""
"","","","","","single-stim-button","310","635403","0.0-3.0-25.4-1.4","5acb7b0ae1099600016acdd6","C3","batch3","","427","","","tol_toboard","","","","","","","","","tol_peg_1","427","427","0","[[3,0,0],[1,0],[2]]","5","[[1,0,0],[2,3],[0]]","5","0","","","","","","6","",""
"","","","","","single-stim-button","311","636203","0.0-3.0-25.5-0.5","5acb7b0ae1099600016acdd6","C3","batch3","","795","","","tol_tohand","","","","","","","","","tol_peg_2","795","795","0","[[3,0,0],[0,0],[2]]","6","[[1,0,0],[2,3],[0]]","5","0","","","","","","6","",""
"","","","","","single-stim-button","312","637627","0.0-3.0-25.5-1.5","5acb7b0ae1099600016acdd6","C3","batch3","","1419","","","tol_toboard","","","","","","","","","tol_peg_1","1419","1419","0","[[3,1,0],[0,0],[2]]","6","[[1,0,0],[2,3],[0]]","5","0","","","","","","6","",""
"","","","","","single-stim-button","313","638651","0.0-3.0-25.6-0.6","5acb7b0ae1099600016acdd6","C3","batch3","","1018","","","tol_tohand","","","","","","","","","tol_peg_3","1018","1018","0","[[3,1,0],[0,0],[0]]","7","[[1,0,0],[2,3],[0]]","5","0","","","","","","6","",""
"","","","","","single-stim-button","314","639579","0.0-3.0-25.6-1.6","5acb7b0ae1099600016acdd6","C3","batch3","","925","","","tol_toboard","","","","","","","","","tol_peg_2","925","925","0","[[3,1,0],[2,0],[0]]","7","[[1,0,0],[2,3],[0]]","5","0","","","","","","6","",""
"","","","","","single-stim-button","315","641602","0.0-3.0-25.7-0.7","5acb7b0ae1099600016acdd6","C3","batch3","","2018","","","tol_tohand","","","","","","","","","tol_peg_1","2018","2018","0","[[3,0,0],[2,0],[0]]","8","[[1,0,0],[2,3],[0]]","5","0","","","","","","6","",""
"","","","","","single-stim-button","316","644409","0.0-3.0-25.7-1.7","5acb7b0ae1099600016acdd6","C3","batch3","","2801","","","tol_toboard","","","","","","","","","tol_peg_3","2801","2801","0","[[3,0,0],[2,0],[1]]","8","[[1,0,0],[2,3],[0]]","5","0","","","","","","6","",""
"","","","","","single-stim-button","317","645644","0.0-3.0-25.8-0.8","5acb7b0ae1099600016acdd6","C3","batch3","","1230","","","tol_tohand","","","","","","","","","tol_peg_1","1230","1230","0","[[0,0,0],[2,0],[1]]","9","[[1,0,0],[2,3],[0]]","5","0","","","","","","6","",""
"","","","","","single-stim-button","318","646380","0.0-3.0-25.8-1.8","5acb7b0ae1099600016acdd6","C3","batch3","","730","","","tol_toboard","","","","","","","","","tol_peg_2","730","730","0","[[0,0,0],[2,3],[1]]","9","[[1,0,0],[2,3],[0]]","5","0","","","","","","6","",""
"","","","","","single-stim-button","319","647519","0.0-3.0-25.9-0.9","5acb7b0ae1099600016acdd6","C3","batch3","","1131","","","tol_tohand","","","","","","","","","tol_peg_3","1131","1131","0","[[0,0,0],[2,3],[0]]","10","[[1,0,0],[2,3],[0]]","5","0","","","","","","6","",""
"","","","","","single-stim-button","320","648651","0.0-3.0-25.9-1.9","5acb7b0ae1099600016acdd6","C3","batch3","","1126","","","tol_toboard","","","","","","","","","tol_peg_1","1126","1126","0","[[1,0,0],[2,3],[0]]","10","[[1,0,0],[2,3],[0]]","5","0","","","","","","6","",""
"","","","","","poldrack-single-stim","321","649658","0.0-3.0-26.0","5acb7b0ae1099600016acdd6","C3","batch3","","-1","","","tol_feedback","true","","","","","","","","","1000","1000","500","","","","","","-1","none","true","3042","15879","","",""
"","","","","","html-button-response","322","650613","0.0-3.0-27.0","5acb7b0ae1099600016acdd6","C3","batch3","","944.6000000238419","<div class = centerbox><p class = center-block-text>problem <strong>7</strong> out of 25 problems</p></div>","0","tol_trial_num","","","","","","","","","","","","","","","","","","","","","","","","",""
"","","","","","single-stim-button","323","652921","0.0-3.0-28.0-0.0","5acb7b0ae1099600016acdd6","C3","batch3","","2298","","","tol_tohand","","","","","","","","","tol_peg_1","2298","2298","0","[[2,0,0],[0,0],[3]]","1","[[1,2,0],[3,0],[0]]","6","0","","","","","","5","",""
"","","","","","single-stim-button","324","654932","0.0-3.0-28.0-1.0","5acb7b0ae1099600016acdd6","C3","batch3","","2006","","","tol_toboard","","","","","","","","","tol_peg_2","2006","2006","0","[[2,0,0],[1,0],[3]]","1","[[1,2,0],[3,0],[0]]","6","0","","","","","","5","",""
"","","","","","single-stim-button","325","656048","0.0-3.0-28.1-0.1","5acb7b0ae1099600016acdd6","C3","batch3","","1106","","","tol_tohand","","","","","","","","","tol_peg_1","1106","1106","0","[[0,0,0],[1,0],[3]]","2","[[1,2,0],[3,0],[0]]","6","0","","","","","","5","",""
"","","","","","single-stim-button","326","657697","0.0-3.0-28.1-1.1","5acb7b0ae1099600016acdd6","C3","batch3","","1646","","","tol_toboard","","","","","","","","","tol_peg_2","1646","1646","0","[[0,0,0],[1,2],[3]]","2","[[1,2,0],[3,0],[0]]","6","0","","","","","","5","",""
"","","","","","single-stim-button","327","658435","0.0-3.0-28.2-0.2","5acb7b0ae1099600016acdd6","C3","batch3","","734","","","tol_tohand","","","","","","","","","tol_peg_3","734","734","0","[[0,0,0],[1,2],[0]]","3","[[1,2,0],[3,0],[0]]","6","0","","","","","","5","",""
"","","","","","single-stim-button","328","659609","0.0-3.0-28.2-1.2","5acb7b0ae1099600016acdd6","C3","batch3","","1170","","","tol_toboard","","","","","","","","","tol_peg_1","1170","1170","0","[[3,0,0],[1,2],[0]]","3","[[1,2,0],[3,0],[0]]","6","0","","","","","","5","",""
"","","","","","single-stim-button","329","663357","0.0-3.0-28.3-0.3","5acb7b0ae1099600016acdd6","C3","batch3","","3743","","","tol_tohand","","","","","","","","","tol_peg_2","3743","3743","0","[[3,0,0],[1,0],[0]]","4","[[1,2,0],[3,0],[0]]","6","0","","","","","","5","",""
"","","","","","single-stim-button","330","664344","0.0-3.0-28.3-1.3","5acb7b0ae1099600016acdd6","C3","batch3","","979","","","tol_toboard","","","","","","","","","tol_peg_3","979","979","0","[[3,0,0],[1,0],[2]]","4","[[1,2,0],[3,0],[0]]","6","0","","","","","","5","",""
"","","","","","single-stim-button","331","665482","0.0-3.0-28.4-0.4","5acb7b0ae1099600016acdd6","C3","batch3","","1128","","","tol_tohand","","","","","","","","","tol_peg_2","1128","1128","0","[[3,0,0],[0,0],[2]]","5","[[1,2,0],[3,0],[0]]","6","0","","","","","","5","",""
"","","","","","single-stim-button","332","666640","0.0-3.0-28.4-1.4","5acb7b0ae1099600016acdd6","C3","batch3","","1151","","","tol_toboard","","","","","","","","","tol_peg_1","1151","1151","0","[[3,1,0],[0,0],[2]]","5","[[1,2,0],[3,0],[0]]","6","0","","","","","","5","",""
"","","","","","single-stim-button","333","670497","0.0-3.0-28.5-0.5","5acb7b0ae1099600016acdd6","C3","batch3","","3853","","","tol_tohand","","","","","","","","","tol_peg_1","3853","3853","0","[[3,0,0],[0,0],[2]]","6","[[1,2,0],[3,0],[0]]","6","0","","","","","","5","",""
"","","","","","single-stim-button","334","673263","0.0-3.0-28.5-1.5","5acb7b0ae1099600016acdd6","C3","batch3","","2759","","","tol_toboard","","","","","","","","","tol_peg_2","2759","2759","0","[[3,0,0],[1,0],[2]]","6","[[1,2,0],[3,0],[0]]","6","0","","","","","","5","",""
"","","","","","single-stim-button","335","673964","0.0-3.0-28.6-0.6","5acb7b0ae1099600016acdd6","C3","batch3","","697","","","tol_tohand","","","","","","","","","tol_peg_1","697","697","0","[[0,0,0],[1,0],[2]]","7","[[1,2,0],[3,0],[0]]","6","0","","","","","","5","",""
"","","","","","single-stim-button","336","675524","0.0-3.0-28.6-1.6","5acb7b0ae1099600016acdd6","C3","batch3","","1555","","","tol_toboard","","","","","","","","","tol_peg_2","1555","1555","0","[[0,0,0],[1,3],[2]]","7","[[1,2,0],[3,0],[0]]","6","0","","","","","","5","",""
"","","","","","single-stim-button","337","677745","0.0-3.0-28.7-0.7","5acb7b0ae1099600016acdd6","C3","batch3","","2216","","","tol_tohand","","","","","","","","","tol_peg_2","2216","2216","0","[[0,0,0],[1,0],[2]]","8","[[1,2,0],[3,0],[0]]","6","0","","","","","","5","",""
"","","","","","single-stim-button","338","678887","0.0-3.0-28.7-1.7","5acb7b0ae1099600016acdd6","C3","batch3","","1133","","","tol_toboard","","","","","","","","","tol_peg_2","1133","1133","0","[[0,0,0],[1,3],[2]]","8","[[1,2,0],[3,0],[0]]","6","0","","","","","","5","",""
"","","","","","single-stim-button","339","679810","0.0-3.0-28.8-0.8","5acb7b0ae1099600016acdd6","C3","batch3","","920","","","tol_tohand","","","","","","","","","tol_peg_2","920","920","0","[[0,0,0],[1,0],[2]]","9","[[1,2,0],[3,0],[0]]","6","0","","","","","","5","",""
"","","","","","single-stim-button","340","680338","0.0-3.0-28.8-1.8","5acb7b0ae1099600016acdd6","C3","batch3","","525","","","tol_toboard","","","","","","","","","tol_peg_1","525","525","0","[[3,0,0],[1,0],[2]]","9","[[1,2,0],[3,0],[0]]","6","0","","","","","","5","",""
"","","","","","single-stim-button","341","681160","0.0-3.0-28.9-0.9","5acb7b0ae1099600016acdd6","C3","batch3","","818","","","tol_tohand","","","","","","","","","tol_peg_2","818","818","0","[[3,0,0],[0,0],[2]]","10","[[1,2,0],[3,0],[0]]","6","0","","","","","","5","",""
"","","","","","single-stim-button","342","683372","0.0-3.0-28.9-1.9","5acb7b0ae1099600016acdd6","C3","batch3","","2207","","","tol_toboard","","","","","","","","","tol_peg_1","2207","2207","0","[[3,1,0],[0,0],[2]]","10","[[1,2,0],[3,0],[0]]","6","0","","","","","","5","",""
"","","","","","single-stim-button","343","684224","0.0-3.0-28.10-0.10","5acb7b0ae1099600016acdd6","C3","batch3","","843","","","tol_tohand","","","","","","","","","tol_peg_3","843","843","0","[[3,1,0],[0,0],[0]]","11","[[1,2,0],[3,0],[0]]","6","0","","","","","","5","",""
"","","","","","single-stim-button","344","685024","0.0-3.0-28.10-1.10","5acb7b0ae1099600016acdd6","C3","batch3","","793","","","tol_toboard","","","","","","","","","tol_peg_1","793","793","0","[[3,1,2],[0,0],[0]]","11","[[1,2,0],[3,0],[0]]","6","0","","","","","","5","",""
"","","","","","single-stim-button","345","688302","0.0-3.0-28.11-0.11","5acb7b0ae1099600016acdd6","C3","batch3","","3272","","","tol_tohand","","","","","","","","","tol_peg_1","3272","3272","0","[[3,1,0],[0,0],[0]]","12","[[1,2,0],[3,0],[0]]","6","0","","","","","","5","",""
"","","","","","single-stim-button","346","689471","0.0-3.0-28.11-1.11","5acb7b0ae1099600016acdd6","C3","batch3","","1161","","","tol_toboard","","","","","","","","","tol_peg_3","1161","1161","0","[[3,1,0],[0,0],[2]]","12","[[1,2,0],[3,0],[0]]","6","0","","","","","","5","",""
"","","","","","single-stim-button","347","690368","0.0-3.0-28.12-0.12","5acb7b0ae1099600016acdd6","C3","batch3","","885","","","tol_tohand","","","","","","","","","tol_peg_1","885","885","0","[[3,0,0],[0,0],[2]]","13","[[1,2,0],[3,0],[0]]","6","0","","","","","","5","",""
"","","","","","single-stim-button","348","691046","0.0-3.0-28.12-1.12","5acb7b0ae1099600016acdd6","C3","batch3","","671","","","tol_toboard","","","","","","","","","tol_peg_2","671","671","0","[[3,0,0],[1,0],[2]]","13","[[1,2,0],[3,0],[0]]","6","0","","","","","","5","",""
