"success","timeout","failed_images","failed_audio","failed_video","trial_type","trial_index","time_elapsed","internal_node_id","subject_id","study_id","session_id","task","rt","stimulus","response","item","answer","correct","spm_correct","spm_rt","view_history","fiar_detect_rt","fiar_detect_correct","total_correct_fiar_detect","post_trial_gap","choices","mouse_click","stim_duration","block_duration","timing_post_trial","current_position","tol_num_moves_made","tol_target","tol_problem_id","tol_rt","key_press","possible_responses","tol_correct","preplanning","tol_rt_per_trial","tol_min_moves"
"true","false","[]","[]","[]","preload","0","1593","0.0-0.0","5ad0f1934d061300011b0a4d","C3","batch3","","","","","","","","","","","","","","","","","","","","","","","","","","","","","",""
"true","","","","","fullscreen","1","1018327","0.0-1.0-0.0","5ad0f1934d061300011b0a4d","C3","batch3","","","","","","","","","","","","","","","","","","","","","","","","","","","","","",""
"true","","","","","fullscreen","2","1021301","0.0-2.0-0.0","5ad0f1934d061300011b0a4d","C3","batch3","spm_fullscreen","","","","","","","","","","","","","","","","","","","","","","","","","","","","",""
"","","","","","html-button-response","3","1032511","0.0-2.0-1.0","5ad0f1934d061300011b0a4d","C3","batch3","","11209.300000190735","<p class = block-text><b>Instructions</b> <br>This is a widely used intelligence test in research. <br>In this test, a figure with a missing piece will be presented.<br>Below the figure are alternative pieces to complete the figure, only one of which is correct.<br> Different figures might involve different principles for obtaining the missing piece<br>Your job is to select the most logical piece to complete the figure.</p>","0","","","","","","","","","","","","","","","","","","","","","","","","","",""
"","","","","","html-keyboard-response","4","1033328","0.0-2.0-2.0-0.0","5ad0f1934d061300011b0a4d","C3","batch3","spm_show_trial_num","null","<p class=block-text>Trial 1 out of 60</p>","null","","","","","","","","","","","","","","","","","","","","","","","","","",""
"","","","","","image-button-response","5","1039145","0.0-2.0-2.0-1.0","5ad0f1934d061300011b0a4d","C3","batch3","spm_respsonse","5813.299999237061","img/question_1_1.jpeg","3","mat_01","4","1","1","5813.299999237061","","","","","","","","","","","","","","","","","","","","",""
"","","","","","html-keyboard-response","6","1040209","0.0-2.0-2.0-0.1","5ad0f1934d061300011b0a4d","C3","batch3","spm_show_trial_num","null","<p class=block-text>Trial 2 out of 60</p>","null","","","","","","","","","","","","","","","","","","","","","","","","","",""
"","","","","","image-button-response","7","1044552","0.0-2.0-2.0-1.1","5ad0f1934d061300011b0a4d","C3","batch3","spm_respsonse","4341.5","img/question_1_2.jpeg","4","mat_02","5","1","1","4341.5","","","","","","","","","","","","","","","","","","","","",""
"","","","","","html-keyboard-response","8","1045626","0.0-2.0-2.0-0.2","5ad0f1934d061300011b0a4d","C3","batch3","spm_show_trial_num","null","<p class=block-text>Trial 3 out of 60</p>","null","","","","","","","","","","","","","","","","","","","","","","","","","",""
"","","","","","image-button-response","9","1052184","0.0-2.0-2.0-1.2","5ad0f1934d061300011b0a4d","C3","batch3","spm_respsonse","6555.599999427795","img/question_1_3.jpeg","0","mat_03","1","1","1","6555.599999427795","","","","","","","","","","","","","","","","","","","","",""
"","","","","","html-keyboard-response","10","1053250","0.0-2.0-2.0-0.3","5ad0f1934d061300011b0a4d","C3","batch3","spm_show_trial_num","null","<p class=block-text>Trial 4 out of 60</p>","null","","","","","","","","","","","","","","","","","","","","","","","","","",""
"","","","","","image-button-response","11","1056930","0.0-2.0-2.0-1.3","5ad0f1934d061300011b0a4d","C3","batch3","spm_respsonse","3677.699999809265","img/question_1_4.jpeg","1","mat_04","2","1","1","3677.699999809265","","","","","","","","","","","","","","","","","","","","",""
"","","","","","html-keyboard-response","12","1057985","0.0-2.0-2.0-0.4","5ad0f1934d061300011b0a4d","C3","batch3","spm_show_trial_num","null","<p class=block-text>Trial 5 out of 60</p>","null","","","","","","","","","","","","","","","","","","","","","","","","","",""
"","","","","","image-button-response","13","1062914","0.0-2.0-2.0-1.4","5ad0f1934d061300011b0a4d","C3","batch3","spm_respsonse","4927.699999809265","img/question_1_5.jpeg","5","mat_05","6","1","1","4927.699999809265","","","","","","","","","","","","","","","","","","","","",""
"","","","","","html-keyboard-response","14","1063966","0.0-2.0-2.0-0.5","5ad0f1934d061300011b0a4d","C3","batch3","spm_show_trial_num","null","<p class=block-text>Trial 6 out of 60</p>","null","","","","","","","","","","","","","","","","","","","","","","","","","",""
"","","","","","image-button-response","15","1068175","0.0-2.0-2.0-1.5","5ad0f1934d061300011b0a4d","C3","batch3","spm_respsonse","4205.60000038147","img/question_1_6.jpeg","2","mat_06","3","1","1","4205.60000038147","","","","","","","","","","","","","","","","","","","","",""
"","","","","","html-keyboard-response","16","1069236","0.0-2.0-2.0-0.6","5ad0f1934d061300011b0a4d","C3","batch3","spm_show_trial_num","null","<p class=block-text>Trial 7 out of 60</p>","null","","","","","","","","","","","","","","","","","","","","","","","","","",""
"","","","","","image-button-response","17","1073795","0.0-2.0-2.0-1.6","5ad0f1934d061300011b0a4d","C3","batch3","spm_respsonse","4556.89999961853","img/question_1_7.jpeg","5","mat_07","6","1","1","4556.89999961853","","","","","","","","","","","","","","","","","","","","",""
"","","","","","html-keyboard-response","18","1074860","0.0-2.0-2.0-0.7","5ad0f1934d061300011b0a4d","C3","batch3","spm_show_trial_num","null","<p class=block-text>Trial 8 out of 60</p>","null","","","","","","","","","","","","","","","","","","","","","","","","","",""
"","","","","","image-button-response","19","1079259","0.0-2.0-2.0-1.7","5ad0f1934d061300011b0a4d","C3","batch3","spm_respsonse","4397.60000038147","img/question_1_8.jpeg","1","mat_08","2","1","1","4397.60000038147","","","","","","","","","","","","","","","","","","","","",""
"","","","","","html-keyboard-response","20","1080316","0.0-2.0-2.0-0.8","5ad0f1934d061300011b0a4d","C3","batch3","spm_show_trial_num","null","<p class=block-text>Trial 9 out of 60</p>","null","","","","","","","","","","","","","","","","","","","","","","","","","",""
"","","","","","image-button-response","21","1085489","0.0-2.0-2.0-1.8","5ad0f1934d061300011b0a4d","C3","batch3","spm_respsonse","5171.299999237061","img/question_1_9.jpeg","0","mat_09","1","1","1","5171.299999237061","","","","","","","","","","","","","","","","","","","","",""
"","","","","","html-keyboard-response","22","1086553","0.0-2.0-2.0-0.9","5ad0f1934d061300011b0a4d","C3","batch3","spm_show_trial_num","null","<p class=block-text>Trial 10 out of 60</p>","null","","","","","","","","","","","","","","","","","","","","","","","","","",""
"","","","","","image-button-response","23","1092183","0.0-2.0-2.0-1.9","5ad0f1934d061300011b0a4d","C3","batch3","spm_respsonse","5628.300000190735","img/question_1_10.jpeg","2","mat_10","3","1","1","5628.300000190735","","","","","","","","","","","","","","","","","","","","",""
"","","","","","html-keyboard-response","24","1093240","0.0-2.0-2.0-0.10","5ad0f1934d061300011b0a4d","C3","batch3","spm_show_trial_num","null","<p class=block-text>Trial 11 out of 60</p>","null","","","","","","","","","","","","","","","","","","","","","","","","","",""
"","","","","","image-button-response","25","1100244","0.0-2.0-2.0-1.10","5ad0f1934d061300011b0a4d","C3","batch3","spm_respsonse","7001.199999809265","img/question_1_11.jpeg","3","mat_11","4","1","1","7001.199999809265","","","","","","","","","","","","","","","","","","","","",""
"","","","","","html-keyboard-response","26","1101306","0.0-2.0-2.0-0.11","5ad0f1934d061300011b0a4d","C3","batch3","spm_show_trial_num","null","<p class=block-text>Trial 12 out of 60</p>","null","","","","","","","","","","","","","","","","","","","","","","","","","",""
"","","","","","image-button-response","27","1107003","0.0-2.0-2.0-1.11","5ad0f1934d061300011b0a4d","C3","batch3","spm_respsonse","5695.10000038147","img/question_1_12.jpeg","4","mat_12","5","1","1","5695.10000038147","","","","","","","","","","","","","","","","","","","","",""
"","","","","","html-keyboard-response","28","1108077","0.0-2.0-2.0-0.12","5ad0f1934d061300011b0a4d","C3","batch3","spm_show_trial_num","null","<p class=block-text>Trial 13 out of 60</p>","null","","","","","","","","","","","","","","","","","","","","","","","","","",""
"","","","","","image-button-response","29","1112041","0.0-2.0-2.0-1.12","5ad0f1934d061300011b0a4d","C3","batch3","spm_respsonse","3961.199999809265","img/question_2_1.jpeg","1","mat_13","2","1","1","3961.199999809265","","","","","","","","","","","","","","","","","","","","",""
"","","","","","html-keyboard-response","30","1113110","0.0-2.0-2.0-0.13","5ad0f1934d061300011b0a4d","C3","batch3","spm_show_trial_num","null","<p class=block-text>Trial 14 out of 60</p>","null","","","","","","","","","","","","","","","","","","","","","","","","","",""
"","","","","","image-button-response","31","1123645","0.0-2.0-2.0-1.13","5ad0f1934d061300011b0a4d","C3","batch3","spm_respsonse","10532.300000190735","img/question_2_2.jpeg","5","mat_14","6","1","1","10532.300000190735","","","","","","","","","","","","","","","","","","","","",""
"","","","","","html-keyboard-response","32","1124702","0.0-2.0-2.0-0.14","5ad0f1934d061300011b0a4d","C3","batch3","spm_show_trial_num","null","<p class=block-text>Trial 15 out of 60</p>","null","","","","","","","","","","","","","","","","","","","","","","","","","",""
"","","","","","image-button-response","33","1127275","0.0-2.0-2.0-1.14","5ad0f1934d061300011b0a4d","C3","batch3","spm_respsonse","2571.2000007629395","img/question_2_3.jpeg","0","mat_15","1","1","1","2571.2000007629395","","","","","","","","","","","","","","","","","","","","",""
"","","","","","html-keyboard-response","34","1128343","0.0-2.0-2.0-0.15","5ad0f1934d061300011b0a4d","C3","batch3","spm_show_trial_num","null","<p class=block-text>Trial 16 out of 60</p>","null","","","","","","","","","","","","","","","","","","","","","","","","","",""
"","","","","","image-button-response","35","1131784","0.0-2.0-2.0-1.15","5ad0f1934d061300011b0a4d","C3","batch3","spm_respsonse","3439","img/question_2_4.jpeg","1","mat_16","2","1","1","3439","","","","","","","","","","","","","","","","","","","","",""
"","","","","","html-keyboard-response","36","1132845","0.0-2.0-2.0-0.16","5ad0f1934d061300011b0a4d","C3","batch3","spm_show_trial_num","null","<p class=block-text>Trial 17 out of 60</p>","null","","","","","","","","","","","","","","","","","","","","","","","","","",""
"","","","","","image-button-response","37","1137375","0.0-2.0-2.0-1.16","5ad0f1934d061300011b0a4d","C3","batch3","spm_respsonse","4528.699999809265","img/question_2_5.jpeg","0","mat_17","1","1","1","4528.699999809265","","","","","","","","","","","","","","","","","","","","",""
"","","","","","html-keyboard-response","38","1138447","0.0-2.0-2.0-0.17","5ad0f1934d061300011b0a4d","C3","batch3","spm_show_trial_num","null","<p class=block-text>Trial 18 out of 60</p>","null","","","","","","","","","","","","","","","","","","","","","","","","","",""
"","","","","","image-button-response","39","1145771","0.0-2.0-2.0-1.17","5ad0f1934d061300011b0a4d","C3","batch3","spm_respsonse","7322.800000190735","img/question_2_6.jpeg","2","mat_18","3","1","1","7322.800000190735","","","","","","","","","","","","","","","","","","","","",""
"","","","","","html-keyboard-response","40","1146835","0.0-2.0-2.0-0.18","5ad0f1934d061300011b0a4d","C3","batch3","spm_show_trial_num","null","<p class=block-text>Trial 19 out of 60</p>","null","","","","","","","","","","","","","","","","","","","","","","","","","",""
"","","","","","image-button-response","41","1151099","0.0-2.0-2.0-1.18","5ad0f1934d061300011b0a4d","C3","batch3","spm_respsonse","4262.300000190735","img/question_2_7.jpeg","4","mat_19","5","1","1","4262.300000190735","","","","","","","","","","","","","","","","","","","","",""
"","","","","","html-keyboard-response","42","1152166","0.0-2.0-2.0-0.19","5ad0f1934d061300011b0a4d","C3","batch3","spm_show_trial_num","null","<p class=block-text>Trial 20 out of 60</p>","null","","","","","","","","","","","","","","","","","","","","","","","","","",""
"","","","","","image-button-response","43","1159421","0.0-2.0-2.0-1.19","5ad0f1934d061300011b0a4d","C3","batch3","spm_respsonse","7254.60000038147","img/question_2_8.jpeg","5","mat_20","6","1","1","7254.60000038147","","","","","","","","","","","","","","","","","","","","",""
"","","","","","html-keyboard-response","44","1160477","0.0-2.0-2.0-0.20","5ad0f1934d061300011b0a4d","C3","batch3","spm_show_trial_num","null","<p class=block-text>Trial 21 out of 60</p>","null","","","","","","","","","","","","","","","","","","","","","","","","","",""
"","","","","","image-button-response","45","1166915","0.0-2.0-2.0-1.20","5ad0f1934d061300011b0a4d","C3","batch3","spm_respsonse","6435.800000190735","img/question_2_9.jpeg","3","mat_21","4","1","1","6435.800000190735","","","","","","","","","","","","","","","","","","","","",""
"","","","","","html-keyboard-response","46","1167973","0.0-2.0-2.0-0.21","5ad0f1934d061300011b0a4d","C3","batch3","spm_show_trial_num","null","<p class=block-text>Trial 22 out of 60</p>","null","","","","","","","","","","","","","","","","","","","","","","","","","",""
"","","","","","image-button-response","47","1174524","0.0-2.0-2.0-1.21","5ad0f1934d061300011b0a4d","C3","batch3","spm_respsonse","6549.800000190735","img/question_2_10.jpeg","2","mat_22","3","1","1","6549.800000190735","","","","","","","","","","","","","","","","","","","","",""
"","","","","","html-keyboard-response","48","1175587","0.0-2.0-2.0-0.22","5ad0f1934d061300011b0a4d","C3","batch3","spm_show_trial_num","null","<p class=block-text>Trial 23 out of 60</p>","null","","","","","","","","","","","","","","","","","","","","","","","","","",""
"","","","","","image-button-response","49","1179600","0.0-2.0-2.0-1.22","5ad0f1934d061300011b0a4d","C3","batch3","spm_respsonse","4010.9000005722046","img/question_2_11.jpeg","3","mat_23","4","1","1","4010.9000005722046","","","","","","","","","","","","","","","","","","","","",""
"","","","","","html-keyboard-response","50","1180662","0.0-2.0-2.0-0.23","5ad0f1934d061300011b0a4d","C3","batch3","spm_show_trial_num","null","<p class=block-text>Trial 24 out of 60</p>","null","","","","","","","","","","","","","","","","","","","","","","","","","",""
"","","","","","image-button-response","51","1189433","0.0-2.0-2.0-1.23","5ad0f1934d061300011b0a4d","C3","batch3","spm_respsonse","8769.60000038147","img/question_2_12.jpeg","4","mat_24","5","1","1","8769.60000038147","","","","","","","","","","","","","","","","","","","","",""
"","","","","","html-button-response","52","1191297","0.0-2.0-3.0","5ad0f1934d061300011b0a4d","C3","batch3","attention_check","1603.5","<p class = block-text>Attention check: Please choose 1<br></p>","0","","","true","","","","","","","","","","","","","","","","","","","","","","",""
"","","","","","html-keyboard-response","53","1192103","0.0-2.0-4.0-0.0","5ad0f1934d061300011b0a4d","C3","batch3","spm_show_trial_num","null","<p class=block-text>Trial 25 out of 60</p>","null","","","","","","","","","","","","","","","","","","","","","","","","","",""
"","","","","","image-button-response","54","1203388","0.0-2.0-4.0-1.0","5ad0f1934d061300011b0a4d","C3","batch3","spm_respsonse","11283","img/question_3_1.jpeg","7","mat_25","8","1","1","11283","","","","","","","","","","","","","","","","","","","","",""
"","","","","","html-keyboard-response","55","1204460","0.0-2.0-4.0-0.1","5ad0f1934d061300011b0a4d","C3","batch3","spm_show_trial_num","null","<p class=block-text>Trial 26 out of 60</p>","null","","","","","","","","","","","","","","","","","","","","","","","","","",""
"","","","","","image-button-response","56","1215198","0.0-2.0-4.0-1.1","5ad0f1934d061300011b0a4d","C3","batch3","spm_respsonse","10734.800000190735","img/question_3_2.jpeg","1","mat_26","2","1","1","10734.800000190735","","","","","","","","","","","","","","","","","","","","",""
"","","","","","html-keyboard-response","57","1216249","0.0-2.0-4.0-0.2","5ad0f1934d061300011b0a4d","C3","batch3","spm_show_trial_num","null","<p class=block-text>Trial 27 out of 60</p>","null","","","","","","","","","","","","","","","","","","","","","","","","","",""
"","","","","","image-button-response","58","1221699","0.0-2.0-4.0-1.2","5ad0f1934d061300011b0a4d","C3","batch3","spm_respsonse","5448.39999961853","img/question_3_3.jpeg","2","mat_27","3","1","1","5448.39999961853","","","","","","","","","","","","","","","","","","","","",""
"","","","","","html-keyboard-response","59","1222766","0.0-2.0-4.0-0.3","5ad0f1934d061300011b0a4d","C3","batch3","spm_show_trial_num","null","<p class=block-text>Trial 28 out of 60</p>","null","","","","","","","","","","","","","","","","","","","","","","","","","",""
"","","","","","image-button-response","60","1235557","0.0-2.0-4.0-1.3","5ad0f1934d061300011b0a4d","C3","batch3","spm_respsonse","12788.699999809265","img/question_3_4.jpeg","7","mat_28","8","1","1","12788.699999809265","","","","","","","","","","","","","","","","","","","","",""
"","","","","","html-keyboard-response","61","1236615","0.0-2.0-4.0-0.4","5ad0f1934d061300011b0a4d","C3","batch3","spm_show_trial_num","null","<p class=block-text>Trial 29 out of 60</p>","null","","","","","","","","","","","","","","","","","","","","","","","","","",""
"","","","","","image-button-response","62","1245419","0.0-2.0-4.0-1.4","5ad0f1934d061300011b0a4d","C3","batch3","spm_respsonse","8801.10000038147","img/question_3_5.jpeg","6","mat_29","7","1","1","8801.10000038147","","","","","","","","","","","","","","","","","","","","",""
"","","","","","html-keyboard-response","63","1246479","0.0-2.0-4.0-0.5","5ad0f1934d061300011b0a4d","C3","batch3","spm_show_trial_num","null","<p class=block-text>Trial 30 out of 60</p>","null","","","","","","","","","","","","","","","","","","","","","","","","","",""
"","","","","","image-button-response","64","1255490","0.0-2.0-4.0-1.5","5ad0f1934d061300011b0a4d","C3","batch3","spm_respsonse","9007.800000190735","img/question_3_6.jpeg","3","mat_30","4","1","1","9007.800000190735","","","","","","","","","","","","","","","","","","","","",""
"","","","","","html-keyboard-response","65","1256544","0.0-2.0-4.0-0.6","5ad0f1934d061300011b0a4d","C3","batch3","spm_show_trial_num","null","<p class=block-text>Trial 31 out of 60</p>","null","","","","","","","","","","","","","","","","","","","","","","","","","",""
"","","","","","image-button-response","66","1261759","0.0-2.0-4.0-1.6","5ad0f1934d061300011b0a4d","C3","batch3","spm_respsonse","5212.799999237061","img/question_3_7.jpeg","4","mat_31","5","1","1","5212.799999237061","","","","","","","","","","","","","","","","","","","","",""
"","","","","","html-keyboard-response","67","1262815","0.0-2.0-4.0-0.7","5ad0f1934d061300011b0a4d","C3","batch3","spm_show_trial_num","null","<p class=block-text>Trial 32 out of 60</p>","null","","","","","","","","","","","","","","","","","","","","","","","","","",""
"","","","","","image-button-response","68","1271206","0.0-2.0-4.0-1.7","5ad0f1934d061300011b0a4d","C3","batch3","spm_respsonse","8389.29999923706","img/question_3_8.jpeg","0","mat_32","1","1","1","8389.29999923706","","","","","","","","","","","","","","","","","","","","",""
"","","","","","html-keyboard-response","69","1272263","0.0-2.0-4.0-0.8","5ad0f1934d061300011b0a4d","C3","batch3","spm_show_trial_num","null","<p class=block-text>Trial 33 out of 60</p>","null","","","","","","","","","","","","","","","","","","","","","","","","","",""
"","","","","","image-button-response","70","1279553","0.0-2.0-4.0-1.8","5ad0f1934d061300011b0a4d","C3","batch3","spm_respsonse","7287.10000038147","img/question_3_9.jpeg","6","mat_33","7","1","1","7287.10000038147","","","","","","","","","","","","","","","","","","","","",""
"","","","","","html-keyboard-response","71","1280625","0.0-2.0-4.0-0.9","5ad0f1934d061300011b0a4d","C3","batch3","spm_show_trial_num","null","<p class=block-text>Trial 34 out of 60</p>","null","","","","","","","","","","","","","","","","","","","","","","","","","",""
"","","","","","image-button-response","72","1290602","0.0-2.0-4.0-1.9","5ad0f1934d061300011b0a4d","C3","batch3","spm_respsonse","9974.60000038147","img/question_3_10.jpeg","5","mat_34","6","1","1","9974.60000038147","","","","","","","","","","","","","","","","","","","","",""
"","","","","","html-keyboard-response","73","1291666","0.0-2.0-4.0-0.10","5ad0f1934d061300011b0a4d","C3","batch3","spm_show_trial_num","null","<p class=block-text>Trial 35 out of 60</p>","null","","","","","","","","","","","","","","","","","","","","","","","","","",""
"","","","","","image-button-response","74","1312487","0.0-2.0-4.0-1.10","5ad0f1934d061300011b0a4d","C3","batch3","spm_respsonse","20818.400000572205","img/question_3_11.jpeg","4","mat_35","1","0","0","20818.400000572205","","","","","","","","","","","","","","","","","","","","",""
"","","","","","html-keyboard-response","75","1313543","0.0-2.0-4.0-0.11","5ad0f1934d061300011b0a4d","C3","batch3","spm_show_trial_num","null","<p class=block-text>Trial 36 out of 60</p>","null","","","","","","","","","","","","","","","","","","","","","","","","","",""
"","","","","","image-button-response","76","1320776","0.0-2.0-4.0-1.11","5ad0f1934d061300011b0a4d","C3","batch3","spm_respsonse","7231.60000038147","img/question_3_12.jpeg","3","mat_36","2","0","0","7231.60000038147","","","","","","","","","","","","","","","","","","","","",""
"","","","","","html-keyboard-response","77","1321845","0.0-2.0-4.0-0.12","5ad0f1934d061300011b0a4d","C3","batch3","spm_show_trial_num","null","<p class=block-text>Trial 37 out of 60</p>","null","","","","","","","","","","","","","","","","","","","","","","","","","",""
"","","","","","image-button-response","78","1326055","0.0-2.0-4.0-1.12","5ad0f1934d061300011b0a4d","C3","batch3","spm_respsonse","4206.60000038147","img/question_4_1.jpeg","2","mat_37","3","1","1","4206.60000038147","","","","","","","","","","","","","","","","","","","","",""
"","","","","","html-keyboard-response","79","1327118","0.0-2.0-4.0-0.13","5ad0f1934d061300011b0a4d","C3","batch3","spm_show_trial_num","null","<p class=block-text>Trial 38 out of 60</p>","null","","","","","","","","","","","","","","","","","","","","","","","","","",""
"","","","","","image-button-response","80","1343335","0.0-2.0-4.0-1.13","5ad0f1934d061300011b0a4d","C3","batch3","spm_respsonse","16215.60000038147","img/question_4_2.jpeg","3","mat_38","4","1","1","16215.60000038147","","","","","","","","","","","","","","","","","","","","",""
"","","","","","html-keyboard-response","81","1344402","0.0-2.0-4.0-0.14","5ad0f1934d061300011b0a4d","C3","batch3","spm_show_trial_num","null","<p class=block-text>Trial 39 out of 60</p>","null","","","","","","","","","","","","","","","","","","","","","","","","","",""
"","","","","","image-button-response","82","1352250","0.0-2.0-4.0-1.14","5ad0f1934d061300011b0a4d","C3","batch3","spm_respsonse","7845.10000038147","img/question_4_3.jpeg","2","mat_39","3","1","1","7845.10000038147","","","","","","","","","","","","","","","","","","","","",""
"","","","","","html-keyboard-response","83","1353310","0.0-2.0-4.0-0.15","5ad0f1934d061300011b0a4d","C3","batch3","spm_show_trial_num","null","<p class=block-text>Trial 40 out of 60</p>","null","","","","","","","","","","","","","","","","","","","","","","","","","",""
"","","","","","image-button-response","84","1370610","0.0-2.0-4.0-1.15","5ad0f1934d061300011b0a4d","C3","batch3","spm_respsonse","17298.60000038147","img/question_4_4.jpeg","4","mat_40","7","0","0","17298.60000038147","","","","","","","","","","","","","","","","","","","","",""
"","","","","","html-keyboard-response","85","1371663","0.0-2.0-4.0-0.16","5ad0f1934d061300011b0a4d","C3","batch3","spm_show_trial_num","null","<p class=block-text>Trial 41 out of 60</p>","null","","","","","","","","","","","","","","","","","","","","","","","","","",""
"","","","","","image-button-response","86","1381230","0.0-2.0-4.0-1.16","5ad0f1934d061300011b0a4d","C3","batch3","spm_respsonse","9563.699999809265","img/question_4_5.jpeg","7","mat_41","8","1","1","9563.699999809265","","","","","","","","","","","","","","","","","","","","",""
"","","","","","html-keyboard-response","87","1382294","0.0-2.0-4.0-0.17","5ad0f1934d061300011b0a4d","C3","batch3","spm_show_trial_num","null","<p class=block-text>Trial 42 out of 60</p>","null","","","","","","","","","","","","","","","","","","","","","","","","","",""
"","","","","","image-button-response","88","1392357","0.0-2.0-4.0-1.17","5ad0f1934d061300011b0a4d","C3","batch3","spm_respsonse","10061.5","img/question_4_6.jpeg","5","mat_42","6","1","1","10061.5","","","","","","","","","","","","","","","","","","","","",""
"","","","","","html-keyboard-response","89","1393423","0.0-2.0-4.0-0.18","5ad0f1934d061300011b0a4d","C3","batch3","spm_show_trial_num","null","<p class=block-text>Trial 43 out of 60</p>","null","","","","","","","","","","","","","","","","","","","","","","","","","",""
"","","","","","image-button-response","90","1416586","0.0-2.0-4.0-1.18","5ad0f1934d061300011b0a4d","C3","batch3","spm_respsonse","23161.099999427795","img/question_4_7.jpeg","4","mat_43","5","1","1","23161.099999427795","","","","","","","","","","","","","","","","","","","","",""
"","","","","","html-keyboard-response","91","1417638","0.0-2.0-4.0-0.19","5ad0f1934d061300011b0a4d","C3","batch3","spm_show_trial_num","null","<p class=block-text>Trial 44 out of 60</p>","null","","","","","","","","","","","","","","","","","","","","","","","","","",""
"","","","","","image-button-response","92","1424844","0.0-2.0-4.0-1.19","5ad0f1934d061300011b0a4d","C3","batch3","spm_respsonse","7203.39999961853","img/question_4_8.jpeg","3","mat_44","4","1","1","7203.39999961853","","","","","","","","","","","","","","","","","","","","",""
"","","","","","html-keyboard-response","93","1425898","0.0-2.0-4.0-0.20","5ad0f1934d061300011b0a4d","C3","batch3","spm_show_trial_num","null","<p class=block-text>Trial 45 out of 60</p>","null","","","","","","","","","","","","","","","","","","","","","","","","","",""
"","","","","","image-button-response","94","1444119","0.0-2.0-4.0-1.20","5ad0f1934d061300011b0a4d","C3","batch3","spm_respsonse","18216.5","img/question_4_9.jpeg","0","mat_45","1","1","1","18216.5","","","","","","","","","","","","","","","","","","","","",""
"","","","","","html-keyboard-response","95","1445174","0.0-2.0-4.0-0.21","5ad0f1934d061300011b0a4d","C3","batch3","spm_show_trial_num","null","<p class=block-text>Trial 46 out of 60</p>","null","","","","","","","","","","","","","","","","","","","","","","","","","",""
"","","","","","image-button-response","96","1454398","0.0-2.0-4.0-1.21","5ad0f1934d061300011b0a4d","C3","batch3","spm_respsonse","9222.10000038147","img/question_4_10.jpeg","1","mat_46","2","1","1","9222.10000038147","","","","","","","","","","","","","","","","","","","","",""
"","","","","","html-keyboard-response","97","1455465","0.0-2.0-4.0-0.22","5ad0f1934d061300011b0a4d","C3","batch3","spm_show_trial_num","null","<p class=block-text>Trial 47 out of 60</p>","null","","","","","","","","","","","","","","","","","","","","","","","","","",""
"","","","","","image-button-response","98","1492755","0.0-2.0-4.0-1.22","5ad0f1934d061300011b0a4d","C3","batch3","spm_respsonse","37288.39999961853","img/question_4_11.jpeg","6","mat_47","5","0","0","37288.39999961853","","","","","","","","","","","","","","","","","","","","",""
"","","","","","html-keyboard-response","99","1493820","0.0-2.0-4.0-0.23","5ad0f1934d061300011b0a4d","C3","batch3","spm_show_trial_num","null","<p class=block-text>Trial 48 out of 60</p>","null","","","","","","","","","","","","","","","","","","","","","","","","","",""
"","","","","","image-button-response","100","1506780","0.0-2.0-4.0-1.23","5ad0f1934d061300011b0a4d","C3","batch3","spm_respsonse","12957.300000190735","img/question_4_12.jpeg","1","mat_48","6","0","0","12957.300000190735","","","","","","","","","","","","","","","","","","","","",""
"","","","","","html-keyboard-response","101","1507833","0.0-2.0-4.0-0.24","5ad0f1934d061300011b0a4d","C3","batch3","spm_show_trial_num","null","<p class=block-text>Trial 49 out of 60</p>","null","","","","","","","","","","","","","","","","","","","","","","","","","",""
"","","","","","image-button-response","102","1517745","0.0-2.0-4.0-1.24","5ad0f1934d061300011b0a4d","C3","batch3","spm_respsonse","9908.800000190735","img/question_5_1.jpeg","6","mat_49","7","1","1","9908.800000190735","","","","","","","","","","","","","","","","","","","","",""
"","","","","","html-keyboard-response","103","1518817","0.0-2.0-4.0-0.25","5ad0f1934d061300011b0a4d","C3","batch3","spm_show_trial_num","null","<p class=block-text>Trial 50 out of 60</p>","null","","","","","","","","","","","","","","","","","","","","","","","","","",""
"","","","","","image-button-response","104","1530971","0.0-2.0-4.0-1.25","5ad0f1934d061300011b0a4d","C3","batch3","spm_respsonse","12152.800000190735","img/question_5_2.jpeg","0","mat_50","6","0","0","12152.800000190735","","","","","","","","","","","","","","","","","","","","",""
"","","","","","html-keyboard-response","105","1532024","0.0-2.0-4.0-0.26","5ad0f1934d061300011b0a4d","C3","batch3","spm_show_trial_num","null","<p class=block-text>Trial 51 out of 60</p>","null","","","","","","","","","","","","","","","","","","","","","","","","","",""
"","","","","","image-button-response","106","1546844","0.0-2.0-4.0-1.26","5ad0f1934d061300011b0a4d","C3","batch3","spm_respsonse","14818.10000038147","img/question_5_3.jpeg","7","mat_51","8","1","1","14818.10000038147","","","","","","","","","","","","","","","","","","","","",""
"","","","","","html-keyboard-response","107","1547912","0.0-2.0-4.0-0.27","5ad0f1934d061300011b0a4d","C3","batch3","spm_show_trial_num","null","<p class=block-text>Trial 52 out of 60</p>","null","","","","","","","","","","","","","","","","","","","","","","","","","",""
"","","","","","image-button-response","108","1559701","0.0-2.0-4.0-1.27","5ad0f1934d061300011b0a4d","C3","batch3","spm_respsonse","11786.89999961853","img/question_5_4.jpeg","1","mat_52","2","1","1","11786.89999961853","","","","","","","","","","","","","","","","","","","","",""
"","","","","","html-keyboard-response","109","1560755","0.0-2.0-4.0-0.28","5ad0f1934d061300011b0a4d","C3","batch3","spm_show_trial_num","null","<p class=block-text>Trial 53 out of 60</p>","null","","","","","","","","","","","","","","","","","","","","","","","","","",""
"","","","","","image-button-response","110","1577530","0.0-2.0-4.0-1.28","5ad0f1934d061300011b0a4d","C3","batch3","spm_respsonse","16773.5","img/question_5_5.jpeg","2","mat_53","1","0","0","16773.5","","","","","","","","","","","","","","","","","","","","",""
"","","","","","html-keyboard-response","111","1578595","0.0-2.0-4.0-0.29","5ad0f1934d061300011b0a4d","C3","batch3","spm_show_trial_num","null","<p class=block-text>Trial 54 out of 60</p>","null","","","","","","","","","","","","","","","","","","","","","","","","","",""
"","","","","","image-button-response","112","1589488","0.0-2.0-4.0-1.29","5ad0f1934d061300011b0a4d","C3","batch3","spm_respsonse","10891.5","img/question_5_6.jpeg","5","mat_54","5","0","0","10891.5","","","","","","","","","","","","","","","","","","","","",""
"","","","","","html-keyboard-response","113","1590540","0.0-2.0-4.0-0.30","5ad0f1934d061300011b0a4d","C3","batch3","spm_show_trial_num","null","<p class=block-text>Trial 55 out of 60</p>","null","","","","","","","","","","","","","","","","","","","","","","","","","",""
"","","","","","image-button-response","114","1611151","0.0-2.0-4.0-1.30","5ad0f1934d061300011b0a4d","C3","batch3","spm_respsonse","20607.5","img/question_5_7.jpeg","0","mat_55","1","1","1","20607.5","","","","","","","","","","","","","","","","","","","","",""
"","","","","","html-keyboard-response","115","1612215","0.0-2.0-4.0-0.31","5ad0f1934d061300011b0a4d","C3","batch3","spm_show_trial_num","null","<p class=block-text>Trial 56 out of 60</p>","null","","","","","","","","","","","","","","","","","","","","","","","","","",""
"","","","","","image-button-response","116","1626701","0.0-2.0-4.0-1.31","5ad0f1934d061300011b0a4d","C3","batch3","spm_respsonse","14482.89999961853","img/question_5_8.jpeg","5","mat_56","6","1","1","14482.89999961853","","","","","","","","","","","","","","","","","","","","",""
"","","","","","html-keyboard-response","117","1627755","0.0-2.0-4.0-0.32","5ad0f1934d061300011b0a4d","C3","batch3","spm_show_trial_num","null","<p class=block-text>Trial 57 out of 60</p>","null","","","","","","","","","","","","","","","","","","","","","","","","","",""
"","","","","","image-button-response","118","1652065","0.0-2.0-4.0-1.32","5ad0f1934d061300011b0a4d","C3","batch3","spm_respsonse","24307.20000076294","img/question_5_9.jpeg","4","mat_57","3","0","0","24307.20000076294","","","","","","","","","","","","","","","","","","","","",""
"","","","","","html-keyboard-response","119","1653129","0.0-2.0-4.0-0.33","5ad0f1934d061300011b0a4d","C3","batch3","spm_show_trial_num","null","<p class=block-text>Trial 58 out of 60</p>","null","","","","","","","","","","","","","","","","","","","","","","","","","",""
"","","","","","image-button-response","120","1670536","0.0-2.0-4.0-1.33","5ad0f1934d061300011b0a4d","C3","batch3","spm_respsonse","17405.800000190735","img/question_5_10.jpeg","2","mat_58","2","0","0","17405.800000190735","","","","","","","","","","","","","","","","","","","","",""
"","","","","","html-keyboard-response","121","1671594","0.0-2.0-4.0-0.34","5ad0f1934d061300011b0a4d","C3","batch3","spm_show_trial_num","null","<p class=block-text>Trial 59 out of 60</p>","null","","","","","","","","","","","","","","","","","","","","","","","","","",""
"","","","","","image-button-response","122","1699603","0.0-2.0-4.0-1.34","5ad0f1934d061300011b0a4d","C3","batch3","spm_respsonse","28007.400000572205","img/question_5_11.jpeg","6","mat_59","4","0","0","28007.400000572205","","","","","","","","","","","","","","","","","","","","",""
"","","","","","html-keyboard-response","123","1700656","0.0-2.0-4.0-0.35","5ad0f1934d061300011b0a4d","C3","batch3","spm_show_trial_num","null","<p class=block-text>Trial 60 out of 60</p>","null","","","","","","","","","","","","","","","","","","","","","","","","","",""
"","","","","","image-button-response","124","1718890","0.0-2.0-4.0-1.35","5ad0f1934d061300011b0a4d","C3","batch3","spm_respsonse","18230.900000572205","img/question_5_12.jpeg","1","mat_60","5","0","0","18230.900000572205","","","","","","","","","","","","","","","","","","","","",""
"","","","","","html-button-response","125","1721961","0.0-2.0-5.0","5ad0f1934d061300011b0a4d","C3","batch3","spm_goodbye","2820.3999996185303","<p class= block-text>This concludes the Standard Progressive Matrix game. Thank you for your responses!<br> When you are ready, click the button continue</p>","0","","","","","","","","","","","","","","","","","","","","","","","","","",""
"true","","","","","fullscreen","126","1724451","0.0-3.0-0.0","5ad0f1934d061300011b0a4d","C3","batch3","","","","","","","","","","","","","","","","","","","","","","","","","","","","","",""
"","","","","","instructions","127","1742413","0.0-3.0-1.0-0.0","5ad0f1934d061300011b0a4d","C3","batch3","","17960.60000038147","","","","","","","","[{""page_index"":0,""viewing_time"":13809},{""page_index"":1,""viewing_time"":4151.400000572205}]","","","","","","","","","","","","","","","","","","","",""
"","","","","","html-button-response","128","1743199","0.0-3.0-1.0-1.0-0.0","5ad0f1934d061300011b0a4d","C3","batch3","pattern_enter_quiz","785.6000003814697","<p class=block-text> Let's answer a few questions <br>","0","","","","","","","","","","","","","","","","","","","","","","","","","",""
"","","","","","html-button-response","129","1744681","0.0-3.0-1.0-1.0-1.0","5ad0f1934d061300011b0a4d","C3","batch3","pattern_quiz","1480.5","<p class = block-text>True or False: You will have as much time as you want to make each choice. <br></p>","1","","","true","","","","","","","","","","","","","","","","","","","","","","",""
"","","","","","html-button-response","130","1745615","0.0-3.0-1.0-1.0-2.0","5ad0f1934d061300011b0a4d","C3","batch3","pattern_quiz_feedback","932.9000005722046","<p class = block-text>Correct! You should make your choice <strong> as fast as you can</strong>.</p>","0","","","","","","","","","","","","","","","","","","","","","","","","","",""
"","","","","","html-button-response","131","1748588","0.0-3.0-1.0-1.0-3.0","5ad0f1934d061300011b0a4d","C3","batch3","pattern_quiz","2972.5","<p class = block-text>True or False: You will look for 4 pieces in black or white color connected in a row either horizontally, vertically or diagonally. <br></p>","0","","","true","","","","","","","","","","","","","","","","","","","","","","",""
"","","","","","html-button-response","132","1749201","0.0-3.0-1.0-1.0-4.0","5ad0f1934d061300011b0a4d","C3","batch3","pattern_quiz_feedback","611.5","<p class = block-text>Correct! </p>","0","","","","","","","","","","","","","","","","","","","","","","","","","",""
"","","","","","html-button-response","133","1750363","0.0-3.0-2.0","5ad0f1934d061300011b0a4d","C3","batch3","pattern_enter_practice","1161.1000003814697","<p class=block-text> Now that you've understood the game, let's do a few practice trials before we start!<br> <br>","0","","","","","","","","","","","","","","","","","","","","","","","","","",""
"","","","","","image-keyboard-response","134","1753043","0.0-3.0-3.0-0.0","5ad0f1934d061300011b0a4d","C3","batch3","pattern_practice","2677.800000190735","stim/prac_no_16_1.png","j","","j","true","","","","","","","","","","","","","","","","","","","","","","",""
"","","","","","html-keyboard-response","135","1754045","0.0-3.0-3.0-1.0","5ad0f1934d061300011b0a4d","C3","batch3","pattern_feedback","null","<p style=""font-size:30px;color:green;"">Correct!</p>","null","","","","","","","","","","","","","","","","","","","","","","","","","",""
"","","","","","image-keyboard-response","136","1756206","0.0-3.0-3.0-0.1","5ad0f1934d061300011b0a4d","C3","batch3","pattern_practice","2160.1000003814697","stim/prac_no_18_1.png","j","","j","true","","","","","","","","","","","","","","","","","","","","","","",""
"","","","","","html-keyboard-response","137","1757222","0.0-3.0-3.0-1.1","5ad0f1934d061300011b0a4d","C3","batch3","pattern_feedback","null","<p style=""font-size:30px;color:green;"">Correct!</p>","null","","","","","","","","","","","","","","","","","","","","","","","","","",""
"","","","","","image-keyboard-response","138","1757819","0.0-3.0-3.0-0.2","5ad0f1934d061300011b0a4d","C3","batch3","pattern_practice","595.4000005722046","stim/prac_yes_16_ver_w1.png","f","","f","true","","","","","","","","","","","","","","","","","","","","","","",""
"","","","","","html-keyboard-response","139","1758839","0.0-3.0-3.0-1.2","5ad0f1934d061300011b0a4d","C3","batch3","pattern_feedback","null","<p style=""font-size:30px;color:green;"">Correct!</p>","null","","","","","","","","","","","","","","","","","","","","","","","","","",""
"","","","","","image-keyboard-response","140","1759952","0.0-3.0-3.0-0.3","5ad0f1934d061300011b0a4d","C3","batch3","pattern_practice","1111.6000003814697","stim/prac_yes_20_dia_b1.png","f","","f","true","","","","","","","","","","","","","","","","","","","","","","",""
"","","","","","html-keyboard-response","141","1760959","0.0-3.0-3.0-1.3","5ad0f1934d061300011b0a4d","C3","batch3","pattern_feedback","null","<p style=""font-size:30px;color:green;"">Correct!</p>","null","","","","","","","","","","","","","","","","","","","","","","","","","",""
"","","","","","image-keyboard-response","142","1762097","0.0-3.0-3.0-0.4","5ad0f1934d061300011b0a4d","C3","batch3","pattern_practice","1136.1000003814697","stim/prac_yes_18_hor_w1.png","f","","f","true","","","","","","","","","","","","","","","","","","","","","","",""
"","","","","","html-keyboard-response","143","1763111","0.0-3.0-3.0-1.4","5ad0f1934d061300011b0a4d","C3","batch3","pattern_feedback","null","<p style=""font-size:30px;color:green;"">Correct!</p>","null","","","","","","","","","","","","","","","","","","","","","","","","","",""
"","","","","","html-button-response","144","1815814","0.0-3.0-4.0","5ad0f1934d061300011b0a4d","C3","batch3","pattern_enter_official_trials","52700.699999809265","<p class=block-text> Good job! You are done with practice trials!<br>
        You responded correctly on 100% of the trials.<br>
        Press the button below to start official trials. Now you won't see any feedback about your response</p>","0","","","","","","","","","","","","","","","","","","","","","","","","","",""
"","","","","","html-keyboard-response","145","1816616","0.0-3.0-5.0-0.0","5ad0f1934d061300011b0a4d","C3","batch3","pattern_show_trial_num","null","<p class=block-text>Trial 1 out of 78</p>","null","","","","","","","","","","","","","","","","","","","","","","","","","",""
"","","","","","image-keyboard-response","146","1820122","0.0-3.0-5.0-1.0","5ad0f1934d061300011b0a4d","C3","batch3","pattern_response","3504.5","stim/yes_42_dia_w1_w.png","j","pattern_64","f","false","","","","3504.5","false","0","","","","","","","","","","","","","","","","",""
"","","","","","html-keyboard-response","147","1821426","0.0-3.0-5.0-0.1","5ad0f1934d061300011b0a4d","C3","batch3","pattern_show_trial_num","null","<p class=block-text>Trial 2 out of 78</p>","null","","","","","","","","","","","","","","","","","","","","","","","","","",""
"","","","","","image-keyboard-response","148","1823980","0.0-3.0-5.0-1.1","5ad0f1934d061300011b0a4d","C3","batch3","pattern_response","2551.800000190735","stim/yes_53_ver_b1_b.png","f","pattern_74","f","true","","","","2551.800000190735","true","1","","","","","","","","","","","","","","","","",""
"","","","","","html-keyboard-response","149","1825287","0.0-3.0-5.0-0.2","5ad0f1934d061300011b0a4d","C3","batch3","pattern_show_trial_num","null","<p class=block-text>Trial 3 out of 78</p>","null","","","","","","","","","","","","","","","","","","","","","","","","","",""
"","","","","","image-keyboard-response","150","1828802","0.0-3.0-5.0-1.2","5ad0f1934d061300011b0a4d","C3","batch3","pattern_response","3513.2000007629395","stim/yes_51_dia_b1.png","j","pattern_72","f","false","","","","3513.2000007629395","false","1","","","","","","","","","","","","","","","","",""
"","","","","","html-keyboard-response","151","1830112","0.0-3.0-5.0-0.3","5ad0f1934d061300011b0a4d","C3","batch3","pattern_show_trial_num","null","<p class=block-text>Trial 4 out of 78</p>","null","","","","","","","","","","","","","","","","","","","","","","","","","",""
"","","","","","image-keyboard-response","152","1836251","0.0-3.0-5.0-1.3","5ad0f1934d061300011b0a4d","C3","batch3","pattern_response","6137.699999809265","stim/no_53_1_b.png","j","pattern_33","j","true","","","","6137.699999809265","true","2","","","","","","","","","","","","","","","","",""
"","","","","","html-keyboard-response","153","1837568","0.0-3.0-5.0-0.4","5ad0f1934d061300011b0a4d","C3","batch3","pattern_show_trial_num","null","<p class=block-text>Trial 5 out of 78</p>","null","","","","","","","","","","","","","","","","","","","","","","","","","",""
"","","","","","image-keyboard-response","154","1840356","0.0-3.0-5.0-1.4","5ad0f1934d061300011b0a4d","C3","batch3","pattern_response","2785.300000190735","stim/no_36_1_b.png","j","pattern_17","j","true","","","","2785.300000190735","true","3","","","","","","","","","","","","","","","","",""
"","","","","","html-keyboard-response","155","1841665","0.0-3.0-5.0-0.5","5ad0f1934d061300011b0a4d","C3","batch3","pattern_show_trial_num","null","<p class=block-text>Trial 6 out of 78</p>","null","","","","","","","","","","","","","","","","","","","","","","","","","",""
"","","","","","image-keyboard-response","156","1842264","0.0-3.0-5.0-1.5","5ad0f1934d061300011b0a4d","C3","batch3","pattern_response","598.1999998092651","stim/yes_12_hor_w1_w.png","f","pattern_42","f","true","","","","598.1999998092651","true","4","","","","","","","","","","","","","","","","",""
"","","","","","html-keyboard-response","157","1843583","0.0-3.0-5.0-0.6","5ad0f1934d061300011b0a4d","C3","batch3","pattern_show_trial_num","null","<p class=block-text>Trial 7 out of 78</p>","null","","","","","","","","","","","","","","","","","","","","","","","","","",""
"","","","","","image-keyboard-response","158","1844305","0.0-3.0-5.0-1.6","5ad0f1934d061300011b0a4d","C3","batch3","pattern_response","720","stim/yes_37_hor_w1_w.png","f","pattern_60","f","true","","","","720","true","5","","","","","","","","","","","","","","","","",""
"","","","","","html-keyboard-response","159","1845623","0.0-3.0-5.0-0.7","5ad0f1934d061300011b0a4d","C3","batch3","pattern_show_trial_num","null","<p class=block-text>Trial 8 out of 78</p>","null","","","","","","","","","","","","","","","","","","","","","","","","","",""
"","","","","","image-keyboard-response","160","1849302","0.0-3.0-5.0-1.7","5ad0f1934d061300011b0a4d","C3","batch3","pattern_response","3676.699999809265","stim/no_49_2_b.png","j","pattern_29","j","true","","","","3676.699999809265","true","6","","","","","","","","","","","","","","","","",""
"","","","","","html-keyboard-response","161","1850616","0.0-3.0-5.0-0.8","5ad0f1934d061300011b0a4d","C3","batch3","pattern_show_trial_num","null","<p class=block-text>Trial 9 out of 78</p>","null","","","","","","","","","","","","","","","","","","","","","","","","","",""
"","","","","","image-keyboard-response","162","1851416","0.0-3.0-5.0-1.8","5ad0f1934d061300011b0a4d","C3","batch3","pattern_response","797","stim/yes_26_dia_w2_w.png","f","pattern_50","f","true","","","","797","true","7","","","","","","","","","","","","","","","","",""
"","","","","","html-keyboard-response","163","1852729","0.0-3.0-5.0-0.9","5ad0f1934d061300011b0a4d","C3","batch3","pattern_show_trial_num","null","<p class=block-text>Trial 10 out of 78</p>","null","","","","","","","","","","","","","","","","","","","","","","","","","",""
"","","","","","image-keyboard-response","164","1853848","0.0-3.0-5.0-1.9","5ad0f1934d061300011b0a4d","C3","batch3","pattern_response","1117.3000001907349","stim/yes_23_ver_b1.png","f","pattern_48","f","true","","","","1117.3000001907349","true","8","","","","","","","","","","","","","","","","",""
"","","","","","html-keyboard-response","165","1855163","0.0-3.0-5.0-0.10","5ad0f1934d061300011b0a4d","C3","batch3","pattern_show_trial_num","null","<p class=block-text>Trial 11 out of 78</p>","null","","","","","","","","","","","","","","","","","","","","","","","","","",""
"","","","","","image-keyboard-response","166","1858945","0.0-3.0-5.0-1.10","5ad0f1934d061300011b0a4d","C3","batch3","pattern_response","3780.300000190735","stim/yes_44_ver_w1_w.png","j","pattern_66","f","false","","","","3780.300000190735","false","8","","","","","","","","","","","","","","","","",""
"","","","","","html-keyboard-response","167","1860258","0.0-3.0-5.0-0.11","5ad0f1934d061300011b0a4d","C3","batch3","pattern_show_trial_num","null","<p class=block-text>Trial 12 out of 78</p>","null","","","","","","","","","","","","","","","","","","","","","","","","","",""
"","","","","","image-keyboard-response","168","1863629","0.0-3.0-5.0-1.11","5ad0f1934d061300011b0a4d","C3","batch3","pattern_response","3370.300000190735","stim/no_37_2_w.png","j","pattern_19","j","true","","","","3370.300000190735","true","9","","","","","","","","","","","","","","","","",""
"","","","","","html-keyboard-response","169","1864931","0.0-3.0-5.0-0.12","5ad0f1934d061300011b0a4d","C3","batch3","pattern_show_trial_num","null","<p class=block-text>Trial 13 out of 78</p>","null","","","","","","","","","","","","","","","","","","","","","","","","","",""
"","","","","","image-keyboard-response","170","1867788","0.0-3.0-5.0-1.12","5ad0f1934d061300011b0a4d","C3","batch3","pattern_response","2855","stim/no_51_1.png","j","pattern_31","j","true","","","","2855","true","10","","","","","","","","","","","","","","","","",""
"","","","","","html-keyboard-response","171","1869103","0.0-3.0-5.0-0.13","5ad0f1934d061300011b0a4d","C3","batch3","pattern_show_trial_num","null","<p class=block-text>Trial 14 out of 78</p>","null","","","","","","","","","","","","","","","","","","","","","","","","","",""
"","","","","","image-keyboard-response","172","1869986","0.0-3.0-5.0-1.13","5ad0f1934d061300011b0a4d","C3","batch3","pattern_response","881.6999998092651","stim/yes_30_ver_b1_b.png","f","pattern_54","f","true","","","","881.6999998092651","true","11","","","","","","","","","","","","","","","","",""
"","","","","","html-keyboard-response","173","1871298","0.0-3.0-5.0-0.14","5ad0f1934d061300011b0a4d","C3","batch3","pattern_show_trial_num","null","<p class=block-text>Trial 15 out of 78</p>","null","","","","","","","","","","","","","","","","","","","","","","","","","",""
"","","","","","image-keyboard-response","174","1874973","0.0-3.0-5.0-1.14","5ad0f1934d061300011b0a4d","C3","batch3","pattern_response","3674.7000007629395","stim/no_45_1_w.png","j","pattern_25","j","true","","","","3674.7000007629395","true","12","","","","","","","","","","","","","","","","",""
"","","","","","html-keyboard-response","175","1876297","0.0-3.0-5.0-0.15","5ad0f1934d061300011b0a4d","C3","batch3","pattern_show_trial_num","null","<p class=block-text>Trial 16 out of 78</p>","null","","","","","","","","","","","","","","","","","","","","","","","","","",""
"","","","","","image-keyboard-response","176","1879763","0.0-3.0-5.0-1.15","5ad0f1934d061300011b0a4d","C3","batch3","pattern_response","3464.3999996185303","stim/no_39_1_w.png","j","pattern_21","j","true","","","","3464.3999996185303","true","13","","","","","","","","","","","","","","","","",""
"","","","","","html-keyboard-response","177","1881086","0.0-3.0-5.0-0.16","5ad0f1934d061300011b0a4d","C3","batch3","pattern_show_trial_num","null","<p class=block-text>Trial 17 out of 78</p>","null","","","","","","","","","","","","","","","","","","","","","","","","","",""
"","","","","","image-keyboard-response","178","1885163","0.0-3.0-5.0-1.16","5ad0f1934d061300011b0a4d","C3","batch3","pattern_response","4074.6000003814697","stim/yes_63_dia_b1.png","j","pattern_78","f","false","","","","4074.6000003814697","false","13","","","","","","","","","","","","","","","","",""
"","","","","","html-keyboard-response","179","1886477","0.0-3.0-5.0-0.17","5ad0f1934d061300011b0a4d","C3","batch3","pattern_show_trial_num","null","<p class=block-text>Trial 18 out of 78</p>","null","","","","","","","","","","","","","","","","","","","","","","","","","",""
"","","","","","image-keyboard-response","180","1889151","0.0-3.0-5.0-1.17","5ad0f1934d061300011b0a4d","C3","batch3","pattern_response","2671.5","stim/no_43_2_b.png","j","pattern_23","j","true","","","","2671.5","true","14","","","","","","","","","","","","","","","","",""
"","","","","","html-keyboard-response","181","1890458","0.0-3.0-5.0-0.18","5ad0f1934d061300011b0a4d","C3","batch3","pattern_show_trial_num","null","<p class=block-text>Trial 19 out of 78</p>","null","","","","","","","","","","","","","","","","","","","","","","","","","",""
"","","","","","image-keyboard-response","182","1891086","0.0-3.0-5.0-1.18","5ad0f1934d061300011b0a4d","C3","batch3","pattern_response","626","stim/yes_17_ver_b1_b.png","f","pattern_46","f","true","","","","626","true","15","","","","","","","","","","","","","","","","",""
"","","","","","html-keyboard-response","183","1892403","0.0-3.0-5.0-0.19","5ad0f1934d061300011b0a4d","C3","batch3","pattern_show_trial_num","null","<p class=block-text>Trial 20 out of 78</p>","null","","","","","","","","","","","","","","","","","","","","","","","","","",""
"","","","","","image-keyboard-response","184","1895962","0.0-3.0-5.0-1.19","5ad0f1934d061300011b0a4d","C3","batch3","pattern_response","3557.300000190735","stim/yes_49_hor_w1_b.png","f","pattern_70","f","true","","","","3557.300000190735","true","16","","","","","","","","","","","","","","","","",""
"","","","","","html-keyboard-response","185","1897278","0.0-3.0-5.0-0.20","5ad0f1934d061300011b0a4d","C3","batch3","pattern_show_trial_num","null","<p class=block-text>Trial 21 out of 78</p>","null","","","","","","","","","","","","","","","","","","","","","","","","","",""
"","","","","","image-keyboard-response","186","1901164","0.0-3.0-5.0-1.20","5ad0f1934d061300011b0a4d","C3","batch3","pattern_response","3883.699999809265","stim/yes_70_ver_b1.png","f","pattern_80","f","true","","","","3883.699999809265","true","17","","","","","","","","","","","","","","","","",""
"","","","","","html-keyboard-response","187","1902473","0.0-3.0-5.0-0.21","5ad0f1934d061300011b0a4d","C3","batch3","pattern_show_trial_num","null","<p class=block-text>Trial 22 out of 78</p>","null","","","","","","","","","","","","","","","","","","","","","","","","","",""
"","","","","","image-keyboard-response","188","1905141","0.0-3.0-5.0-1.21","5ad0f1934d061300011b0a4d","C3","batch3","pattern_response","2666.7000007629395","stim/no_47_1_b.png","j","pattern_27","j","true","","","","2666.7000007629395","true","18","","","","","","","","","","","","","","","","",""
"","","","","","html-keyboard-response","189","1906456","0.0-3.0-5.0-0.22","5ad0f1934d061300011b0a4d","C3","batch3","pattern_show_trial_num","null","<p class=block-text>Trial 23 out of 78</p>","null","","","","","","","","","","","","","","","","","","","","","","","","","",""
"","","","","","image-keyboard-response","190","1908549","0.0-3.0-5.0-1.22","5ad0f1934d061300011b0a4d","C3","batch3","pattern_response","2090.0999994277954","stim/no_25_1_b.png","j","pattern_09","j","true","","","","2090.0999994277954","true","19","","","","","","","","","","","","","","","","",""
"","","","","","html-keyboard-response","191","1909863","0.0-3.0-5.0-0.23","5ad0f1934d061300011b0a4d","C3","batch3","pattern_show_trial_num","null","<p class=block-text>Trial 24 out of 78</p>","null","","","","","","","","","","","","","","","","","","","","","","","","","",""
"","","","","","image-keyboard-response","192","1910631","0.0-3.0-5.0-1.23","5ad0f1934d061300011b0a4d","C3","batch3","pattern_response","767.1000003814697","stim/no_12_1.png","j","pattern_01","j","true","","","","767.1000003814697","true","20","","","","","","","","","","","","","","","","",""
"","","","","","html-keyboard-response","193","1911936","0.0-3.0-5.0-0.24","5ad0f1934d061300011b0a4d","C3","batch3","pattern_show_trial_num","null","<p class=block-text>Trial 25 out of 78</p>","null","","","","","","","","","","","","","","","","","","","","","","","","","",""
"","","","","","image-keyboard-response","194","1917082","0.0-3.0-5.0-1.24","5ad0f1934d061300011b0a4d","C3","batch3","pattern_response","5145.199999809265","stim/no_58_1_w.png","j","pattern_35","j","true","","","","5145.199999809265","true","21","","","","","","","","","","","","","","","","",""
"","","","","","html-keyboard-response","195","1918403","0.0-3.0-5.0-0.25","5ad0f1934d061300011b0a4d","C3","batch3","pattern_show_trial_num","null","<p class=block-text>Trial 26 out of 78</p>","null","","","","","","","","","","","","","","","","","","","","","","","","","",""
"","","","","","image-keyboard-response","196","1920762","0.0-3.0-5.0-1.25","5ad0f1934d061300011b0a4d","C3","batch3","pattern_response","2357.199999809265","stim/no_33_1_b.png","f","pattern_15","j","false","","","","2357.199999809265","false","21","","","","","","","","","","","","","","","","",""
"","","","","","html-keyboard-response","197","1922066","0.0-3.0-5.0-0.26","5ad0f1934d061300011b0a4d","C3","batch3","pattern_show_trial_num","null","<p class=block-text>Trial 27 out of 78</p>","null","","","","","","","","","","","","","","","","","","","","","","","","","",""
"","","","","","image-keyboard-response","198","1923181","0.0-3.0-5.0-1.26","5ad0f1934d061300011b0a4d","C3","batch3","pattern_response","1113","stim/yes_15_dia_b1u_b.png","f","pattern_44","f","true","","","","1113","true","22","","","","","","","","","","","","","","","","",""
"","","","","","html-keyboard-response","199","1924502","0.0-3.0-5.0-0.27","5ad0f1934d061300011b0a4d","C3","batch3","pattern_show_trial_num","null","<p class=block-text>Trial 28 out of 78</p>","null","","","","","","","","","","","","","","","","","","","","","","","","","",""
"","","","","","image-keyboard-response","200","1926027","0.0-3.0-5.0-1.27","5ad0f1934d061300011b0a4d","C3","batch3","pattern_response","1523","stim/yes_33_dia_w1_w.png","f","pattern_56","f","true","","","","1523","true","23","","","","","","","","","","","","","","","","",""
"","","","","","html-keyboard-response","201","1927343","0.0-3.0-5.0-0.28","5ad0f1934d061300011b0a4d","C3","batch3","pattern_show_trial_num","null","<p class=block-text>Trial 29 out of 78</p>","null","","","","","","","","","","","","","","","","","","","","","","","","","",""
"","","","","","image-keyboard-response","202","1930515","0.0-3.0-5.0-1.28","5ad0f1934d061300011b0a4d","C3","batch3","pattern_response","3170.5999994277954","stim/no_67_1.png","j","pattern_39","j","true","","","","3170.5999994277954","true","24","","","","","","","","","","","","","","","","",""
"","","","","","html-keyboard-response","203","1931829","0.0-3.0-5.0-0.29","5ad0f1934d061300011b0a4d","C3","batch3","pattern_show_trial_num","null","<p class=block-text>Trial 30 out of 78</p>","null","","","","","","","","","","","","","","","","","","","","","","","","","",""
"","","","","","image-keyboard-response","204","1933955","0.0-3.0-5.0-1.29","5ad0f1934d061300011b0a4d","C3","batch3","pattern_response","2123.199999809265","stim/yes_46_ver_b1_b.png","j","pattern_68","f","false","","","","2123.199999809265","false","24","","","","","","","","","","","","","","","","",""
"","","","","","html-keyboard-response","205","1935260","0.0-3.0-5.0-0.30","5ad0f1934d061300011b0a4d","C3","batch3","pattern_show_trial_num","null","<p class=block-text>Trial 31 out of 78</p>","null","","","","","","","","","","","","","","","","","","","","","","","","","",""
"","","","","","image-keyboard-response","206","1936370","0.0-3.0-5.0-1.30","5ad0f1934d061300011b0a4d","C3","batch3","pattern_response","1109","stim/no_22_1_b.png","j","pattern_07","j","true","","","","1109","true","25","","","","","","","","","","","","","","","","",""
"","","","","","html-keyboard-response","207","1937680","0.0-3.0-5.0-0.31","5ad0f1934d061300011b0a4d","C3","batch3","pattern_show_trial_num","null","<p class=block-text>Trial 32 out of 78</p>","null","","","","","","","","","","","","","","","","","","","","","","","","","",""
"","","","","","image-keyboard-response","208","1938253","0.0-3.0-5.0-1.31","5ad0f1934d061300011b0a4d","C3","batch3","pattern_response","572.1999998092651","stim/yes_29_hor_b1_b.png","f","pattern_52","f","true","","","","572.1999998092651","true","26","","","","","","","","","","","","","","","","",""
"","","","","","html-keyboard-response","209","1939568","0.0-3.0-5.0-0.32","5ad0f1934d061300011b0a4d","C3","batch3","pattern_show_trial_num","null","<p class=block-text>Trial 33 out of 78</p>","null","","","","","","","","","","","","","","","","","","","","","","","","","",""
"","","","","","image-keyboard-response","210","1944614","0.0-3.0-5.0-1.32","5ad0f1934d061300011b0a4d","C3","batch3","pattern_response","5045.200000762939","stim/yes_58_dia_w1_w.png","j","pattern_76","f","false","","","","5045.200000762939","false","26","","","","","","","","","","","","","","","","",""
"","","","","","html-keyboard-response","211","1945917","0.0-3.0-5.0-0.33","5ad0f1934d061300011b0a4d","C3","batch3","pattern_show_trial_num","null","<p class=block-text>Trial 34 out of 78</p>","null","","","","","","","","","","","","","","","","","","","","","","","","","",""
"","","","","","image-keyboard-response","212","1946925","0.0-3.0-5.0-1.33","5ad0f1934d061300011b0a4d","C3","batch3","pattern_response","1005.8999996185303","stim/no_18_1_b.png","j","pattern_05","j","true","","","","1005.8999996185303","true","27","","","","","","","","","","","","","","","","",""
"","","","","","html-keyboard-response","213","1948227","0.0-3.0-5.0-0.34","5ad0f1934d061300011b0a4d","C3","batch3","pattern_show_trial_num","null","<p class=block-text>Trial 35 out of 78</p>","null","","","","","","","","","","","","","","","","","","","","","","","","","",""
"","","","","","image-keyboard-response","214","1951239","0.0-3.0-5.0-1.34","5ad0f1934d061300011b0a4d","C3","batch3","pattern_response","3010.0999994277954","stim/no_28_2.png","j","pattern_11","j","true","","","","3010.0999994277954","true","28","","","","","","","","","","","","","","","","",""
"","","","","","html-keyboard-response","215","1952546","0.0-3.0-5.0-0.35","5ad0f1934d061300011b0a4d","C3","batch3","pattern_show_trial_num","null","<p class=block-text>Trial 36 out of 78</p>","null","","","","","","","","","","","","","","","","","","","","","","","","","",""
"","","","","","image-keyboard-response","216","1953345","0.0-3.0-5.0-1.35","5ad0f1934d061300011b0a4d","C3","batch3","pattern_response","797.4000005722046","stim/no_15_1_w.png","j","pattern_03","j","true","","","","797.4000005722046","true","29","","","","","","","","","","","","","","","","",""
"","","","","","html-keyboard-response","217","1954665","0.0-3.0-5.0-0.36","5ad0f1934d061300011b0a4d","C3","batch3","pattern_show_trial_num","null","<p class=block-text>Trial 37 out of 78</p>","null","","","","","","","","","","","","","","","","","","","","","","","","","",""
"","","","","","image-keyboard-response","218","1956063","0.0-3.0-5.0-1.36","5ad0f1934d061300011b0a4d","C3","batch3","pattern_response","1397.1000003814697","stim/no_30_1_b.png","j","pattern_13","j","true","","","","1397.1000003814697","true","30","","","","","","","","","","","","","","","","",""
"","","","","","html-keyboard-response","219","1957380","0.0-3.0-5.0-0.37","5ad0f1934d061300011b0a4d","C3","batch3","pattern_show_trial_num","null","<p class=block-text>Trial 38 out of 78</p>","null","","","","","","","","","","","","","","","","","","","","","","","","","",""
"","","","","","image-keyboard-response","220","1958158","0.0-3.0-5.0-1.37","5ad0f1934d061300011b0a4d","C3","batch3","pattern_response","777.1000003814697","stim/yes_39_hor_w1_w.png","f","pattern_62","f","true","","","","777.1000003814697","true","31","","","","","","","","","","","","","","","","",""
"","","","","","html-keyboard-response","221","1959464","0.0-3.0-5.0-0.38","5ad0f1934d061300011b0a4d","C3","batch3","pattern_show_trial_num","null","<p class=block-text>Trial 39 out of 78</p>","null","","","","","","","","","","","","","","","","","","","","","","","","","",""
"","","","","","image-keyboard-response","222","1960067","0.0-3.0-5.0-1.38","5ad0f1934d061300011b0a4d","C3","batch3","pattern_response","600.9000005722046","stim/yes_36_ver_w1_w.png","f","pattern_58","f","true","","","","600.9000005722046","true","32","","","","","","","","","","","","","","","","",""
"","","","","","image-keyboard-response","223","1961416","0.0-3.0-6.0","5ad0f1934d061300011b0a4d","C3","batch3","attention_check","840.1999998092651","stim/empty_board.png","j","","j","true","","","","","","","500","[""f"",""j""]","","","","","","","","","","","","","","",""
"","","","","","html-keyboard-response","224","1962219","0.0-3.0-7.0-0.0","5ad0f1934d061300011b0a4d","C3","batch3","pattern_show_trial_num","null","<p class=block-text>Trial 40 out of 78</p>","null","","","","","","","","","","","","","","","","","","","","","","","","","",""
"","","","","","image-keyboard-response","225","1965033","0.0-3.0-7.0-1.0","5ad0f1934d061300011b0a4d","C3","batch3","pattern_response","2812.3999996185303","stim/no_70_2.png","j","pattern_40","j","true","","","","2812.3999996185303","true","33","","","","","","","","","","","","","","","","",""
"","","","","","html-keyboard-response","226","1966348","0.0-3.0-7.0-0.1","5ad0f1934d061300011b0a4d","C3","batch3","pattern_show_trial_num","null","<p class=block-text>Trial 41 out of 78</p>","null","","","","","","","","","","","","","","","","","","","","","","","","","",""
"","","","","","image-keyboard-response","227","1968096","0.0-3.0-7.0-1.1","5ad0f1934d061300011b0a4d","C3","batch3","pattern_response","1747.2000007629395","stim/yes_50_dia_w1.png","j","pattern_71","f","false","","","","1747.2000007629395","false","33","","","","","","","","","","","","","","","","",""
"","","","","","html-keyboard-response","228","1969408","0.0-3.0-7.0-0.2","5ad0f1934d061300011b0a4d","C3","batch3","pattern_show_trial_num","null","<p class=block-text>Trial 42 out of 78</p>","null","","","","","","","","","","","","","","","","","","","","","","","","","",""
"","","","","","image-keyboard-response","229","1970570","0.0-3.0-7.0-1.2","5ad0f1934d061300011b0a4d","C3","batch3","pattern_response","1158.9000005722046","stim/no_23_1.png","j","pattern_08","j","true","","","","1158.9000005722046","true","34","","","","","","","","","","","","","","","","",""
"","","","","","html-keyboard-response","230","1971876","0.0-3.0-7.0-0.3","5ad0f1934d061300011b0a4d","C3","batch3","pattern_show_trial_num","null","<p class=block-text>Trial 43 out of 78</p>","null","","","","","","","","","","","","","","","","","","","","","","","","","",""
"","","","","","image-keyboard-response","231","1975120","0.0-3.0-7.0-1.3","5ad0f1934d061300011b0a4d","C3","batch3","pattern_response","3241.8999996185303","stim/no_36_2_w.png","j","pattern_18","j","true","","","","3241.8999996185303","true","35","","","","","","","","","","","","","","","","",""
"","","","","","html-keyboard-response","232","1976436","0.0-3.0-7.0-0.4","5ad0f1934d061300011b0a4d","C3","batch3","pattern_show_trial_num","null","<p class=block-text>Trial 44 out of 78</p>","null","","","","","","","","","","","","","","","","","","","","","","","","","",""
"","","","","","image-keyboard-response","233","1978449","0.0-3.0-7.0-1.4","5ad0f1934d061300011b0a4d","C3","batch3","pattern_response","2011","stim/no_32_1_w.png","j","pattern_14","j","true","","","","2011","true","36","","","","","","","","","","","","","","","","",""
"","","","","","html-keyboard-response","234","1979765","0.0-3.0-7.0-0.5","5ad0f1934d061300011b0a4d","C3","batch3","pattern_show_trial_num","null","<p class=block-text>Trial 45 out of 78</p>","null","","","","","","","","","","","","","","","","","","","","","","","","","",""
"","","","","","image-keyboard-response","235","1981373","0.0-3.0-7.0-1.5","5ad0f1934d061300011b0a4d","C3","batch3","pattern_response","1605.7000007629395","stim/yes_40_dia_b1_b.png","j","pattern_63","f","false","","","","1605.7000007629395","false","36","","","","","","","","","","","","","","","","",""
"","","","","","html-keyboard-response","236","1982680","0.0-3.0-7.0-0.6","5ad0f1934d061300011b0a4d","C3","batch3","pattern_show_trial_num","null","<p class=block-text>Trial 46 out of 78</p>","null","","","","","","","","","","","","","","","","","","","","","","","","","",""
"","","","","","image-keyboard-response","237","1983435","0.0-3.0-7.0-1.6","5ad0f1934d061300011b0a4d","C3","batch3","pattern_response","753.1999998092651","stim/yes_43_ver_w1_w.png","f","pattern_65","f","true","","","","753.1999998092651","true","37","","","","","","","","","","","","","","","","",""
"","","","","","html-keyboard-response","238","1984768","0.0-3.0-7.0-0.7","5ad0f1934d061300011b0a4d","C3","batch3","pattern_show_trial_num","null","<p class=block-text>Trial 47 out of 78</p>","null","","","","","","","","","","","","","","","","","","","","","","","","","",""
"","","","","","image-keyboard-response","239","1985371","0.0-3.0-7.0-1.7","5ad0f1934d061300011b0a4d","C3","batch3","pattern_response","600.9000005722046","stim/yes_22_ver_w1.png","f","pattern_47","f","true","","","","600.9000005722046","true","38","","","","","","","","","","","","","","","","",""
"","","","","","html-keyboard-response","240","1986684","0.0-3.0-7.0-0.8","5ad0f1934d061300011b0a4d","C3","batch3","pattern_show_trial_num","null","<p class=block-text>Trial 48 out of 78</p>","null","","","","","","","","","","","","","","","","","","","","","","","","","",""
"","","","","","image-keyboard-response","241","1987681","0.0-3.0-7.0-1.8","5ad0f1934d061300011b0a4d","C3","batch3","pattern_response","995","stim/no_26_1_w.png","j","pattern_10","j","true","","","","995","true","39","","","","","","","","","","","","","","","","",""
"","","","","","html-keyboard-response","242","1988989","0.0-3.0-7.0-0.9","5ad0f1934d061300011b0a4d","C3","batch3","pattern_show_trial_num","null","<p class=block-text>Trial 49 out of 78</p>","null","","","","","","","","","","","","","","","","","","","","","","","","","",""
"","","","","","image-keyboard-response","243","1989652","0.0-3.0-7.0-1.9","5ad0f1934d061300011b0a4d","C3","batch3","pattern_response","661","stim/no_13_2_b.png","j","pattern_02","j","true","","","","661","true","40","","","","","","","","","","","","","","","","",""
"","","","","","html-keyboard-response","244","1990967","0.0-3.0-7.0-0.10","5ad0f1934d061300011b0a4d","C3","batch3","pattern_show_trial_num","null","<p class=block-text>Trial 50 out of 78</p>","null","","","","","","","","","","","","","","","","","","","","","","","","","",""
"","","","","","image-keyboard-response","245","1991867","0.0-3.0-7.0-1.10","5ad0f1934d061300011b0a4d","C3","batch3","pattern_response","898.8000001907349","stim/yes_35_dia_b1.png","f","pattern_57","f","true","","","","898.8000001907349","true","41","","","","","","","","","","","","","","","","",""
"","","","","","html-keyboard-response","246","1993173","0.0-3.0-7.0-0.11","5ad0f1934d061300011b0a4d","C3","batch3","pattern_show_trial_num","null","<p class=block-text>Trial 51 out of 78</p>","null","","","","","","","","","","","","","","","","","","","","","","","","","",""
"","","","","","image-keyboard-response","247","1994052","0.0-3.0-7.0-1.11","5ad0f1934d061300011b0a4d","C3","batch3","pattern_response","878.3000001907349","stim/no_48_1_w.png","j","pattern_28","j","true","","","","878.3000001907349","true","42","","","","","","","","","","","","","","","","",""
"","","","","","html-keyboard-response","248","1995368","0.0-3.0-7.0-0.12","5ad0f1934d061300011b0a4d","C3","batch3","pattern_show_trial_num","null","<p class=block-text>Trial 52 out of 78</p>","null","","","","","","","","","","","","","","","","","","","","","","","","","",""
"","","","","","image-keyboard-response","249","1999429","0.0-3.0-7.0-1.12","5ad0f1934d061300011b0a4d","C3","batch3","pattern_response","4058.699999809265","stim/no_65_1_b.png","j","pattern_38","j","true","","","","4058.699999809265","true","43","","","","","","","","","","","","","","","","",""
"","","","","","html-keyboard-response","250","2000735","0.0-3.0-7.0-0.13","5ad0f1934d061300011b0a4d","C3","batch3","pattern_show_trial_num","null","<p class=block-text>Trial 53 out of 78</p>","null","","","","","","","","","","","","","","","","","","","","","","","","","",""
"","","","","","image-keyboard-response","251","2001582","0.0-3.0-7.0-1.13","5ad0f1934d061300011b0a4d","C3","batch3","pattern_response","845.3999996185303","stim/yes_29_ver_w1.png","f","pattern_53","f","true","","","","845.3999996185303","true","44","","","","","","","","","","","","","","","","",""
"","","","","","html-keyboard-response","252","2002901","0.0-3.0-7.0-0.14","5ad0f1934d061300011b0a4d","C3","batch3","pattern_show_trial_num","null","<p class=block-text>Trial 54 out of 78</p>","null","","","","","","","","","","","","","","","","","","","","","","","","","",""
"","","","","","image-keyboard-response","253","2004374","0.0-3.0-7.0-1.14","5ad0f1934d061300011b0a4d","C3","batch3","pattern_response","1472.0999994277954","stim/yes_37_dia_w1.png","f","pattern_59","f","true","","","","1472.0999994277954","true","45","","","","","","","","","","","","","","","","",""
"","","","","","html-keyboard-response","254","2005678","0.0-3.0-7.0-0.15","5ad0f1934d061300011b0a4d","C3","batch3","pattern_show_trial_num","null","<p class=block-text>Trial 55 out of 78</p>","null","","","","","","","","","","","","","","","","","","","","","","","","","",""
"","","","","","image-keyboard-response","255","2006672","0.0-3.0-7.0-1.15","5ad0f1934d061300011b0a4d","C3","batch3","pattern_response","992.5999994277954","stim/yes_31_hor_b1.png","j","pattern_55","f","false","","","","992.5999994277954","false","45","","","","","","","","","","","","","","","","",""
"","","","","","html-keyboard-response","256","2007984","0.0-3.0-7.0-0.16","5ad0f1934d061300011b0a4d","C3","batch3","pattern_show_trial_num","null","<p class=block-text>Trial 56 out of 78</p>","null","","","","","","","","","","","","","","","","","","","","","","","","","",""
"","","","","","image-keyboard-response","257","2009245","0.0-3.0-7.0-1.16","5ad0f1934d061300011b0a4d","C3","batch3","pattern_response","1259.6999998092651","stim/yes_17_dia_w1.png","f","pattern_45","f","true","","","","1259.6999998092651","true","46","","","","","","","","","","","","","","","","",""
"","","","","","html-keyboard-response","258","2010569","0.0-3.0-7.0-0.17","5ad0f1934d061300011b0a4d","C3","batch3","pattern_show_trial_num","null","<p class=block-text>Trial 57 out of 78</p>","null","","","","","","","","","","","","","","","","","","","","","","","","","",""
"","","","","","image-keyboard-response","259","2013319","0.0-3.0-7.0-1.17","5ad0f1934d061300011b0a4d","C3","batch3","pattern_response","2749.300000190735","stim/no_34_1_b.png","j","pattern_16","j","true","","","","2749.300000190735","true","47","","","","","","","","","","","","","","","","",""
"","","","","","html-keyboard-response","260","2014632","0.0-3.0-7.0-0.18","5ad0f1934d061300011b0a4d","C3","batch3","pattern_show_trial_num","null","<p class=block-text>Trial 58 out of 78</p>","null","","","","","","","","","","","","","","","","","","","","","","","","","",""
"","","","","","image-keyboard-response","261","2016659","0.0-3.0-7.0-1.18","5ad0f1934d061300011b0a4d","C3","batch3","pattern_response","2023.5999994277954","stim/yes_45_hor_b2_b.png","f","pattern_67","f","true","","","","2023.5999994277954","true","48","","","","","","","","","","","","","","","","",""
"","","","","","html-keyboard-response","262","2017961","0.0-3.0-7.0-0.19","5ad0f1934d061300011b0a4d","C3","batch3","pattern_show_trial_num","null","<p class=block-text>Trial 59 out of 78</p>","null","","","","","","","","","","","","","","","","","","","","","","","","","",""
"","","","","","image-keyboard-response","263","2019882","0.0-3.0-7.0-1.19","5ad0f1934d061300011b0a4d","C3","batch3","pattern_response","1919.8000001907349","stim/no_50_1.png","j","pattern_30","j","true","","","","1919.8000001907349","true","49","","","","","","","","","","","","","","","","",""
"","","","","","html-keyboard-response","264","2021196","0.0-3.0-7.0-0.20","5ad0f1934d061300011b0a4d","C3","batch3","pattern_show_trial_num","null","<p class=block-text>Trial 60 out of 78</p>","null","","","","","","","","","","","","","","","","","","","","","","","","","",""
"","","","","","image-keyboard-response","265","2024633","0.0-3.0-7.0-1.20","5ad0f1934d061300011b0a4d","C3","batch3","pattern_response","3435.5","stim/no_46_1_b.png","j","pattern_26","j","true","","","","3435.5","true","50","","","","","","","","","","","","","","","","",""
"","","","","","html-keyboard-response","266","2025937","0.0-3.0-7.0-0.21","5ad0f1934d061300011b0a4d","C3","batch3","pattern_show_trial_num","null","<p class=block-text>Trial 61 out of 78</p>","null","","","","","","","","","","","","","","","","","","","","","","","","","",""
"","","","","","image-keyboard-response","267","2028956","0.0-3.0-7.0-1.21","5ad0f1934d061300011b0a4d","C3","batch3","pattern_response","3016.699999809265","stim/no_52_1.png","j","pattern_32","j","true","","","","3016.699999809265","true","51","","","","","","","","","","","","","","","","",""
"","","","","","html-keyboard-response","268","2030271","0.0-3.0-7.0-0.22","5ad0f1934d061300011b0a4d","C3","batch3","pattern_show_trial_num","null","<p class=block-text>Trial 62 out of 78</p>","null","","","","","","","","","","","","","","","","","","","","","","","","","",""
"","","","","","image-keyboard-response","269","2034553","0.0-3.0-7.0-1.22","5ad0f1934d061300011b0a4d","C3","batch3","pattern_response","4279.5","stim/yes_67_hor_b1.png","f","pattern_79","f","true","","","","4279.5","true","52","","","","","","","","","","","","","","","","",""
"","","","","","html-keyboard-response","270","2035867","0.0-3.0-7.0-0.23","5ad0f1934d061300011b0a4d","C3","batch3","pattern_show_trial_num","null","<p class=block-text>Trial 63 out of 78</p>","null","","","","","","","","","","","","","","","","","","","","","","","","","",""
"","","","","","image-keyboard-response","271","2039356","0.0-3.0-7.0-1.23","5ad0f1934d061300011b0a4d","C3","batch3","pattern_response","3487.1000003814697","stim/yes_48_dia_w1_w.png","j","pattern_69","f","false","","","","3487.1000003814697","false","52","","","","","","","","","","","","","","","","",""
"","","","","","html-keyboard-response","272","2040678","0.0-3.0-7.0-0.24","5ad0f1934d061300011b0a4d","C3","batch3","pattern_show_trial_num","null","<p class=block-text>Trial 64 out of 78</p>","null","","","","","","","","","","","","","","","","","","","","","","","","","",""
"","","","","","image-keyboard-response","273","2043331","0.0-3.0-7.0-1.24","5ad0f1934d061300011b0a4d","C3","batch3","pattern_response","2650.3999996185303","stim/yes_52_ver_w1.png","j","pattern_73","f","false","","","","2650.3999996185303","false","52","","","","","","","","","","","","","","","","",""
"","","","","","html-keyboard-response","274","2044648","0.0-3.0-7.0-0.25","5ad0f1934d061300011b0a4d","C3","batch3","pattern_show_trial_num","null","<p class=block-text>Trial 65 out of 78</p>","null","","","","","","","","","","","","","","","","","","","","","","","","","",""
"","","","","","image-keyboard-response","275","2046559","0.0-3.0-7.0-1.25","5ad0f1934d061300011b0a4d","C3","batch3","pattern_response","1909.5","stim/no_29_1_b.png","j","pattern_12","j","true","","","","1909.5","true","53","","","","","","","","","","","","","","","","",""
"","","","","","html-keyboard-response","276","2047868","0.0-3.0-7.0-0.26","5ad0f1934d061300011b0a4d","C3","batch3","pattern_show_trial_num","null","<p class=block-text>Trial 66 out of 78</p>","null","","","","","","","","","","","","","","","","","","","","","","","","","",""
"","","","","","image-keyboard-response","277","2049766","0.0-3.0-7.0-1.26","5ad0f1934d061300011b0a4d","C3","batch3","pattern_response","1896.5","stim/no_42_1_w.png","j","pattern_22","j","true","","","","1896.5","true","54","","","","","","","","","","","","","","","","",""
"","","","","","html-keyboard-response","278","2051082","0.0-3.0-7.0-0.27","5ad0f1934d061300011b0a4d","C3","batch3","pattern_show_trial_num","null","<p class=block-text>Trial 67 out of 78</p>","null","","","","","","","","","","","","","","","","","","","","","","","","","",""
"","","","","","image-keyboard-response","279","2053934","0.0-3.0-7.0-1.27","5ad0f1934d061300011b0a4d","C3","batch3","pattern_response","2850.300000190735","stim/no_44_1.png","j","pattern_24","j","true","","","","2850.300000190735","true","55","","","","","","","","","","","","","","","","",""
"","","","","","html-keyboard-response","280","2055244","0.0-3.0-7.0-0.28","5ad0f1934d061300011b0a4d","C3","batch3","pattern_show_trial_num","null","<p class=block-text>Trial 68 out of 78</p>","null","","","","","","","","","","","","","","","","","","","","","","","","","",""
"","","","","","image-keyboard-response","281","2057030","0.0-3.0-7.0-1.28","5ad0f1934d061300011b0a4d","C3","batch3","pattern_response","1783.0999994277954","stim/yes_38_hor_b1_b.png","f","pattern_61","f","true","","","","1783.0999994277954","true","56","","","","","","","","","","","","","","","","",""
"","","","","","html-keyboard-response","282","2058336","0.0-3.0-7.0-0.29","5ad0f1934d061300011b0a4d","C3","batch3","pattern_show_trial_num","null","<p class=block-text>Trial 69 out of 78</p>","null","","","","","","","","","","","","","","","","","","","","","","","","","",""
"","","","","","image-keyboard-response","283","2064276","0.0-3.0-7.0-1.29","5ad0f1934d061300011b0a4d","C3","batch3","pattern_response","5937.300000190735","stim/no_55_1_w.png","j","pattern_34","j","true","","","","5937.300000190735","true","57","","","","","","","","","","","","","","","","",""
"","","","","","html-keyboard-response","284","2065581","0.0-3.0-7.0-0.30","5ad0f1934d061300011b0a4d","C3","batch3","pattern_show_trial_num","null","<p class=block-text>Trial 70 out of 78</p>","null","","","","","","","","","","","","","","","","","","","","","","","","","",""
"","","","","","image-keyboard-response","285","2069109","0.0-3.0-7.0-1.30","5ad0f1934d061300011b0a4d","C3","batch3","pattern_response","3525.6000003814697","stim/yes_60_ver_b1_b.png","j","pattern_77","f","false","","","","3525.6000003814697","false","57","","","","","","","","","","","","","","","","",""
"","","","","","html-keyboard-response","286","2070417","0.0-3.0-7.0-0.31","5ad0f1934d061300011b0a4d","C3","batch3","pattern_show_trial_num","null","<p class=block-text>Trial 71 out of 78</p>","null","","","","","","","","","","","","","","","","","","","","","","","","","",""
"","","","","","image-keyboard-response","287","2071466","0.0-3.0-7.0-1.31","5ad0f1934d061300011b0a4d","C3","batch3","pattern_response","1045.8999996185303","stim/yes_28_ver_b1.png","f","pattern_51","f","true","","","","1045.8999996185303","true","58","","","","","","","","","","","","","","","","",""
"","","","","","html-keyboard-response","288","2072777","0.0-3.0-7.0-0.32","5ad0f1934d061300011b0a4d","C3","batch3","pattern_show_trial_num","null","<p class=block-text>Trial 72 out of 78</p>","null","","","","","","","","","","","","","","","","","","","","","","","","","",""
"","","","","","image-keyboard-response","289","2074227","0.0-3.0-7.0-1.32","5ad0f1934d061300011b0a4d","C3","batch3","pattern_response","1448","stim/yes_55_hor_w1_w.png","f","pattern_75","f","true","","","","1448","true","59","","","","","","","","","","","","","","","","",""
"","","","","","html-keyboard-response","290","2075537","0.0-3.0-7.0-0.33","5ad0f1934d061300011b0a4d","C3","batch3","pattern_show_trial_num","null","<p class=block-text>Trial 73 out of 78</p>","null","","","","","","","","","","","","","","","","","","","","","","","","","",""
"","","","","","image-keyboard-response","291","2077006","0.0-3.0-7.0-1.33","5ad0f1934d061300011b0a4d","C3","batch3","pattern_response","1466.8999996185303","stim/no_17_1_w.png","j","pattern_04","j","true","","","","1466.8999996185303","true","60","","","","","","","","","","","","","","","","",""
"","","","","","html-keyboard-response","292","2078320","0.0-3.0-7.0-0.34","5ad0f1934d061300011b0a4d","C3","batch3","pattern_show_trial_num","null","<p class=block-text>Trial 74 out of 78</p>","null","","","","","","","","","","","","","","","","","","","","","","","","","",""
"","","","","","image-keyboard-response","293","2080349","0.0-3.0-7.0-1.34","5ad0f1934d061300011b0a4d","C3","batch3","pattern_response","2028.5999994277954","stim/no_20_1_w.png","j","pattern_06","j","true","","","","2028.5999994277954","true","61","","","","","","","","","","","","","","","","",""
"","","","","","html-keyboard-response","294","2081657","0.0-3.0-7.0-0.35","5ad0f1934d061300011b0a4d","C3","batch3","pattern_show_trial_num","null","<p class=block-text>Trial 75 out of 78</p>","null","","","","","","","","","","","","","","","","","","","","","","","","","",""
"","","","","","image-keyboard-response","295","2082743","0.0-3.0-7.0-1.35","5ad0f1934d061300011b0a4d","C3","batch3","pattern_response","1084.3999996185303","stim/yes_25_hor_b1_b.png","f","pattern_49","f","true","","","","1084.3999996185303","true","62","","","","","","","","","","","","","","","","",""
"","","","","","html-keyboard-response","296","2084060","0.0-3.0-7.0-0.36","5ad0f1934d061300011b0a4d","C3","batch3","pattern_show_trial_num","null","<p class=block-text>Trial 76 out of 78</p>","null","","","","","","","","","","","","","","","","","","","","","","","","","",""
"","","","","","image-keyboard-response","297","2089036","0.0-3.0-7.0-1.36","5ad0f1934d061300011b0a4d","C3","batch3","pattern_response","4974.5","stim/no_62_1_w.png","j","pattern_36","j","true","","","","4974.5","true","63","","","","","","","","","","","","","","","","",""
"","","","","","html-keyboard-response","298","2090350","0.0-3.0-7.0-0.37","5ad0f1934d061300011b0a4d","C3","batch3","pattern_show_trial_num","null","<p class=block-text>Trial 77 out of 78</p>","null","","","","","","","","","","","","","","","","","","","","","","","","","",""
"","","","","","image-keyboard-response","299","2091181","0.0-3.0-7.0-1.37","5ad0f1934d061300011b0a4d","C3","batch3","pattern_response","830.3999996185303","stim/yes_14_hor_b1_w.png","f","pattern_43","f","true","","","","830.3999996185303","true","64","","","","","","","","","","","","","","","","",""
"","","","","","html-keyboard-response","300","2092497","0.0-3.0-7.0-0.38","5ad0f1934d061300011b0a4d","C3","batch3","pattern_show_trial_num","null","<p class=block-text>Trial 78 out of 78</p>","null","","","","","","","","","","","","","","","","","","","","","","","","","",""
"","","","","","image-keyboard-response","301","2095173","0.0-3.0-7.0-1.38","5ad0f1934d061300011b0a4d","C3","batch3","pattern_response","2674.800000190735","stim/no_38_1_b.png","j","pattern_20","j","true","","","","2674.800000190735","true","65","","","","","","","","","","","","","","","","",""
"","","","","","html-button-response","302","2100038","0.0-3.0-8.0","5ad0f1934d061300011b0a4d","C3","batch3","","4356.199999809265","<p class = block-text>This concludes the 4-in-a-row detection game.Thank you for your responses!<br>
            You responded correctly on 83% of the trials.<br>
            When you are ready, press ""Continue"" button to continue </p>","0","","","","","","","","","","","","","","","","","","","","","","","","","",""
"true","","","","","fullscreen","303","2102061","0.0-4.0-0.0","5ad0f1934d061300011b0a4d","C3","batch3","","","","","","","","","","","","","","","","","","","","","","","","","","","","","",""
"","","","","","instructions","304","2133760","0.0-4.0-1.0-0.0-0.0","5ad0f1934d061300011b0a4d","C3","batch3","tol-instructions","31697.10000038147","","","","","","","","[{""page_index"":0,""viewing_time"":5187.400000572205},{""page_index"":1,""viewing_time"":2361.5},{""page_index"":2,""viewing_time"":4023},{""page_index"":3,""viewing_time"":8285.29999923706},{""page_index"":4,""viewing_time"":4957.900000572205},{""page_index"":5,""viewing_time"":4884.300000190735},{""page_index"":6,""viewing_time"":1997.3999996185303}]","","","","","","","","","","","","","","","","","","","",""
"","","","","","html-button-response","305","2134558","0.0-4.0-1.0-1.0-0.0","5ad0f1934d061300011b0a4d","C3","batch3","tol_enter_quiz","797","<p class=block-text> Let's answer a few questions <br>","0","","","","","","","","","","","","","","","","","","","","","","","","","",""
"","","","","","html-button-response","306","2136965","0.0-4.0-1.0-1.0-1.0","5ad0f1934d061300011b0a4d","C3","batch3","tol_quiz","2406.1000003814697","<p class = block-text>True or False: You can only move the ball on top of a peg. <br></p>","0","","","true","","","","","","","","","","","","","","","","","","","","","","",""
"","","","","","html-button-response","307","2137643","0.0-4.0-1.0-1.0-2.0","5ad0f1934d061300011b0a4d","C3","batch3","tol_quiz_feedback","677.1000003814697","<p class = block-text>Correct! You can only move the ball on top of a peg.</p>","0","","","","","","","","","","","","","","","","","","","","","","","","","",""
"","","","","","html-button-response","308","2140136","0.0-4.0-1.0-1.0-3.0","5ad0f1934d061300011b0a4d","C3","batch3","tol_quiz","2492.699999809265","<p class = block-text>True or False: You should try to match your board with the target board with fewest moves possible. <br></p>","0","","","true","","","","","","","","","","","","","","","","","","","","","","",""
"","","","","","html-button-response","309","2140624","0.0-4.0-1.0-1.0-4.0","5ad0f1934d061300011b0a4d","C3","batch3","tol_quiz_feedback","487.0999994277954","<p class = block-text>Correct! </p>","0","","","","","","","","","","","","","","","","","","","","","","","","","",""
"","","","","","html-button-response","310","2141666","0.0-4.0-2.0","5ad0f1934d061300011b0a4d","C3","batch3","","1041.3000001907349","<p class=block-text> Now that you've understood the game, let's practice a few easier examples before we start!<br> <br>","0","","","","","","","","","","","","","","","","","","","","","","","","","",""
"","","","","","single-stim-button","311","2143137","0.0-4.0-3.0-0.0","5ad0f1934d061300011b0a4d","C3","batch3","tol_practice","1469","","","","","","","","","","","","","","tol_peg_2","1469","1469","0","[[1,2,0],[0,0],[0]]","1","[[1,2,0],[0,0],[3]]","practice","1469","","","","","",""
"","","","","","single-stim-button","312","2144586","0.0-4.0-3.0-1.0","5ad0f1934d061300011b0a4d","C3","batch3","tol_practice","1449","","","","","","","","","","","","","","tol_peg_3","1449","1449","0","[[1,2,0],[0,0],[3]]","1","[[1,2,0],[0,0],[3]]","practice","1449","","","","","",""
"","","","","","poldrack-single-stim","313","2145588","0.0-4.0-4.0","5ad0f1934d061300011b0a4d","C3","batch3","tol_feedback","-1","","","","","true","","","","","","","","","","1000","1000","500","","","","","","-1","none","true","","0",""
"","","","","","single-stim-button","314","2148198","0.0-4.0-5.0-0.0","5ad0f1934d061300011b0a4d","C3","batch3","tol_practice","2609","","","","","","","","","","","","","","tol_peg_1","2609","2609","0","[[1,0,0],[3,0],[0]]","2","[[0,0,0],[3,1],[2]]","practice","2609","","","","","",""
"","","","","","single-stim-button","315","2149287","0.0-4.0-5.0-1.0","5ad0f1934d061300011b0a4d","C3","batch3","tol_practice","1089","","","","","","","","","","","","","","tol_peg_3","1089","1089","0","[[1,0,0],[3,0],[2]]","2","[[0,0,0],[3,1],[2]]","practice","1089","","","","","",""
"","","","","","single-stim-button","316","2151241","0.0-4.0-5.1-0.1","5ad0f1934d061300011b0a4d","C3","batch3","tol_practice","1953","","","","","","","","","","","","","","tol_peg_1","1953","1953","0","[[0,0,0],[3,0],[2]]","3","[[0,0,0],[3,1],[2]]","practice","1953","","","","","",""
"","","","","","single-stim-button","317","2152087","0.0-4.0-5.1-1.1","5ad0f1934d061300011b0a4d","C3","batch3","tol_practice","846","","","","","","","","","","","","","","tol_peg_2","846","846","0","[[0,0,0],[3,1],[2]]","3","[[0,0,0],[3,1],[2]]","practice","846","","","","","",""
"","","","","","poldrack-single-stim","318","2153088","0.0-4.0-6.0","5ad0f1934d061300011b0a4d","C3","batch3","tol_feedback","-1","","","","","true","","","","","","","","","","1000","1000","500","","","","","","-1","none","true","","0",""
"","","","","","single-stim-button","319","2155536","0.0-4.0-7.0-0.0","5ad0f1934d061300011b0a4d","C3","batch3","tol_practice","2446","","","","","","","","","","","","","","tol_peg_2","2446","2446","0","[[1,2,0],[0,0],[0]]","4","[[1,0,0],[2,0],[3]]","practice","2446","","","","","",""
"","","","","","single-stim-button","320","2156329","0.0-4.0-7.0-1.0","5ad0f1934d061300011b0a4d","C3","batch3","tol_practice","793","","","","","","","","","","","","","","tol_peg_3","793","793","0","[[1,2,0],[0,0],[3]]","4","[[1,0,0],[2,0],[3]]","practice","793","","","","","",""
"","","","","","single-stim-button","321","2157076","0.0-4.0-7.1-0.1","5ad0f1934d061300011b0a4d","C3","batch3","tol_practice","746","","","","","","","","","","","","","","tol_peg_1","746","746","0","[[1,0,0],[0,0],[3]]","5","[[1,0,0],[2,0],[3]]","practice","746","","","","","",""
"","","","","","single-stim-button","322","2157670","0.0-4.0-7.1-1.1","5ad0f1934d061300011b0a4d","C3","batch3","tol_practice","593","","","","","","","","","","","","","","tol_peg_2","593","593","0","[[1,0,0],[2,0],[3]]","5","[[1,0,0],[2,0],[3]]","practice","593","","","","","",""
"","","","","","poldrack-single-stim","323","2158672","0.0-4.0-8.0","5ad0f1934d061300011b0a4d","C3","batch3","tol_feedback","-1","","","","","true","","","","","","","","","","1000","1000","500","","","","","","-1","none","true","","0",""
"","","","","","html-button-response","324","2161339","0.0-4.0-9.0","5ad0f1934d061300011b0a4d","C3","batch3","tol_instruction","2665.699999809265","<div class = centerbox><p class = center-block-text>Great job! You are done with practice trials<br>You are about to start official trials.<br> <br> Problem <strong>1</strong> out of 25 problems</p></div>","0","","","","","","","","","","","","","","","","","","","","","","","","","",""
"","","","","","single-stim-button","325","2165080","0.0-4.0-10.0-0.0","5ad0f1934d061300011b0a4d","C3","batch3","tol_tohand","2731","","","","","","","","","","","","","","tol_peg_2","2731","2731","0","[[1,2,0],[0,0],[0]]","1","[[1,3,0],[2,0],[0]]","0","0","","","","","","3"
"","","","","","single-stim-button","326","2165918","0.0-4.0-10.0-1.0","5ad0f1934d061300011b0a4d","C3","batch3","tol_toboard","836","","","","","","","","","","","","","","tol_peg_3","836","836","0","[[1,2,0],[0,0],[3]]","1","[[1,3,0],[2,0],[0]]","0","0","","","","","","3"
"","","","","","single-stim-button","327","2167265","0.0-4.0-10.1-0.1","5ad0f1934d061300011b0a4d","C3","batch3","tol_tohand","1347","","","","","","","","","","","","","","tol_peg_1","1347","1347","0","[[1,0,0],[0,0],[3]]","2","[[1,3,0],[2,0],[0]]","0","0","","","","","","3"
"","","","","","single-stim-button","328","2168063","0.0-4.0-10.1-1.1","5ad0f1934d061300011b0a4d","C3","batch3","tol_toboard","797","","","","","","","","","","","","","","tol_peg_2","797","797","0","[[1,0,0],[2,0],[3]]","2","[[1,3,0],[2,0],[0]]","0","0","","","","","","3"
"","","","","","single-stim-button","329","2168626","0.0-4.0-10.2-0.2","5ad0f1934d061300011b0a4d","C3","batch3","tol_tohand","563","","","","","","","","","","","","","","tol_peg_3","563","563","0","[[1,0,0],[2,0],[0]]","3","[[1,3,0],[2,0],[0]]","0","0","","","","","","3"
"","","","","","single-stim-button","330","2169321","0.0-4.0-10.2-1.2","5ad0f1934d061300011b0a4d","C3","batch3","tol_toboard","694","","","","","","","","","","","","","","tol_peg_1","694","694","0","[[1,3,0],[2,0],[0]]","3","[[1,3,0],[2,0],[0]]","0","0","","","","","","3"
"","","","","","poldrack-single-stim","331","2170327","0.0-4.0-11.0","5ad0f1934d061300011b0a4d","C3","batch3","tol_feedback","-1","","","","","true","","","","","","","","","","1000","1000","500","","","","","","-1","none","true","2731","4641",""
"","","","","","html-button-response","332","2171018","0.0-4.0-12.0","5ad0f1934d061300011b0a4d","C3","batch3","tol_trial_num","690.1000003814697","<div class = centerbox><p class = center-block-text>problem <strong>2</strong> out of 25 problems</p></div>","0","","","","","","","","","","","","","","","","","","","","","","","","","",""
"","","","","","single-stim-button","333","2173360","0.0-4.0-13.0-0.0","5ad0f1934d061300011b0a4d","C3","batch3","tol_tohand","2342","","","","","","","","","","","","","","tol_peg_1","2342","2342","0","[[1,0,0],[3,0],[0]]","1","[[2,1,3],[0,0],[0]]","1","0","","","","","","5"
"","","","","","single-stim-button","334","2173964","0.0-4.0-13.0-1.0","5ad0f1934d061300011b0a4d","C3","batch3","tol_toboard","603","","","","","","","","","","","","","","tol_peg_3","603","603","0","[[1,0,0],[3,0],[2]]","1","[[2,1,3],[0,0],[0]]","1","0","","","","","","5"
"","","","","","single-stim-button","335","2179731","0.0-4.0-13.1-0.1","5ad0f1934d061300011b0a4d","C3","batch3","tol_tohand","5766","","","","","","","","","","","","","","tol_peg_3","5766","5766","0","[[1,0,0],[3,0],[0]]","2","[[2,1,3],[0,0],[0]]","1","0","","","","","","5"
"","","","","","single-stim-button","336","2180483","0.0-4.0-13.1-1.1","5ad0f1934d061300011b0a4d","C3","batch3","tol_toboard","752","","","","","","","","","","","","","","tol_peg_2","752","752","0","[[1,0,0],[3,2],[0]]","2","[[2,1,3],[0,0],[0]]","1","0","","","","","","5"
"","","","","","single-stim-button","337","2181617","0.0-4.0-13.2-0.2","5ad0f1934d061300011b0a4d","C3","batch3","tol_tohand","1133","","","","","","","","","","","","","","tol_peg_1","1133","1133","0","[[0,0,0],[3,2],[0]]","3","[[2,1,3],[0,0],[0]]","1","0","","","","","","5"
"","","","","","single-stim-button","338","2183289","0.0-4.0-13.2-1.2","5ad0f1934d061300011b0a4d","C3","batch3","tol_toboard","1671","","","","","","","","","","","","","","tol_peg_3","1671","1671","0","[[0,0,0],[3,2],[1]]","3","[[2,1,3],[0,0],[0]]","1","0","","","","","","5"
"","","","","","single-stim-button","339","2183719","0.0-4.0-13.3-0.3","5ad0f1934d061300011b0a4d","C3","batch3","tol_tohand","429","","","","","","","","","","","","","","tol_peg_2","429","429","0","[[0,0,0],[3,0],[1]]","4","[[2,1,3],[0,0],[0]]","1","0","","","","","","5"
"","","","","","single-stim-button","340","2184242","0.0-4.0-13.3-1.3","5ad0f1934d061300011b0a4d","C3","batch3","tol_toboard","523","","","","","","","","","","","","","","tol_peg_1","523","523","0","[[2,0,0],[3,0],[1]]","4","[[2,1,3],[0,0],[0]]","1","0","","","","","","5"
"","","","","","single-stim-button","341","2184790","0.0-4.0-13.4-0.4","5ad0f1934d061300011b0a4d","C3","batch3","tol_tohand","547","","","","","","","","","","","","","","tol_peg_3","547","547","0","[[2,0,0],[3,0],[0]]","5","[[2,1,3],[0,0],[0]]","1","0","","","","","","5"
"","","","","","single-stim-button","342","2185487","0.0-4.0-13.4-1.4","5ad0f1934d061300011b0a4d","C3","batch3","tol_toboard","696","","","","","","","","","","","","","","tol_peg_1","696","696","0","[[2,1,0],[3,0],[0]]","5","[[2,1,3],[0,0],[0]]","1","0","","","","","","5"
"","","","","","single-stim-button","343","2185945","0.0-4.0-13.5-0.5","5ad0f1934d061300011b0a4d","C3","batch3","tol_tohand","456","","","","","","","","","","","","","","tol_peg_2","456","456","0","[[2,1,0],[0,0],[0]]","6","[[2,1,3],[0,0],[0]]","1","0","","","","","","5"
"","","","","","single-stim-button","344","2186582","0.0-4.0-13.5-1.5","5ad0f1934d061300011b0a4d","C3","batch3","tol_toboard","637","","","","","","","","","","","","","","tol_peg_1","637","637","0","[[2,1,3],[0,0],[0]]","6","[[2,1,3],[0,0],[0]]","1","0","","","","","","5"
"","","","","","poldrack-single-stim","345","2187598","0.0-4.0-14.0","5ad0f1934d061300011b0a4d","C3","batch3","tol_feedback","-1","","","","","true","","","","","","","","","","1000","1000","500","","","","","","-1","none","true","2342","10673",""
"","","","","","html-button-response","346","2188159","0.0-4.0-15.0","5ad0f1934d061300011b0a4d","C3","batch3","tol_trial_num","559.7999992370605","<div class = centerbox><p class = center-block-text>problem <strong>3</strong> out of 25 problems</p></div>","0","","","","","","","","","","","","","","","","","","","","","","","","","",""
