"success","timeout","failed_images","failed_audio","failed_video","trial_type","trial_index","time_elapsed","internal_node_id","subject_id","study_id","session_id","view_history","rt","stimulus","response","task","correct","answer","item","fiar_detect_rt","fiar_detect_correct","total_correct_fiar_detect","post_trial_gap","choices","mouse_click","stim_duration","block_duration","timing_post_trial","current_position","tol_num_moves_made","tol_target","tol_problem_id","tol_rt","key_press","possible_responses","tol_correct","preplanning","tol_rt_per_trial","tol_min_moves","spm_correct","spm_rt"
"true","false","[]","[]","[]","preload","0","16141","0.0-0.0","5ade6f4709eae2000112e9e2","B2","batch2","","","","","","","","","","","","","","","","","","","","","","","","","","","","","",""
"true","","","","","fullscreen","1","30014","0.0-1.0-0.0","5ade6f4709eae2000112e9e2","B2","batch2","","","","","","","","","","","","","","","","","","","","","","","","","","","","","",""
"true","","","","","fullscreen","2","32920","0.0-2.0-0.0","5ade6f4709eae2000112e9e2","B2","batch2","","","","","","","","","","","","","","","","","","","","","","","","","","","","","",""
"","","","","","instructions","3","37510","0.0-2.0-1.0-0.0","5ade6f4709eae2000112e9e2","B2","batch2","[{""page_index"":0,""viewing_time"":2109.699999999255},{""page_index"":1,""viewing_time"":2478.5}]","4588.5999999996275","","","","","","","","","","","","","","","","","","","","","","","","","","","",""
"","","","","","html-button-response","4","38510","0.0-2.0-1.0-1.0-0.0","5ade6f4709eae2000112e9e2","B2","batch2","","998.9000000003725","<p class=block-text> Let's answer a few questions <br>","0","pattern_enter_quiz","","","","","","","","","","","","","","","","","","","","","","","","",""
"","","","","","html-button-response","5","44124","0.0-2.0-1.0-1.0-1.0","5ade6f4709eae2000112e9e2","B2","batch2","","5612.5","<p class = block-text>True or False: You will have as much time as you want to make each choice. <br></p>","0","pattern_quiz","false","","","","","","","","","","","","","","","","","","","","","","","",""
"","","","","","html-button-response","6","45795","0.0-2.0-1.0-1.0-2.0","5ade6f4709eae2000112e9e2","B2","batch2","","1669.9000000003725","<p class = block-text>Incorrect. Remember, You should make your choice as fast as you can.</p>","0","pattern_quiz_feedback","","","","","","","","","","","","","","","","","","","","","","","","",""
"","","","","","html-button-response","7","51402","0.0-2.0-1.0-1.0-3.0","5ade6f4709eae2000112e9e2","B2","batch2","","5606.200000001118","<p class = block-text>True or False: You will look for 4 pieces in black or white color connected in a row either horizontally, vertically or diagonally. <br></p>","1","pattern_quiz","false","","","","","","","","","","","","","","","","","","","","","","","",""
"","","","","","html-button-response","8","55488","0.0-2.0-1.0-1.0-4.0","5ade6f4709eae2000112e9e2","B2","batch2","","4084.7000000011176","<p class = block-text>Incorrect. Remember, will look for 4 pieces connected in a row either in black or white color, and either in horizontal, vertical or diagonal direction.</p>","0","pattern_quiz_feedback","","","","","","","","","","","","","","","","","","","","","","","","",""
"","","","","","html-button-response","9","57759","0.0-2.0-1.0-2.0-0.0","5ade6f4709eae2000112e9e2","B2","batch2","","2269.0999999996275","<p class = block-text>You made too many incorrect choices.</p><p class = block-text>You will now repeat the instruction and quiz</p>","0","","","","","","","","","","","","","","","","","","","","","","","","","",""
"","","","","","instructions","10","70667","0.0-2.0-1.1-0.1","5ade6f4709eae2000112e9e2","B2","batch2","[{""page_index"":0,""viewing_time"":8836.199999999255},{""page_index"":1,""viewing_time"":4071}]","12907.5","","","","","","","","","","","","","","","","","","","","","","","","","","","",""
"","","","","","html-button-response","11","71530","0.0-2.0-1.1-1.1-0.1","5ade6f4709eae2000112e9e2","B2","batch2","","861.7000000011176","<p class=block-text> Let's answer a few questions <br>","0","pattern_enter_quiz","","","","","","","","","","","","","","","","","","","","","","","","",""
"","","","","","html-button-response","12","72827","0.0-2.0-1.1-1.1-1.1","5ade6f4709eae2000112e9e2","B2","batch2","","1295.800000000745","<p class = block-text>True or False: You will have as much time as you want to make each choice. <br></p>","1","pattern_quiz","true","","","","","","","","","","","","","","","","","","","","","","","",""
"","","","","","html-button-response","13","73514","0.0-2.0-1.1-1.1-2.1","5ade6f4709eae2000112e9e2","B2","batch2","","685.6999999992549","<p class = block-text>Correct! You should make your choice <strong> as fast as you can</strong>.</p>","0","pattern_quiz_feedback","","","","","","","","","","","","","","","","","","","","","","","","",""
"","","","","","html-button-response","14","75209","0.0-2.0-1.1-1.1-3.1","5ade6f4709eae2000112e9e2","B2","batch2","","1694.5999999996275","<p class = block-text>True or False: You will look for 4 pieces in black or white color connected in a row either horizontally, vertically or diagonally. <br></p>","0","pattern_quiz","true","","","","","","","","","","","","","","","","","","","","","","","",""
"","","","","","html-button-response","15","76032","0.0-2.0-1.1-1.1-4.1","5ade6f4709eae2000112e9e2","B2","batch2","","821.6999999992549","<p class = block-text>Correct! </p>","0","pattern_quiz_feedback","","","","","","","","","","","","","","","","","","","","","","","","",""
"","","","","","html-button-response","16","77656","0.0-2.0-2.0","5ade6f4709eae2000112e9e2","B2","batch2","","1622.5","<p class=block-text> Now that you've understood the game, let's do a few practice trials before we start!<br> <br>","0","pattern_enter_practice","","","","","","","","","","","","","","","","","","","","","","","","",""
"","","","","","image-keyboard-response","17","80366","0.0-2.0-3.0-0.0","5ade6f4709eae2000112e9e2","B2","batch2","","2703.0999999996275","stim/prac_yes_20_dia_b1.png","f","pattern_practice","true","f","","","","","","","","","","","","","","","","","","","","","","",""
"","","","","","html-keyboard-response","18","81392","0.0-2.0-3.0-1.0","5ade6f4709eae2000112e9e2","B2","batch2","","null","<p style=""font-size:30px;color:green;"">Correct!</p>","null","pattern_feedback","","","","","","","","","","","","","","","","","","","","","","","","",""
"","","","","","image-keyboard-response","19","85725","0.0-2.0-3.0-0.1","5ade6f4709eae2000112e9e2","B2","batch2","","4331.9000000003725","stim/prac_no_16_1.png","j","pattern_practice","true","j","","","","","","","","","","","","","","","","","","","","","","",""
"","","","","","html-keyboard-response","20","86738","0.0-2.0-3.0-1.1","5ade6f4709eae2000112e9e2","B2","batch2","","null","<p style=""font-size:30px;color:green;"">Correct!</p>","null","pattern_feedback","","","","","","","","","","","","","","","","","","","","","","","","",""
"","","","","","image-keyboard-response","21","88351","0.0-2.0-3.0-0.2","5ade6f4709eae2000112e9e2","B2","batch2","","1611.0999999996275","stim/prac_no_18_1.png","j","pattern_practice","true","j","","","","","","","","","","","","","","","","","","","","","","",""
"","","","","","html-keyboard-response","22","89375","0.0-2.0-3.0-1.2","5ade6f4709eae2000112e9e2","B2","batch2","","null","<p style=""font-size:30px;color:green;"">Correct!</p>","null","pattern_feedback","","","","","","","","","","","","","","","","","","","","","","","","",""
"","","","","","image-keyboard-response","23","90094","0.0-2.0-3.0-0.3","5ade6f4709eae2000112e9e2","B2","batch2","","718","stim/prac_yes_16_ver_w1.png","f","pattern_practice","true","f","","","","","","","","","","","","","","","","","","","","","","",""
"","","","","","html-keyboard-response","24","91111","0.0-2.0-3.0-1.3","5ade6f4709eae2000112e9e2","B2","batch2","","null","<p style=""font-size:30px;color:green;"">Correct!</p>","null","pattern_feedback","","","","","","","","","","","","","","","","","","","","","","","","",""
"","","","","","image-keyboard-response","25","91814","0.0-2.0-3.0-0.4","5ade6f4709eae2000112e9e2","B2","batch2","","702.2000000011176","stim/prac_yes_18_hor_w1.png","f","pattern_practice","true","f","","","","","","","","","","","","","","","","","","","","","","",""
"","","","","","html-keyboard-response","26","92826","0.0-2.0-3.0-1.4","5ade6f4709eae2000112e9e2","B2","batch2","","null","<p style=""font-size:30px;color:green;"">Correct!</p>","null","pattern_feedback","","","","","","","","","","","","","","","","","","","","","","","","",""
"","","","","","html-button-response","27","97024","0.0-2.0-4.0","5ade6f4709eae2000112e9e2","B2","batch2","","4197.10000000149","<p class=block-text> Good job! You are done with practice trials!<br>
        You responded correctly on 100% of the trials.<br>
        Press the button below to start official trials. Now you won't see any feedback about your response</p>","0","pattern_enter_official_trials","","","","","","","","","","","","","","","","","","","","","","","","",""
"","","","","","html-keyboard-response","28","97826","0.0-2.0-5.0-0.0","5ade6f4709eae2000112e9e2","B2","batch2","","null","<p class=block-text>Trial 1 out of 78</p>","null","pattern_show_trial_num","","","","","","","","","","","","","","","","","","","","","","","","",""
"","","","","","image-keyboard-response","29","99934","0.0-2.0-5.0-1.0","5ade6f4709eae2000112e9e2","B2","batch2","","2106.199999999255","stim/no_25_1_b.png","j","pattern_response","true","j","pattern_09","2106.199999999255","true","1","","","","","","","","","","","","","","","","","","",""
"","","","","","html-keyboard-response","30","101244","0.0-2.0-5.0-0.1","5ade6f4709eae2000112e9e2","B2","batch2","","null","<p class=block-text>Trial 2 out of 78</p>","null","pattern_show_trial_num","","","","","","","","","","","","","","","","","","","","","","","","",""
"","","","","","image-keyboard-response","31","106830","0.0-2.0-5.0-1.1","5ade6f4709eae2000112e9e2","B2","batch2","","5584.799999998882","stim/no_53_1_b.png","j","pattern_response","true","j","pattern_33","5584.799999998882","true","2","","","","","","","","","","","","","","","","","","",""
"","","","","","html-keyboard-response","32","108148","0.0-2.0-5.0-0.2","5ade6f4709eae2000112e9e2","B2","batch2","","null","<p class=block-text>Trial 3 out of 78</p>","null","pattern_show_trial_num","","","","","","","","","","","","","","","","","","","","","","","","",""
"","","","","","image-keyboard-response","33","111542","0.0-2.0-5.0-1.2","5ade6f4709eae2000112e9e2","B2","batch2","","3392.9000000003725","stim/no_43_2_b.png","j","pattern_response","true","j","pattern_23","3392.9000000003725","true","3","","","","","","","","","","","","","","","","","","",""
"","","","","","html-keyboard-response","34","112856","0.0-2.0-5.0-0.3","5ade6f4709eae2000112e9e2","B2","batch2","","null","<p class=block-text>Trial 4 out of 78</p>","null","pattern_show_trial_num","","","","","","","","","","","","","","","","","","","","","","","","",""
"","","","","","image-keyboard-response","35","116062","0.0-2.0-5.0-1.3","5ade6f4709eae2000112e9e2","B2","batch2","","3204.5","stim/no_33_1_b.png","j","pattern_response","true","j","pattern_15","3204.5","true","4","","","","","","","","","","","","","","","","","","",""
"","","","","","html-keyboard-response","36","117382","0.0-2.0-5.0-0.4","5ade6f4709eae2000112e9e2","B2","batch2","","null","<p class=block-text>Trial 5 out of 78</p>","null","pattern_show_trial_num","","","","","","","","","","","","","","","","","","","","","","","","",""
"","","","","","image-keyboard-response","37","119511","0.0-2.0-5.0-1.4","5ade6f4709eae2000112e9e2","B2","batch2","","2126.9000000003725","stim/no_22_1_b.png","j","pattern_response","true","j","pattern_07","2126.9000000003725","true","5","","","","","","","","","","","","","","","","","","",""
"","","","","","html-keyboard-response","38","120825","0.0-2.0-5.0-0.5","5ade6f4709eae2000112e9e2","B2","batch2","","null","<p class=block-text>Trial 6 out of 78</p>","null","pattern_show_trial_num","","","","","","","","","","","","","","","","","","","","","","","","",""
"","","","","","image-keyboard-response","39","123222","0.0-2.0-5.0-1.5","5ade6f4709eae2000112e9e2","B2","batch2","","2394.9000000003725","stim/yes_33_dia_w1_w.png","f","pattern_response","true","f","pattern_56","2394.9000000003725","true","6","","","","","","","","","","","","","","","","","","",""
"","","","","","html-keyboard-response","40","124542","0.0-2.0-5.0-0.6","5ade6f4709eae2000112e9e2","B2","batch2","","null","<p class=block-text>Trial 7 out of 78</p>","null","pattern_show_trial_num","","","","","","","","","","","","","","","","","","","","","","","","",""
"","","","","","image-keyboard-response","41","125486","0.0-2.0-5.0-1.6","5ade6f4709eae2000112e9e2","B2","batch2","","942.5999999996275","stim/yes_26_dia_w2_w.png","f","pattern_response","true","f","pattern_50","942.5999999996275","true","7","","","","","","","","","","","","","","","","","","",""
"","","","","","html-keyboard-response","42","126793","0.0-2.0-5.0-0.7","5ade6f4709eae2000112e9e2","B2","batch2","","null","<p class=block-text>Trial 8 out of 78</p>","null","pattern_show_trial_num","","","","","","","","","","","","","","","","","","","","","","","","",""
"","","","","","image-keyboard-response","43","127854","0.0-2.0-5.0-1.7","5ade6f4709eae2000112e9e2","B2","batch2","","1059.800000000745","stim/yes_29_hor_b1_b.png","f","pattern_response","true","f","pattern_52","1059.800000000745","true","8","","","","","","","","","","","","","","","","","","",""
"","","","","","html-keyboard-response","44","129167","0.0-2.0-5.0-0.8","5ade6f4709eae2000112e9e2","B2","batch2","","null","<p class=block-text>Trial 9 out of 78</p>","null","pattern_show_trial_num","","","","","","","","","","","","","","","","","","","","","","","","",""
"","","","","","image-keyboard-response","45","130206","0.0-2.0-5.0-1.8","5ade6f4709eae2000112e9e2","B2","batch2","","1036.6000000014901","stim/no_15_1_w.png","j","pattern_response","true","j","pattern_03","1036.6000000014901","true","9","","","","","","","","","","","","","","","","","","",""
"","","","","","html-keyboard-response","46","131517","0.0-2.0-5.0-0.9","5ade6f4709eae2000112e9e2","B2","batch2","","null","<p class=block-text>Trial 10 out of 78</p>","null","pattern_show_trial_num","","","","","","","","","","","","","","","","","","","","","","","","",""
"","","","","","image-keyboard-response","47","132253","0.0-2.0-5.0-1.9","5ade6f4709eae2000112e9e2","B2","batch2","","735","stim/no_49_2_b.png","f","pattern_response","false","j","pattern_29","735","false","9","","","","","","","","","","","","","","","","","","",""
"","","","","","html-keyboard-response","48","133573","0.0-2.0-5.0-0.10","5ade6f4709eae2000112e9e2","B2","batch2","","null","<p class=block-text>Trial 11 out of 78</p>","null","pattern_show_trial_num","","","","","","","","","","","","","","","","","","","","","","","","",""
"","","","","","image-keyboard-response","49","134406","0.0-2.0-5.0-1.10","5ade6f4709eae2000112e9e2","B2","batch2","","831.6999999992549","stim/yes_49_hor_w1_b.png","f","pattern_response","true","f","pattern_70","831.6999999992549","true","10","","","","","","","","","","","","","","","","","","",""
"","","","","","html-keyboard-response","50","135718","0.0-2.0-5.0-0.11","5ade6f4709eae2000112e9e2","B2","batch2","","null","<p class=block-text>Trial 12 out of 78</p>","null","pattern_show_trial_num","","","","","","","","","","","","","","","","","","","","","","","","",""
"","","","","","image-keyboard-response","51","136518","0.0-2.0-5.0-1.11","5ade6f4709eae2000112e9e2","B2","batch2","","798","stim/no_18_1_b.png","j","pattern_response","true","j","pattern_05","798","true","11","","","","","","","","","","","","","","","","","","",""
"","","","","","html-keyboard-response","52","137834","0.0-2.0-5.0-0.12","5ade6f4709eae2000112e9e2","B2","batch2","","null","<p class=block-text>Trial 13 out of 78</p>","null","pattern_show_trial_num","","","","","","","","","","","","","","","","","","","","","","","","",""
"","","","","","image-keyboard-response","53","141070","0.0-2.0-5.0-1.12","5ade6f4709eae2000112e9e2","B2","batch2","","3234.39999999851","stim/no_51_1.png","j","pattern_response","true","j","pattern_31","3234.39999999851","true","12","","","","","","","","","","","","","","","","","","",""
"","","","","","html-keyboard-response","54","142383","0.0-2.0-5.0-0.13","5ade6f4709eae2000112e9e2","B2","batch2","","null","<p class=block-text>Trial 14 out of 78</p>","null","pattern_show_trial_num","","","","","","","","","","","","","","","","","","","","","","","","",""
"","","","","","image-keyboard-response","55","145015","0.0-2.0-5.0-1.13","5ade6f4709eae2000112e9e2","B2","batch2","","2630.5","stim/no_28_2.png","j","pattern_response","true","j","pattern_11","2630.5","true","13","","","","","","","","","","","","","","","","","","",""
"","","","","","html-keyboard-response","56","146334","0.0-2.0-5.0-0.14","5ade6f4709eae2000112e9e2","B2","batch2","","null","<p class=block-text>Trial 15 out of 78</p>","null","pattern_show_trial_num","","","","","","","","","","","","","","","","","","","","","","","","",""
"","","","","","image-keyboard-response","57","149318","0.0-2.0-5.0-1.14","5ade6f4709eae2000112e9e2","B2","batch2","","2982.800000000745","stim/no_47_1_b.png","j","pattern_response","true","j","pattern_27","2982.800000000745","true","14","","","","","","","","","","","","","","","","","","",""
"","","","","","html-keyboard-response","58","150637","0.0-2.0-5.0-0.15","5ade6f4709eae2000112e9e2","B2","batch2","","null","<p class=block-text>Trial 16 out of 78</p>","null","pattern_show_trial_num","","","","","","","","","","","","","","","","","","","","","","","","",""
"","","","","","image-keyboard-response","59","151574","0.0-2.0-5.0-1.15","5ade6f4709eae2000112e9e2","B2","batch2","","934.4000000003725","stim/yes_36_ver_w1_w.png","f","pattern_response","true","f","pattern_58","934.4000000003725","true","15","","","","","","","","","","","","","","","","","","",""
"","","","","","html-keyboard-response","60","152878","0.0-2.0-5.0-0.16","5ade6f4709eae2000112e9e2","B2","batch2","","null","<p class=block-text>Trial 17 out of 78</p>","null","pattern_show_trial_num","","","","","","","","","","","","","","","","","","","","","","","","",""
"","","","","","image-keyboard-response","61","153694","0.0-2.0-5.0-1.16","5ade6f4709eae2000112e9e2","B2","batch2","","814.1999999992549","stim/no_12_1.png","j","pattern_response","true","j","pattern_01","814.1999999992549","true","16","","","","","","","","","","","","","","","","","","",""
"","","","","","html-keyboard-response","62","155014","0.0-2.0-5.0-0.17","5ade6f4709eae2000112e9e2","B2","batch2","","null","<p class=block-text>Trial 18 out of 78</p>","null","pattern_show_trial_num","","","","","","","","","","","","","","","","","","","","","","","","",""
"","","","","","image-keyboard-response","63","155830","0.0-2.0-5.0-1.17","5ade6f4709eae2000112e9e2","B2","batch2","","815.7000000011176","stim/yes_15_dia_b1u_b.png","f","pattern_response","true","f","pattern_44","815.7000000011176","true","17","","","","","","","","","","","","","","","","","","",""
"","","","","","html-keyboard-response","64","157145","0.0-2.0-5.0-0.18","5ade6f4709eae2000112e9e2","B2","batch2","","null","<p class=block-text>Trial 19 out of 78</p>","null","pattern_show_trial_num","","","","","","","","","","","","","","","","","","","","","","","","",""
"","","","","","image-keyboard-response","65","157853","0.0-2.0-5.0-1.18","5ade6f4709eae2000112e9e2","B2","batch2","","707","stim/yes_12_hor_w1_w.png","f","pattern_response","true","f","pattern_42","707","true","18","","","","","","","","","","","","","","","","","","",""
"","","","","","html-keyboard-response","66","159168","0.0-2.0-5.0-0.19","5ade6f4709eae2000112e9e2","B2","batch2","","null","<p class=block-text>Trial 20 out of 78</p>","null","pattern_show_trial_num","","","","","","","","","","","","","","","","","","","","","","","","",""
"","","","","","image-keyboard-response","67","162742","0.0-2.0-5.0-1.19","5ade6f4709eae2000112e9e2","B2","batch2","","3572.300000000745","stim/no_39_1_w.png","j","pattern_response","true","j","pattern_21","3572.300000000745","true","19","","","","","","","","","","","","","","","","","","",""
"","","","","","html-keyboard-response","68","164053","0.0-2.0-5.0-0.20","5ade6f4709eae2000112e9e2","B2","batch2","","null","<p class=block-text>Trial 21 out of 78</p>","null","pattern_show_trial_num","","","","","","","","","","","","","","","","","","","","","","","","",""
"","","","","","image-keyboard-response","69","164791","0.0-2.0-5.0-1.20","5ade6f4709eae2000112e9e2","B2","batch2","","735","stim/yes_39_hor_w1_w.png","f","pattern_response","true","f","pattern_62","735","true","20","","","","","","","","","","","","","","","","","","",""
"","","","","","html-keyboard-response","70","166108","0.0-2.0-5.0-0.21","5ade6f4709eae2000112e9e2","B2","batch2","","null","<p class=block-text>Trial 22 out of 78</p>","null","pattern_show_trial_num","","","","","","","","","","","","","","","","","","","","","","","","",""
"","","","","","image-keyboard-response","71","172254","0.0-2.0-5.0-1.21","5ade6f4709eae2000112e9e2","B2","batch2","","6144.9000000003725","stim/no_45_1_w.png","j","pattern_response","true","j","pattern_25","6144.9000000003725","true","21","","","","","","","","","","","","","","","","","","",""
"","","","","","html-keyboard-response","72","173575","0.0-2.0-5.0-0.22","5ade6f4709eae2000112e9e2","B2","batch2","","null","<p class=block-text>Trial 23 out of 78</p>","null","pattern_show_trial_num","","","","","","","","","","","","","","","","","","","","","","","","",""
"","","","","","image-keyboard-response","73","174366","0.0-2.0-5.0-1.22","5ade6f4709eae2000112e9e2","B2","batch2","","789.4000000003725","stim/yes_37_hor_w1_w.png","f","pattern_response","true","f","pattern_60","789.4000000003725","true","22","","","","","","","","","","","","","","","","","","",""
"","","","","","html-keyboard-response","74","175683","0.0-2.0-5.0-0.23","5ade6f4709eae2000112e9e2","B2","batch2","","null","<p class=block-text>Trial 24 out of 78</p>","null","pattern_show_trial_num","","","","","","","","","","","","","","","","","","","","","","","","",""
"","","","","","image-keyboard-response","75","179334","0.0-2.0-5.0-1.23","5ade6f4709eae2000112e9e2","B2","batch2","","3649.39999999851","stim/yes_70_ver_b1.png","f","pattern_response","true","f","pattern_80","3649.39999999851","true","23","","","","","","","","","","","","","","","","","","",""
"","","","","","html-keyboard-response","76","180658","0.0-2.0-5.0-0.24","5ade6f4709eae2000112e9e2","B2","batch2","","null","<p class=block-text>Trial 25 out of 78</p>","null","pattern_show_trial_num","","","","","","","","","","","","","","","","","","","","","","","","",""
"","","","","","image-keyboard-response","77","185519","0.0-2.0-5.0-1.24","5ade6f4709eae2000112e9e2","B2","batch2","","4859.800000000745","stim/yes_58_dia_w1_w.png","j","pattern_response","false","f","pattern_76","4859.800000000745","false","23","","","","","","","","","","","","","","","","","","",""
"","","","","","html-keyboard-response","78","186837","0.0-2.0-5.0-0.25","5ade6f4709eae2000112e9e2","B2","batch2","","null","<p class=block-text>Trial 26 out of 78</p>","null","pattern_show_trial_num","","","","","","","","","","","","","","","","","","","","","","","","",""
"","","","","","image-keyboard-response","79","187854","0.0-2.0-5.0-1.25","5ade6f4709eae2000112e9e2","B2","batch2","","1014.7999999988824","stim/yes_44_ver_w1_w.png","f","pattern_response","true","f","pattern_66","1014.7999999988824","true","24","","","","","","","","","","","","","","","","","","",""
"","","","","","html-keyboard-response","80","189165","0.0-2.0-5.0-0.26","5ade6f4709eae2000112e9e2","B2","batch2","","null","<p class=block-text>Trial 27 out of 78</p>","null","pattern_show_trial_num","","","","","","","","","","","","","","","","","","","","","","","","",""
"","","","","","image-keyboard-response","81","191775","0.0-2.0-5.0-1.26","5ade6f4709eae2000112e9e2","B2","batch2","","2608.800000000745","stim/yes_42_dia_w1_w.png","j","pattern_response","false","f","pattern_64","2608.800000000745","false","24","","","","","","","","","","","","","","","","","","",""
"","","","","","html-keyboard-response","82","193090","0.0-2.0-5.0-0.27","5ade6f4709eae2000112e9e2","B2","batch2","","null","<p class=block-text>Trial 28 out of 78</p>","null","pattern_show_trial_num","","","","","","","","","","","","","","","","","","","","","","","","",""
"","","","","","image-keyboard-response","83","197526","0.0-2.0-5.0-1.27","5ade6f4709eae2000112e9e2","B2","batch2","","4435","stim/no_58_1_w.png","j","pattern_response","true","j","pattern_35","4435","true","25","","","","","","","","","","","","","","","","","","",""
"","","","","","html-keyboard-response","84","198845","0.0-2.0-5.0-0.28","5ade6f4709eae2000112e9e2","B2","batch2","","null","<p class=block-text>Trial 29 out of 78</p>","null","pattern_show_trial_num","","","","","","","","","","","","","","","","","","","","","","","","",""
"","","","","","image-keyboard-response","85","201711","0.0-2.0-5.0-1.28","5ade6f4709eae2000112e9e2","B2","batch2","","2864.300000000745","stim/no_36_1_b.png","j","pattern_response","true","j","pattern_17","2864.300000000745","true","26","","","","","","","","","","","","","","","","","","",""
"","","","","","html-keyboard-response","86","203024","0.0-2.0-5.0-0.29","5ade6f4709eae2000112e9e2","B2","batch2","","null","<p class=block-text>Trial 30 out of 78</p>","null","pattern_show_trial_num","","","","","","","","","","","","","","","","","","","","","","","","",""
"","","","","","image-keyboard-response","87","206967","0.0-2.0-5.0-1.29","5ade6f4709eae2000112e9e2","B2","batch2","","3940.4000000003725","stim/no_37_2_w.png","j","pattern_response","true","j","pattern_19","3940.4000000003725","true","27","","","","","","","","","","","","","","","","","","",""
"","","","","","html-keyboard-response","88","208291","0.0-2.0-5.0-0.30","5ade6f4709eae2000112e9e2","B2","batch2","","null","<p class=block-text>Trial 31 out of 78</p>","null","pattern_show_trial_num","","","","","","","","","","","","","","","","","","","","","","","","",""
"","","","","","image-keyboard-response","89","210182","0.0-2.0-5.0-1.30","5ade6f4709eae2000112e9e2","B2","batch2","","1889.7999999988824","stim/yes_30_ver_b1_b.png","f","pattern_response","true","f","pattern_54","1889.7999999988824","true","28","","","","","","","","","","","","","","","","","","",""
"","","","","","html-keyboard-response","90","211493","0.0-2.0-5.0-0.31","5ade6f4709eae2000112e9e2","B2","batch2","","null","<p class=block-text>Trial 32 out of 78</p>","null","pattern_show_trial_num","","","","","","","","","","","","","","","","","","","","","","","","",""
"","","","","","image-keyboard-response","91","212231","0.0-2.0-5.0-1.31","5ade6f4709eae2000112e9e2","B2","batch2","","735.6999999992549","stim/yes_17_ver_b1_b.png","f","pattern_response","true","f","pattern_46","735.6999999992549","true","29","","","","","","","","","","","","","","","","","","",""
"","","","","","html-keyboard-response","92","213543","0.0-2.0-5.0-0.32","5ade6f4709eae2000112e9e2","B2","batch2","","null","<p class=block-text>Trial 33 out of 78</p>","null","pattern_show_trial_num","","","","","","","","","","","","","","","","","","","","","","","","",""
"","","","","","image-keyboard-response","93","218270","0.0-2.0-5.0-1.32","5ade6f4709eae2000112e9e2","B2","batch2","","4725.300000000745","stim/no_67_1.png","j","pattern_response","true","j","pattern_39","4725.300000000745","true","30","","","","","","","","","","","","","","","","","","",""
"","","","","","html-keyboard-response","94","219585","0.0-2.0-5.0-0.33","5ade6f4709eae2000112e9e2","B2","batch2","","null","<p class=block-text>Trial 34 out of 78</p>","null","pattern_show_trial_num","","","","","","","","","","","","","","","","","","","","","","","","",""
"","","","","","image-keyboard-response","95","220383","0.0-2.0-5.0-1.33","5ade6f4709eae2000112e9e2","B2","batch2","","796.2999999988824","stim/yes_46_ver_b1_b.png","f","pattern_response","true","f","pattern_68","796.2999999988824","true","31","","","","","","","","","","","","","","","","","","",""
"","","","","","html-keyboard-response","96","221694","0.0-2.0-5.0-0.34","5ade6f4709eae2000112e9e2","B2","batch2","","null","<p class=block-text>Trial 35 out of 78</p>","null","pattern_show_trial_num","","","","","","","","","","","","","","","","","","","","","","","","",""
"","","","","","image-keyboard-response","97","222558","0.0-2.0-5.0-1.34","5ade6f4709eae2000112e9e2","B2","batch2","","862.6000000014901","stim/yes_23_ver_b1.png","f","pattern_response","true","f","pattern_48","862.6000000014901","true","32","","","","","","","","","","","","","","","","","","",""
"","","","","","html-keyboard-response","98","223874","0.0-2.0-5.0-0.35","5ade6f4709eae2000112e9e2","B2","batch2","","null","<p class=block-text>Trial 36 out of 78</p>","null","pattern_show_trial_num","","","","","","","","","","","","","","","","","","","","","","","","",""
"","","","","","image-keyboard-response","99","225830","0.0-2.0-5.0-1.35","5ade6f4709eae2000112e9e2","B2","batch2","","1954.800000000745","stim/no_30_1_b.png","j","pattern_response","true","j","pattern_13","1954.800000000745","true","33","","","","","","","","","","","","","","","","","","",""
"","","","","","html-keyboard-response","100","227140","0.0-2.0-5.0-0.36","5ade6f4709eae2000112e9e2","B2","batch2","","null","<p class=block-text>Trial 37 out of 78</p>","null","pattern_show_trial_num","","","","","","","","","","","","","","","","","","","","","","","","",""
"","","","","","image-keyboard-response","101","231374","0.0-2.0-5.0-1.36","5ade6f4709eae2000112e9e2","B2","batch2","","4233.0999999996275","stim/yes_53_ver_b1_b.png","f","pattern_response","true","f","pattern_74","4233.0999999996275","true","34","","","","","","","","","","","","","","","","","","",""
"","","","","","html-keyboard-response","102","232689","0.0-2.0-5.0-0.37","5ade6f4709eae2000112e9e2","B2","batch2","","null","<p class=block-text>Trial 38 out of 78</p>","null","pattern_show_trial_num","","","","","","","","","","","","","","","","","","","","","","","","",""
"","","","","","image-keyboard-response","103","239270","0.0-2.0-5.0-1.37","5ade6f4709eae2000112e9e2","B2","batch2","","6579.700000001118","stim/yes_63_dia_b1.png","j","pattern_response","false","f","pattern_78","6579.700000001118","false","34","","","","","","","","","","","","","","","","","","",""
"","","","","","html-keyboard-response","104","240585","0.0-2.0-5.0-0.38","5ade6f4709eae2000112e9e2","B2","batch2","","null","<p class=block-text>Trial 39 out of 78</p>","null","pattern_show_trial_num","","","","","","","","","","","","","","","","","","","","","","","","",""
"","","","","","image-keyboard-response","105","243270","0.0-2.0-5.0-1.38","5ade6f4709eae2000112e9e2","B2","batch2","","2683.5","stim/yes_51_dia_b1.png","f","pattern_response","true","f","pattern_72","2683.5","true","35","","","","","","","","","","","","","","","","","","",""
"","","","","","image-keyboard-response","106","246687","0.0-2.0-6.0","5ade6f4709eae2000112e9e2","B2","batch2","","2913.9000000003725","stim/empty_board.png","j","attention_check","true","j","","","","","500","[""f"",""j""]","","","","","","","","","","","","","","","","",""
"","","","","","html-keyboard-response","107","247503","0.0-2.0-7.0-0.0","5ade6f4709eae2000112e9e2","B2","batch2","","null","<p class=block-text>Trial 40 out of 78</p>","null","pattern_show_trial_num","","","","","","","","","","","","","","","","","","","","","","","","",""
"","","","","","image-keyboard-response","108","250118","0.0-2.0-7.0-1.0","5ade6f4709eae2000112e9e2","B2","batch2","","2613.5","stim/no_13_2_b.png","j","pattern_response","true","j","pattern_02","2613.5","true","36","","","","","","","","","","","","","","","","","","",""
"","","","","","html-keyboard-response","109","251444","0.0-2.0-7.0-0.1","5ade6f4709eae2000112e9e2","B2","batch2","","null","<p class=block-text>Trial 41 out of 78</p>","null","pattern_show_trial_num","","","","","","","","","","","","","","","","","","","","","","","","",""
"","","","","","image-keyboard-response","110","253406","0.0-2.0-7.0-1.1","5ade6f4709eae2000112e9e2","B2","batch2","","1960.5999999996275","stim/yes_22_ver_w1.png","f","pattern_response","true","f","pattern_47","1960.5999999996275","true","37","","","","","","","","","","","","","","","","","","",""
"","","","","","html-keyboard-response","111","254733","0.0-2.0-7.0-0.2","5ade6f4709eae2000112e9e2","B2","batch2","","null","<p class=block-text>Trial 42 out of 78</p>","null","pattern_show_trial_num","","","","","","","","","","","","","","","","","","","","","","","","",""
"","","","","","image-keyboard-response","112","255822","0.0-2.0-7.0-1.2","5ade6f4709eae2000112e9e2","B2","batch2","","1087.800000000745","stim/yes_43_ver_w1_w.png","f","pattern_response","true","f","pattern_65","1087.800000000745","true","38","","","","","","","","","","","","","","","","","","",""
"","","","","","html-keyboard-response","113","257145","0.0-2.0-7.0-0.3","5ade6f4709eae2000112e9e2","B2","batch2","","null","<p class=block-text>Trial 43 out of 78</p>","null","pattern_show_trial_num","","","","","","","","","","","","","","","","","","","","","","","","",""
"","","","","","image-keyboard-response","114","262846","0.0-2.0-7.0-1.3","5ade6f4709eae2000112e9e2","B2","batch2","","5697.800000000745","stim/yes_50_dia_w1.png","j","pattern_response","false","f","pattern_71","5697.800000000745","false","38","","","","","","","","","","","","","","","","","","",""
"","","","","","html-keyboard-response","115","264160","0.0-2.0-7.0-0.4","5ade6f4709eae2000112e9e2","B2","batch2","","null","<p class=block-text>Trial 44 out of 78</p>","null","pattern_show_trial_num","","","","","","","","","","","","","","","","","","","","","","","","",""
"","","","","","image-keyboard-response","116","266518","0.0-2.0-7.0-1.4","5ade6f4709eae2000112e9e2","B2","batch2","","2356.7999999988824","stim/no_34_1_b.png","j","pattern_response","true","j","pattern_16","2356.7999999988824","true","39","","","","","","","","","","","","","","","","","","",""
"","","","","","html-keyboard-response","117","267841","0.0-2.0-7.0-0.5","5ade6f4709eae2000112e9e2","B2","batch2","","null","<p class=block-text>Trial 45 out of 78</p>","null","pattern_show_trial_num","","","","","","","","","","","","","","","","","","","","","","","","",""
"","","","","","image-keyboard-response","118","269798","0.0-2.0-7.0-1.5","5ade6f4709eae2000112e9e2","B2","batch2","","1956.300000000745","stim/no_20_1_w.png","j","pattern_response","true","j","pattern_06","1956.300000000745","true","40","","","","","","","","","","","","","","","","","","",""
"","","","","","html-keyboard-response","119","271119","0.0-2.0-7.0-0.6","5ade6f4709eae2000112e9e2","B2","batch2","","null","<p class=block-text>Trial 46 out of 78</p>","null","pattern_show_trial_num","","","","","","","","","","","","","","","","","","","","","","","","",""
"","","","","","image-keyboard-response","120","272383","0.0-2.0-7.0-1.6","5ade6f4709eae2000112e9e2","B2","batch2","","1261.4000000003725","stim/yes_45_hor_b2_b.png","f","pattern_response","true","f","pattern_67","1261.4000000003725","true","41","","","","","","","","","","","","","","","","","","",""
"","","","","","html-keyboard-response","121","273700","0.0-2.0-7.0-0.7","5ade6f4709eae2000112e9e2","B2","batch2","","null","<p class=block-text>Trial 47 out of 78</p>","null","pattern_show_trial_num","","","","","","","","","","","","","","","","","","","","","","","","",""
"","","","","","image-keyboard-response","122","274758","0.0-2.0-7.0-1.7","5ade6f4709eae2000112e9e2","B2","batch2","","1055.7000000011176","stim/yes_17_dia_w1.png","f","pattern_response","true","f","pattern_45","1055.7000000011176","true","42","","","","","","","","","","","","","","","","","","",""
"","","","","","html-keyboard-response","123","276079","0.0-2.0-7.0-0.8","5ade6f4709eae2000112e9e2","B2","batch2","","null","<p class=block-text>Trial 48 out of 78</p>","null","pattern_show_trial_num","","","","","","","","","","","","","","","","","","","","","","","","",""
"","","","","","image-keyboard-response","124","277958","0.0-2.0-7.0-1.8","5ade6f4709eae2000112e9e2","B2","batch2","","1877.5999999996275","stim/yes_60_ver_b1_b.png","f","pattern_response","true","f","pattern_77","1877.5999999996275","true","43","","","","","","","","","","","","","","","","","","",""
"","","","","","html-keyboard-response","125","279281","0.0-2.0-7.0-0.9","5ade6f4709eae2000112e9e2","B2","batch2","","null","<p class=block-text>Trial 49 out of 78</p>","null","pattern_show_trial_num","","","","","","","","","","","","","","","","","","","","","","","","",""
"","","","","","image-keyboard-response","126","284543","0.0-2.0-7.0-1.9","5ade6f4709eae2000112e9e2","B2","batch2","","5259.200000001118","stim/no_50_1.png","j","pattern_response","true","j","pattern_30","5259.200000001118","true","44","","","","","","","","","","","","","","","","","","",""
"","","","","","html-keyboard-response","127","285858","0.0-2.0-7.0-0.10","5ade6f4709eae2000112e9e2","B2","batch2","","null","<p class=block-text>Trial 50 out of 78</p>","null","pattern_show_trial_num","","","","","","","","","","","","","","","","","","","","","","","","",""
"","","","","","image-keyboard-response","128","293461","0.0-2.0-7.0-1.10","5ade6f4709eae2000112e9e2","B2","batch2","","7602","stim/no_36_2_w.png","j","pattern_response","true","j","pattern_18","7602","true","45","","","","","","","","","","","","","","","","","","",""
"","","","","","html-keyboard-response","129","294779","0.0-2.0-7.0-0.11","5ade6f4709eae2000112e9e2","B2","batch2","","null","<p class=block-text>Trial 51 out of 78</p>","null","pattern_show_trial_num","","","","","","","","","","","","","","","","","","","","","","","","",""
"","","","","","image-keyboard-response","130","299854","0.0-2.0-7.0-1.11","5ade6f4709eae2000112e9e2","B2","batch2","","5074.200000001118","stim/no_44_1.png","j","pattern_response","true","j","pattern_24","5074.200000001118","true","46","","","","","","","","","","","","","","","","","","",""
"","","","","","html-keyboard-response","131","301171","0.0-2.0-7.0-0.12","5ade6f4709eae2000112e9e2","B2","batch2","","null","<p class=block-text>Trial 52 out of 78</p>","null","pattern_show_trial_num","","","","","","","","","","","","","","","","","","","","","","","","",""
"","","","","","image-keyboard-response","132","308110","0.0-2.0-7.0-1.12","5ade6f4709eae2000112e9e2","B2","batch2","","6937.4000000003725","stim/no_48_1_w.png","j","pattern_response","true","j","pattern_28","6937.4000000003725","true","47","","","","","","","","","","","","","","","","","","",""
"","","","","","html-keyboard-response","133","309425","0.0-2.0-7.0-0.13","5ade6f4709eae2000112e9e2","B2","batch2","","null","<p class=block-text>Trial 53 out of 78</p>","null","pattern_show_trial_num","","","","","","","","","","","","","","","","","","","","","","","","",""
"","","","","","image-keyboard-response","134","314310","0.0-2.0-7.0-1.13","5ade6f4709eae2000112e9e2","B2","batch2","","4884.0999999996275","stim/no_52_1.png","j","pattern_response","true","j","pattern_32","4884.0999999996275","true","48","","","","","","","","","","","","","","","","","","",""
"","","","","","html-keyboard-response","135","315630","0.0-2.0-7.0-0.14","5ade6f4709eae2000112e9e2","B2","batch2","","null","<p class=block-text>Trial 54 out of 78</p>","null","pattern_show_trial_num","","","","","","","","","","","","","","","","","","","","","","","","",""
"","","","","","image-keyboard-response","136","317838","0.0-2.0-7.0-1.14","5ade6f4709eae2000112e9e2","B2","batch2","","2206.0999999996275","stim/no_23_1.png","j","pattern_response","true","j","pattern_08","2206.0999999996275","true","49","","","","","","","","","","","","","","","","","","",""
"","","","","","html-keyboard-response","137","319153","0.0-2.0-7.0-0.15","5ade6f4709eae2000112e9e2","B2","batch2","","null","<p class=block-text>Trial 55 out of 78</p>","null","pattern_show_trial_num","","","","","","","","","","","","","","","","","","","","","","","","",""
"","","","","","image-keyboard-response","138","325495","0.0-2.0-7.0-1.15","5ade6f4709eae2000112e9e2","B2","batch2","","6339.200000001118","stim/yes_37_dia_w1.png","j","pattern_response","false","f","pattern_59","6339.200000001118","false","49","","","","","","","","","","","","","","","","","","",""
"","","","","","html-keyboard-response","139","326812","0.0-2.0-7.0-0.16","5ade6f4709eae2000112e9e2","B2","batch2","","null","<p class=block-text>Trial 56 out of 78</p>","null","pattern_show_trial_num","","","","","","","","","","","","","","","","","","","","","","","","",""
"","","","","","image-keyboard-response","140","332661","0.0-2.0-7.0-1.16","5ade6f4709eae2000112e9e2","B2","batch2","","5848","stim/no_62_1_w.png","j","pattern_response","true","j","pattern_36","5848","true","50","","","","","","","","","","","","","","","","","","",""
"","","","","","html-keyboard-response","141","333978","0.0-2.0-7.0-0.17","5ade6f4709eae2000112e9e2","B2","batch2","","null","<p class=block-text>Trial 57 out of 78</p>","null","pattern_show_trial_num","","","","","","","","","","","","","","","","","","","","","","","","",""
"","","","","","image-keyboard-response","142","338766","0.0-2.0-7.0-1.17","5ade6f4709eae2000112e9e2","B2","batch2","","4785.700000001118","stim/no_42_1_w.png","j","pattern_response","true","j","pattern_22","4785.700000001118","true","51","","","","","","","","","","","","","","","","","","",""
"","","","","","html-keyboard-response","143","340084","0.0-2.0-7.0-0.18","5ade6f4709eae2000112e9e2","B2","batch2","","null","<p class=block-text>Trial 58 out of 78</p>","null","pattern_show_trial_num","","","","","","","","","","","","","","","","","","","","","","","","",""
"","","","","","image-keyboard-response","144","347422","0.0-2.0-7.0-1.18","5ade6f4709eae2000112e9e2","B2","batch2","","7337.0999999996275","stim/no_55_1_w.png","j","pattern_response","true","j","pattern_34","7337.0999999996275","true","52","","","","","","","","","","","","","","","","","","",""
"","","","","","html-keyboard-response","145","348744","0.0-2.0-7.0-0.19","5ade6f4709eae2000112e9e2","B2","batch2","","null","<p class=block-text>Trial 59 out of 78</p>","null","pattern_show_trial_num","","","","","","","","","","","","","","","","","","","","","","","","",""
"","","","","","image-keyboard-response","146","349542","0.0-2.0-7.0-1.19","5ade6f4709eae2000112e9e2","B2","batch2","","796.5999999996275","stim/no_65_1_b.png","f","pattern_response","false","j","pattern_38","796.5999999996275","false","52","","","","","","","","","","","","","","","","","","",""
"","","","","","html-keyboard-response","147","350854","0.0-2.0-7.0-0.20","5ade6f4709eae2000112e9e2","B2","batch2","","null","<p class=block-text>Trial 60 out of 78</p>","null","pattern_show_trial_num","","","","","","","","","","","","","","","","","","","","","","","","",""
"","","","","","image-keyboard-response","148","352414","0.0-2.0-7.0-1.20","5ade6f4709eae2000112e9e2","B2","batch2","","1558.9000000003725","stim/yes_25_hor_b1_b.png","f","pattern_response","true","f","pattern_49","1558.9000000003725","true","53","","","","","","","","","","","","","","","","","","",""
"","","","","","html-keyboard-response","149","353729","0.0-2.0-7.0-0.21","5ade6f4709eae2000112e9e2","B2","batch2","","null","<p class=block-text>Trial 61 out of 78</p>","null","pattern_show_trial_num","","","","","","","","","","","","","","","","","","","","","","","","",""
"","","","","","image-keyboard-response","150","356182","0.0-2.0-7.0-1.21","5ade6f4709eae2000112e9e2","B2","batch2","","2452.4000000003725","stim/no_29_1_b.png","j","pattern_response","true","j","pattern_12","2452.4000000003725","true","54","","","","","","","","","","","","","","","","","","",""
"","","","","","html-keyboard-response","151","357496","0.0-2.0-7.0-0.22","5ade6f4709eae2000112e9e2","B2","batch2","","null","<p class=block-text>Trial 62 out of 78</p>","null","pattern_show_trial_num","","","","","","","","","","","","","","","","","","","","","","","","",""
"","","","","","image-keyboard-response","152","361094","0.0-2.0-7.0-1.22","5ade6f4709eae2000112e9e2","B2","batch2","","3596.9000000003725","stim/yes_52_ver_w1.png","f","pattern_response","true","f","pattern_73","3596.9000000003725","true","55","","","","","","","","","","","","","","","","","","",""
"","","","","","html-keyboard-response","153","362418","0.0-2.0-7.0-0.23","5ade6f4709eae2000112e9e2","B2","batch2","","null","<p class=block-text>Trial 63 out of 78</p>","null","pattern_show_trial_num","","","","","","","","","","","","","","","","","","","","","","","","",""
"","","","","","image-keyboard-response","154","365150","0.0-2.0-7.0-1.23","5ade6f4709eae2000112e9e2","B2","batch2","","2729.10000000149","stim/yes_29_ver_w1.png","f","pattern_response","true","f","pattern_53","2729.10000000149","true","56","","","","","","","","","","","","","","","","","","",""
"","","","","","html-keyboard-response","155","366473","0.0-2.0-7.0-0.24","5ade6f4709eae2000112e9e2","B2","batch2","","null","<p class=block-text>Trial 64 out of 78</p>","null","pattern_show_trial_num","","","","","","","","","","","","","","","","","","","","","","","","",""
"","","","","","image-keyboard-response","156","367093","0.0-2.0-7.0-1.24","5ade6f4709eae2000112e9e2","B2","batch2","","618.6999999992549","stim/yes_14_hor_b1_w.png","f","pattern_response","true","f","pattern_43","618.6999999992549","true","57","","","","","","","","","","","","","","","","","","",""
"","","","","","html-keyboard-response","157","368403","0.0-2.0-7.0-0.25","5ade6f4709eae2000112e9e2","B2","batch2","","null","<p class=block-text>Trial 65 out of 78</p>","null","pattern_show_trial_num","","","","","","","","","","","","","","","","","","","","","","","","",""
"","","","","","image-keyboard-response","158","370198","0.0-2.0-7.0-1.25","5ade6f4709eae2000112e9e2","B2","batch2","","1793.9000000003725","stim/no_26_1_w.png","j","pattern_response","true","j","pattern_10","1793.9000000003725","true","58","","","","","","","","","","","","","","","","","","",""
"","","","","","html-keyboard-response","159","371511","0.0-2.0-7.0-0.26","5ade6f4709eae2000112e9e2","B2","batch2","","null","<p class=block-text>Trial 66 out of 78</p>","null","pattern_show_trial_num","","","","","","","","","","","","","","","","","","","","","","","","",""
"","","","","","image-keyboard-response","160","372767","0.0-2.0-7.0-1.26","5ade6f4709eae2000112e9e2","B2","batch2","","1254.0999999996275","stim/no_17_1_w.png","j","pattern_response","true","j","pattern_04","1254.0999999996275","true","59","","","","","","","","","","","","","","","","","","",""
"","","","","","html-keyboard-response","161","374080","0.0-2.0-7.0-0.27","5ade6f4709eae2000112e9e2","B2","batch2","","null","<p class=block-text>Trial 67 out of 78</p>","null","pattern_show_trial_num","","","","","","","","","","","","","","","","","","","","","","","","",""
"","","","","","image-keyboard-response","162","375118","0.0-2.0-7.0-1.27","5ade6f4709eae2000112e9e2","B2","batch2","","1037.0999999996275","stim/yes_28_ver_b1.png","f","pattern_response","true","f","pattern_51","1037.0999999996275","true","60","","","","","","","","","","","","","","","","","","",""
"","","","","","html-keyboard-response","163","376433","0.0-2.0-7.0-0.28","5ade6f4709eae2000112e9e2","B2","batch2","","null","<p class=block-text>Trial 68 out of 78</p>","null","pattern_show_trial_num","","","","","","","","","","","","","","","","","","","","","","","","",""
"","","","","","image-keyboard-response","164","377374","0.0-2.0-7.0-1.28","5ade6f4709eae2000112e9e2","B2","batch2","","939.4000000003725","stim/yes_67_hor_b1.png","f","pattern_response","true","f","pattern_79","939.4000000003725","true","61","","","","","","","","","","","","","","","","","","",""
"","","","","","html-keyboard-response","165","378686","0.0-2.0-7.0-0.29","5ade6f4709eae2000112e9e2","B2","batch2","","null","<p class=block-text>Trial 69 out of 78</p>","null","pattern_show_trial_num","","","","","","","","","","","","","","","","","","","","","","","","",""
"","","","","","image-keyboard-response","166","379606","0.0-2.0-7.0-1.29","5ade6f4709eae2000112e9e2","B2","batch2","","918.3000000007451","stim/yes_38_hor_b1_b.png","f","pattern_response","true","f","pattern_61","918.3000000007451","true","62","","","","","","","","","","","","","","","","","","",""
"","","","","","html-keyboard-response","167","380928","0.0-2.0-7.0-0.30","5ade6f4709eae2000112e9e2","B2","batch2","","null","<p class=block-text>Trial 70 out of 78</p>","null","pattern_show_trial_num","","","","","","","","","","","","","","","","","","","","","","","","",""
"","","","","","image-keyboard-response","168","382390","0.0-2.0-7.0-1.30","5ade6f4709eae2000112e9e2","B2","batch2","","1461.0999999996275","stim/yes_31_hor_b1.png","f","pattern_response","true","f","pattern_55","1461.0999999996275","true","63","","","","","","","","","","","","","","","","","","",""
"","","","","","html-keyboard-response","169","383707","0.0-2.0-7.0-0.31","5ade6f4709eae2000112e9e2","B2","batch2","","null","<p class=block-text>Trial 71 out of 78</p>","null","pattern_show_trial_num","","","","","","","","","","","","","","","","","","","","","","","","",""
"","","","","","image-keyboard-response","170","384654","0.0-2.0-7.0-1.31","5ade6f4709eae2000112e9e2","B2","batch2","","946.2000000011176","stim/yes_55_hor_w1_w.png","f","pattern_response","true","f","pattern_75","946.2000000011176","true","64","","","","","","","","","","","","","","","","","","",""
"","","","","","html-keyboard-response","171","385969","0.0-2.0-7.0-0.32","5ade6f4709eae2000112e9e2","B2","batch2","","null","<p class=block-text>Trial 72 out of 78</p>","null","pattern_show_trial_num","","","","","","","","","","","","","","","","","","","","","","","","",""
"","","","","","image-keyboard-response","172","395271","0.0-2.0-7.0-1.32","5ade6f4709eae2000112e9e2","B2","batch2","","9300.800000000745","stim/no_70_2.png","j","pattern_response","true","j","pattern_40","9300.800000000745","true","65","","","","","","","","","","","","","","","","","","",""
"","","","","","html-keyboard-response","173","396587","0.0-2.0-7.0-0.33","5ade6f4709eae2000112e9e2","B2","batch2","","null","<p class=block-text>Trial 73 out of 78</p>","null","pattern_show_trial_num","","","","","","","","","","","","","","","","","","","","","","","","",""
"","","","","","image-keyboard-response","174","398334","0.0-2.0-7.0-1.33","5ade6f4709eae2000112e9e2","B2","batch2","","1745.4000000003725","stim/yes_40_dia_b1_b.png","j","pattern_response","false","f","pattern_63","1745.4000000003725","false","65","","","","","","","","","","","","","","","","","","",""
"","","","","","html-keyboard-response","175","399656","0.0-2.0-7.0-0.34","5ade6f4709eae2000112e9e2","B2","batch2","","null","<p class=block-text>Trial 74 out of 78</p>","null","pattern_show_trial_num","","","","","","","","","","","","","","","","","","","","","","","","",""
"","","","","","image-keyboard-response","176","403686","0.0-2.0-7.0-1.34","5ade6f4709eae2000112e9e2","B2","batch2","","4028.4000000003725","stim/no_38_1_b.png","j","pattern_response","true","j","pattern_20","4028.4000000003725","true","66","","","","","","","","","","","","","","","","","","",""
"","","","","","html-keyboard-response","177","404996","0.0-2.0-7.0-0.35","5ade6f4709eae2000112e9e2","B2","batch2","","null","<p class=block-text>Trial 75 out of 78</p>","null","pattern_show_trial_num","","","","","","","","","","","","","","","","","","","","","","","","",""
"","","","","","image-keyboard-response","178","408806","0.0-2.0-7.0-1.35","5ade6f4709eae2000112e9e2","B2","batch2","","3808.0999999996275","stim/no_46_1_b.png","j","pattern_response","true","j","pattern_26","3808.0999999996275","true","67","","","","","","","","","","","","","","","","","","",""
"","","","","","html-keyboard-response","179","410113","0.0-2.0-7.0-0.36","5ade6f4709eae2000112e9e2","B2","batch2","","null","<p class=block-text>Trial 76 out of 78</p>","null","pattern_show_trial_num","","","","","","","","","","","","","","","","","","","","","","","","",""
"","","","","","image-keyboard-response","180","413253","0.0-2.0-7.0-1.36","5ade6f4709eae2000112e9e2","B2","batch2","","3138.2000000011176","stim/yes_35_dia_b1.png","f","pattern_response","true","f","pattern_57","3138.2000000011176","true","68","","","","","","","","","","","","","","","","","","",""
"","","","","","html-keyboard-response","181","414570","0.0-2.0-7.0-0.37","5ade6f4709eae2000112e9e2","B2","batch2","","null","<p class=block-text>Trial 77 out of 78</p>","null","pattern_show_trial_num","","","","","","","","","","","","","","","","","","","","","","","","",""
"","","","","","image-keyboard-response","182","419382","0.0-2.0-7.0-1.37","5ade6f4709eae2000112e9e2","B2","batch2","","4810.4000000003725","stim/yes_48_dia_w1_w.png","j","pattern_response","false","f","pattern_69","4810.4000000003725","false","68","","","","","","","","","","","","","","","","","","",""
"","","","","","html-keyboard-response","183","420706","0.0-2.0-7.0-0.38","5ade6f4709eae2000112e9e2","B2","batch2","","null","<p class=block-text>Trial 78 out of 78</p>","null","pattern_show_trial_num","","","","","","","","","","","","","","","","","","","","","","","","",""
"","","","","","image-keyboard-response","184","423382","0.0-2.0-7.0-1.38","5ade6f4709eae2000112e9e2","B2","batch2","","2673.9000000003725","stim/no_32_1_w.png","j","pattern_response","true","j","pattern_14","2673.9000000003725","true","69","","","","","","","","","","","","","","","","","","",""
"","","","","","html-button-response","185","428366","0.0-2.0-8.0","5ade6f4709eae2000112e9e2","B2","batch2","","4481.300000000745","<p class = block-text>This concludes the 4-in-a-row detection game.Thank you for your responses!<br>
            You responded correctly on 88% of the trials.<br>
            When you are ready, press ""Continue"" button to continue </p>","0","","","","","","","","","","","","","","","","","","","","","","","","","",""
"true","","","","","fullscreen","186","430939","0.0-3.0-0.0","5ade6f4709eae2000112e9e2","B2","batch2","","","","","","","","","","","","","","","","","","","","","","","","","","","","","",""
"","","","","","instructions","187","468057","0.0-3.0-1.0-0.0-0.0","5ade6f4709eae2000112e9e2","B2","batch2","[{""page_index"":0,""viewing_time"":9142.799999998882},{""page_index"":1,""viewing_time"":3814.10000000149},{""page_index"":2,""viewing_time"":5262.5},{""page_index"":3,""viewing_time"":9532.699999999255},{""page_index"":4,""viewing_time"":2343},{""page_index"":5,""viewing_time"":4286.300000000745},{""page_index"":6,""viewing_time"":2735}]","37116.79999999888","","","tol-instructions","","","","","","","","","","","","","","","","","","","","","","","","",""
"","","","","","html-button-response","188","469160","0.0-3.0-1.0-1.0-0.0","5ade6f4709eae2000112e9e2","B2","batch2","","1102.800000000745","<p class=block-text> Let's answer a few questions <br>","0","tol_enter_quiz","","","","","","","","","","","","","","","","","","","","","","","","",""
"","","","","","html-button-response","189","471808","0.0-3.0-1.0-1.0-1.0","5ade6f4709eae2000112e9e2","B2","batch2","","2645.800000000745","<p class = block-text>True or False: You can only move the ball on top of a peg. <br></p>","1","tol_quiz","false","","","","","","","","","","","","","","","","","","","","","","","",""
"","","","","","html-button-response","190","472695","0.0-3.0-1.0-1.0-2.0","5ade6f4709eae2000112e9e2","B2","batch2","","886.1999999992549","<p class = block-text>Incorrect. Remember, you can only move the ball on top of a peg.</p>","0","tol_quiz_feedback","","","","","","","","","","","","","","","","","","","","","","","","",""
"","","","","","html-button-response","191","474837","0.0-3.0-1.0-1.0-3.0","5ade6f4709eae2000112e9e2","B2","batch2","","2141.5","<p class = block-text>True or False: You should try to match your board with the target board with fewest moves possible. <br></p>","0","tol_quiz","true","","","","","","","","","","","","","","","","","","","","","","","",""
"","","","","","html-button-response","192","475446","0.0-3.0-1.0-1.0-4.0","5ade6f4709eae2000112e9e2","B2","batch2","","607.5","<p class = block-text>Correct! </p>","0","tol_quiz_feedback","","","","","","","","","","","","","","","","","","","","","","","","",""
"","","","","","html-button-response","193","476366","0.0-3.0-1.0-2.0-0.0","5ade6f4709eae2000112e9e2","B2","batch2","","918.5999999996275","<p class = block-text>You made too many incorrect choices.</p><p class = block-text>You will now repeat the instructions and quiz</p>","0","","","","","","","","","","","","","","","","","","","","","","","","","",""
"","","","","","instructions","194","483395","0.0-3.0-1.1-0.1-0.1","5ade6f4709eae2000112e9e2","B2","batch2","[{""page_index"":0,""viewing_time"":1662.2000000011176},{""page_index"":1,""viewing_time"":559.2999999988824},{""page_index"":2,""viewing_time"":400.7000000011176},{""page_index"":3,""viewing_time"":1142.8999999985099},{""page_index"":4,""viewing_time"":407.7000000011176},{""page_index"":5,""viewing_time"":815.6999999992549},{""page_index"":6,""viewing_time"":2039.9000000003725}]","7028.700000001118","","","tol-instructions","","","","","","","","","","","","","","","","","","","","","","","","",""
"","","","","","html-button-response","195","484090","0.0-3.0-1.1-1.1-0.1","5ade6f4709eae2000112e9e2","B2","batch2","","694.2999999988824","<p class=block-text> Let's answer a few questions <br>","0","tol_enter_quiz","","","","","","","","","","","","","","","","","","","","","","","","",""
"","","","","","html-button-response","196","485362","0.0-3.0-1.1-1.1-1.1","5ade6f4709eae2000112e9e2","B2","batch2","","1270.800000000745","<p class = block-text>True or False: You can only move the ball on top of a peg. <br></p>","0","tol_quiz","true","","","","","","","","","","","","","","","","","","","","","","","",""
"","","","","","html-button-response","197","486218","0.0-3.0-1.1-1.1-2.1","5ade6f4709eae2000112e9e2","B2","batch2","","854.2000000011176","<p class = block-text>Correct! You can only move the ball on top of a peg.</p>","0","tol_quiz_feedback","","","","","","","","","","","","","","","","","","","","","","","","",""
"","","","","","html-button-response","198","488288","0.0-3.0-1.1-1.1-3.1","5ade6f4709eae2000112e9e2","B2","batch2","","2069.0999999996275","<p class = block-text>True or False: You should try to match your board with the target board with fewest moves possible. <br></p>","0","tol_quiz","true","","","","","","","","","","","","","","","","","","","","","","","",""
"","","","","","html-button-response","199","488832","0.0-3.0-1.1-1.1-4.1","5ade6f4709eae2000112e9e2","B2","batch2","","543.7000000011176","<p class = block-text>Correct! </p>","0","tol_quiz_feedback","","","","","","","","","","","","","","","","","","","","","","","","",""
"","","","","","html-button-response","200","490128","0.0-3.0-2.0","5ade6f4709eae2000112e9e2","B2","batch2","","1294.7000000011176","<p class=block-text> Now that you've understood the game, let's practice a few easier examples before we start!<br> <br>","0","","","","","","","","","","","","","","","","","","","","","","","","","",""
"","","","","","single-stim-button","201","493831","0.0-3.0-3.0-0.0","5ade6f4709eae2000112e9e2","B2","batch2","","3702","","","tol_practice","","","","","","","","","tol_peg_2","3702","3702","0","[[1,2,0],[0,0],[0]]","1","[[1,2,0],[0,0],[3]]","practice","3702","","","","","","","",""
"","","","","","single-stim-button","202","496278","0.0-3.0-3.0-1.0","5ade6f4709eae2000112e9e2","B2","batch2","","2445","","","tol_practice","","","","","","","","","tol_peg_3","2445","2445","0","[[1,2,0],[0,0],[3]]","1","[[1,2,0],[0,0],[3]]","practice","2445","","","","","","","",""
"","","","","","poldrack-single-stim","203","497281","0.0-3.0-4.0","5ade6f4709eae2000112e9e2","B2","batch2","","-1","","","tol_feedback","true","","","","","","","","","1000","1000","500","","","","","","-1","none","true","","0","","",""
"","","","","","single-stim-button","204","500731","0.0-3.0-5.0-0.0","5ade6f4709eae2000112e9e2","B2","batch2","","3449","","","tol_practice","","","","","","","","","tol_peg_1","3449","3449","0","[[1,0,0],[3,0],[0]]","2","[[0,0,0],[3,1],[2]]","practice","3449","","","","","","","",""
"","","","","","single-stim-button","205","502540","0.0-3.0-5.0-1.0","5ade6f4709eae2000112e9e2","B2","batch2","","1809","","","tol_practice","","","","","","","","","tol_peg_1","1809","1809","0","[[1,2,0],[3,0],[0]]","2","[[0,0,0],[3,1],[2]]","practice","1809","","","","","","","",""
"","","","","","single-stim-button","206","503619","0.0-3.0-5.1-0.1","5ade6f4709eae2000112e9e2","B2","batch2","","1077","","","tol_practice","","","","","","","","","tol_peg_1","1077","1077","0","[[1,0,0],[3,0],[0]]","3","[[0,0,0],[3,1],[2]]","practice","1077","","","","","","","",""
"","","","","","single-stim-button","207","506097","0.0-3.0-5.1-1.1","5ade6f4709eae2000112e9e2","B2","batch2","","2478","","","tol_practice","","","","","","","","","tol_peg_3","2478","2478","0","[[1,0,0],[3,0],[2]]","3","[[0,0,0],[3,1],[2]]","practice","2478","","","","","","","",""
"","","","","","single-stim-button","208","508937","0.0-3.0-5.2-0.2","5ade6f4709eae2000112e9e2","B2","batch2","","2838","","","tol_practice","","","","","","","","","tol_peg_2","2838","2838","0","[[1,0,0],[0,0],[2]]","4","[[0,0,0],[3,1],[2]]","practice","2838","","","","","","","",""
"","","","","","single-stim-button","209","511591","0.0-3.0-5.2-1.2","5ade6f4709eae2000112e9e2","B2","batch2","","2654","","","tol_practice","","","","","","","","","tol_peg_2","2654","2654","0","[[1,0,0],[3,0],[2]]","4","[[0,0,0],[3,1],[2]]","practice","2654","","","","","","","",""
"","","","","","single-stim-button","210","512368","0.0-3.0-5.3-0.3","5ade6f4709eae2000112e9e2","B2","batch2","","775","","","tol_practice","","","","","","","","","tol_peg_1","775","775","0","[[0,0,0],[3,0],[2]]","5","[[0,0,0],[3,1],[2]]","practice","775","","","","","","","",""
"","","","","","single-stim-button","211","513286","0.0-3.0-5.3-1.3","5ade6f4709eae2000112e9e2","B2","batch2","","918","","","tol_practice","","","","","","","","","tol_peg_2","918","918","0","[[0,0,0],[3,1],[2]]","5","[[0,0,0],[3,1],[2]]","practice","918","","","","","","","",""
"","","","","","poldrack-single-stim","212","514288","0.0-3.0-6.0","5ade6f4709eae2000112e9e2","B2","batch2","","-1","","","tol_feedback","true","","","","","","","","","1000","1000","500","","","","","","-1","none","true","","0","","",""
"","","","","","single-stim-button","213","517189","0.0-3.0-7.0-0.0","5ade6f4709eae2000112e9e2","B2","batch2","","2900","","","tol_practice","","","","","","","","","tol_peg_2","2900","2900","0","[[1,2,0],[0,0],[0]]","6","[[1,0,0],[2,0],[3]]","practice","2900","","","","","","","",""
"","","","","","single-stim-button","214","518964","0.0-3.0-7.0-1.0","5ade6f4709eae2000112e9e2","B2","batch2","","1774","","","tol_practice","","","","","","","","","tol_peg_3","1774","1774","0","[[1,2,0],[0,0],[3]]","6","[[1,0,0],[2,0],[3]]","practice","1774","","","","","","","",""
"","","","","","single-stim-button","215","519893","0.0-3.0-7.1-0.1","5ade6f4709eae2000112e9e2","B2","batch2","","927","","","tol_practice","","","","","","","","","tol_peg_1","927","927","0","[[1,0,0],[0,0],[3]]","7","[[1,0,0],[2,0],[3]]","practice","927","","","","","","","",""
"","","","","","single-stim-button","216","520892","0.0-3.0-7.1-1.1","5ade6f4709eae2000112e9e2","B2","batch2","","999","","","tol_practice","","","","","","","","","tol_peg_2","999","999","0","[[1,0,0],[2,0],[3]]","7","[[1,0,0],[2,0],[3]]","practice","999","","","","","","","",""
"","","","","","poldrack-single-stim","217","521893","0.0-3.0-8.0","5ade6f4709eae2000112e9e2","B2","batch2","","-1","","","tol_feedback","true","","","","","","","","","1000","1000","500","","","","","","-1","none","true","","0","","",""
"","","","","","html-button-response","218","524915","0.0-3.0-9.0","5ade6f4709eae2000112e9e2","B2","batch2","","3020.4000000003725","<div class = centerbox><p class = center-block-text>Great job! You are done with practice trials<br>You are about to start official trials.<br> <br> Problem <strong>1</strong> out of 25 problems</p></div>","0","tol_instruction","","","","","","","","","","","","","","","","","","","","","","","","",""
"","","","","","single-stim-button","219","528946","0.0-3.0-10.0-0.0","5ade6f4709eae2000112e9e2","B2","batch2","","3029","","","tol_tohand","","","","","","","","","tol_peg_2","3029","3029","0","[[1,2,0],[0,0],[0]]","1","[[1,3,0],[2,0],[0]]","0","0","","","","","","3","",""
"","","","","","single-stim-button","220","532095","0.0-3.0-10.0-1.0","5ade6f4709eae2000112e9e2","B2","batch2","","3149","","","tol_toboard","","","","","","","","","tol_peg_2","3149","3149","0","[[1,2,0],[3,0],[0]]","1","[[1,3,0],[2,0],[0]]","0","0","","","","","","3","",""
"","","","","","single-stim-button","221","533007","0.0-3.0-10.1-0.1","5ade6f4709eae2000112e9e2","B2","batch2","","912","","","tol_tohand","","","","","","","","","tol_peg_1","912","912","0","[[1,0,0],[3,0],[0]]","2","[[1,3,0],[2,0],[0]]","0","0","","","","","","3","",""
"","","","","","single-stim-button","222","534495","0.0-3.0-10.1-1.1","5ade6f4709eae2000112e9e2","B2","batch2","","1487","","","tol_toboard","","","","","","","","","tol_peg_3","1487","1487","0","[[1,0,0],[3,0],[2]]","2","[[1,3,0],[2,0],[0]]","0","0","","","","","","3","",""
"","","","","","single-stim-button","223","535286","0.0-3.0-10.2-0.2","5ade6f4709eae2000112e9e2","B2","batch2","","791","","","tol_tohand","","","","","","","","","tol_peg_2","791","791","0","[[1,0,0],[0,0],[2]]","3","[[1,3,0],[2,0],[0]]","0","0","","","","","","3","",""
"","","","","","single-stim-button","224","536599","0.0-3.0-10.2-1.2","5ade6f4709eae2000112e9e2","B2","batch2","","1311","","","tol_toboard","","","","","","","","","tol_peg_1","1311","1311","0","[[1,3,0],[0,0],[2]]","3","[[1,3,0],[2,0],[0]]","0","0","","","","","","3","",""
"","","","","","single-stim-button","225","537470","0.0-3.0-10.3-0.3","5ade6f4709eae2000112e9e2","B2","batch2","","871","","","tol_tohand","","","","","","","","","tol_peg_3","871","871","0","[[1,3,0],[0,0],[0]]","4","[[1,3,0],[2,0],[0]]","0","0","","","","","","3","",""
"","","","","","single-stim-button","226","538341","0.0-3.0-10.3-1.3","5ade6f4709eae2000112e9e2","B2","batch2","","870","","","tol_toboard","","","","","","","","","tol_peg_2","870","870","0","[[1,3,0],[2,0],[0]]","4","[[1,3,0],[2,0],[0]]","0","0","","","","","","3","",""
"","","","","","poldrack-single-stim","227","539346","0.0-3.0-11.0","5ade6f4709eae2000112e9e2","B2","batch2","","-1","","","tol_feedback","true","","","","","","","","","1000","1000","500","","","","","","-1","none","true","3029","5603","","",""
"","","","","","html-button-response","228","540421","0.0-3.0-12.0","5ade6f4709eae2000112e9e2","B2","batch2","","1074.0999999996275","<div class = centerbox><p class = center-block-text>problem <strong>2</strong> out of 25 problems</p></div>","0","tol_trial_num","","","","","","","","","","","","","","","","","","","","","","","","",""
"","","","","","single-stim-button","229","543388","0.0-3.0-13.0-0.0","5ade6f4709eae2000112e9e2","B2","batch2","","2965","","","tol_tohand","","","","","","","","","tol_peg_1","2965","2965","0","[[1,0,0],[3,0],[0]]","1","[[2,1,3],[0,0],[0]]","1","0","","","","","","5","",""
"","","","","","single-stim-button","230","545971","0.0-3.0-13.0-1.0","5ade6f4709eae2000112e9e2","B2","batch2","","2582","","","tol_toboard","","","","","","","","","tol_peg_3","2582","2582","0","[[1,0,0],[3,0],[2]]","1","[[2,1,3],[0,0],[0]]","1","0","","","","","","5","",""
"","","","","","single-stim-button","231","546843","0.0-3.0-13.1-0.1","5ade6f4709eae2000112e9e2","B2","batch2","","871","","","tol_tohand","","","","","","","","","tol_peg_1","871","871","0","[[0,0,0],[3,0],[2]]","2","[[2,1,3],[0,0],[0]]","1","0","","","","","","5","",""
"","","","","","single-stim-button","232","548011","0.0-3.0-13.1-1.1","5ade6f4709eae2000112e9e2","B2","batch2","","1168","","","tol_toboard","","","","","","","","","tol_peg_2","1168","1168","0","[[0,0,0],[3,1],[2]]","2","[[2,1,3],[0,0],[0]]","1","0","","","","","","5","",""
"","","","","","single-stim-button","233","548890","0.0-3.0-13.2-0.2","5ade6f4709eae2000112e9e2","B2","batch2","","878","","","tol_tohand","","","","","","","","","tol_peg_3","878","878","0","[[0,0,0],[3,1],[0]]","3","[[2,1,3],[0,0],[0]]","1","0","","","","","","5","",""
"","","","","","single-stim-button","234","550090","0.0-3.0-13.2-1.2","5ade6f4709eae2000112e9e2","B2","batch2","","1200","","","tol_toboard","","","","","","","","","tol_peg_1","1200","1200","0","[[2,0,0],[3,1],[0]]","3","[[2,1,3],[0,0],[0]]","1","0","","","","","","5","",""
"","","","","","single-stim-button","235","550754","0.0-3.0-13.3-0.3","5ade6f4709eae2000112e9e2","B2","batch2","","663","","","tol_tohand","","","","","","","","","tol_peg_2","663","663","0","[[2,0,0],[3,0],[0]]","4","[[2,1,3],[0,0],[0]]","1","0","","","","","","5","",""
"","","","","","single-stim-button","236","551880","0.0-3.0-13.3-1.3","5ade6f4709eae2000112e9e2","B2","batch2","","1126","","","tol_toboard","","","","","","","","","tol_peg_1","1126","1126","0","[[2,1,0],[3,0],[0]]","4","[[2,1,3],[0,0],[0]]","1","0","","","","","","5","",""
"","","","","","single-stim-button","237","554480","0.0-3.0-13.4-0.4","5ade6f4709eae2000112e9e2","B2","batch2","","2598","","","tol_tohand","","","","","","","","","tol_peg_2","2598","2598","0","[[2,1,0],[0,0],[0]]","5","[[2,1,3],[0,0],[0]]","1","0","","","","","","5","",""
"","","","","","single-stim-button","238","555559","0.0-3.0-13.4-1.4","5ade6f4709eae2000112e9e2","B2","batch2","","1079","","","tol_toboard","","","","","","","","","tol_peg_1","1079","1079","0","[[2,1,3],[0,0],[0]]","5","[[2,1,3],[0,0],[0]]","1","0","","","","","","5","",""
"","","","","","poldrack-single-stim","239","556561","0.0-3.0-14.0","5ade6f4709eae2000112e9e2","B2","batch2","","-1","","","tol_feedback","true","","","","","","","","","1000","1000","500","","","","","","-1","none","true","2965","7975","","",""
"","","","","","html-button-response","240","557447","0.0-3.0-15.0","5ade6f4709eae2000112e9e2","B2","batch2","","885","<div class = centerbox><p class = center-block-text>problem <strong>3</strong> out of 25 problems</p></div>","0","tol_trial_num","","","","","","","","","","","","","","","","","","","","","","","","",""
"","","","","","single-stim-button","241","560270","0.0-3.0-16.0-0.0","5ade6f4709eae2000112e9e2","B2","batch2","","2823","","","tol_tohand","","","","","","","","","tol_peg_1","2823","2823","0","[[2,0,0],[0,0],[1]]","1","[[1,2,0],[3,0],[0]]","2","0","","","","","","4","",""
"","","","","","single-stim-button","242","561574","0.0-3.0-16.0-1.0","5ade6f4709eae2000112e9e2","B2","batch2","","1304","","","tol_toboard","","","","","","","","","tol_peg_2","1304","1304","0","[[2,0,0],[3,0],[1]]","1","[[1,2,0],[3,0],[0]]","2","0","","","","","","4","",""
"","","","","","single-stim-button","243","565613","0.0-3.0-16.1-0.1","5ade6f4709eae2000112e9e2","B2","batch2","","4039","","","tol_tohand","","","","","","","","","tol_peg_1","4039","4039","0","[[0,0,0],[3,0],[1]]","2","[[1,2,0],[3,0],[0]]","2","0","","","","","","4","",""
"","","","","","single-stim-button","244","568732","0.0-3.0-16.1-1.1","5ade6f4709eae2000112e9e2","B2","batch2","","3118","","","tol_toboard","","","","","","","","","tol_peg_2","3118","3118","0","[[0,0,0],[3,2],[1]]","2","[[1,2,0],[3,0],[0]]","2","0","","","","","","4","",""
"","","","","","single-stim-button","245","569356","0.0-3.0-16.2-0.2","5ade6f4709eae2000112e9e2","B2","batch2","","623","","","tol_tohand","","","","","","","","","tol_peg_3","623","623","0","[[0,0,0],[3,2],[0]]","3","[[1,2,0],[3,0],[0]]","2","0","","","","","","4","",""
"","","","","","single-stim-button","246","570315","0.0-3.0-16.2-1.2","5ade6f4709eae2000112e9e2","B2","batch2","","959","","","tol_toboard","","","","","","","","","tol_peg_1","959","959","0","[[1,0,0],[3,2],[0]]","3","[[1,2,0],[3,0],[0]]","2","0","","","","","","4","",""
"","","","","","single-stim-button","247","570851","0.0-3.0-16.3-0.3","5ade6f4709eae2000112e9e2","B2","batch2","","534","","","tol_tohand","","","","","","","","","tol_peg_2","534","534","0","[[1,0,0],[3,0],[0]]","4","[[1,2,0],[3,0],[0]]","2","0","","","","","","4","",""
"","","","","","single-stim-button","248","571531","0.0-3.0-16.3-1.3","5ade6f4709eae2000112e9e2","B2","batch2","","679","","","tol_toboard","","","","","","","","","tol_peg_1","679","679","0","[[1,2,0],[3,0],[0]]","4","[[1,2,0],[3,0],[0]]","2","0","","","","","","4","",""
"","","","","","poldrack-single-stim","249","572537","0.0-3.0-17.0","5ade6f4709eae2000112e9e2","B2","batch2","","-1","","","tol_feedback","true","","","","","","","","","1000","1000","500","","","","","","-1","none","true","2823","8019","","",""
"","","","","","html-button-response","250","573553","0.0-3.0-18.0","5ade6f4709eae2000112e9e2","B2","batch2","","1015.0999999996275","<div class = centerbox><p class = center-block-text>problem <strong>4</strong> out of 25 problems</p></div>","0","tol_trial_num","","","","","","","","","","","","","","","","","","","","","","","","",""
"","","","","","single-stim-button","251","577065","0.0-3.0-19.0-0.0","5ade6f4709eae2000112e9e2","B2","batch2","","3511","","","tol_tohand","","","","","","","","","tol_peg_2","3511","3511","0","[[3,0,0],[2,0],[0]]","1","[[3,0,0],[1,0],[2]]","3","0","","","","","","3","",""
"","","","","","single-stim-button","252","578033","0.0-3.0-19.0-1.0","5ade6f4709eae2000112e9e2","B2","batch2","","967","","","tol_toboard","","","","","","","","","tol_peg_1","967","967","0","[[3,1,0],[2,0],[0]]","1","[[3,0,0],[1,0],[2]]","3","0","","","","","","3","",""
"","","","","","single-stim-button","253","578712","0.0-3.0-19.1-0.1","5ade6f4709eae2000112e9e2","B2","batch2","","679","","","tol_tohand","","","","","","","","","tol_peg_2","679","679","0","[[3,1,0],[0,0],[0]]","2","[[3,0,0],[1,0],[2]]","3","0","","","","","","3","",""
"","","","","","single-stim-button","254","579337","0.0-3.0-19.1-1.1","5ade6f4709eae2000112e9e2","B2","batch2","","625","","","tol_toboard","","","","","","","","","tol_peg_3","625","625","0","[[3,1,0],[0,0],[2]]","2","[[3,0,0],[1,0],[2]]","3","0","","","","","","3","",""
"","","","","","single-stim-button","255","580479","0.0-3.0-19.2-0.2","5ade6f4709eae2000112e9e2","B2","batch2","","1140","","","tol_tohand","","","","","","","","","tol_peg_1","1140","1140","0","[[3,0,0],[0,0],[2]]","3","[[3,0,0],[1,0],[2]]","3","0","","","","","","3","",""
"","","","","","single-stim-button","256","581504","0.0-3.0-19.2-1.2","5ade6f4709eae2000112e9e2","B2","batch2","","1024","","","tol_toboard","","","","","","","","","tol_peg_2","1024","1024","0","[[3,0,0],[1,0],[2]]","3","[[3,0,0],[1,0],[2]]","3","0","","","","","","3","",""
"","","","","","poldrack-single-stim","257","582513","0.0-3.0-20.0","5ade6f4709eae2000112e9e2","B2","batch2","","-1","","","tol_feedback","true","","","","","","","","","1000","1000","500","","","","","","-1","none","true","3511","5330","","",""
"","","","","","html-button-response","258","583407","0.0-3.0-21.0","5ade6f4709eae2000112e9e2","B2","batch2","","893.2000000011176","<div class = centerbox><p class = center-block-text>problem <strong>5</strong> out of 25 problems</p></div>","0","tol_trial_num","","","","","","","","","","","","","","","","","","","","","","","","",""
"","","","","","single-stim-button","259","586837","0.0-3.0-22.0-0.0","5ade6f4709eae2000112e9e2","B2","batch2","","3430","","","tol_tohand","","","","","","","","","tol_peg_3","3430","3430","0","[[1,0,0],[2,0],[0]]","1","[[0,0,0],[1,2],[3]]","4","0","","","","","","7","",""
"","","","","","single-stim-button","260","595714","0.0-3.0-22.0-1.0","5ade6f4709eae2000112e9e2","B2","batch2","","8877","","","tol_toboard","","","","","","","","","tol_peg_1","8877","8877","0","[[1,3,0],[2,0],[0]]","1","[[0,0,0],[1,2],[3]]","4","0","","","","","","7","",""
"","","","","","single-stim-button","261","596522","0.0-3.0-22.1-0.1","5ade6f4709eae2000112e9e2","B2","batch2","","808","","","tol_tohand","","","","","","","","","tol_peg_2","808","808","0","[[1,3,0],[0,0],[0]]","2","[[0,0,0],[1,2],[3]]","4","0","","","","","","7","",""
"","","","","","single-stim-button","262","597346","0.0-3.0-22.1-1.1","5ade6f4709eae2000112e9e2","B2","batch2","","824","","","tol_toboard","","","","","","","","","tol_peg_3","824","824","0","[[1,3,0],[0,0],[2]]","2","[[0,0,0],[1,2],[3]]","4","0","","","","","","7","",""
"","","","","","single-stim-button","263","598146","0.0-3.0-22.2-0.2","5ade6f4709eae2000112e9e2","B2","batch2","","800","","","tol_tohand","","","","","","","","","tol_peg_1","800","800","0","[[1,0,0],[0,0],[2]]","3","[[0,0,0],[1,2],[3]]","4","0","","","","","","7","",""
"","","","","","single-stim-button","264","599009","0.0-3.0-22.2-1.2","5ade6f4709eae2000112e9e2","B2","batch2","","861","","","tol_toboard","","","","","","","","","tol_peg_2","861","861","0","[[1,0,0],[3,0],[2]]","3","[[0,0,0],[1,2],[3]]","4","0","","","","","","7","",""
"","","","","","single-stim-button","265","603414","0.0-3.0-22.3-0.3","5ade6f4709eae2000112e9e2","B2","batch2","","4405","","","tol_tohand","","","","","","","","","tol_peg_3","4405","4405","0","[[1,0,0],[3,0],[0]]","4","[[0,0,0],[1,2],[3]]","4","0","","","","","","7","",""
"","","","","","single-stim-button","266","607014","0.0-3.0-22.3-1.3","5ade6f4709eae2000112e9e2","B2","batch2","","3600","","","tol_toboard","","","","","","","","","tol_peg_3","3600","3600","0","[[1,0,0],[3,0],[2]]","4","[[0,0,0],[1,2],[3]]","4","0","","","","","","7","",""
"","","","","","single-stim-button","267","610108","0.0-3.0-22.4-0.4","5ade6f4709eae2000112e9e2","B2","batch2","","3093","","","tol_tohand","","","","","","","","","tol_peg_2","3093","3093","0","[[1,0,0],[0,0],[2]]","5","[[0,0,0],[1,2],[3]]","4","0","","","","","","7","",""
"","","","","","single-stim-button","268","612131","0.0-3.0-22.4-1.4","5ade6f4709eae2000112e9e2","B2","batch2","","2022","","","tol_toboard","","","","","","","","","tol_peg_1","2022","2022","0","[[1,3,0],[0,0],[2]]","5","[[0,0,0],[1,2],[3]]","4","0","","","","","","7","",""
"","","","","","single-stim-button","269","613794","0.0-3.0-22.5-0.5","5ade6f4709eae2000112e9e2","B2","batch2","","1662","","","tol_tohand","","","","","","","","","tol_peg_3","1662","1662","0","[[1,3,0],[0,0],[0]]","6","[[0,0,0],[1,2],[3]]","4","0","","","","","","7","",""
"","","","","","single-stim-button","270","614762","0.0-3.0-22.5-1.5","5ade6f4709eae2000112e9e2","B2","batch2","","968","","","tol_toboard","","","","","","","","","tol_peg_2","968","968","0","[[1,3,0],[2,0],[0]]","6","[[0,0,0],[1,2],[3]]","4","0","","","","","","7","",""
"","","","","","single-stim-button","271","617522","0.0-3.0-22.6-0.6","5ade6f4709eae2000112e9e2","B2","batch2","","2760","","","tol_tohand","","","","","","","","","tol_peg_2","2760","2760","0","[[1,3,0],[0,0],[0]]","7","[[0,0,0],[1,2],[3]]","4","0","","","","","","7","",""
"","","","","","single-stim-button","272","618545","0.0-3.0-22.6-1.6","5ade6f4709eae2000112e9e2","B2","batch2","","1022","","","tol_toboard","","","","","","","","","tol_peg_3","1022","1022","0","[[1,3,0],[0,0],[2]]","7","[[0,0,0],[1,2],[3]]","4","0","","","","","","7","",""
"","","","","","single-stim-button","273","619418","0.0-3.0-22.7-0.7","5ade6f4709eae2000112e9e2","B2","batch2","","871","","","tol_tohand","","","","","","","","","tol_peg_1","871","871","0","[[1,0,0],[0,0],[2]]","8","[[0,0,0],[1,2],[3]]","4","0","","","","","","7","",""
"","","","","","single-stim-button","274","620337","0.0-3.0-22.7-1.7","5ade6f4709eae2000112e9e2","B2","batch2","","918","","","tol_toboard","","","","","","","","","tol_peg_2","918","918","0","[[1,0,0],[3,0],[2]]","8","[[0,0,0],[1,2],[3]]","4","0","","","","","","7","",""
"","","","","","single-stim-button","275","620712","0.0-3.0-22.8-0.8","5ade6f4709eae2000112e9e2","B2","batch2","","375","","","tol_tohand","","","","","","","","","tol_peg_2","375","375","0","[[1,0,0],[0,0],[2]]","9","[[0,0,0],[1,2],[3]]","4","0","","","","","","7","",""
"","","","","","single-stim-button","276","624222","0.0-3.0-22.8-1.8","5ade6f4709eae2000112e9e2","B2","batch2","","3509","","","tol_toboard","","","","","","","","","tol_peg_2","3509","3509","0","[[1,0,0],[3,0],[2]]","9","[[0,0,0],[1,2],[3]]","4","0","","","","","","7","",""
"","","","","","single-stim-button","277","625231","0.0-3.0-22.9-0.9","5ade6f4709eae2000112e9e2","B2","batch2","","1008","","","tol_tohand","","","","","","","","","tol_peg_3","1008","1008","0","[[1,0,0],[3,0],[0]]","10","[[0,0,0],[1,2],[3]]","4","0","","","","","","7","",""
"","","","","","single-stim-button","278","626111","0.0-3.0-22.9-1.9","5ade6f4709eae2000112e9e2","B2","batch2","","880","","","tol_toboard","","","","","","","","","tol_peg_2","880","880","0","[[1,0,0],[3,2],[0]]","10","[[0,0,0],[1,2],[3]]","4","0","","","","","","7","",""
"","","","","","single-stim-button","279","626910","0.0-3.0-22.10-0.10","5ade6f4709eae2000112e9e2","B2","batch2","","799","","","tol_tohand","","","","","","","","","tol_peg_1","799","799","0","[[0,0,0],[3,2],[0]]","11","[[0,0,0],[1,2],[3]]","4","0","","","","","","7","",""
"","","","","","single-stim-button","280","627734","0.0-3.0-22.10-1.10","5ade6f4709eae2000112e9e2","B2","batch2","","824","","","tol_toboard","","","","","","","","","tol_peg_3","824","824","0","[[0,0,0],[3,2],[1]]","11","[[0,0,0],[1,2],[3]]","4","0","","","","","","7","",""
"","","","","","single-stim-button","281","630692","0.0-3.0-22.11-0.11","5ade6f4709eae2000112e9e2","B2","batch2","","2958","","","tol_tohand","","","","","","","","","tol_peg_2","2958","2958","0","[[0,0,0],[3,0],[1]]","12","[[0,0,0],[1,2],[3]]","4","0","","","","","","7","",""
"","","","","","single-stim-button","282","632517","0.0-3.0-22.11-1.11","5ade6f4709eae2000112e9e2","B2","batch2","","1823","","","tol_toboard","","","","","","","","","tol_peg_1","1823","1823","0","[[2,0,0],[3,0],[1]]","12","[[0,0,0],[1,2],[3]]","4","0","","","","","","7","",""
"","","","","","single-stim-button","283","634404","0.0-3.0-22.12-0.12","5ade6f4709eae2000112e9e2","B2","batch2","","1887","","","tol_tohand","","","","","","","","","tol_peg_2","1887","1887","0","[[2,0,0],[0,0],[1]]","13","[[0,0,0],[1,2],[3]]","4","0","","","","","","7","",""
"","","","","","single-stim-button","284","635803","0.0-3.0-22.12-1.12","5ade6f4709eae2000112e9e2","B2","batch2","","1399","","","tol_toboard","","","","","","","","","tol_peg_1","1399","1399","0","[[2,3,0],[0,0],[1]]","13","[[0,0,0],[1,2],[3]]","4","0","","","","","","7","",""
"","","","","","single-stim-button","285","636571","0.0-3.0-22.13-0.13","5ade6f4709eae2000112e9e2","B2","batch2","","767","","","tol_tohand","","","","","","","","","tol_peg_3","767","767","0","[[2,3,0],[0,0],[0]]","14","[[0,0,0],[1,2],[3]]","4","0","","","","","","7","",""
"","","","","","single-stim-button","286","637339","0.0-3.0-22.13-1.13","5ade6f4709eae2000112e9e2","B2","batch2","","767","","","tol_toboard","","","","","","","","","tol_peg_2","767","767","0","[[2,3,0],[1,0],[0]]","14","[[0,0,0],[1,2],[3]]","4","0","","","","","","7","",""
"","","","","","single-stim-button","287","638444","0.0-3.0-22.14-0.14","5ade6f4709eae2000112e9e2","B2","batch2","","1104","","","tol_tohand","","","","","","","","","tol_peg_1","1104","1104","0","[[2,0,0],[1,0],[0]]","15","[[0,0,0],[1,2],[3]]","4","0","","","","","","7","",""
"","","","","","single-stim-button","288","639586","0.0-3.0-22.14-1.14","5ade6f4709eae2000112e9e2","B2","batch2","","1142","","","tol_toboard","","","","","","","","","tol_peg_3","1142","1142","0","[[2,0,0],[1,0],[3]]","15","[[0,0,0],[1,2],[3]]","4","0","","","","","","7","",""
"","","","","","single-stim-button","289","640979","0.0-3.0-22.15-0.15","5ade6f4709eae2000112e9e2","B2","batch2","","1393","","","tol_tohand","","","","","","","","","tol_peg_1","1393","1393","0","[[0,0,0],[1,0],[3]]","16","[[0,0,0],[1,2],[3]]","4","0","","","","","","7","",""
"","","","","","single-stim-button","290","641858","0.0-3.0-22.15-1.15","5ade6f4709eae2000112e9e2","B2","batch2","","879","","","tol_toboard","","","","","","","","","tol_peg_2","879","879","0","[[0,0,0],[1,2],[3]]","16","[[0,0,0],[1,2],[3]]","4","0","","","","","","7","",""
"","","","","","poldrack-single-stim","291","642871","0.0-3.0-23.0","5ade6f4709eae2000112e9e2","B2","batch2","","-1","","","tol_feedback","true","","","","","","","","","1000","1000","500","","","","","","-1","none","true","3430","28120","","",""
"","","","","","html-button-response","292","645751","0.0-3.0-24.0","5ade6f4709eae2000112e9e2","B2","batch2","","2879.7000000011176","<div class = centerbox><p class = center-block-text>problem <strong>6</strong> out of 25 problems</p></div>","0","tol_trial_num","","","","","","","","","","","","","","","","","","","","","","","","",""
"","","","","","single-stim-button","293","650927","0.0-3.0-25.0-0.0","5ade6f4709eae2000112e9e2","B2","batch2","","5175","","","tol_tohand","","","","","","","","","tol_peg_3","5175","5175","0","[[0,0,0],[1,2],[0]]","1","[[1,0,0],[2,3],[0]]","5","0","","","","","","6","",""
"","","","","","single-stim-button","294","653134","0.0-3.0-25.0-1.0","5ade6f4709eae2000112e9e2","B2","batch2","","2206","","","tol_toboard","","","","","","","","","tol_peg_1","2206","2206","0","[[3,0,0],[1,2],[0]]","1","[[1,0,0],[2,3],[0]]","5","0","","","","","","6","",""
"","","","","","single-stim-button","295","654263","0.0-3.0-25.1-0.1","5ade6f4709eae2000112e9e2","B2","batch2","","1128","","","tol_tohand","","","","","","","","","tol_peg_2","1128","1128","0","[[3,0,0],[1,0],[0]]","2","[[1,0,0],[2,3],[0]]","5","0","","","","","","6","",""
"","","","","","single-stim-button","296","656309","0.0-3.0-25.1-1.1","5ade6f4709eae2000112e9e2","B2","batch2","","2045","","","tol_toboard","","","","","","","","","tol_peg_1","2045","2045","0","[[3,2,0],[1,0],[0]]","2","[[1,0,0],[2,3],[0]]","5","0","","","","","","6","",""
"","","","","","single-stim-button","297","657124","0.0-3.0-25.2-0.2","5ade6f4709eae2000112e9e2","B2","batch2","","815","","","tol_tohand","","","","","","","","","tol_peg_2","815","815","0","[[3,2,0],[0,0],[0]]","3","[[1,0,0],[2,3],[0]]","5","0","","","","","","6","",""
"","","","","","single-stim-button","298","658997","0.0-3.0-25.2-1.2","5ade6f4709eae2000112e9e2","B2","batch2","","1872","","","tol_toboard","","","","","","","","","tol_peg_3","1872","1872","0","[[3,2,0],[0,0],[1]]","3","[[1,0,0],[2,3],[0]]","5","0","","","","","","6","",""
"","","","","","single-stim-button","299","660444","0.0-3.0-25.3-0.3","5ade6f4709eae2000112e9e2","B2","batch2","","1447","","","tol_tohand","","","","","","","","","tol_peg_1","1447","1447","0","[[3,0,0],[0,0],[1]]","4","[[1,0,0],[2,3],[0]]","5","0","","","","","","6","",""
"","","","","","single-stim-button","300","663403","0.0-3.0-25.3-1.3","5ade6f4709eae2000112e9e2","B2","batch2","","2959","","","tol_toboard","","","","","","","","","tol_peg_2","2959","2959","0","[[3,0,0],[2,0],[1]]","4","[[1,0,0],[2,3],[0]]","5","0","","","","","","6","",""
"","","","","","single-stim-button","301","663980","0.0-3.0-25.4-0.4","5ade6f4709eae2000112e9e2","B2","batch2","","577","","","tol_tohand","","","","","","","","","tol_peg_1","577","577","0","[[0,0,0],[2,0],[1]]","5","[[1,0,0],[2,3],[0]]","5","0","","","","","","6","",""
"","","","","","single-stim-button","302","664843","0.0-3.0-25.4-1.4","5ade6f4709eae2000112e9e2","B2","batch2","","862","","","tol_toboard","","","","","","","","","tol_peg_2","862","862","0","[[0,0,0],[2,3],[1]]","5","[[1,0,0],[2,3],[0]]","5","0","","","","","","6","",""
"","","","","","single-stim-button","303","665643","0.0-3.0-25.5-0.5","5ade6f4709eae2000112e9e2","B2","batch2","","799","","","tol_tohand","","","","","","","","","tol_peg_3","799","799","0","[[0,0,0],[2,3],[0]]","6","[[1,0,0],[2,3],[0]]","5","0","","","","","","6","",""
"","","","","","single-stim-button","304","666421","0.0-3.0-25.5-1.5","5ade6f4709eae2000112e9e2","B2","batch2","","777","","","tol_toboard","","","","","","","","","tol_peg_1","777","777","0","[[1,0,0],[2,3],[0]]","6","[[1,0,0],[2,3],[0]]","5","0","","","","","","6","",""
"","","","","","poldrack-single-stim","305","667426","0.0-3.0-26.0","5ade6f4709eae2000112e9e2","B2","batch2","","-1","","","tol_feedback","true","","","","","","","","","1000","1000","500","","","","","","-1","none","true","5175","9941","","",""
"","","","","","html-button-response","306","668163","0.0-3.0-27.0","5ade6f4709eae2000112e9e2","B2","batch2","","735.8999999985099","<div class = centerbox><p class = center-block-text>problem <strong>7</strong> out of 25 problems</p></div>","0","tol_trial_num","","","","","","","","","","","","","","","","","","","","","","","","",""
"","","","","","single-stim-button","307","671290","0.0-3.0-28.0-0.0","5ade6f4709eae2000112e9e2","B2","batch2","","3126","","","tol_tohand","","","","","","","","","tol_peg_3","3126","3126","0","[[2,1,0],[0,0],[0]]","1","[[1,2,0],[3,0],[0]]","6","0","","","","","","5","",""
"","","","","","single-stim-button","308","672745","0.0-3.0-28.0-1.0","5ade6f4709eae2000112e9e2","B2","batch2","","1455","","","tol_toboard","","","","","","","","","tol_peg_2","1455","1455","0","[[2,1,0],[3,0],[0]]","1","[[1,2,0],[3,0],[0]]","6","0","","","","","","5","",""
"","","","","","single-stim-button","309","673776","0.0-3.0-28.1-0.1","5ade6f4709eae2000112e9e2","B2","batch2","","1031","","","tol_tohand","","","","","","","","","tol_peg_1","1031","1031","0","[[2,0,0],[3,0],[0]]","2","[[1,2,0],[3,0],[0]]","6","0","","","","","","5","",""
"","","","","","single-stim-button","310","675353","0.0-3.0-28.1-1.1","5ade6f4709eae2000112e9e2","B2","batch2","","1576","","","tol_toboard","","","","","","","","","tol_peg_2","1576","1576","0","[[2,0,0],[3,1],[0]]","2","[[1,2,0],[3,0],[0]]","6","0","","","","","","5","",""
"","","","","","single-stim-button","311","675873","0.0-3.0-28.2-0.2","5ade6f4709eae2000112e9e2","B2","batch2","","520","","","tol_tohand","","","","","","","","","tol_peg_1","520","520","0","[[0,0,0],[3,1],[0]]","3","[[1,2,0],[3,0],[0]]","6","0","","","","","","5","",""
"","","","","","single-stim-button","312","677080","0.0-3.0-28.2-1.2","5ade6f4709eae2000112e9e2","B2","batch2","","1205","","","tol_toboard","","","","","","","","","tol_peg_3","1205","1205","0","[[0,0,0],[3,1],[2]]","3","[[1,2,0],[3,0],[0]]","6","0","","","","","","5","",""
"","","","","","single-stim-button","313","677895","0.0-3.0-28.3-0.3","5ade6f4709eae2000112e9e2","B2","batch2","","815","","","tol_tohand","","","","","","","","","tol_peg_2","815","815","0","[[0,0,0],[3,0],[2]]","4","[[1,2,0],[3,0],[0]]","6","0","","","","","","5","",""
"","","","","","single-stim-button","314","679151","0.0-3.0-28.3-1.3","5ade6f4709eae2000112e9e2","B2","batch2","","1256","","","tol_toboard","","","","","","","","","tol_peg_1","1256","1256","0","[[1,0,0],[3,0],[2]]","4","[[1,2,0],[3,0],[0]]","6","0","","","","","","5","",""
"","","","","","single-stim-button","315","680407","0.0-3.0-28.4-0.4","5ade6f4709eae2000112e9e2","B2","batch2","","1255","","","tol_tohand","","","","","","","","","tol_peg_3","1255","1255","0","[[1,0,0],[3,0],[0]]","5","[[1,2,0],[3,0],[0]]","6","0","","","","","","5","",""
"","","","","","single-stim-button","316","681295","0.0-3.0-28.4-1.4","5ade6f4709eae2000112e9e2","B2","batch2","","886","","","tol_toboard","","","","","","","","","tol_peg_1","886","886","0","[[1,2,0],[3,0],[0]]","5","[[1,2,0],[3,0],[0]]","6","0","","","","","","5","",""
"","","","","","poldrack-single-stim","317","682299","0.0-3.0-29.0","5ade6f4709eae2000112e9e2","B2","batch2","","-1","","","tol_feedback","true","","","","","","","","","1000","1000","500","","","","","","-1","none","true","3126","6747","","",""
"","","","","","html-button-response","318","683101","0.0-3.0-30.0","5ade6f4709eae2000112e9e2","B2","batch2","","800.8999999985099","<div class = centerbox><p class = center-block-text>problem <strong>8</strong> out of 25 problems</p></div>","0","tol_trial_num","","","","","","","","","","","","","","","","","","","","","","","","",""
"","","","","","single-stim-button","319","694211","0.0-3.0-31.0-0.0","5ade6f4709eae2000112e9e2","B2","batch2","","11108","","","tol_tohand","","","","","","","","","tol_peg_3","11108","11108","0","[[0,0,0],[2,3],[0]]","1","[[1,2,0],[3,0],[0]]","7","0","","","","","","4","",""
"","","","","","single-stim-button","320","695036","0.0-3.0-31.0-1.0","5ade6f4709eae2000112e9e2","B2","batch2","","823","","","tol_toboard","","","","","","","","","tol_peg_1","823","823","0","[[1,0,0],[2,3],[0]]","1","[[1,2,0],[3,0],[0]]","7","0","","","","","","4","",""
"","","","","","single-stim-button","321","695794","0.0-3.0-31.1-0.1","5ade6f4709eae2000112e9e2","B2","batch2","","758","","","tol_tohand","","","","","","","","","tol_peg_2","758","758","0","[[1,0,0],[2,0],[0]]","2","[[1,2,0],[3,0],[0]]","7","0","","","","","","4","",""
"","","","","","single-stim-button","322","696794","0.0-3.0-31.1-1.1","5ade6f4709eae2000112e9e2","B2","batch2","","998","","","tol_toboard","","","","","","","","","tol_peg_3","998","998","0","[[1,0,0],[2,0],[3]]","2","[[1,2,0],[3,0],[0]]","7","0","","","","","","4","",""
"","","","","","single-stim-button","323","697282","0.0-3.0-31.2-0.2","5ade6f4709eae2000112e9e2","B2","batch2","","488","","","tol_tohand","","","","","","","","","tol_peg_2","488","488","0","[[1,0,0],[0,0],[3]]","3","[[1,2,0],[3,0],[0]]","7","0","","","","","","4","",""
"","","","","","single-stim-button","324","697969","0.0-3.0-31.2-1.2","5ade6f4709eae2000112e9e2","B2","batch2","","686","","","tol_toboard","","","","","","","","","tol_peg_1","686","686","0","[[1,2,0],[0,0],[3]]","3","[[1,2,0],[3,0],[0]]","7","0","","","","","","4","",""
"","","","","","single-stim-button","325","698889","0.0-3.0-31.3-0.3","5ade6f4709eae2000112e9e2","B2","batch2","","919","","","tol_tohand","","","","","","","","","tol_peg_3","919","919","0","[[1,2,0],[0,0],[0]]","4","[[1,2,0],[3,0],[0]]","7","0","","","","","","4","",""
"","","","","","single-stim-button","326","699728","0.0-3.0-31.3-1.3","5ade6f4709eae2000112e9e2","B2","batch2","","838","","","tol_toboard","","","","","","","","","tol_peg_2","838","838","0","[[1,2,0],[3,0],[0]]","4","[[1,2,0],[3,0],[0]]","7","0","","","","","","4","",""
"","","","","","poldrack-single-stim","327","700734","0.0-3.0-32.0","5ade6f4709eae2000112e9e2","B2","batch2","","-1","","","tol_feedback","true","","","","","","","","","1000","1000","500","","","","","","-1","none","true","11108","13273","","",""
"","","","","","html-button-response","328","701546","0.0-3.0-33.0","5ade6f4709eae2000112e9e2","B2","batch2","","811","<div class = centerbox><p class = center-block-text>problem <strong>9</strong> out of 25 problems</p></div>","0","tol_trial_num","","","","","","","","","","","","","","","","","","","","","","","","",""
"","","","","","single-stim-button","329","710973","0.0-3.0-34.0-0.0","5ade6f4709eae2000112e9e2","B2","batch2","","9427","","","tol_tohand","","","","","","","","","tol_peg_3","9427","9427","0","[[3,2,0],[0,0],[0]]","1","[[2,1,0],[3,0],[0]]","8","0","","","","","","6","",""
"","","","","","single-stim-button","330","712070","0.0-3.0-34.0-1.0","5ade6f4709eae2000112e9e2","B2","batch2","","1096","","","tol_toboard","","","","","","","","","tol_peg_2","1096","1096","0","[[3,2,0],[1,0],[0]]","1","[[2,1,0],[3,0],[0]]","8","0","","","","","","6","",""
"","","","","","single-stim-button","331","713699","0.0-3.0-34.1-0.1","5ade6f4709eae2000112e9e2","B2","batch2","","1628","","","tol_tohand","","","","","","","","","tol_peg_1","1628","1628","0","[[3,0,0],[1,0],[0]]","2","[[2,1,0],[3,0],[0]]","8","0","","","","","","6","",""
"","","","","","single-stim-button","332","715757","0.0-3.0-34.1-1.1","5ade6f4709eae2000112e9e2","B2","batch2","","2056","","","tol_toboard","","","","","","","","","tol_peg_3","2056","2056","0","[[3,0,0],[1,0],[2]]","2","[[2,1,0],[3,0],[0]]","8","0","","","","","","6","",""
"","","","","","single-stim-button","333","717283","0.0-3.0-34.2-0.2","5ade6f4709eae2000112e9e2","B2","batch2","","1526","","","tol_tohand","","","","","","","","","tol_peg_2","1526","1526","0","[[3,0,0],[0,0],[2]]","3","[[2,1,0],[3,0],[0]]","8","0","","","","","","6","",""
"","","","","","single-stim-button","334","724442","0.0-3.0-34.2-1.2","5ade6f4709eae2000112e9e2","B2","batch2","","7158","","","tol_toboard","","","","","","","","","tol_peg_2","7158","7158","0","[[3,0,0],[1,0],[2]]","3","[[2,1,0],[3,0],[0]]","8","0","","","","","","6","",""
"","","","","","single-stim-button","335","725888","0.0-3.0-34.3-0.3","5ade6f4709eae2000112e9e2","B2","batch2","","1445","","","tol_tohand","","","","","","","","","tol_peg_3","1445","1445","0","[[3,0,0],[1,0],[0]]","4","[[2,1,0],[3,0],[0]]","8","0","","","","","","6","",""
"","","","","","single-stim-button","336","732647","0.0-3.0-34.3-1.3","5ade6f4709eae2000112e9e2","B2","batch2","","6758","","","tol_toboard","","","","","","","","","tol_peg_1","6758","6758","0","[[3,2,0],[1,0],[0]]","4","[[2,1,0],[3,0],[0]]","8","0","","","","","","6","",""
"","","","","","single-stim-button","337","733470","0.0-3.0-34.4-0.4","5ade6f4709eae2000112e9e2","B2","batch2","","822","","","tol_tohand","","","","","","","","","tol_peg_2","822","822","0","[[3,2,0],[0,0],[0]]","5","[[2,1,0],[3,0],[0]]","8","0","","","","","","6","",""
"","","","","","single-stim-button","338","734247","0.0-3.0-34.4-1.4","5ade6f4709eae2000112e9e2","B2","batch2","","776","","","tol_toboard","","","","","","","","","tol_peg_3","776","776","0","[[3,2,0],[0,0],[1]]","5","[[2,1,0],[3,0],[0]]","8","0","","","","","","6","",""
"","","","","","single-stim-button","339","734959","0.0-3.0-34.5-0.5","5ade6f4709eae2000112e9e2","B2","batch2","","712","","","tol_tohand","","","","","","","","","tol_peg_1","712","712","0","[[3,0,0],[0,0],[1]]","6","[[2,1,0],[3,0],[0]]","8","0","","","","","","6","",""
"","","","","","single-stim-button","340","739510","0.0-3.0-34.5-1.5","5ade6f4709eae2000112e9e2","B2","batch2","","4551","","","tol_toboard","","","","","","","","","tol_peg_1","4551","4551","0","[[3,2,0],[0,0],[1]]","6","[[2,1,0],[3,0],[0]]","8","0","","","","","","6","",""
"","","","","","single-stim-button","341","740668","0.0-3.0-34.6-0.6","5ade6f4709eae2000112e9e2","B2","batch2","","1157","","","tol_tohand","","","","","","","","","tol_peg_3","1157","1157","0","[[3,2,0],[0,0],[0]]","7","[[2,1,0],[3,0],[0]]","8","0","","","","","","6","",""
"","","","","","single-stim-button","342","741581","0.0-3.0-34.6-1.6","5ade6f4709eae2000112e9e2","B2","batch2","","913","","","tol_toboard","","","","","","","","","tol_peg_2","913","913","0","[[3,2,0],[1,0],[0]]","7","[[2,1,0],[3,0],[0]]","8","0","","","","","","6","",""
"","","","","","single-stim-button","343","742253","0.0-3.0-34.7-0.7","5ade6f4709eae2000112e9e2","B2","batch2","","672","","","tol_tohand","","","","","","","","","tol_peg_1","672","672","0","[[3,0,0],[1,0],[0]]","8","[[2,1,0],[3,0],[0]]","8","0","","","","","","6","",""
"","","","","","single-stim-button","344","743237","0.0-3.0-34.7-1.7","5ade6f4709eae2000112e9e2","B2","batch2","","983","","","tol_toboard","","","","","","","","","tol_peg_3","983","983","0","[[3,0,0],[1,0],[2]]","8","[[2,1,0],[3,0],[0]]","8","0","","","","","","6","",""
