"success","timeout","failed_images","failed_audio","failed_video","trial_type","trial_index","time_elapsed","internal_node_id","subject_id","study_id","session_id","view_history","rt","stimulus","response","task","correct","answer","item","fiar_detect_rt","fiar_detect_correct","total_correct_fiar_detect","post_trial_gap","choices","mouse_click","stim_duration","block_duration","timing_post_trial","current_position","tol_num_moves_made","tol_target","tol_problem_id","tol_rt","key_press","possible_responses","tol_correct","preplanning","tol_rt_per_trial","tol_min_moves","spm_correct","spm_rt"
"true","false","[]","[]","[]","preload","0","776","0.0-0.0","5aedfba176b763000132f7fe","E1","batch5","","","","","","","","","","","","","","","","","","","","","","","","","","","","","",""
"true","","","","","fullscreen","1","9057","0.0-1.0-0.0","5aedfba176b763000132f7fe","E1","batch5","","","","","","","","","","","","","","","","","","","","","","","","","","","","","",""
"true","","","","","fullscreen","2","12754","0.0-2.0-0.0","5aedfba176b763000132f7fe","E1","batch5","","","","","","","","","","","","","","","","","","","","","","","","","","","","","",""
"","","","","","instructions","3","35535","0.0-2.0-1.0-0.0","5aedfba176b763000132f7fe","E1","batch5","[{""page_index"":0,""viewing_time"":15634.29999999702},{""page_index"":1,""viewing_time"":7144.900000002235}]","22779.599999997765","","","","","","","","","","","","","","","","","","","","","","","","","","","",""
"","","","","","html-button-response","4","38031","0.0-2.0-1.0-1.0-0.0","5aedfba176b763000132f7fe","E1","batch5","","2495.199999999255","<p class=block-text> Let's answer a few questions <br>","0","pattern_enter_quiz","","","","","","","","","","","","","","","","","","","","","","","","",""
"","","","","","html-button-response","5","47992","0.0-2.0-1.0-1.0-1.0","5aedfba176b763000132f7fe","E1","batch5","","9960","<p class = block-text>True or False: You will have as much time as you want to make each choice. <br></p>","1","pattern_quiz","true","","","","","","","","","","","","","","","","","","","","","","","",""
"","","","","","html-button-response","6","49233","0.0-2.0-1.0-1.0-2.0","5aedfba176b763000132f7fe","E1","batch5","","1239.9000000022352","<p class = block-text>Correct! You should make your choice <strong> as fast as you can</strong>.</p>","0","pattern_quiz_feedback","","","","","","","","","","","","","","","","","","","","","","","","",""
"","","","","","html-button-response","7","54385","0.0-2.0-1.0-1.0-3.0","5aedfba176b763000132f7fe","E1","batch5","","5151.800000000745","<p class = block-text>True or False: You will look for 4 pieces in black or white color connected in a row either horizontally, vertically or diagonally. <br></p>","0","pattern_quiz","true","","","","","","","","","","","","","","","","","","","","","","","",""
"","","","","","html-button-response","8","55225","0.0-2.0-1.0-1.0-4.0","5aedfba176b763000132f7fe","E1","batch5","","839.6999999992549","<p class = block-text>Correct! </p>","0","pattern_quiz_feedback","","","","","","","","","","","","","","","","","","","","","","","","",""
"","","","","","html-button-response","9","70283","0.0-2.0-2.0","5aedfba176b763000132f7fe","E1","batch5","","15057.10000000149","<p class=block-text> Now that you've understood the game, let's do a few practice trials before we start!<br> <br>","0","pattern_enter_practice","","","","","","","","","","","","","","","","","","","","","","","","",""
"","","","","","image-keyboard-response","10","73630","0.0-2.0-3.0-0.0","5aedfba176b763000132f7fe","E1","batch5","","3344.800000000745","stim/prac_yes_20_dia_b1.png","f","pattern_practice","true","f","","","","","","","","","","","","","","","","","","","","","","",""
"","","","","","html-keyboard-response","11","74643","0.0-2.0-3.0-1.0","5aedfba176b763000132f7fe","E1","batch5","","null","<p style=""font-size:30px;color:green;"">Correct!</p>","null","pattern_feedback","","","","","","","","","","","","","","","","","","","","","","","","",""
"","","","","","image-keyboard-response","12","75815","0.0-2.0-3.0-0.1","5aedfba176b763000132f7fe","E1","batch5","","1171.0999999977648","stim/prac_yes_18_hor_w1.png","f","pattern_practice","true","f","","","","","","","","","","","","","","","","","","","","","","",""
"","","","","","html-keyboard-response","13","76831","0.0-2.0-3.0-1.1","5aedfba176b763000132f7fe","E1","batch5","","null","<p style=""font-size:30px;color:green;"">Correct!</p>","null","pattern_feedback","","","","","","","","","","","","","","","","","","","","","","","","",""
"","","","","","image-keyboard-response","14","77935","0.0-2.0-3.0-0.2","5aedfba176b763000132f7fe","E1","batch5","","1103.5","stim/prac_no_16_1.png","j","pattern_practice","true","j","","","","","","","","","","","","","","","","","","","","","","",""
"","","","","","html-keyboard-response","15","78953","0.0-2.0-3.0-1.2","5aedfba176b763000132f7fe","E1","batch5","","null","<p style=""font-size:30px;color:green;"">Correct!</p>","null","pattern_feedback","","","","","","","","","","","","","","","","","","","","","","","","",""
"","","","","","image-keyboard-response","16","79696","0.0-2.0-3.0-0.3","5aedfba176b763000132f7fe","E1","batch5","","742.6999999992549","stim/prac_yes_16_ver_w1.png","f","pattern_practice","true","f","","","","","","","","","","","","","","","","","","","","","","",""
"","","","","","html-keyboard-response","17","80711","0.0-2.0-3.0-1.3","5aedfba176b763000132f7fe","E1","batch5","","null","<p style=""font-size:30px;color:green;"">Correct!</p>","null","pattern_feedback","","","","","","","","","","","","","","","","","","","","","","","","",""
"","","","","","image-keyboard-response","18","81680","0.0-2.0-3.0-0.4","5aedfba176b763000132f7fe","E1","batch5","","967.3999999985099","stim/prac_no_18_1.png","j","pattern_practice","true","j","","","","","","","","","","","","","","","","","","","","","","",""
"","","","","","html-keyboard-response","19","82694","0.0-2.0-3.0-1.4","5aedfba176b763000132f7fe","E1","batch5","","null","<p style=""font-size:30px;color:green;"">Correct!</p>","null","pattern_feedback","","","","","","","","","","","","","","","","","","","","","","","","",""
"","","","","","html-button-response","20","92942","0.0-2.0-4.0","5aedfba176b763000132f7fe","E1","batch5","","10247.400000002235","<p class=block-text> Good job! You are done with practice trials!<br>
        You responded correctly on 100% of the trials.<br>
        Press the button below to start official trials. Now you won't see any feedback about your response</p>","0","pattern_enter_official_trials","","","","","","","","","","","","","","","","","","","","","","","","",""
"","","","","","html-keyboard-response","21","93746","0.0-2.0-5.0-0.0","5aedfba176b763000132f7fe","E1","batch5","","null","<p class=block-text>Trial 1 out of 78</p>","null","pattern_show_trial_num","","","","","","","","","","","","","","","","","","","","","","","","",""
"","","","","","image-keyboard-response","22","95287","0.0-2.0-5.0-1.0","5aedfba176b763000132f7fe","E1","batch5","","1540.300000000745","stim/yes_23_ver_b1.png","f","pattern_response","true","f","pattern_48","1540.300000000745","true","1","","","","","","","","","","","","","","","","","","",""
"","","","","","html-keyboard-response","23","96601","0.0-2.0-5.0-0.1","5aedfba176b763000132f7fe","E1","batch5","","null","<p class=block-text>Trial 2 out of 78</p>","null","pattern_show_trial_num","","","","","","","","","","","","","","","","","","","","","","","","",""
"","","","","","image-keyboard-response","24","97304","0.0-2.0-5.0-1.1","5aedfba176b763000132f7fe","E1","batch5","","701.9000000022352","stim/yes_29_hor_b1_b.png","f","pattern_response","true","f","pattern_52","701.9000000022352","true","2","","","","","","","","","","","","","","","","","","",""
"","","","","","html-keyboard-response","25","98609","0.0-2.0-5.0-0.2","5aedfba176b763000132f7fe","E1","batch5","","null","<p class=block-text>Trial 3 out of 78</p>","null","pattern_show_trial_num","","","","","","","","","","","","","","","","","","","","","","","","",""
"","","","","","image-keyboard-response","26","101384","0.0-2.0-5.0-1.2","5aedfba176b763000132f7fe","E1","batch5","","2774.400000002235","stim/no_47_1_b.png","j","pattern_response","true","j","pattern_27","2774.400000002235","true","3","","","","","","","","","","","","","","","","","","",""
"","","","","","html-keyboard-response","27","102702","0.0-2.0-5.0-0.3","5aedfba176b763000132f7fe","E1","batch5","","null","<p class=block-text>Trial 4 out of 78</p>","null","pattern_show_trial_num","","","","","","","","","","","","","","","","","","","","","","","","",""
"","","","","","image-keyboard-response","28","103672","0.0-2.0-5.0-1.3","5aedfba176b763000132f7fe","E1","batch5","","968.1999999992549","stim/yes_46_ver_b1_b.png","f","pattern_response","true","f","pattern_68","968.1999999992549","true","4","","","","","","","","","","","","","","","","","","",""
"","","","","","html-keyboard-response","29","105001","0.0-2.0-5.0-0.4","5aedfba176b763000132f7fe","E1","batch5","","null","<p class=block-text>Trial 5 out of 78</p>","null","pattern_show_trial_num","","","","","","","","","","","","","","","","","","","","","","","","",""
"","","","","","image-keyboard-response","30","105743","0.0-2.0-5.0-1.4","5aedfba176b763000132f7fe","E1","batch5","","740.8000000007451","stim/yes_36_ver_w1_w.png","f","pattern_response","true","f","pattern_58","740.8000000007451","true","5","","","","","","","","","","","","","","","","","","",""
"","","","","","html-keyboard-response","31","107059","0.0-2.0-5.0-0.5","5aedfba176b763000132f7fe","E1","batch5","","null","<p class=block-text>Trial 6 out of 78</p>","null","pattern_show_trial_num","","","","","","","","","","","","","","","","","","","","","","","","",""
"","","","","","image-keyboard-response","32","107871","0.0-2.0-5.0-1.5","5aedfba176b763000132f7fe","E1","batch5","","811.6999999992549","stim/yes_15_dia_b1u_b.png","f","pattern_response","true","f","pattern_44","811.6999999992549","true","6","","","","","","","","","","","","","","","","","","",""
"","","","","","html-keyboard-response","33","109204","0.0-2.0-5.0-0.6","5aedfba176b763000132f7fe","E1","batch5","","null","<p class=block-text>Trial 7 out of 78</p>","null","pattern_show_trial_num","","","","","","","","","","","","","","","","","","","","","","","","",""
"","","","","","image-keyboard-response","34","111071","0.0-2.0-5.0-1.6","5aedfba176b763000132f7fe","E1","batch5","","1865.8999999985099","stim/yes_51_dia_b1.png","j","pattern_response","false","f","pattern_72","1865.8999999985099","false","6","","","","","","","","","","","","","","","","","","",""
"","","","","","html-keyboard-response","35","112380","0.0-2.0-5.0-0.7","5aedfba176b763000132f7fe","E1","batch5","","null","<p class=block-text>Trial 8 out of 78</p>","null","pattern_show_trial_num","","","","","","","","","","","","","","","","","","","","","","","","",""
"","","","","","image-keyboard-response","36","113296","0.0-2.0-5.0-1.7","5aedfba176b763000132f7fe","E1","batch5","","914.7999999970198","stim/yes_26_dia_w2_w.png","f","pattern_response","true","f","pattern_50","914.7999999970198","true","7","","","","","","","","","","","","","","","","","","",""
"","","","","","html-keyboard-response","37","114607","0.0-2.0-5.0-0.8","5aedfba176b763000132f7fe","E1","batch5","","null","<p class=block-text>Trial 9 out of 78</p>","null","pattern_show_trial_num","","","","","","","","","","","","","","","","","","","","","","","","",""
"","","","","","image-keyboard-response","38","115744","0.0-2.0-5.0-1.8","5aedfba176b763000132f7fe","E1","batch5","","1135.6000000014901","stim/yes_30_ver_b1_b.png","f","pattern_response","true","f","pattern_54","1135.6000000014901","true","8","","","","","","","","","","","","","","","","","","",""
"","","","","","html-keyboard-response","39","117068","0.0-2.0-5.0-0.9","5aedfba176b763000132f7fe","E1","batch5","","null","<p class=block-text>Trial 10 out of 78</p>","null","pattern_show_trial_num","","","","","","","","","","","","","","","","","","","","","","","","",""
"","","","","","image-keyboard-response","40","118887","0.0-2.0-5.0-1.9","5aedfba176b763000132f7fe","E1","batch5","","1818.5","stim/no_36_1_b.png","j","pattern_response","true","j","pattern_17","1818.5","true","9","","","","","","","","","","","","","","","","","","",""
"","","","","","html-keyboard-response","41","120202","0.0-2.0-5.0-0.10","5aedfba176b763000132f7fe","E1","batch5","","null","<p class=block-text>Trial 11 out of 78</p>","null","pattern_show_trial_num","","","","","","","","","","","","","","","","","","","","","","","","",""
"","","","","","image-keyboard-response","42","121008","0.0-2.0-5.0-1.10","5aedfba176b763000132f7fe","E1","batch5","","805.3000000007451","stim/yes_70_ver_b1.png","f","pattern_response","true","f","pattern_80","805.3000000007451","true","10","","","","","","","","","","","","","","","","","","",""
"","","","","","html-keyboard-response","43","122334","0.0-2.0-5.0-0.11","5aedfba176b763000132f7fe","E1","batch5","","null","<p class=block-text>Trial 12 out of 78</p>","null","pattern_show_trial_num","","","","","","","","","","","","","","","","","","","","","","","","",""
"","","","","","image-keyboard-response","44","125391","0.0-2.0-5.0-1.11","5aedfba176b763000132f7fe","E1","batch5","","3056.10000000149","stim/no_67_1.png","j","pattern_response","true","j","pattern_39","3056.10000000149","true","11","","","","","","","","","","","","","","","","","","",""
"","","","","","html-keyboard-response","45","126693","0.0-2.0-5.0-0.12","5aedfba176b763000132f7fe","E1","batch5","","null","<p class=block-text>Trial 13 out of 78</p>","null","pattern_show_trial_num","","","","","","","","","","","","","","","","","","","","","","","","",""
"","","","","","image-keyboard-response","46","127839","0.0-2.0-5.0-1.12","5aedfba176b763000132f7fe","E1","batch5","","1145.1000000014901","stim/yes_33_dia_w1_w.png","f","pattern_response","true","f","pattern_56","1145.1000000014901","true","12","","","","","","","","","","","","","","","","","","",""
"","","","","","html-keyboard-response","47","129148","0.0-2.0-5.0-0.13","5aedfba176b763000132f7fe","E1","batch5","","null","<p class=block-text>Trial 14 out of 78</p>","null","pattern_show_trial_num","","","","","","","","","","","","","","","","","","","","","","","","",""
"","","","","","image-keyboard-response","48","131496","0.0-2.0-5.0-1.13","5aedfba176b763000132f7fe","E1","batch5","","2347.099999997765","stim/yes_42_dia_w1_w.png","j","pattern_response","false","f","pattern_64","2347.099999997765","false","12","","","","","","","","","","","","","","","","","","",""
"","","","","","html-keyboard-response","49","132818","0.0-2.0-5.0-0.14","5aedfba176b763000132f7fe","E1","batch5","","null","<p class=block-text>Trial 15 out of 78</p>","null","pattern_show_trial_num","","","","","","","","","","","","","","","","","","","","","","","","",""
"","","","","","image-keyboard-response","50","135688","0.0-2.0-5.0-1.14","5aedfba176b763000132f7fe","E1","batch5","","2869.099999997765","stim/no_53_1_b.png","j","pattern_response","true","j","pattern_33","2869.099999997765","true","13","","","","","","","","","","","","","","","","","","",""
"","","","","","html-keyboard-response","51","137014","0.0-2.0-5.0-0.15","5aedfba176b763000132f7fe","E1","batch5","","null","<p class=block-text>Trial 16 out of 78</p>","null","pattern_show_trial_num","","","","","","","","","","","","","","","","","","","","","","","","",""
"","","","","","image-keyboard-response","52","137975","0.0-2.0-5.0-1.15","5aedfba176b763000132f7fe","E1","batch5","","959.2999999970198","stim/yes_49_hor_w1_b.png","f","pattern_response","true","f","pattern_70","959.2999999970198","true","14","","","","","","","","","","","","","","","","","","",""
"","","","","","html-keyboard-response","53","139291","0.0-2.0-5.0-0.16","5aedfba176b763000132f7fe","E1","batch5","","null","<p class=block-text>Trial 17 out of 78</p>","null","pattern_show_trial_num","","","","","","","","","","","","","","","","","","","","","","","","",""
"","","","","","image-keyboard-response","54","140743","0.0-2.0-5.0-1.16","5aedfba176b763000132f7fe","E1","batch5","","1451.4000000022352","stim/no_15_1_w.png","j","pattern_response","true","j","pattern_03","1451.4000000022352","true","15","","","","","","","","","","","","","","","","","","",""
"","","","","","html-keyboard-response","55","142058","0.0-2.0-5.0-0.17","5aedfba176b763000132f7fe","E1","batch5","","null","<p class=block-text>Trial 18 out of 78</p>","null","pattern_show_trial_num","","","","","","","","","","","","","","","","","","","","","","","","",""
"","","","","","image-keyboard-response","56","144951","0.0-2.0-5.0-1.17","5aedfba176b763000132f7fe","E1","batch5","","2892.300000000745","stim/no_58_1_w.png","j","pattern_response","true","j","pattern_35","2892.300000000745","true","16","","","","","","","","","","","","","","","","","","",""
"","","","","","html-keyboard-response","57","146261","0.0-2.0-5.0-0.18","5aedfba176b763000132f7fe","E1","batch5","","null","<p class=block-text>Trial 19 out of 78</p>","null","pattern_show_trial_num","","","","","","","","","","","","","","","","","","","","","","","","",""
"","","","","","image-keyboard-response","58","150232","0.0-2.0-5.0-1.18","5aedfba176b763000132f7fe","E1","batch5","","3969.699999999255","stim/yes_63_dia_b1.png","f","pattern_response","true","f","pattern_78","3969.699999999255","true","17","","","","","","","","","","","","","","","","","","",""
"","","","","","html-keyboard-response","59","151542","0.0-2.0-5.0-0.19","5aedfba176b763000132f7fe","E1","batch5","","null","<p class=block-text>Trial 20 out of 78</p>","null","pattern_show_trial_num","","","","","","","","","","","","","","","","","","","","","","","","",""
"","","","","","image-keyboard-response","60","152263","0.0-2.0-5.0-1.19","5aedfba176b763000132f7fe","E1","batch5","","720.3000000007451","stim/yes_17_ver_b1_b.png","f","pattern_response","true","f","pattern_46","720.3000000007451","true","18","","","","","","","","","","","","","","","","","","",""
"","","","","","html-keyboard-response","61","153577","0.0-2.0-5.0-0.20","5aedfba176b763000132f7fe","E1","batch5","","null","<p class=block-text>Trial 21 out of 78</p>","null","pattern_show_trial_num","","","","","","","","","","","","","","","","","","","","","","","","",""
"","","","","","image-keyboard-response","62","155879","0.0-2.0-5.0-1.20","5aedfba176b763000132f7fe","E1","batch5","","2301.7999999970198","stim/no_37_2_w.png","j","pattern_response","true","j","pattern_19","2301.7999999970198","true","19","","","","","","","","","","","","","","","","","","",""
"","","","","","html-keyboard-response","63","157207","0.0-2.0-5.0-0.21","5aedfba176b763000132f7fe","E1","batch5","","null","<p class=block-text>Trial 22 out of 78</p>","null","pattern_show_trial_num","","","","","","","","","","","","","","","","","","","","","","","","",""
"","","","","","image-keyboard-response","64","159143","0.0-2.0-5.0-1.21","5aedfba176b763000132f7fe","E1","batch5","","1935","stim/yes_44_ver_w1_w.png","j","pattern_response","false","f","pattern_66","1935","false","19","","","","","","","","","","","","","","","","","","",""
"","","","","","html-keyboard-response","65","160456","0.0-2.0-5.0-0.22","5aedfba176b763000132f7fe","E1","batch5","","null","<p class=block-text>Trial 23 out of 78</p>","null","pattern_show_trial_num","","","","","","","","","","","","","","","","","","","","","","","","",""
"","","","","","image-keyboard-response","66","161568","0.0-2.0-5.0-1.22","5aedfba176b763000132f7fe","E1","batch5","","1110.5","stim/yes_53_ver_b1_b.png","f","pattern_response","true","f","pattern_74","1110.5","true","20","","","","","","","","","","","","","","","","","","",""
"","","","","","html-keyboard-response","67","162871","0.0-2.0-5.0-0.23","5aedfba176b763000132f7fe","E1","batch5","","null","<p class=block-text>Trial 24 out of 78</p>","null","pattern_show_trial_num","","","","","","","","","","","","","","","","","","","","","","","","",""
"","","","","","image-keyboard-response","68","163904","0.0-2.0-5.0-1.23","5aedfba176b763000132f7fe","E1","batch5","","1031.199999999255","stim/no_22_1_b.png","j","pattern_response","true","j","pattern_07","1031.199999999255","true","21","","","","","","","","","","","","","","","","","","",""
"","","","","","html-keyboard-response","69","165218","0.0-2.0-5.0-0.24","5aedfba176b763000132f7fe","E1","batch5","","null","<p class=block-text>Trial 25 out of 78</p>","null","pattern_show_trial_num","","","","","","","","","","","","","","","","","","","","","","","","",""
"","","","","","image-keyboard-response","70","166151","0.0-2.0-5.0-1.24","5aedfba176b763000132f7fe","E1","batch5","","932.3000000007451","stim/yes_12_hor_w1_w.png","f","pattern_response","true","f","pattern_42","932.3000000007451","true","22","","","","","","","","","","","","","","","","","","",""
"","","","","","html-keyboard-response","71","167475","0.0-2.0-5.0-0.25","5aedfba176b763000132f7fe","E1","batch5","","null","<p class=block-text>Trial 26 out of 78</p>","null","pattern_show_trial_num","","","","","","","","","","","","","","","","","","","","","","","","",""
"","","","","","image-keyboard-response","72","169167","0.0-2.0-5.0-1.25","5aedfba176b763000132f7fe","E1","batch5","","1691.0999999977648","stim/no_30_1_b.png","j","pattern_response","true","j","pattern_13","1691.0999999977648","true","23","","","","","","","","","","","","","","","","","","",""
"","","","","","html-keyboard-response","73","170484","0.0-2.0-5.0-0.26","5aedfba176b763000132f7fe","E1","batch5","","null","<p class=block-text>Trial 27 out of 78</p>","null","pattern_show_trial_num","","","","","","","","","","","","","","","","","","","","","","","","",""
"","","","","","image-keyboard-response","74","171463","0.0-2.0-5.0-1.26","5aedfba176b763000132f7fe","E1","batch5","","978.9000000022352","stim/yes_37_hor_w1_w.png","f","pattern_response","true","f","pattern_60","978.9000000022352","true","24","","","","","","","","","","","","","","","","","","",""
"","","","","","html-keyboard-response","75","172774","0.0-2.0-5.0-0.27","5aedfba176b763000132f7fe","E1","batch5","","null","<p class=block-text>Trial 28 out of 78</p>","null","pattern_show_trial_num","","","","","","","","","","","","","","","","","","","","","","","","",""
"","","","","","image-keyboard-response","76","173904","0.0-2.0-5.0-1.27","5aedfba176b763000132f7fe","E1","batch5","","1128.9000000022352","stim/no_25_1_b.png","j","pattern_response","true","j","pattern_09","1128.9000000022352","true","25","","","","","","","","","","","","","","","","","","",""
"","","","","","html-keyboard-response","77","175217","0.0-2.0-5.0-0.28","5aedfba176b763000132f7fe","E1","batch5","","null","<p class=block-text>Trial 29 out of 78</p>","null","pattern_show_trial_num","","","","","","","","","","","","","","","","","","","","","","","","",""
"","","","","","image-keyboard-response","78","176175","0.0-2.0-5.0-1.28","5aedfba176b763000132f7fe","E1","batch5","","956.6000000014901","stim/no_18_1_b.png","j","pattern_response","true","j","pattern_05","956.6000000014901","true","26","","","","","","","","","","","","","","","","","","",""
"","","","","","html-keyboard-response","79","177485","0.0-2.0-5.0-0.29","5aedfba176b763000132f7fe","E1","batch5","","null","<p class=block-text>Trial 30 out of 78</p>","null","pattern_show_trial_num","","","","","","","","","","","","","","","","","","","","","","","","",""
"","","","","","image-keyboard-response","80","179296","0.0-2.0-5.0-1.29","5aedfba176b763000132f7fe","E1","batch5","","1810.1000000014901","stim/no_33_1_b.png","j","pattern_response","true","j","pattern_15","1810.1000000014901","true","27","","","","","","","","","","","","","","","","","","",""
"","","","","","html-keyboard-response","81","180605","0.0-2.0-5.0-0.30","5aedfba176b763000132f7fe","E1","batch5","","null","<p class=block-text>Trial 31 out of 78</p>","null","pattern_show_trial_num","","","","","","","","","","","","","","","","","","","","","","","","",""
"","","","","","image-keyboard-response","82","182992","0.0-2.0-5.0-1.30","5aedfba176b763000132f7fe","E1","batch5","","2385.5","stim/no_43_2_b.png","j","pattern_response","true","j","pattern_23","2385.5","true","28","","","","","","","","","","","","","","","","","","",""
"","","","","","html-keyboard-response","83","184292","0.0-2.0-5.0-0.31","5aedfba176b763000132f7fe","E1","batch5","","null","<p class=block-text>Trial 32 out of 78</p>","null","pattern_show_trial_num","","","","","","","","","","","","","","","","","","","","","","","","",""
"","","","","","image-keyboard-response","84","186560","0.0-2.0-5.0-1.31","5aedfba176b763000132f7fe","E1","batch5","","2266.10000000149","stim/no_28_2.png","j","pattern_response","true","j","pattern_11","2266.10000000149","true","29","","","","","","","","","","","","","","","","","","",""
"","","","","","html-keyboard-response","85","187890","0.0-2.0-5.0-0.32","5aedfba176b763000132f7fe","E1","batch5","","null","<p class=block-text>Trial 33 out of 78</p>","null","pattern_show_trial_num","","","","","","","","","","","","","","","","","","","","","","","","",""
"","","","","","image-keyboard-response","86","188767","0.0-2.0-5.0-1.32","5aedfba176b763000132f7fe","E1","batch5","","876.3000000007451","stim/no_12_1.png","j","pattern_response","true","j","pattern_01","876.3000000007451","true","30","","","","","","","","","","","","","","","","","","",""
"","","","","","html-keyboard-response","87","190072","0.0-2.0-5.0-0.33","5aedfba176b763000132f7fe","E1","batch5","","null","<p class=block-text>Trial 34 out of 78</p>","null","pattern_show_trial_num","","","","","","","","","","","","","","","","","","","","","","","","",""
"","","","","","image-keyboard-response","88","192352","0.0-2.0-5.0-1.33","5aedfba176b763000132f7fe","E1","batch5","","2278.099999997765","stim/no_49_2_b.png","j","pattern_response","true","j","pattern_29","2278.099999997765","true","31","","","","","","","","","","","","","","","","","","",""
"","","","","","html-keyboard-response","89","193677","0.0-2.0-5.0-0.34","5aedfba176b763000132f7fe","E1","batch5","","null","<p class=block-text>Trial 35 out of 78</p>","null","pattern_show_trial_num","","","","","","","","","","","","","","","","","","","","","","","","",""
"","","","","","image-keyboard-response","90","196384","0.0-2.0-5.0-1.34","5aedfba176b763000132f7fe","E1","batch5","","2706.10000000149","stim/yes_58_dia_w1_w.png","j","pattern_response","false","f","pattern_76","2706.10000000149","false","31","","","","","","","","","","","","","","","","","","",""
"","","","","","html-keyboard-response","91","197690","0.0-2.0-5.0-0.35","5aedfba176b763000132f7fe","E1","batch5","","null","<p class=block-text>Trial 36 out of 78</p>","null","pattern_show_trial_num","","","","","","","","","","","","","","","","","","","","","","","","",""
"","","","","","image-keyboard-response","92","198384","0.0-2.0-5.0-1.35","5aedfba176b763000132f7fe","E1","batch5","","692.3000000007451","stim/yes_39_hor_w1_w.png","f","pattern_response","true","f","pattern_62","692.3000000007451","true","32","","","","","","","","","","","","","","","","","","",""
"","","","","","html-keyboard-response","93","199708","0.0-2.0-5.0-0.36","5aedfba176b763000132f7fe","E1","batch5","","null","<p class=block-text>Trial 37 out of 78</p>","null","pattern_show_trial_num","","","","","","","","","","","","","","","","","","","","","","","","",""
"","","","","","image-keyboard-response","94","202296","0.0-2.0-5.0-1.36","5aedfba176b763000132f7fe","E1","batch5","","2586.400000002235","stim/no_39_1_w.png","j","pattern_response","true","j","pattern_21","2586.400000002235","true","33","","","","","","","","","","","","","","","","","","",""
"","","","","","html-keyboard-response","95","203611","0.0-2.0-5.0-0.37","5aedfba176b763000132f7fe","E1","batch5","","null","<p class=block-text>Trial 38 out of 78</p>","null","pattern_show_trial_num","","","","","","","","","","","","","","","","","","","","","","","","",""
"","","","","","image-keyboard-response","96","206352","0.0-2.0-5.0-1.37","5aedfba176b763000132f7fe","E1","batch5","","2739.300000000745","stim/no_51_1.png","j","pattern_response","true","j","pattern_31","2739.300000000745","true","34","","","","","","","","","","","","","","","","","","",""
"","","","","","html-keyboard-response","97","207656","0.0-2.0-5.0-0.38","5aedfba176b763000132f7fe","E1","batch5","","null","<p class=block-text>Trial 39 out of 78</p>","null","pattern_show_trial_num","","","","","","","","","","","","","","","","","","","","","","","","",""
"","","","","","image-keyboard-response","98","210584","0.0-2.0-5.0-1.38","5aedfba176b763000132f7fe","E1","batch5","","2925.7999999970198","stim/no_45_1_w.png","j","pattern_response","true","j","pattern_25","2925.7999999970198","true","35","","","","","","","","","","","","","","","","","","",""
"","","","","","image-keyboard-response","99","212584","0.0-2.0-6.0","5aedfba176b763000132f7fe","E1","batch5","","1484.8999999985099","stim/empty_board.png","j","attention_check","true","j","","","","","500","[""f"",""j""]","","","","","","","","","","","","","","","","",""
"","","","","","html-keyboard-response","100","213399","0.0-2.0-7.0-0.0","5aedfba176b763000132f7fe","E1","batch5","","null","<p class=block-text>Trial 40 out of 78</p>","null","pattern_show_trial_num","","","","","","","","","","","","","","","","","","","","","","","","",""
"","","","","","image-keyboard-response","101","214583","0.0-2.0-7.0-1.0","5aedfba176b763000132f7fe","E1","batch5","","1183.5","stim/yes_52_ver_w1.png","f","pattern_response","true","f","pattern_73","1183.5","true","36","","","","","","","","","","","","","","","","","","",""
"","","","","","html-keyboard-response","102","215909","0.0-2.0-7.0-0.1","5aedfba176b763000132f7fe","E1","batch5","","null","<p class=block-text>Trial 41 out of 78</p>","null","pattern_show_trial_num","","","","","","","","","","","","","","","","","","","","","","","","",""
"","","","","","image-keyboard-response","103","217088","0.0-2.0-7.0-1.1","5aedfba176b763000132f7fe","E1","batch5","","1177.699999999255","stim/no_17_1_w.png","j","pattern_response","true","j","pattern_04","1177.699999999255","true","37","","","","","","","","","","","","","","","","","","",""
"","","","","","html-keyboard-response","104","218392","0.0-2.0-7.0-0.2","5aedfba176b763000132f7fe","E1","batch5","","null","<p class=block-text>Trial 42 out of 78</p>","null","pattern_show_trial_num","","","","","","","","","","","","","","","","","","","","","","","","",""
"","","","","","image-keyboard-response","105","221880","0.0-2.0-7.0-1.2","5aedfba176b763000132f7fe","E1","batch5","","3486.800000000745","stim/no_55_1_w.png","j","pattern_response","true","j","pattern_34","3486.800000000745","true","38","","","","","","","","","","","","","","","","","","",""
"","","","","","html-keyboard-response","106","223198","0.0-2.0-7.0-0.3","5aedfba176b763000132f7fe","E1","batch5","","null","<p class=block-text>Trial 43 out of 78</p>","null","pattern_show_trial_num","","","","","","","","","","","","","","","","","","","","","","","","",""
"","","","","","image-keyboard-response","107","225479","0.0-2.0-7.0-1.3","5aedfba176b763000132f7fe","E1","batch5","","2280","stim/yes_55_hor_w1_w.png","f","pattern_response","true","f","pattern_75","2280","true","39","","","","","","","","","","","","","","","","","","",""
"","","","","","html-keyboard-response","108","226785","0.0-2.0-7.0-0.4","5aedfba176b763000132f7fe","E1","batch5","","null","<p class=block-text>Trial 44 out of 78</p>","null","pattern_show_trial_num","","","","","","","","","","","","","","","","","","","","","","","","",""
"","","","","","image-keyboard-response","109","229375","0.0-2.0-7.0-1.4","5aedfba176b763000132f7fe","E1","batch5","","2589.10000000149","stim/no_34_1_b.png","j","pattern_response","true","j","pattern_16","2589.10000000149","true","40","","","","","","","","","","","","","","","","","","",""
"","","","","","html-keyboard-response","110","230696","0.0-2.0-7.0-0.5","5aedfba176b763000132f7fe","E1","batch5","","null","<p class=block-text>Trial 45 out of 78</p>","null","pattern_show_trial_num","","","","","","","","","","","","","","","","","","","","","","","","",""
"","","","","","image-keyboard-response","111","234296","0.0-2.0-7.0-1.5","5aedfba176b763000132f7fe","E1","batch5","","3598.89999999851","stim/yes_48_dia_w1_w.png","j","pattern_response","false","f","pattern_69","3598.89999999851","false","40","","","","","","","","","","","","","","","","","","",""
"","","","","","html-keyboard-response","112","235597","0.0-2.0-7.0-0.6","5aedfba176b763000132f7fe","E1","batch5","","null","<p class=block-text>Trial 46 out of 78</p>","null","pattern_show_trial_num","","","","","","","","","","","","","","","","","","","","","","","","",""
"","","","","","image-keyboard-response","113","236304","0.0-2.0-7.0-1.6","5aedfba176b763000132f7fe","E1","batch5","","706","stim/yes_25_hor_b1_b.png","f","pattern_response","true","f","pattern_49","706","true","41","","","","","","","","","","","","","","","","","","",""
"","","","","","html-keyboard-response","114","237628","0.0-2.0-7.0-0.7","5aedfba176b763000132f7fe","E1","batch5","","null","<p class=block-text>Trial 47 out of 78</p>","null","pattern_show_trial_num","","","","","","","","","","","","","","","","","","","","","","","","",""
"","","","","","image-keyboard-response","115","239343","0.0-2.0-7.0-1.7","5aedfba176b763000132f7fe","E1","batch5","","1715","stim/yes_31_hor_b1.png","f","pattern_response","true","f","pattern_55","1715","true","42","","","","","","","","","","","","","","","","","","",""
"","","","","","html-keyboard-response","116","240662","0.0-2.0-7.0-0.8","5aedfba176b763000132f7fe","E1","batch5","","null","<p class=block-text>Trial 48 out of 78</p>","null","pattern_show_trial_num","","","","","","","","","","","","","","","","","","","","","","","","",""
"","","","","","image-keyboard-response","117","243312","0.0-2.0-7.0-1.8","5aedfba176b763000132f7fe","E1","batch5","","2648.300000000745","stim/yes_50_dia_w1.png","j","pattern_response","false","f","pattern_71","2648.300000000745","false","42","","","","","","","","","","","","","","","","","","",""
"","","","","","html-keyboard-response","118","244614","0.0-2.0-7.0-0.9","5aedfba176b763000132f7fe","E1","batch5","","null","<p class=block-text>Trial 49 out of 78</p>","null","pattern_show_trial_num","","","","","","","","","","","","","","","","","","","","","","","","",""
"","","","","","image-keyboard-response","119","245568","0.0-2.0-7.0-1.9","5aedfba176b763000132f7fe","E1","batch5","","953.0999999977648","stim/yes_28_ver_b1.png","f","pattern_response","true","f","pattern_51","953.0999999977648","true","43","","","","","","","","","","","","","","","","","","",""
"","","","","","html-keyboard-response","120","246892","0.0-2.0-7.0-0.10","5aedfba176b763000132f7fe","E1","batch5","","null","<p class=block-text>Trial 50 out of 78</p>","null","pattern_show_trial_num","","","","","","","","","","","","","","","","","","","","","","","","",""
"","","","","","image-keyboard-response","121","248056","0.0-2.0-7.0-1.10","5aedfba176b763000132f7fe","E1","batch5","","1163.0999999977648","stim/no_23_1.png","j","pattern_response","true","j","pattern_08","1163.0999999977648","true","44","","","","","","","","","","","","","","","","","","",""
"","","","","","html-keyboard-response","122","249363","0.0-2.0-7.0-0.11","5aedfba176b763000132f7fe","E1","batch5","","null","<p class=block-text>Trial 51 out of 78</p>","null","pattern_show_trial_num","","","","","","","","","","","","","","","","","","","","","","","","",""
"","","","","","image-keyboard-response","123","252992","0.0-2.0-7.0-1.11","5aedfba176b763000132f7fe","E1","batch5","","3628.10000000149","stim/no_62_1_w.png","j","pattern_response","true","j","pattern_36","3628.10000000149","true","45","","","","","","","","","","","","","","","","","","",""
"","","","","","html-keyboard-response","124","254304","0.0-2.0-7.0-0.12","5aedfba176b763000132f7fe","E1","batch5","","null","<p class=block-text>Trial 52 out of 78</p>","null","pattern_show_trial_num","","","","","","","","","","","","","","","","","","","","","","","","",""
"","","","","","image-keyboard-response","125","258816","0.0-2.0-7.0-1.12","5aedfba176b763000132f7fe","E1","batch5","","4511.099999997765","stim/no_70_2.png","j","pattern_response","true","j","pattern_40","4511.099999997765","true","46","","","","","","","","","","","","","","","","","","",""
"","","","","","html-keyboard-response","126","260132","0.0-2.0-7.0-0.13","5aedfba176b763000132f7fe","E1","batch5","","null","<p class=block-text>Trial 53 out of 78</p>","null","pattern_show_trial_num","","","","","","","","","","","","","","","","","","","","","","","","",""
"","","","","","image-keyboard-response","127","261441","0.0-2.0-7.0-1.13","5aedfba176b763000132f7fe","E1","batch5","","1307.699999999255","stim/no_20_1_w.png","j","pattern_response","true","j","pattern_06","1307.699999999255","true","47","","","","","","","","","","","","","","","","","","",""
"","","","","","html-keyboard-response","128","262745","0.0-2.0-7.0-0.14","5aedfba176b763000132f7fe","E1","batch5","","null","<p class=block-text>Trial 54 out of 78</p>","null","pattern_show_trial_num","","","","","","","","","","","","","","","","","","","","","","","","",""
"","","","","","image-keyboard-response","129","265025","0.0-2.0-7.0-1.14","5aedfba176b763000132f7fe","E1","batch5","","2277.699999999255","stim/no_36_2_w.png","j","pattern_response","true","j","pattern_18","2277.699999999255","true","48","","","","","","","","","","","","","","","","","","",""
"","","","","","html-keyboard-response","130","266347","0.0-2.0-7.0-0.15","5aedfba176b763000132f7fe","E1","batch5","","null","<p class=block-text>Trial 55 out of 78</p>","null","pattern_show_trial_num","","","","","","","","","","","","","","","","","","","","","","","","",""
"","","","","","image-keyboard-response","131","267600","0.0-2.0-7.0-1.15","5aedfba176b763000132f7fe","E1","batch5","","1252.5","stim/no_13_2_b.png","j","pattern_response","true","j","pattern_02","1252.5","true","49","","","","","","","","","","","","","","","","","","",""
"","","","","","html-keyboard-response","132","268904","0.0-2.0-7.0-0.16","5aedfba176b763000132f7fe","E1","batch5","","null","<p class=block-text>Trial 56 out of 78</p>","null","pattern_show_trial_num","","","","","","","","","","","","","","","","","","","","","","","","",""
"","","","","","image-keyboard-response","133","270937","0.0-2.0-7.0-1.16","5aedfba176b763000132f7fe","E1","batch5","","2031.5","stim/no_32_1_w.png","j","pattern_response","true","j","pattern_14","2031.5","true","50","","","","","","","","","","","","","","","","","","",""
"","","","","","html-keyboard-response","134","272256","0.0-2.0-7.0-0.17","5aedfba176b763000132f7fe","E1","batch5","","null","<p class=block-text>Trial 57 out of 78</p>","null","pattern_show_trial_num","","","","","","","","","","","","","","","","","","","","","","","","",""
"","","","","","image-keyboard-response","135","274720","0.0-2.0-7.0-1.17","5aedfba176b763000132f7fe","E1","batch5","","2461.800000000745","stim/no_42_1_w.png","j","pattern_response","true","j","pattern_22","2461.800000000745","true","51","","","","","","","","","","","","","","","","","","",""
"","","","","","html-keyboard-response","136","276045","0.0-2.0-7.0-0.18","5aedfba176b763000132f7fe","E1","batch5","","null","<p class=block-text>Trial 58 out of 78</p>","null","pattern_show_trial_num","","","","","","","","","","","","","","","","","","","","","","","","",""
"","","","","","image-keyboard-response","137","278712","0.0-2.0-7.0-1.18","5aedfba176b763000132f7fe","E1","batch5","","2665.2999999970198","stim/no_50_1.png","j","pattern_response","true","j","pattern_30","2665.2999999970198","true","52","","","","","","","","","","","","","","","","","","",""
"","","","","","html-keyboard-response","138","280017","0.0-2.0-7.0-0.19","5aedfba176b763000132f7fe","E1","batch5","","null","<p class=block-text>Trial 59 out of 78</p>","null","pattern_show_trial_num","","","","","","","","","","","","","","","","","","","","","","","","",""
"","","","","","image-keyboard-response","139","284313","0.0-2.0-7.0-1.19","5aedfba176b763000132f7fe","E1","batch5","","4295.10000000149","stim/yes_60_ver_b1_b.png","f","pattern_response","true","f","pattern_77","4295.10000000149","true","53","","","","","","","","","","","","","","","","","","",""
"","","","","","html-keyboard-response","140","285625","0.0-2.0-7.0-0.20","5aedfba176b763000132f7fe","E1","batch5","","null","<p class=block-text>Trial 60 out of 78</p>","null","pattern_show_trial_num","","","","","","","","","","","","","","","","","","","","","","","","",""
"","","","","","image-keyboard-response","141","290096","0.0-2.0-7.0-1.20","5aedfba176b763000132f7fe","E1","batch5","","4469.300000000745","stim/no_65_1_b.png","j","pattern_response","true","j","pattern_38","4469.300000000745","true","54","","","","","","","","","","","","","","","","","","",""
"","","","","","html-keyboard-response","142","291416","0.0-2.0-7.0-0.21","5aedfba176b763000132f7fe","E1","batch5","","null","<p class=block-text>Trial 61 out of 78</p>","null","pattern_show_trial_num","","","","","","","","","","","","","","","","","","","","","","","","",""
"","","","","","image-keyboard-response","143","293577","0.0-2.0-7.0-1.21","5aedfba176b763000132f7fe","E1","batch5","","2159.60000000149","stim/yes_35_dia_b1.png","j","pattern_response","false","f","pattern_57","2159.60000000149","false","54","","","","","","","","","","","","","","","","","","",""
"","","","","","html-keyboard-response","144","294881","0.0-2.0-7.0-0.22","5aedfba176b763000132f7fe","E1","batch5","","null","<p class=block-text>Trial 62 out of 78</p>","null","pattern_show_trial_num","","","","","","","","","","","","","","","","","","","","","","","","",""
"","","","","","image-keyboard-response","145","296689","0.0-2.0-7.0-1.22","5aedfba176b763000132f7fe","E1","batch5","","1806.4000000022352","stim/no_26_1_w.png","j","pattern_response","true","j","pattern_10","1806.4000000022352","true","55","","","","","","","","","","","","","","","","","","",""
"","","","","","html-keyboard-response","146","298000","0.0-2.0-7.0-0.23","5aedfba176b763000132f7fe","E1","batch5","","null","<p class=block-text>Trial 63 out of 78</p>","null","pattern_show_trial_num","","","","","","","","","","","","","","","","","","","","","","","","",""
"","","","","","image-keyboard-response","147","298905","0.0-2.0-7.0-1.23","5aedfba176b763000132f7fe","E1","batch5","","903.5","stim/yes_14_hor_b1_w.png","f","pattern_response","true","f","pattern_43","903.5","true","56","","","","","","","","","","","","","","","","","","",""
"","","","","","html-keyboard-response","148","300228","0.0-2.0-7.0-0.24","5aedfba176b763000132f7fe","E1","batch5","","null","<p class=block-text>Trial 64 out of 78</p>","null","pattern_show_trial_num","","","","","","","","","","","","","","","","","","","","","","","","",""
"","","","","","image-keyboard-response","149","302688","0.0-2.0-7.0-1.24","5aedfba176b763000132f7fe","E1","batch5","","2460","stim/yes_37_dia_w1.png","f","pattern_response","true","f","pattern_59","2460","true","57","","","","","","","","","","","","","","","","","","",""
"","","","","","html-keyboard-response","150","304009","0.0-2.0-7.0-0.25","5aedfba176b763000132f7fe","E1","batch5","","null","<p class=block-text>Trial 65 out of 78</p>","null","pattern_show_trial_num","","","","","","","","","","","","","","","","","","","","","","","","",""
"","","","","","image-keyboard-response","151","307193","0.0-2.0-7.0-1.25","5aedfba176b763000132f7fe","E1","batch5","","3182.300000000745","stim/no_38_1_b.png","j","pattern_response","true","j","pattern_20","3182.300000000745","true","58","","","","","","","","","","","","","","","","","","",""
"","","","","","html-keyboard-response","152","308502","0.0-2.0-7.0-0.26","5aedfba176b763000132f7fe","E1","batch5","","null","<p class=block-text>Trial 66 out of 78</p>","null","pattern_show_trial_num","","","","","","","","","","","","","","","","","","","","","","","","",""
"","","","","","image-keyboard-response","153","309920","0.0-2.0-7.0-1.26","5aedfba176b763000132f7fe","E1","batch5","","1417.699999999255","stim/no_29_1_b.png","j","pattern_response","true","j","pattern_12","1417.699999999255","true","59","","","","","","","","","","","","","","","","","","",""
"","","","","","html-keyboard-response","154","311222","0.0-2.0-7.0-0.27","5aedfba176b763000132f7fe","E1","batch5","","null","<p class=block-text>Trial 67 out of 78</p>","null","pattern_show_trial_num","","","","","","","","","","","","","","","","","","","","","","","","",""
"","","","","","image-keyboard-response","155","313944","0.0-2.0-7.0-1.27","5aedfba176b763000132f7fe","E1","batch5","","2720.89999999851","stim/no_48_1_w.png","j","pattern_response","true","j","pattern_28","2720.89999999851","true","60","","","","","","","","","","","","","","","","","","",""
"","","","","","html-keyboard-response","156","315256","0.0-2.0-7.0-0.28","5aedfba176b763000132f7fe","E1","batch5","","null","<p class=block-text>Trial 68 out of 78</p>","null","pattern_show_trial_num","","","","","","","","","","","","","","","","","","","","","","","","",""
"","","","","","image-keyboard-response","157","316928","0.0-2.0-7.0-1.28","5aedfba176b763000132f7fe","E1","batch5","","1670.8999999985099","stim/yes_40_dia_b1_b.png","f","pattern_response","true","f","pattern_63","1670.8999999985099","true","61","","","","","","","","","","","","","","","","","","",""
"","","","","","html-keyboard-response","158","318233","0.0-2.0-7.0-0.29","5aedfba176b763000132f7fe","E1","batch5","","null","<p class=block-text>Trial 69 out of 78</p>","null","pattern_show_trial_num","","","","","","","","","","","","","","","","","","","","","","","","",""
"","","","","","image-keyboard-response","159","321176","0.0-2.0-7.0-1.29","5aedfba176b763000132f7fe","E1","batch5","","2940.800000000745","stim/no_46_1_b.png","j","pattern_response","true","j","pattern_26","2940.800000000745","true","62","","","","","","","","","","","","","","","","","","",""
"","","","","","html-keyboard-response","160","322488","0.0-2.0-7.0-0.30","5aedfba176b763000132f7fe","E1","batch5","","null","<p class=block-text>Trial 70 out of 78</p>","null","pattern_show_trial_num","","","","","","","","","","","","","","","","","","","","","","","","",""
"","","","","","image-keyboard-response","161","323424","0.0-2.0-7.0-1.30","5aedfba176b763000132f7fe","E1","batch5","","935.1999999992549","stim/yes_17_dia_w1.png","f","pattern_response","true","f","pattern_45","935.1999999992549","true","63","","","","","","","","","","","","","","","","","","",""
"","","","","","html-keyboard-response","162","324738","0.0-2.0-7.0-0.31","5aedfba176b763000132f7fe","E1","batch5","","null","<p class=block-text>Trial 71 out of 78</p>","null","pattern_show_trial_num","","","","","","","","","","","","","","","","","","","","","","","","",""
"","","","","","image-keyboard-response","163","328641","0.0-2.0-7.0-1.31","5aedfba176b763000132f7fe","E1","batch5","","3901.60000000149","stim/no_44_1.png","j","pattern_response","true","j","pattern_24","3901.60000000149","true","64","","","","","","","","","","","","","","","","","","",""
"","","","","","html-keyboard-response","164","329969","0.0-2.0-7.0-0.32","5aedfba176b763000132f7fe","E1","batch5","","null","<p class=block-text>Trial 72 out of 78</p>","null","pattern_show_trial_num","","","","","","","","","","","","","","","","","","","","","","","","",""
"","","","","","image-keyboard-response","165","330928","0.0-2.0-7.0-1.32","5aedfba176b763000132f7fe","E1","batch5","","957.5","stim/yes_29_ver_w1.png","f","pattern_response","true","f","pattern_53","957.5","true","65","","","","","","","","","","","","","","","","","","",""
"","","","","","html-keyboard-response","166","332259","0.0-2.0-7.0-0.33","5aedfba176b763000132f7fe","E1","batch5","","null","<p class=block-text>Trial 73 out of 78</p>","null","pattern_show_trial_num","","","","","","","","","","","","","","","","","","","","","","","","",""
"","","","","","image-keyboard-response","167","333128","0.0-2.0-7.0-1.33","5aedfba176b763000132f7fe","E1","batch5","","868.1999999992549","stim/yes_38_hor_b1_b.png","f","pattern_response","true","f","pattern_61","868.1999999992549","true","66","","","","","","","","","","","","","","","","","","",""
"","","","","","html-keyboard-response","168","334443","0.0-2.0-7.0-0.34","5aedfba176b763000132f7fe","E1","batch5","","null","<p class=block-text>Trial 74 out of 78</p>","null","pattern_show_trial_num","","","","","","","","","","","","","","","","","","","","","","","","",""
"","","","","","image-keyboard-response","169","335568","0.0-2.0-7.0-1.34","5aedfba176b763000132f7fe","E1","batch5","","1123.5","stim/yes_67_hor_b1.png","f","pattern_response","true","f","pattern_79","1123.5","true","67","","","","","","","","","","","","","","","","","","",""
"","","","","","html-keyboard-response","170","336877","0.0-2.0-7.0-0.35","5aedfba176b763000132f7fe","E1","batch5","","null","<p class=block-text>Trial 75 out of 78</p>","null","pattern_show_trial_num","","","","","","","","","","","","","","","","","","","","","","","","",""
"","","","","","image-keyboard-response","171","337560","0.0-2.0-7.0-1.35","5aedfba176b763000132f7fe","E1","batch5","","681.7999999970198","stim/yes_22_ver_w1.png","f","pattern_response","true","f","pattern_47","681.7999999970198","true","68","","","","","","","","","","","","","","","","","","",""
"","","","","","html-keyboard-response","172","338866","0.0-2.0-7.0-0.36","5aedfba176b763000132f7fe","E1","batch5","","null","<p class=block-text>Trial 76 out of 78</p>","null","pattern_show_trial_num","","","","","","","","","","","","","","","","","","","","","","","","",""
"","","","","","image-keyboard-response","173","339688","0.0-2.0-7.0-1.36","5aedfba176b763000132f7fe","E1","batch5","","820.5999999977648","stim/yes_43_ver_w1_w.png","f","pattern_response","true","f","pattern_65","820.5999999977648","true","69","","","","","","","","","","","","","","","","","","",""
"","","","","","html-keyboard-response","174","340996","0.0-2.0-7.0-0.37","5aedfba176b763000132f7fe","E1","batch5","","null","<p class=block-text>Trial 77 out of 78</p>","null","pattern_show_trial_num","","","","","","","","","","","","","","","","","","","","","","","","",""
"","","","","","image-keyboard-response","175","341920","0.0-2.0-7.0-1.37","5aedfba176b763000132f7fe","E1","batch5","","922.5","stim/yes_45_hor_b2_b.png","f","pattern_response","true","f","pattern_67","922.5","true","70","","","","","","","","","","","","","","","","","","",""
"","","","","","html-keyboard-response","176","343225","0.0-2.0-7.0-0.38","5aedfba176b763000132f7fe","E1","batch5","","null","<p class=block-text>Trial 78 out of 78</p>","null","pattern_show_trial_num","","","","","","","","","","","","","","","","","","","","","","","","",""
"","","","","","image-keyboard-response","177","346865","0.0-2.0-7.0-1.38","5aedfba176b763000132f7fe","E1","batch5","","3638.10000000149","stim/no_52_1.png","j","pattern_response","true","j","pattern_32","3638.10000000149","true","71","","","","","","","","","","","","","","","","","","",""
"","","","","","html-button-response","178","352786","0.0-2.0-8.0","5aedfba176b763000132f7fe","E1","batch5","","5417.099999997765","<p class = block-text>This concludes the 4-in-a-row detection game.Thank you for your responses!<br>
            You responded correctly on 91% of the trials.<br>
            When you are ready, press ""Continue"" button to continue </p>","0","","","","","","","","","","","","","","","","","","","","","","","","","",""
"true","","","","","fullscreen","179","356907","0.0-3.0-0.0","5aedfba176b763000132f7fe","E1","batch5","","","","","","","","","","","","","","","","","","","","","","","","","","","","","",""
"","","","","","instructions","180","443814","0.0-3.0-1.0-0.0-0.0","5aedfba176b763000132f7fe","E1","batch5","[{""page_index"":0,""viewing_time"":20033.5},{""page_index"":1,""viewing_time"":14657.199999999255},{""page_index"":2,""viewing_time"":13690.099999997765},{""page_index"":3,""viewing_time"":13777.800000000745},{""page_index"":4,""viewing_time"":7025.199999999255},{""page_index"":5,""viewing_time"":14545.70000000298},{""page_index"":6,""viewing_time"":3176.599999997765}]","86906.39999999851","","","tol-instructions","","","","","","","","","","","","","","","","","","","","","","","","",""
"","","","","","html-button-response","181","445078","0.0-3.0-1.0-1.0-0.0","5aedfba176b763000132f7fe","E1","batch5","","1263.5","<p class=block-text> Let's answer a few questions <br>","0","tol_enter_quiz","","","","","","","","","","","","","","","","","","","","","","","","",""
"","","","","","html-button-response","182","452191","0.0-3.0-1.0-1.0-1.0","5aedfba176b763000132f7fe","E1","batch5","","7112.60000000149","<p class = block-text>True or False: You can only move the ball on top of a peg. <br></p>","0","tol_quiz","true","","","","","","","","","","","","","","","","","","","","","","","",""
"","","","","","html-button-response","183","453383","0.0-3.0-1.0-1.0-2.0","5aedfba176b763000132f7fe","E1","batch5","","1190.699999999255","<p class = block-text>Correct! You can only move the ball on top of a peg.</p>","0","tol_quiz_feedback","","","","","","","","","","","","","","","","","","","","","","","","",""
"","","","","","html-button-response","184","456127","0.0-3.0-1.0-1.0-3.0","5aedfba176b763000132f7fe","E1","batch5","","2743.699999999255","<p class = block-text>True or False: You should try to match your board with the target board with fewest moves possible. <br></p>","0","tol_quiz","true","","","","","","","","","","","","","","","","","","","","","","","",""
"","","","","","html-button-response","185","456768","0.0-3.0-1.0-1.0-4.0","5aedfba176b763000132f7fe","E1","batch5","","640","<p class = block-text>Correct! </p>","0","tol_quiz_feedback","","","","","","","","","","","","","","","","","","","","","","","","",""
"","","","","","html-button-response","186","460944","0.0-3.0-2.0","5aedfba176b763000132f7fe","E1","batch5","","4175.60000000149","<p class=block-text> Now that you've understood the game, let's practice a few easier examples before we start!<br> <br>","0","","","","","","","","","","","","","","","","","","","","","","","","","",""
"","","","","","single-stim-button","187","463625","0.0-3.0-3.0-0.0","5aedfba176b763000132f7fe","E1","batch5","","2681","","","tol_practice","","","","","","","","","tol_peg_2","2681","2681","0","[[1,2,0],[0,0],[0]]","1","[[1,2,0],[0,0],[3]]","practice","2681","","","","","","","",""
"","","","","","single-stim-button","188","464600","0.0-3.0-3.0-1.0","5aedfba176b763000132f7fe","E1","batch5","","974","","","tol_practice","","","","","","","","","tol_peg_3","974","974","0","[[1,2,0],[0,0],[3]]","1","[[1,2,0],[0,0],[3]]","practice","974","","","","","","","",""
"","","","","","poldrack-single-stim","189","465602","0.0-3.0-4.0","5aedfba176b763000132f7fe","E1","batch5","","-1","","","tol_feedback","true","","","","","","","","","1000","1000","500","","","","","","-1","none","true","","0","","",""
"","","","","","single-stim-button","190","470922","0.0-3.0-5.0-0.0","5aedfba176b763000132f7fe","E1","batch5","","5319","","","tol_practice","","","","","","","","","tol_peg_1","5319","5319","0","[[1,0,0],[3,0],[0]]","2","[[0,0,0],[3,1],[2]]","practice","5319","","","","","","","",""
"","","","","","single-stim-button","191","472202","0.0-3.0-5.0-1.0","5aedfba176b763000132f7fe","E1","batch5","","1280","","","tol_practice","","","","","","","","","tol_peg_3","1280","1280","0","[[1,0,0],[3,0],[2]]","2","[[0,0,0],[3,1],[2]]","practice","1280","","","","","","","",""
"","","","","","single-stim-button","192","473569","0.0-3.0-5.1-0.1","5aedfba176b763000132f7fe","E1","batch5","","1367","","","tol_practice","","","","","","","","","tol_peg_1","1367","1367","0","[[0,0,0],[3,0],[2]]","3","[[0,0,0],[3,1],[2]]","practice","1367","","","","","","","",""
"","","","","","single-stim-button","193","474314","0.0-3.0-5.1-1.1","5aedfba176b763000132f7fe","E1","batch5","","744","","","tol_practice","","","","","","","","","tol_peg_2","744","744","0","[[0,0,0],[3,1],[2]]","3","[[0,0,0],[3,1],[2]]","practice","744","","","","","","","",""
"","","","","","poldrack-single-stim","194","475319","0.0-3.0-6.0","5aedfba176b763000132f7fe","E1","batch5","","-1","","","tol_feedback","true","","","","","","","","","1000","1000","500","","","","","","-1","none","true","","0","","",""
"","","","","","single-stim-button","195","479162","0.0-3.0-7.0-0.0","5aedfba176b763000132f7fe","E1","batch5","","3842","","","tol_practice","","","","","","","","","tol_peg_2","3842","3842","0","[[1,2,0],[0,0],[0]]","4","[[1,0,0],[2,0],[3]]","practice","3842","","","","","","","",""
"","","","","","single-stim-button","196","479914","0.0-3.0-7.0-1.0","5aedfba176b763000132f7fe","E1","batch5","","751","","","tol_practice","","","","","","","","","tol_peg_3","751","751","0","[[1,2,0],[0,0],[3]]","4","[[1,0,0],[2,0],[3]]","practice","751","","","","","","","",""
"","","","","","single-stim-button","197","481067","0.0-3.0-7.1-0.1","5aedfba176b763000132f7fe","E1","batch5","","1152","","","tol_practice","","","","","","","","","tol_peg_1","1152","1152","0","[[1,0,0],[0,0],[3]]","5","[[1,0,0],[2,0],[3]]","practice","1152","","","","","","","",""
"","","","","","single-stim-button","198","481891","0.0-3.0-7.1-1.1","5aedfba176b763000132f7fe","E1","batch5","","824","","","tol_practice","","","","","","","","","tol_peg_2","824","824","0","[[1,0,0],[2,0],[3]]","5","[[1,0,0],[2,0],[3]]","practice","824","","","","","","","",""
"","","","","","poldrack-single-stim","199","482893","0.0-3.0-8.0","5aedfba176b763000132f7fe","E1","batch5","","-1","","","tol_feedback","true","","","","","","","","","1000","1000","500","","","","","","-1","none","true","","0","","",""
"","","","","","html-button-response","200","488292","0.0-3.0-9.0","5aedfba176b763000132f7fe","E1","batch5","","5398","<div class = centerbox><p class = center-block-text>Great job! You are done with practice trials<br>You are about to start official trials.<br> <br> Problem <strong>1</strong> out of 25 problems</p></div>","0","tol_instruction","","","","","","","","","","","","","","","","","","","","","","","","",""
"","","","","","single-stim-button","201","495838","0.0-3.0-10.0-0.0","5aedfba176b763000132f7fe","E1","batch5","","6531","","","tol_tohand","","","","","","","","","tol_peg_2","6531","6531","0","[[1,2,0],[0,0],[0]]","1","[[1,3,0],[2,0],[0]]","0","0","","","","","","3","",""
"","","","","","single-stim-button","202","496717","0.0-3.0-10.0-1.0","5aedfba176b763000132f7fe","E1","batch5","","878","","","tol_toboard","","","","","","","","","tol_peg_3","878","878","0","[[1,2,0],[0,0],[3]]","1","[[1,3,0],[2,0],[0]]","0","0","","","","","","3","",""
"","","","","","single-stim-button","203","497574","0.0-3.0-10.1-0.1","5aedfba176b763000132f7fe","E1","batch5","","857","","","tol_tohand","","","","","","","","","tol_peg_1","857","857","0","[[1,0,0],[0,0],[3]]","2","[[1,3,0],[2,0],[0]]","0","0","","","","","","3","",""
"","","","","","single-stim-button","204","498317","0.0-3.0-10.1-1.1","5aedfba176b763000132f7fe","E1","batch5","","743","","","tol_toboard","","","","","","","","","tol_peg_2","743","743","0","[[1,0,0],[2,0],[3]]","2","[[1,3,0],[2,0],[0]]","0","0","","","","","","3","",""
"","","","","","single-stim-button","205","499141","0.0-3.0-10.2-0.2","5aedfba176b763000132f7fe","E1","batch5","","824","","","tol_tohand","","","","","","","","","tol_peg_3","824","824","0","[[1,0,0],[2,0],[0]]","3","[[1,3,0],[2,0],[0]]","0","0","","","","","","3","",""
"","","","","","single-stim-button","206","499893","0.0-3.0-10.2-1.2","5aedfba176b763000132f7fe","E1","batch5","","751","","","tol_toboard","","","","","","","","","tol_peg_1","751","751","0","[[1,3,0],[2,0],[0]]","3","[[1,3,0],[2,0],[0]]","0","0","","","","","","3","",""
"","","","","","poldrack-single-stim","207","500907","0.0-3.0-11.0","5aedfba176b763000132f7fe","E1","batch5","","-1","","","tol_feedback","true","","","","","","","","","1000","1000","500","","","","","","-1","none","true","6531","8212","","",""
"","","","","","html-button-response","208","501749","0.0-3.0-12.0","5aedfba176b763000132f7fe","E1","batch5","","841.6999999992549","<div class = centerbox><p class = center-block-text>problem <strong>2</strong> out of 25 problems</p></div>","0","tol_trial_num","","","","","","","","","","","","","","","","","","","","","","","","",""
"","","","","","single-stim-button","209","512695","0.0-3.0-13.0-0.0","5aedfba176b763000132f7fe","E1","batch5","","10946","","","tol_tohand","","","","","","","","","tol_peg_1","10946","10946","0","[[1,0,0],[3,0],[0]]","1","[[2,1,3],[0,0],[0]]","1","0","","","","","","5","",""
"","","","","","single-stim-button","210","513559","0.0-3.0-13.0-1.0","5aedfba176b763000132f7fe","E1","batch5","","864","","","tol_toboard","","","","","","","","","tol_peg_3","864","864","0","[[1,0,0],[3,0],[2]]","1","[[2,1,3],[0,0],[0]]","1","0","","","","","","5","",""
"","","","","","single-stim-button","211","516399","0.0-3.0-13.1-0.1","5aedfba176b763000132f7fe","E1","batch5","","2840","","","tol_tohand","","","","","","","","","tol_peg_1","2840","2840","0","[[0,0,0],[3,0],[2]]","2","[[2,1,3],[0,0],[0]]","1","0","","","","","","5","",""
"","","","","","single-stim-button","212","517136","0.0-3.0-13.1-1.1","5aedfba176b763000132f7fe","E1","batch5","","735","","","tol_toboard","","","","","","","","","tol_peg_2","735","735","0","[[0,0,0],[3,1],[2]]","2","[[2,1,3],[0,0],[0]]","1","0","","","","","","5","",""
"","","","","","single-stim-button","213","517824","0.0-3.0-13.2-0.2","5aedfba176b763000132f7fe","E1","batch5","","688","","","tol_tohand","","","","","","","","","tol_peg_3","688","688","0","[[0,0,0],[3,1],[0]]","3","[[2,1,3],[0,0],[0]]","1","0","","","","","","5","",""
"","","","","","single-stim-button","214","518824","0.0-3.0-13.2-1.2","5aedfba176b763000132f7fe","E1","batch5","","999","","","tol_toboard","","","","","","","","","tol_peg_1","999","999","0","[[2,0,0],[3,1],[0]]","3","[[2,1,3],[0,0],[0]]","1","0","","","","","","5","",""
"","","","","","single-stim-button","215","519401","0.0-3.0-13.3-0.3","5aedfba176b763000132f7fe","E1","batch5","","577","","","tol_tohand","","","","","","","","","tol_peg_2","577","577","0","[[2,0,0],[3,0],[0]]","4","[[2,1,3],[0,0],[0]]","1","0","","","","","","5","",""
"","","","","","single-stim-button","216","520016","0.0-3.0-13.3-1.3","5aedfba176b763000132f7fe","E1","batch5","","615","","","tol_toboard","","","","","","","","","tol_peg_1","615","615","0","[[2,1,0],[3,0],[0]]","4","[[2,1,3],[0,0],[0]]","1","0","","","","","","5","",""
"","","","","","single-stim-button","217","520504","0.0-3.0-13.4-0.4","5aedfba176b763000132f7fe","E1","batch5","","488","","","tol_tohand","","","","","","","","","tol_peg_2","488","488","0","[[2,1,0],[0,0],[0]]","5","[[2,1,3],[0,0],[0]]","1","0","","","","","","5","",""
"","","","","","single-stim-button","218","521112","0.0-3.0-13.4-1.4","5aedfba176b763000132f7fe","E1","batch5","","607","","","tol_toboard","","","","","","","","","tol_peg_1","607","607","0","[[2,1,3],[0,0],[0]]","5","[[2,1,3],[0,0],[0]]","1","0","","","","","","5","",""
"","","","","","poldrack-single-stim","219","522115","0.0-3.0-14.0","5aedfba176b763000132f7fe","E1","batch5","","-1","","","tol_feedback","true","","","","","","","","","1000","1000","500","","","","","","-1","none","true","10946","15539","","",""
"","","","","","html-button-response","220","523200","0.0-3.0-15.0","5aedfba176b763000132f7fe","E1","batch5","","1084","<div class = centerbox><p class = center-block-text>problem <strong>3</strong> out of 25 problems</p></div>","0","tol_trial_num","","","","","","","","","","","","","","","","","","","","","","","","",""
"","","","","","single-stim-button","221","530849","0.0-3.0-16.0-0.0","5aedfba176b763000132f7fe","E1","batch5","","7649","","","tol_tohand","","","","","","","","","tol_peg_1","7649","7649","0","[[2,0,0],[0,0],[1]]","1","[[1,2,0],[3,0],[0]]","2","0","","","","","","4","",""
"","","","","","single-stim-button","222","533130","0.0-3.0-16.0-1.0","5aedfba176b763000132f7fe","E1","batch5","","2279","","","tol_toboard","","","","","","","","","tol_peg_2","2279","2279","0","[[2,0,0],[3,0],[1]]","1","[[1,2,0],[3,0],[0]]","2","0","","","","","","4","",""
"","","","","","single-stim-button","223","533707","0.0-3.0-16.1-0.1","5aedfba176b763000132f7fe","E1","batch5","","577","","","tol_tohand","","","","","","","","","tol_peg_1","577","577","0","[[0,0,0],[3,0],[1]]","2","[[1,2,0],[3,0],[0]]","2","0","","","","","","4","",""
"","","","","","single-stim-button","224","534291","0.0-3.0-16.1-1.1","5aedfba176b763000132f7fe","E1","batch5","","583","","","tol_toboard","","","","","","","","","tol_peg_2","583","583","0","[[0,0,0],[3,2],[1]]","2","[[1,2,0],[3,0],[0]]","2","0","","","","","","4","",""
"","","","","","single-stim-button","225","534882","0.0-3.0-16.2-0.2","5aedfba176b763000132f7fe","E1","batch5","","591","","","tol_tohand","","","","","","","","","tol_peg_3","591","591","0","[[0,0,0],[3,2],[0]]","3","[[1,2,0],[3,0],[0]]","2","0","","","","","","4","",""
"","","","","","single-stim-button","226","535626","0.0-3.0-16.2-1.2","5aedfba176b763000132f7fe","E1","batch5","","744","","","tol_toboard","","","","","","","","","tol_peg_1","744","744","0","[[1,0,0],[3,2],[0]]","3","[[1,2,0],[3,0],[0]]","2","0","","","","","","4","",""
"","","","","","single-stim-button","227","536123","0.0-3.0-16.3-0.3","5aedfba176b763000132f7fe","E1","batch5","","497","","","tol_tohand","","","","","","","","","tol_peg_2","497","497","0","[[1,0,0],[3,0],[0]]","4","[[1,2,0],[3,0],[0]]","2","0","","","","","","4","",""
"","","","","","single-stim-button","228","536738","0.0-3.0-16.3-1.3","5aedfba176b763000132f7fe","E1","batch5","","615","","","tol_toboard","","","","","","","","","tol_peg_1","615","615","0","[[1,2,0],[3,0],[0]]","4","[[1,2,0],[3,0],[0]]","2","0","","","","","","4","",""
"","","","","","poldrack-single-stim","229","537739","0.0-3.0-17.0","5aedfba176b763000132f7fe","E1","batch5","","-1","","","tol_feedback","true","","","","","","","","","1000","1000","500","","","","","","-1","none","true","7649","9314","","",""
"","","","","","html-button-response","230","538754","0.0-3.0-18.0","5aedfba176b763000132f7fe","E1","batch5","","1014.5","<div class = centerbox><p class = center-block-text>problem <strong>4</strong> out of 25 problems</p></div>","0","tol_trial_num","","","","","","","","","","","","","","","","","","","","","","","","",""
"","","","","","single-stim-button","231","548860","0.0-3.0-19.0-0.0","5aedfba176b763000132f7fe","E1","batch5","","10104","","","tol_tohand","","","","","","","","","tol_peg_2","10104","10104","0","[[3,0,0],[2,0],[0]]","1","[[3,0,0],[1,0],[2]]","3","0","","","","","","3","",""
"","","","","","single-stim-button","232","549548","0.0-3.0-19.0-1.0","5aedfba176b763000132f7fe","E1","batch5","","688","","","tol_toboard","","","","","","","","","tol_peg_1","688","688","0","[[3,1,0],[2,0],[0]]","1","[[3,0,0],[1,0],[2]]","3","0","","","","","","3","",""
"","","","","","single-stim-button","233","550172","0.0-3.0-19.1-0.1","5aedfba176b763000132f7fe","E1","batch5","","624","","","tol_tohand","","","","","","","","","tol_peg_2","624","624","0","[[3,1,0],[0,0],[0]]","2","[[3,0,0],[1,0],[2]]","3","0","","","","","","3","",""
"","","","","","single-stim-button","234","551236","0.0-3.0-19.1-1.1","5aedfba176b763000132f7fe","E1","batch5","","1063","","","tol_toboard","","","","","","","","","tol_peg_3","1063","1063","0","[[3,1,0],[0,0],[2]]","2","[[3,0,0],[1,0],[2]]","3","0","","","","","","3","",""
"","","","","","single-stim-button","235","551916","0.0-3.0-19.2-0.2","5aedfba176b763000132f7fe","E1","batch5","","680","","","tol_tohand","","","","","","","","","tol_peg_1","680","680","0","[[3,0,0],[0,0],[2]]","3","[[3,0,0],[1,0],[2]]","3","0","","","","","","3","",""
"","","","","","single-stim-button","236","552597","0.0-3.0-19.2-1.2","5aedfba176b763000132f7fe","E1","batch5","","680","","","tol_toboard","","","","","","","","","tol_peg_2","680","680","0","[[3,0,0],[1,0],[2]]","3","[[3,0,0],[1,0],[2]]","3","0","","","","","","3","",""
"","","","","","poldrack-single-stim","237","553599","0.0-3.0-20.0","5aedfba176b763000132f7fe","E1","batch5","","-1","","","tol_feedback","true","","","","","","","","","1000","1000","500","","","","","","-1","none","true","10104","11408","","",""
"","","","","","html-button-response","238","554325","0.0-3.0-21.0","5aedfba176b763000132f7fe","E1","batch5","","724.6999999992549","<div class = centerbox><p class = center-block-text>problem <strong>5</strong> out of 25 problems</p></div>","0","tol_trial_num","","","","","","","","","","","","","","","","","","","","","","","","",""
"","","","","","single-stim-button","239","624694","0.0-3.0-22.0-0.0","5aedfba176b763000132f7fe","E1","batch5","","70369","","","tol_tohand","","","","","","","","","tol_peg_3","70369","70369","0","[[1,0,0],[2,0],[0]]","1","[[0,0,0],[1,2],[3]]","4","0","","","","","","7","",""
"","","","","","single-stim-button","240","625847","0.0-3.0-22.0-1.0","5aedfba176b763000132f7fe","E1","batch5","","1152","","","tol_toboard","","","","","","","","","tol_peg_2","1152","1152","0","[[1,0,0],[2,3],[0]]","1","[[0,0,0],[1,2],[3]]","4","0","","","","","","7","",""
"","","","","","single-stim-button","241","626391","0.0-3.0-22.1-0.1","5aedfba176b763000132f7fe","E1","batch5","","544","","","tol_tohand","","","","","","","","","tol_peg_1","544","544","0","[[0,0,0],[2,3],[0]]","2","[[0,0,0],[1,2],[3]]","4","0","","","","","","7","",""
"","","","","","single-stim-button","242","627223","0.0-3.0-22.1-1.1","5aedfba176b763000132f7fe","E1","batch5","","831","","","tol_toboard","","","","","","","","","tol_peg_3","831","831","0","[[0,0,0],[2,3],[1]]","2","[[0,0,0],[1,2],[3]]","4","0","","","","","","7","",""
"","","","","","single-stim-button","243","628736","0.0-3.0-22.2-0.2","5aedfba176b763000132f7fe","E1","batch5","","1512","","","tol_tohand","","","","","","","","","tol_peg_2","1512","1512","0","[[0,0,0],[2,0],[1]]","3","[[0,0,0],[1,2],[3]]","4","0","","","","","","7","",""
"","","","","","single-stim-button","244","629527","0.0-3.0-22.2-1.2","5aedfba176b763000132f7fe","E1","batch5","","790","","","tol_toboard","","","","","","","","","tol_peg_1","790","790","0","[[3,0,0],[2,0],[1]]","3","[[0,0,0],[1,2],[3]]","4","0","","","","","","7","",""
"","","","","","single-stim-button","245","630825","0.0-3.0-22.3-0.3","5aedfba176b763000132f7fe","E1","batch5","","1298","","","tol_tohand","","","","","","","","","tol_peg_2","1298","1298","0","[[3,0,0],[0,0],[1]]","4","[[0,0,0],[1,2],[3]]","4","0","","","","","","7","",""
"","","","","","single-stim-button","246","631455","0.0-3.0-22.3-1.3","5aedfba176b763000132f7fe","E1","batch5","","630","","","tol_toboard","","","","","","","","","tol_peg_1","630","630","0","[[3,2,0],[0,0],[1]]","4","[[0,0,0],[1,2],[3]]","4","0","","","","","","7","",""
"","","","","","single-stim-button","247","632031","0.0-3.0-22.4-0.4","5aedfba176b763000132f7fe","E1","batch5","","575","","","tol_tohand","","","","","","","","","tol_peg_3","575","575","0","[[3,2,0],[0,0],[0]]","5","[[0,0,0],[1,2],[3]]","4","0","","","","","","7","",""
"","","","","","single-stim-button","248","632695","0.0-3.0-22.4-1.4","5aedfba176b763000132f7fe","E1","batch5","","664","","","tol_toboard","","","","","","","","","tol_peg_2","664","664","0","[[3,2,0],[1,0],[0]]","5","[[0,0,0],[1,2],[3]]","4","0","","","","","","7","",""
"","","","","","single-stim-button","249","633352","0.0-3.0-22.5-0.5","5aedfba176b763000132f7fe","E1","batch5","","655","","","tol_tohand","","","","","","","","","tol_peg_1","655","655","0","[[3,0,0],[1,0],[0]]","6","[[0,0,0],[1,2],[3]]","4","0","","","","","","7","",""
"","","","","","single-stim-button","250","634015","0.0-3.0-22.5-1.5","5aedfba176b763000132f7fe","E1","batch5","","663","","","tol_toboard","","","","","","","","","tol_peg_2","663","663","0","[[3,0,0],[1,2],[0]]","6","[[0,0,0],[1,2],[3]]","4","0","","","","","","7","",""
"","","","","","single-stim-button","251","634624","0.0-3.0-22.6-0.6","5aedfba176b763000132f7fe","E1","batch5","","608","","","tol_tohand","","","","","","","","","tol_peg_1","608","608","0","[[0,0,0],[1,2],[0]]","7","[[0,0,0],[1,2],[3]]","4","0","","","","","","7","",""
"","","","","","single-stim-button","252","635192","0.0-3.0-22.6-1.6","5aedfba176b763000132f7fe","E1","batch5","","566","","","tol_toboard","","","","","","","","","tol_peg_3","566","566","0","[[0,0,0],[1,2],[3]]","7","[[0,0,0],[1,2],[3]]","4","0","","","","","","7","",""
"","","","","","poldrack-single-stim","253","636196","0.0-3.0-23.0","5aedfba176b763000132f7fe","E1","batch5","","-1","","","tol_feedback","true","","","","","","","","","1000","1000","500","","","","","","-1","none","true","70369","75561","","",""
"","","","","","html-button-response","254","636888","0.0-3.0-24.0","5aedfba176b763000132f7fe","E1","batch5","","691.2999999970198","<div class = centerbox><p class = center-block-text>problem <strong>6</strong> out of 25 problems</p></div>","0","tol_trial_num","","","","","","","","","","","","","","","","","","","","","","","","",""
"","","","","","single-stim-button","255","703369","0.0-3.0-25.0-0.0","5aedfba176b763000132f7fe","E1","batch5","","66481","","","tol_tohand","","","","","","","","","tol_peg_3","66481","66481","0","[[0,0,0],[1,2],[0]]","1","[[1,0,0],[2,3],[0]]","5","0","","","","","","6","",""
"","","","","","single-stim-button","256","704354","0.0-3.0-25.0-1.0","5aedfba176b763000132f7fe","E1","batch5","","984","","","tol_toboard","","","","","","","","","tol_peg_1","984","984","0","[[3,0,0],[1,2],[0]]","1","[[1,0,0],[2,3],[0]]","5","0","","","","","","6","",""
"","","","","","single-stim-button","257","705034","0.0-3.0-25.1-0.1","5aedfba176b763000132f7fe","E1","batch5","","680","","","tol_tohand","","","","","","","","","tol_peg_2","680","680","0","[[3,0,0],[1,0],[0]]","2","[[1,0,0],[2,3],[0]]","5","0","","","","","","6","",""
"","","","","","single-stim-button","258","707187","0.0-3.0-25.1-1.1","5aedfba176b763000132f7fe","E1","batch5","","2152","","","tol_toboard","","","","","","","","","tol_peg_1","2152","2152","0","[[3,2,0],[1,0],[0]]","2","[[1,0,0],[2,3],[0]]","5","0","","","","","","6","",""
"","","","","","single-stim-button","259","707883","0.0-3.0-25.2-0.2","5aedfba176b763000132f7fe","E1","batch5","","695","","","tol_tohand","","","","","","","","","tol_peg_2","695","695","0","[[3,2,0],[0,0],[0]]","3","[[1,0,0],[2,3],[0]]","5","0","","","","","","6","",""
"","","","","","single-stim-button","260","709491","0.0-3.0-25.2-1.2","5aedfba176b763000132f7fe","E1","batch5","","1607","","","tol_toboard","","","","","","","","","tol_peg_3","1607","1607","0","[[3,2,0],[0,0],[1]]","3","[[1,0,0],[2,3],[0]]","5","0","","","","","","6","",""
"","","","","","single-stim-button","261","710210","0.0-3.0-25.3-0.3","5aedfba176b763000132f7fe","E1","batch5","","719","","","tol_tohand","","","","","","","","","tol_peg_1","719","719","0","[[3,0,0],[0,0],[1]]","4","[[1,0,0],[2,3],[0]]","5","0","","","","","","6","",""
"","","","","","single-stim-button","262","710924","0.0-3.0-25.3-1.3","5aedfba176b763000132f7fe","E1","batch5","","713","","","tol_toboard","","","","","","","","","tol_peg_2","713","713","0","[[3,0,0],[2,0],[1]]","4","[[1,0,0],[2,3],[0]]","5","0","","","","","","6","",""
"","","","","","single-stim-button","263","711482","0.0-3.0-25.4-0.4","5aedfba176b763000132f7fe","E1","batch5","","558","","","tol_tohand","","","","","","","","","tol_peg_1","558","558","0","[[0,0,0],[2,0],[1]]","5","[[1,0,0],[2,3],[0]]","5","0","","","","","","6","",""
"","","","","","single-stim-button","264","712108","0.0-3.0-25.4-1.4","5aedfba176b763000132f7fe","E1","batch5","","625","","","tol_toboard","","","","","","","","","tol_peg_2","625","625","0","[[0,0,0],[2,3],[1]]","5","[[1,0,0],[2,3],[0]]","5","0","","","","","","6","",""
"","","","","","single-stim-button","265","712691","0.0-3.0-25.5-0.5","5aedfba176b763000132f7fe","E1","batch5","","583","","","tol_tohand","","","","","","","","","tol_peg_3","583","583","0","[[0,0,0],[2,3],[0]]","6","[[1,0,0],[2,3],[0]]","5","0","","","","","","6","",""
"","","","","","single-stim-button","266","713467","0.0-3.0-25.5-1.5","5aedfba176b763000132f7fe","E1","batch5","","775","","","tol_toboard","","","","","","","","","tol_peg_1","775","775","0","[[1,0,0],[2,3],[0]]","6","[[1,0,0],[2,3],[0]]","5","0","","","","","","6","",""
"","","","","","poldrack-single-stim","267","714477","0.0-3.0-26.0","5aedfba176b763000132f7fe","E1","batch5","","-1","","","tol_feedback","true","","","","","","","","","1000","1000","500","","","","","","-1","none","true","66481","69716","","",""
"","","","","","html-button-response","268","715419","0.0-3.0-27.0","5aedfba176b763000132f7fe","E1","batch5","","941.5999999977648","<div class = centerbox><p class = center-block-text>problem <strong>7</strong> out of 25 problems</p></div>","0","tol_trial_num","","","","","","","","","","","","","","","","","","","","","","","","",""
"","","","","","single-stim-button","269","747335","0.0-3.0-28.0-0.0","5aedfba176b763000132f7fe","E1","batch5","","31916","","","tol_tohand","","","","","","","","","tol_peg_3","31916","31916","0","[[2,1,0],[0,0],[0]]","1","[[1,2,0],[3,0],[0]]","6","0","","","","","","5","",""
"","","","","","single-stim-button","270","749080","0.0-3.0-28.0-1.0","5aedfba176b763000132f7fe","E1","batch5","","1744","","","tol_toboard","","","","","","","","","tol_peg_2","1744","1744","0","[[2,1,0],[3,0],[0]]","1","[[1,2,0],[3,0],[0]]","6","0","","","","","","5","",""
"","","","","","single-stim-button","271","749824","0.0-3.0-28.1-0.1","5aedfba176b763000132f7fe","E1","batch5","","744","","","tol_tohand","","","","","","","","","tol_peg_1","744","744","0","[[2,0,0],[3,0],[0]]","2","[[1,2,0],[3,0],[0]]","6","0","","","","","","5","",""
"","","","","","single-stim-button","272","752448","0.0-3.0-28.1-1.1","5aedfba176b763000132f7fe","E1","batch5","","2624","","","tol_toboard","","","","","","","","","tol_peg_3","2624","2624","0","[[2,0,0],[3,0],[1]]","2","[[1,2,0],[3,0],[0]]","6","0","","","","","","5","",""
"","","","","","single-stim-button","273","753216","0.0-3.0-28.2-0.2","5aedfba176b763000132f7fe","E1","batch5","","767","","","tol_tohand","","","","","","","","","tol_peg_1","767","767","0","[[0,0,0],[3,0],[1]]","3","[[1,2,0],[3,0],[0]]","6","0","","","","","","5","",""
"","","","","","single-stim-button","274","753888","0.0-3.0-28.2-1.2","5aedfba176b763000132f7fe","E1","batch5","","672","","","tol_toboard","","","","","","","","","tol_peg_2","672","672","0","[[0,0,0],[3,2],[1]]","3","[[1,2,0],[3,0],[0]]","6","0","","","","","","5","",""
"","","","","","single-stim-button","275","754424","0.0-3.0-28.3-0.3","5aedfba176b763000132f7fe","E1","batch5","","536","","","tol_tohand","","","","","","","","","tol_peg_3","536","536","0","[[0,0,0],[3,2],[0]]","4","[[1,2,0],[3,0],[0]]","6","0","","","","","","5","",""
"","","","","","single-stim-button","276","755216","0.0-3.0-28.3-1.3","5aedfba176b763000132f7fe","E1","batch5","","791","","","tol_toboard","","","","","","","","","tol_peg_1","791","791","0","[[1,0,0],[3,2],[0]]","4","[[1,2,0],[3,0],[0]]","6","0","","","","","","5","",""
"","","","","","single-stim-button","277","755736","0.0-3.0-28.4-0.4","5aedfba176b763000132f7fe","E1","batch5","","520","","","tol_tohand","","","","","","","","","tol_peg_2","520","520","0","[[1,0,0],[3,0],[0]]","5","[[1,2,0],[3,0],[0]]","6","0","","","","","","5","",""
"","","","","","single-stim-button","278","756473","0.0-3.0-28.4-1.4","5aedfba176b763000132f7fe","E1","batch5","","737","","","tol_toboard","","","","","","","","","tol_peg_1","737","737","0","[[1,2,0],[3,0],[0]]","5","[[1,2,0],[3,0],[0]]","6","0","","","","","","5","",""
"","","","","","poldrack-single-stim","279","757485","0.0-3.0-29.0","5aedfba176b763000132f7fe","E1","batch5","","-1","","","tol_feedback","true","","","","","","","","","1000","1000","500","","","","","","-1","none","true","31916","34483","","",""
"","","","","","html-button-response","280","758352","0.0-3.0-30.0","5aedfba176b763000132f7fe","E1","batch5","","866.2000000029802","<div class = centerbox><p class = center-block-text>problem <strong>8</strong> out of 25 problems</p></div>","0","tol_trial_num","","","","","","","","","","","","","","","","","","","","","","","","",""
"","","","","","single-stim-button","281","772162","0.0-3.0-31.0-0.0","5aedfba176b763000132f7fe","E1","batch5","","13810","","","tol_tohand","","","","","","","","","tol_peg_3","13810","13810","0","[[0,0,0],[2,3],[0]]","1","[[1,2,0],[3,0],[0]]","7","0","","","","","","4","",""
"","","","","","single-stim-button","282","772914","0.0-3.0-31.0-1.0","5aedfba176b763000132f7fe","E1","batch5","","751","","","tol_toboard","","","","","","","","","tol_peg_1","751","751","0","[[1,0,0],[2,3],[0]]","1","[[1,2,0],[3,0],[0]]","7","0","","","","","","4","",""
"","","","","","single-stim-button","283","773562","0.0-3.0-31.1-0.1","5aedfba176b763000132f7fe","E1","batch5","","648","","","tol_tohand","","","","","","","","","tol_peg_2","648","648","0","[[1,0,0],[2,0],[0]]","2","[[1,2,0],[3,0],[0]]","7","0","","","","","","4","",""
"","","","","","single-stim-button","284","774338","0.0-3.0-31.1-1.1","5aedfba176b763000132f7fe","E1","batch5","","775","","","tol_toboard","","","","","","","","","tol_peg_3","775","775","0","[[1,0,0],[2,0],[3]]","2","[[1,2,0],[3,0],[0]]","7","0","","","","","","4","",""
"","","","","","single-stim-button","285","774835","0.0-3.0-31.2-0.2","5aedfba176b763000132f7fe","E1","batch5","","495","","","tol_tohand","","","","","","","","","tol_peg_2","495","495","0","[[1,0,0],[0,0],[3]]","3","[[1,2,0],[3,0],[0]]","7","0","","","","","","4","",""
"","","","","","single-stim-button","286","775443","0.0-3.0-31.2-1.2","5aedfba176b763000132f7fe","E1","batch5","","607","","","tol_toboard","","","","","","","","","tol_peg_1","607","607","0","[[1,2,0],[0,0],[3]]","3","[[1,2,0],[3,0],[0]]","7","0","","","","","","4","",""
"","","","","","single-stim-button","287","776347","0.0-3.0-31.3-0.3","5aedfba176b763000132f7fe","E1","batch5","","904","","","tol_tohand","","","","","","","","","tol_peg_3","904","904","0","[[1,2,0],[0,0],[0]]","4","[[1,2,0],[3,0],[0]]","7","0","","","","","","4","",""
"","","","","","single-stim-button","288","777019","0.0-3.0-31.3-1.3","5aedfba176b763000132f7fe","E1","batch5","","672","","","tol_toboard","","","","","","","","","tol_peg_2","672","672","0","[[1,2,0],[3,0],[0]]","4","[[1,2,0],[3,0],[0]]","7","0","","","","","","4","",""
"","","","","","poldrack-single-stim","289","778020","0.0-3.0-32.0","5aedfba176b763000132f7fe","E1","batch5","","-1","","","tol_feedback","true","","","","","","","","","1000","1000","500","","","","","","-1","none","true","13810","15857","","",""
"","","","","","html-button-response","290","778756","0.0-3.0-33.0","5aedfba176b763000132f7fe","E1","batch5","","736","<div class = centerbox><p class = center-block-text>problem <strong>9</strong> out of 25 problems</p></div>","0","tol_trial_num","","","","","","","","","","","","","","","","","","","","","","","","",""
"","","","","","single-stim-button","291","811441","0.0-3.0-34.0-0.0","5aedfba176b763000132f7fe","E1","batch5","","32683","","","tol_tohand","","","","","","","","","tol_peg_3","32683","32683","0","[[3,2,0],[0,0],[0]]","1","[[2,1,0],[3,0],[0]]","8","0","","","","","","6","",""
"","","","","","single-stim-button","292","812432","0.0-3.0-34.0-1.0","5aedfba176b763000132f7fe","E1","batch5","","991","","","tol_toboard","","","","","","","","","tol_peg_2","991","991","0","[[3,2,0],[1,0],[0]]","1","[[2,1,0],[3,0],[0]]","8","0","","","","","","6","",""
"","","","","","single-stim-button","293","813096","0.0-3.0-34.1-0.1","5aedfba176b763000132f7fe","E1","batch5","","663","","","tol_tohand","","","","","","","","","tol_peg_1","663","663","0","[[3,0,0],[1,0],[0]]","2","[[2,1,0],[3,0],[0]]","8","0","","","","","","6","",""
"","","","","","single-stim-button","294","814224","0.0-3.0-34.1-1.1","5aedfba176b763000132f7fe","E1","batch5","","1128","","","tol_toboard","","","","","","","","","tol_peg_2","1128","1128","0","[[3,0,0],[1,2],[0]]","2","[[2,1,0],[3,0],[0]]","8","0","","","","","","6","",""
"","","","","","single-stim-button","295","814912","0.0-3.0-34.2-0.2","5aedfba176b763000132f7fe","E1","batch5","","687","","","tol_tohand","","","","","","","","","tol_peg_1","687","687","0","[[0,0,0],[1,2],[0]]","3","[[2,1,0],[3,0],[0]]","8","0","","","","","","6","",""
"","","","","","single-stim-button","296","816034","0.0-3.0-34.2-1.2","5aedfba176b763000132f7fe","E1","batch5","","1121","","","tol_toboard","","","","","","","","","tol_peg_3","1121","1121","0","[[0,0,0],[1,2],[3]]","3","[[2,1,0],[3,0],[0]]","8","0","","","","","","6","",""
"","","","","","single-stim-button","297","816592","0.0-3.0-34.3-0.3","5aedfba176b763000132f7fe","E1","batch5","","558","","","tol_tohand","","","","","","","","","tol_peg_2","558","558","0","[[0,0,0],[1,0],[3]]","4","[[2,1,0],[3,0],[0]]","8","0","","","","","","6","",""
"","","","","","single-stim-button","298","817145","0.0-3.0-34.3-1.3","5aedfba176b763000132f7fe","E1","batch5","","553","","","tol_toboard","","","","","","","","","tol_peg_1","553","553","0","[[2,0,0],[1,0],[3]]","4","[[2,1,0],[3,0],[0]]","8","0","","","","","","6","",""
"","","","","","single-stim-button","299","817674","0.0-3.0-34.4-0.4","5aedfba176b763000132f7fe","E1","batch5","","529","","","tol_tohand","","","","","","","","","tol_peg_2","529","529","0","[[2,0,0],[0,0],[3]]","5","[[2,1,0],[3,0],[0]]","8","0","","","","","","6","",""
"","","","","","single-stim-button","300","818680","0.0-3.0-34.4-1.4","5aedfba176b763000132f7fe","E1","batch5","","1006","","","tol_toboard","","","","","","","","","tol_peg_1","1006","1006","0","[[2,1,0],[0,0],[3]]","5","[[2,1,0],[3,0],[0]]","8","0","","","","","","6","",""
"","","","","","single-stim-button","301","819233","0.0-3.0-34.5-0.5","5aedfba176b763000132f7fe","E1","batch5","","551","","","tol_tohand","","","","","","","","","tol_peg_3","551","551","0","[[2,1,0],[0,0],[0]]","6","[[2,1,0],[3,0],[0]]","8","0","","","","","","6","",""
"","","","","","single-stim-button","302","819889","0.0-3.0-34.5-1.5","5aedfba176b763000132f7fe","E1","batch5","","656","","","tol_toboard","","","","","","","","","tol_peg_2","656","656","0","[[2,1,0],[3,0],[0]]","6","[[2,1,0],[3,0],[0]]","8","0","","","","","","6","",""
"","","","","","poldrack-single-stim","303","820891","0.0-3.0-35.0","5aedfba176b763000132f7fe","E1","batch5","","-1","","","tol_feedback","true","","","","","","","","","1000","1000","500","","","","","","-1","none","true","32683","35671","","",""
"","","","","","html-button-response","304","821586","0.0-3.0-36.0","5aedfba176b763000132f7fe","E1","batch5","","693.6999999992549","<div class = centerbox><p class = center-block-text>problem <strong>10</strong> out of 25 problems</p></div>","0","tol_trial_num","","","","","","","","","","","","","","","","","","","","","","","","",""
"","","","","","single-stim-button","305","832242","0.0-3.0-37.0-0.0","5aedfba176b763000132f7fe","E1","batch5","","10656","","","tol_tohand","","","","","","","","","tol_peg_2","10656","10656","0","[[3,0,0],[0,0],[2]]","1","[[3,0,0],[2,1],[0]]","9","0","","","","","","3","",""
"","","","","","single-stim-button","306","832923","0.0-3.0-37.0-1.0","5aedfba176b763000132f7fe","E1","batch5","","680","","","tol_toboard","","","","","","","","","tol_peg_1","680","680","0","[[3,1,0],[0,0],[2]]","1","[[3,0,0],[2,1],[0]]","9","0","","","","","","3","",""
"","","","","","single-stim-button","307","833516","0.0-3.0-37.1-0.1","5aedfba176b763000132f7fe","E1","batch5","","592","","","tol_tohand","","","","","","","","","tol_peg_3","592","592","0","[[3,1,0],[0,0],[0]]","2","[[3,0,0],[2,1],[0]]","9","0","","","","","","3","",""
"","","","","","single-stim-button","308","834291","0.0-3.0-37.1-1.1","5aedfba176b763000132f7fe","E1","batch5","","775","","","tol_toboard","","","","","","","","","tol_peg_2","775","775","0","[[3,1,0],[2,0],[0]]","2","[[3,0,0],[2,1],[0]]","9","0","","","","","","3","",""
"","","","","","single-stim-button","309","835075","0.0-3.0-37.2-0.2","5aedfba176b763000132f7fe","E1","batch5","","784","","","tol_tohand","","","","","","","","","tol_peg_1","784","784","0","[[3,0,0],[2,0],[0]]","3","[[3,0,0],[2,1],[0]]","9","0","","","","","","3","",""
"","","","","","single-stim-button","310","835635","0.0-3.0-37.2-1.2","5aedfba176b763000132f7fe","E1","batch5","","560","","","tol_toboard","","","","","","","","","tol_peg_2","560","560","0","[[3,0,0],[2,1],[0]]","3","[[3,0,0],[2,1],[0]]","9","0","","","","","","3","",""
"","","","","","poldrack-single-stim","311","836639","0.0-3.0-38.0","5aedfba176b763000132f7fe","E1","batch5","","-1","","","tol_feedback","true","","","","","","","","","1000","1000","500","","","","","","-1","none","true","10656","12032","","",""
"","","","","","html-button-response","312","837419","0.0-3.0-39.0","5aedfba176b763000132f7fe","E1","batch5","","779.3000000007451","<div class = centerbox><p class = center-block-text>problem <strong>11</strong> out of 25 problems</p></div>","0","tol_trial_num","","","","","","","","","","","","","","","","","","","","","","","","",""
"","","","","","single-stim-button","313","880642","0.0-3.0-40.0-0.0","5aedfba176b763000132f7fe","E1","batch5","","43223","","","tol_tohand","","","","","","","","","tol_peg_1","43223","43223","0","[[1,0,0],[3,0],[0]]","1","[[2,0,0],[1,3],[0]]","10","0","","","","","","6","",""
"","","","","","single-stim-button","314","881530","0.0-3.0-40.0-1.0","5aedfba176b763000132f7fe","E1","batch5","","887","","","tol_toboard","","","","","","","","","tol_peg_3","887","887","0","[[1,0,0],[3,0],[2]]","1","[[2,0,0],[1,3],[0]]","10","0","","","","","","6","",""
"","","","","","single-stim-button","315","882346","0.0-3.0-40.1-0.1","5aedfba176b763000132f7fe","E1","batch5","","816","","","tol_tohand","","","","","","","","","tol_peg_1","816","816","0","[[0,0,0],[3,0],[2]]","2","[[2,0,0],[1,3],[0]]","10","0","","","","","","6","",""
"","","","","","single-stim-button","316","884139","0.0-3.0-40.1-1.1","5aedfba176b763000132f7fe","E1","batch5","","1792","","","tol_toboard","","","","","","","","","tol_peg_2","1792","1792","0","[[0,0,0],[3,1],[2]]","2","[[2,0,0],[1,3],[0]]","10","0","","","","","","6","",""
"","","","","","single-stim-button","317","884834","0.0-3.0-40.2-0.2","5aedfba176b763000132f7fe","E1","batch5","","695","","","tol_tohand","","","","","","","","","tol_peg_3","695","695","0","[[0,0,0],[3,1],[0]]","3","[[2,0,0],[1,3],[0]]","10","0","","","","","","6","",""
"","","","","","single-stim-button","318","885642","0.0-3.0-40.2-1.2","5aedfba176b763000132f7fe","E1","batch5","","808","","","tol_toboard","","","","","","","","","tol_peg_1","808","808","0","[[2,0,0],[3,1],[0]]","3","[[2,0,0],[1,3],[0]]","10","0","","","","","","6","",""
"","","","","","single-stim-button","319","888092","0.0-3.0-40.3-0.3","5aedfba176b763000132f7fe","E1","batch5","","2448","","","tol_tohand","","","","","","","","","tol_peg_2","2448","2448","0","[[2,0,0],[3,0],[0]]","4","[[2,0,0],[1,3],[0]]","10","0","","","","","","6","",""
"","","","","","single-stim-button","320","890267","0.0-3.0-40.3-1.3","5aedfba176b763000132f7fe","E1","batch5","","2175","","","tol_toboard","","","","","","","","","tol_peg_3","2175","2175","0","[[2,0,0],[3,0],[1]]","4","[[2,0,0],[1,3],[0]]","10","0","","","","","","6","",""
"","","","","","single-stim-button","321","890739","0.0-3.0-40.4-0.4","5aedfba176b763000132f7fe","E1","batch5","","472","","","tol_tohand","","","","","","","","","tol_peg_2","472","472","0","[[2,0,0],[0,0],[1]]","5","[[2,0,0],[1,3],[0]]","10","0","","","","","","6","",""
"","","","","","single-stim-button","322","891379","0.0-3.0-40.4-1.4","5aedfba176b763000132f7fe","E1","batch5","","640","","","tol_toboard","","","","","","","","","tol_peg_1","640","640","0","[[2,3,0],[0,0],[1]]","5","[[2,0,0],[1,3],[0]]","10","0","","","","","","6","",""
"","","","","","single-stim-button","323","892035","0.0-3.0-40.5-0.5","5aedfba176b763000132f7fe","E1","batch5","","656","","","tol_tohand","","","","","","","","","tol_peg_3","656","656","0","[[2,3,0],[0,0],[0]]","6","[[2,0,0],[1,3],[0]]","10","0","","","","","","6","",""
"","","","","","single-stim-button","324","892787","0.0-3.0-40.5-1.5","5aedfba176b763000132f7fe","E1","batch5","","752","","","tol_toboard","","","","","","","","","tol_peg_2","752","752","0","[[2,3,0],[1,0],[0]]","6","[[2,0,0],[1,3],[0]]","10","0","","","","","","6","",""
"","","","","","single-stim-button","325","893492","0.0-3.0-40.6-0.6","5aedfba176b763000132f7fe","E1","batch5","","705","","","tol_tohand","","","","","","","","","tol_peg_1","705","705","0","[[2,0,0],[1,0],[0]]","7","[[2,0,0],[1,3],[0]]","10","0","","","","","","6","",""
"","","","","","single-stim-button","326","894492","0.0-3.0-40.6-1.6","5aedfba176b763000132f7fe","E1","batch5","","1000","","","tol_toboard","","","","","","","","","tol_peg_2","1000","1000","0","[[2,0,0],[1,3],[0]]","7","[[2,0,0],[1,3],[0]]","10","0","","","","","","6","",""
"","","","","","poldrack-single-stim","327","895493","0.0-3.0-41.0","5aedfba176b763000132f7fe","E1","batch5","","-1","","","tol_feedback","true","","","","","","","","","1000","1000","500","","","","","","-1","none","true","43223","49015","","",""
"","","","","","html-button-response","328","896179","0.0-3.0-42.0","5aedfba176b763000132f7fe","E1","batch5","","685.7999999970198","<div class = centerbox><p class = center-block-text>problem <strong>12</strong> out of 25 problems</p></div>","0","tol_trial_num","","","","","","","","","","","","","","","","","","","","","","","","",""
"","","","","","single-stim-button","329","913966","0.0-3.0-43.0-0.0","5aedfba176b763000132f7fe","E1","batch5","","17786","","","tol_tohand","","","","","","","","","tol_peg_1","17786","17786","0","[[1,0,0],[3,0],[0]]","1","[[2,3,0],[0,0],[1]]","11","0","","","","","","4","",""
"","","","","","single-stim-button","330","916126","0.0-3.0-43.0-1.0","5aedfba176b763000132f7fe","E1","batch5","","2160","","","tol_toboard","","","","","","","","","tol_peg_3","2160","2160","0","[[1,0,0],[3,0],[2]]","1","[[2,3,0],[0,0],[1]]","11","0","","","","","","4","",""
"","","","","","single-stim-button","331","917478","0.0-3.0-43.1-0.1","5aedfba176b763000132f7fe","E1","batch5","","1351","","","tol_tohand","","","","","","","","","tol_peg_1","1351","1351","0","[[0,0,0],[3,0],[2]]","2","[[2,3,0],[0,0],[1]]","11","0","","","","","","4","",""
"","","","","","single-stim-button","332","919063","0.0-3.0-43.1-1.1","5aedfba176b763000132f7fe","E1","batch5","","1584","","","tol_toboard","","","","","","","","","tol_peg_2","1584","1584","0","[[0,0,0],[3,1],[2]]","2","[[2,3,0],[0,0],[1]]","11","0","","","","","","4","",""
"","","","","","single-stim-button","333","920408","0.0-3.0-43.2-0.2","5aedfba176b763000132f7fe","E1","batch5","","1344","","","tol_tohand","","","","","","","","","tol_peg_3","1344","1344","0","[[0,0,0],[3,1],[0]]","3","[[2,3,0],[0,0],[1]]","11","0","","","","","","4","",""
"","","","","","single-stim-button","334","921727","0.0-3.0-43.2-1.2","5aedfba176b763000132f7fe","E1","batch5","","1319","","","tol_toboard","","","","","","","","","tol_peg_1","1319","1319","0","[[2,0,0],[3,1],[0]]","3","[[2,3,0],[0,0],[1]]","11","0","","","","","","4","",""
"","","","","","single-stim-button","335","922409","0.0-3.0-43.3-0.3","5aedfba176b763000132f7fe","E1","batch5","","682","","","tol_tohand","","","","","","","","","tol_peg_2","682","682","0","[[2,0,0],[3,0],[0]]","4","[[2,3,0],[0,0],[1]]","11","0","","","","","","4","",""
"","","","","","single-stim-button","336","923343","0.0-3.0-43.3-1.3","5aedfba176b763000132f7fe","E1","batch5","","934","","","tol_toboard","","","","","","","","","tol_peg_3","934","934","0","[[2,0,0],[3,0],[1]]","4","[[2,3,0],[0,0],[1]]","11","0","","","","","","4","",""
"","","","","","single-stim-button","337","923864","0.0-3.0-43.4-0.4","5aedfba176b763000132f7fe","E1","batch5","","519","","","tol_tohand","","","","","","","","","tol_peg_2","519","519","0","[[2,0,0],[0,0],[1]]","5","[[2,3,0],[0,0],[1]]","11","0","","","","","","4","",""
"","","","","","single-stim-button","338","924640","0.0-3.0-43.4-1.4","5aedfba176b763000132f7fe","E1","batch5","","776","","","tol_toboard","","","","","","","","","tol_peg_1","776","776","0","[[2,3,0],[0,0],[1]]","5","[[2,3,0],[0,0],[1]]","11","0","","","","","","4","",""
"","","","","","poldrack-single-stim","339","925642","0.0-3.0-44.0","5aedfba176b763000132f7fe","E1","batch5","","-1","","","tol_feedback","true","","","","","","","","","1000","1000","500","","","","","","-1","none","true","17786","21682","","",""
"","","","","","html-button-response","340","926376","0.0-3.0-45.0","5aedfba176b763000132f7fe","E1","batch5","","733.5","<div class = centerbox><p class = center-block-text>problem <strong>13</strong> out of 25 problems</p></div>","0","tol_trial_num","","","","","","","","","","","","","","","","","","","","","","","","",""
"","","","","","single-stim-button","341","943730","0.0-3.0-46.0-0.0","5aedfba176b763000132f7fe","E1","batch5","","17354","","","tol_tohand","","","","","","","","","tol_peg_2","17354","17354","0","[[1,2,0],[0,0],[0]]","1","[[0,0,0],[2,3],[1]]","12","0","","","","","","4","",""
"","","","","","single-stim-button","342","944498","0.0-3.0-46.0-1.0","5aedfba176b763000132f7fe","E1","batch5","","767","","","tol_toboard","","","","","","","","","tol_peg_3","767","767","0","[[1,2,0],[0,0],[3]]","1","[[0,0,0],[2,3],[1]]","12","0","","","","","","4","",""
"","","","","","single-stim-button","343","945010","0.0-3.0-46.1-0.1","5aedfba176b763000132f7fe","E1","batch5","","512","","","tol_tohand","","","","","","","","","tol_peg_1","512","512","0","[[1,0,0],[0,0],[3]]","2","[[0,0,0],[2,3],[1]]","12","0","","","","","","4","",""
"","","","","","single-stim-button","344","945826","0.0-3.0-46.1-1.1","5aedfba176b763000132f7fe","E1","batch5","","816","","","tol_toboard","","","","","","","","","tol_peg_2","816","816","0","[[1,0,0],[2,0],[3]]","2","[[0,0,0],[2,3],[1]]","12","0","","","","","","4","",""
"","","","","","single-stim-button","345","946355","0.0-3.0-46.2-0.2","5aedfba176b763000132f7fe","E1","batch5","","529","","","tol_tohand","","","","","","","","","tol_peg_3","529","529","0","[[1,0,0],[2,0],[0]]","3","[[0,0,0],[2,3],[1]]","12","0","","","","","","4","",""
"","","","","","single-stim-button","346","947075","0.0-3.0-46.2-1.2","5aedfba176b763000132f7fe","E1","batch5","","719","","","tol_toboard","","","","","","","","","tol_peg_2","719","719","0","[[1,0,0],[2,3],[0]]","3","[[0,0,0],[2,3],[1]]","12","0","","","","","","4","",""
"","","","","","single-stim-button","347","947739","0.0-3.0-46.3-0.3","5aedfba176b763000132f7fe","E1","batch5","","663","","","tol_tohand","","","","","","","","","tol_peg_1","663","663","0","[[0,0,0],[2,3],[0]]","4","[[0,0,0],[2,3],[1]]","12","0","","","","","","4","",""
"","","","","","single-stim-button","348","948587","0.0-3.0-46.3-1.3","5aedfba176b763000132f7fe","E1","batch5","","848","","","tol_toboard","","","","","","","","","tol_peg_3","848","848","0","[[0,0,0],[2,3],[1]]","4","[[0,0,0],[2,3],[1]]","12","0","","","","","","4","",""
"","","","","","poldrack-single-stim","349","949601","0.0-3.0-47.0","5aedfba176b763000132f7fe","E1","batch5","","-1","","","tol_feedback","true","","","","","","","","","1000","1000","500","","","","","","-1","none","true","17354","19058","","",""
