"success","timeout","failed_images","failed_audio","failed_video","trial_type","trial_index","time_elapsed","internal_node_id","subject_id","study_id","session_id","view_history","rt","task","stimulus","response","correct","mouse_click","stim_duration","block_duration","timing_post_trial","current_position","tol_num_moves_made","tol_target","tol_problem_id","tol_rt","key_press","possible_responses","tol_correct","preplanning","tol_rt_per_trial","tol_min_moves","item","answer","spm_correct","spm_rt","fiar_detect_rt","fiar_detect_correct","total_correct_fiar_detect","post_trial_gap","choices"
"true","false","[]","[]","[]","preload","0","1702","0.0-0.0","5aef97b09516fe00010959f4","E1","batch5","","","","","","","","","","","","","","","","","","","","","","","","","","","","","",""
"true","","","","","fullscreen","1","30169","0.0-1.0-0.0","5aef97b09516fe00010959f4","E1","batch5","","","","","","","","","","","","","","","","","","","","","","","","","","","","","",""
"true","","","","","fullscreen","2","36041","0.0-2.0-0.0","5aef97b09516fe00010959f4","E1","batch5","","","","","","","","","","","","","","","","","","","","","","","","","","","","","",""
"","","","","","instructions","3","179364","0.0-2.0-1.0-0.0-0.0","5aef97b09516fe00010959f4","E1","batch5","[{""page_index"":0,""viewing_time"":16336.59999999404},{""page_index"":1,""viewing_time"":5180.300000011921},{""page_index"":2,""viewing_time"":3806.199999988079},{""page_index"":3,""viewing_time"":51520.90000000596},{""page_index"":4,""viewing_time"":20257.30000001192},{""page_index"":5,""viewing_time"":43970.59999999404},{""page_index"":6,""viewing_time"":2249.5999999940395}]","143321.80000001192","tol-instructions","","","","","","","","","","","","","","","","","","","","","","","","","","",""
"","","","","","html-button-response","4","180505","0.0-2.0-1.0-1.0-0.0","5aef97b09516fe00010959f4","E1","batch5","","1139.9000000059605","tol_enter_quiz","<p class=block-text> Let's answer a few questions <br>","0","","","","","","","","","","","","","","","","","","","","","","","","",""
"","","","","","html-button-response","5","190479","0.0-2.0-1.0-1.0-1.0","5aef97b09516fe00010959f4","E1","batch5","","9972.59999999404","tol_quiz","<p class = block-text>True or False: You can only move the ball on top of a peg. <br></p>","1","false","","","","","","","","","","","","","","","","","","","","","","","",""
"","","","","","html-button-response","6","192839","0.0-2.0-1.0-1.0-2.0","5aef97b09516fe00010959f4","E1","batch5","","2358.4000000059605","tol_quiz_feedback","<p class = block-text>Incorrect. Remember, you can only move the ball on top of a peg.</p>","0","","","","","","","","","","","","","","","","","","","","","","","","",""
"","","","","","html-button-response","7","194954","0.0-2.0-1.0-1.0-3.0","5aef97b09516fe00010959f4","E1","batch5","","2114","tol_quiz","<p class = block-text>True or False: You should try to match your board with the target board with fewest moves possible. <br></p>","0","true","","","","","","","","","","","","","","","","","","","","","","","",""
"","","","","","html-button-response","8","195954","0.0-2.0-1.0-1.0-4.0","5aef97b09516fe00010959f4","E1","batch5","","999.5999999940395","tol_quiz_feedback","<p class = block-text>Correct! </p>","0","","","","","","","","","","","","","","","","","","","","","","","","",""
"","","","","","html-button-response","9","197836","0.0-2.0-1.0-2.0-0.0","5aef97b09516fe00010959f4","E1","batch5","","1881","","<p class = block-text>You made too many incorrect choices.</p><p class = block-text>You will now repeat the instructions and quiz</p>","0","","","","","","","","","","","","","","","","","","","","","","","","",""
"","","","","","instructions","10","209455","0.0-2.0-1.1-0.1-0.1","5aef97b09516fe00010959f4","E1","batch5","[{""page_index"":0,""viewing_time"":2477.300000011921},{""page_index"":1,""viewing_time"":1784.7999999821186},{""page_index"":2,""viewing_time"":1860.9000000059605},{""page_index"":3,""viewing_time"":1223.0999999940395},{""page_index"":4,""viewing_time"":992.2000000178814},{""page_index"":5,""viewing_time"":1051.3999999761581},{""page_index"":6,""viewing_time"":2228.2000000178814}]","11618","tol-instructions","","","","","","","","","","","","","","","","","","","","","","","","","","",""
"","","","","","html-button-response","11","210540","0.0-2.0-1.1-1.1-0.1","5aef97b09516fe00010959f4","E1","batch5","","1085.199999988079","tol_enter_quiz","<p class=block-text> Let's answer a few questions <br>","0","","","","","","","","","","","","","","","","","","","","","","","","",""
"","","","","","html-button-response","12","212469","0.0-2.0-1.1-1.1-1.1","5aef97b09516fe00010959f4","E1","batch5","","1927.5999999940395","tol_quiz","<p class = block-text>True or False: You can only move the ball on top of a peg. <br></p>","0","true","","","","","","","","","","","","","","","","","","","","","","","",""
"","","","","","html-button-response","13","213446","0.0-2.0-1.1-1.1-2.1","5aef97b09516fe00010959f4","E1","batch5","","975.3000000119209","tol_quiz_feedback","<p class = block-text>Correct! You can only move the ball on top of a peg.</p>","0","","","","","","","","","","","","","","","","","","","","","","","","",""
"","","","","","html-button-response","14","215156","0.0-2.0-1.1-1.1-3.1","5aef97b09516fe00010959f4","E1","batch5","","1709.699999988079","tol_quiz","<p class = block-text>True or False: You should try to match your board with the target board with fewest moves possible. <br></p>","0","true","","","","","","","","","","","","","","","","","","","","","","","",""
"","","","","","html-button-response","15","216020","0.0-2.0-1.1-1.1-4.1","5aef97b09516fe00010959f4","E1","batch5","","863.0999999940395","tol_quiz_feedback","<p class = block-text>Correct! </p>","0","","","","","","","","","","","","","","","","","","","","","","","","",""
"","","","","","html-button-response","16","217710","0.0-2.0-2.0","5aef97b09516fe00010959f4","E1","batch5","","1689.5999999940395","","<p class=block-text> Now that you've understood the game, let's practice a few easier examples before we start!<br> <br>","0","","","","","","","","","","","","","","","","","","","","","","","","",""
"","","","","","single-stim-button","17","220777","0.0-2.0-3.0-0.0","5aef97b09516fe00010959f4","E1","batch5","","3064","tol_practice","","","","tol_peg_2","3064","3064","0","[[1,2,0],[0,0],[0]]","1","[[1,2,0],[0,0],[3]]","practice","3064","","","","","","","","","","","","","","",""
"","","","","","single-stim-button","18","222327","0.0-2.0-3.0-1.0","5aef97b09516fe00010959f4","E1","batch5","","1548","tol_practice","","","","tol_peg_3","1548","1548","0","[[1,2,0],[0,0],[3]]","1","[[1,2,0],[0,0],[3]]","practice","1548","","","","","","","","","","","","","","",""
"","","","","","poldrack-single-stim","19","223333","0.0-2.0-4.0","5aef97b09516fe00010959f4","E1","batch5","","-1","tol_feedback","","","true","","1000","1000","500","","","","","","-1","none","true","","0","","","","","","","","","",""
"","","","","","single-stim-button","20","230611","0.0-2.0-5.0-0.0","5aef97b09516fe00010959f4","E1","batch5","","7277","tol_practice","","","","tol_peg_1","7277","7277","0","[[1,0,0],[3,0],[0]]","2","[[0,0,0],[3,1],[2]]","practice","7277","","","","","","","","","","","","","","",""
"","","","","","single-stim-button","21","231836","0.0-2.0-5.0-1.0","5aef97b09516fe00010959f4","E1","batch5","","1224","tol_practice","","","","tol_peg_3","1224","1224","0","[[1,0,0],[3,0],[2]]","2","[[0,0,0],[3,1],[2]]","practice","1224","","","","","","","","","","","","","","",""
"","","","","","single-stim-button","22","232739","0.0-2.0-5.1-0.1","5aef97b09516fe00010959f4","E1","batch5","","903","tol_practice","","","","tol_peg_1","903","903","0","[[0,0,0],[3,0],[2]]","3","[[0,0,0],[3,1],[2]]","practice","903","","","","","","","","","","","","","","",""
"","","","","","single-stim-button","23","233964","0.0-2.0-5.1-1.1","5aef97b09516fe00010959f4","E1","batch5","","1223","tol_practice","","","","tol_peg_2","1223","1223","0","[[0,0,0],[3,1],[2]]","3","[[0,0,0],[3,1],[2]]","practice","1223","","","","","","","","","","","","","","",""
"","","","","","poldrack-single-stim","24","234976","0.0-2.0-6.0","5aef97b09516fe00010959f4","E1","batch5","","-1","tol_feedback","","","true","","1000","1000","500","","","","","","-1","none","true","","0","","","","","","","","","",""
"","","","","","single-stim-button","25","240891","0.0-2.0-7.0-0.0","5aef97b09516fe00010959f4","E1","batch5","","5914","tol_practice","","","","tol_peg_2","5914","5914","0","[[1,2,0],[0,0],[0]]","4","[[1,0,0],[2,0],[3]]","practice","5914","","","","","","","","","","","","","","",""
"","","","","","single-stim-button","26","242527","0.0-2.0-7.0-1.0","5aef97b09516fe00010959f4","E1","batch5","","1634","tol_practice","","","","tol_peg_3","1634","1634","0","[[1,2,0],[0,0],[3]]","4","[[1,0,0],[2,0],[3]]","practice","1634","","","","","","","","","","","","","","",""
"","","","","","single-stim-button","27","243410","0.0-2.0-7.1-0.1","5aef97b09516fe00010959f4","E1","batch5","","883","tol_practice","","","","tol_peg_1","883","883","0","[[1,0,0],[0,0],[3]]","5","[[1,0,0],[2,0],[3]]","practice","883","","","","","","","","","","","","","","",""
"","","","","","single-stim-button","28","244286","0.0-2.0-7.1-1.1","5aef97b09516fe00010959f4","E1","batch5","","876","tol_practice","","","","tol_peg_2","876","876","0","[[1,0,0],[2,0],[3]]","5","[[1,0,0],[2,0],[3]]","practice","876","","","","","","","","","","","","","","",""
"","","","","","poldrack-single-stim","29","245289","0.0-2.0-8.0","5aef97b09516fe00010959f4","E1","batch5","","-1","tol_feedback","","","true","","1000","1000","500","","","","","","-1","none","true","","0","","","","","","","","","",""
"","","","","","html-button-response","30","249369","0.0-2.0-9.0","5aef97b09516fe00010959f4","E1","batch5","","4078.4000000059605","tol_instruction","<div class = centerbox><p class = center-block-text>Great job! You are done with practice trials<br>You are about to start official trials.<br> <br> Problem <strong>1</strong> out of 25 problems</p></div>","0","","","","","","","","","","","","","","","","","","","","","","","","",""
"","","","","","single-stim-button","31","266768","0.0-2.0-10.0-0.0","5aef97b09516fe00010959f4","E1","batch5","","16387","tol_tohand","","","","tol_peg_2","16387","16387","0","[[1,2,0],[0,0],[0]]","1","[[1,3,0],[2,0],[0]]","0","0","","","","","","3","","","","","","","","",""
"","","","","","single-stim-button","32","268277","0.0-2.0-10.0-1.0","5aef97b09516fe00010959f4","E1","batch5","","1507","tol_toboard","","","","tol_peg_3","1507","1507","0","[[1,2,0],[0,0],[3]]","1","[[1,3,0],[2,0],[0]]","0","0","","","","","","3","","","","","","","","",""
"","","","","","single-stim-button","33","269008","0.0-2.0-10.1-0.1","5aef97b09516fe00010959f4","E1","batch5","","731","tol_tohand","","","","tol_peg_1","731","731","0","[[1,0,0],[0,0],[3]]","2","[[1,3,0],[2,0],[0]]","0","0","","","","","","3","","","","","","","","",""
"","","","","","single-stim-button","34","269634","0.0-2.0-10.1-1.1","5aef97b09516fe00010959f4","E1","batch5","","624","tol_toboard","","","","tol_peg_2","624","624","0","[[1,0,0],[2,0],[3]]","2","[[1,3,0],[2,0],[0]]","0","0","","","","","","3","","","","","","","","",""
"","","","","","single-stim-button","35","270322","0.0-2.0-10.2-0.2","5aef97b09516fe00010959f4","E1","batch5","","688","tol_tohand","","","","tol_peg_3","688","688","0","[[1,0,0],[2,0],[0]]","3","[[1,3,0],[2,0],[0]]","0","0","","","","","","3","","","","","","","","",""
"","","","","","single-stim-button","36","271323","0.0-2.0-10.2-1.2","5aef97b09516fe00010959f4","E1","batch5","","1000","tol_toboard","","","","tol_peg_1","1000","1000","0","[[1,3,0],[2,0],[0]]","3","[[1,3,0],[2,0],[0]]","0","0","","","","","","3","","","","","","","","",""
"","","","","","poldrack-single-stim","37","272327","0.0-2.0-11.0","5aef97b09516fe00010959f4","E1","batch5","","-1","tol_feedback","","","true","","1000","1000","500","","","","","","-1","none","true","16387","17806","","","","","","","","","",""
"","","","","","html-button-response","38","273791","0.0-2.0-12.0","5aef97b09516fe00010959f4","E1","batch5","","1462.5999999940395","tol_trial_num","<div class = centerbox><p class = center-block-text>problem <strong>2</strong> out of 25 problems</p></div>","0","","","","","","","","","","","","","","","","","","","","","","","","",""
"","","","","","single-stim-button","39","289953","0.0-2.0-13.0-0.0","5aef97b09516fe00010959f4","E1","batch5","","16162","tol_tohand","","","","tol_peg_2","16162","16162","0","[[1,2,0],[0,0],[0]]","1","[[2,1,3],[0,0],[0]]","1","0","","","","","","5","","","","","","","","",""
"","","","","","single-stim-button","40","291353","0.0-2.0-13.0-1.0","5aef97b09516fe00010959f4","E1","batch5","","1400","tol_toboard","","","","tol_peg_3","1400","1400","0","[[1,2,0],[0,0],[3]]","1","[[2,1,3],[0,0],[0]]","1","0","","","","","","5","","","","","","","","",""
"","","","","","single-stim-button","41","292924","0.0-2.0-13.1-0.1","5aef97b09516fe00010959f4","E1","batch5","","1570","tol_tohand","","","","tol_peg_1","1570","1570","0","[[1,0,0],[0,0],[3]]","2","[[2,1,3],[0,0],[0]]","1","0","","","","","","5","","","","","","","","",""
"","","","","","single-stim-button","42","293752","0.0-2.0-13.1-1.1","5aef97b09516fe00010959f4","E1","batch5","","828","tol_toboard","","","","tol_peg_2","828","828","0","[[1,0,0],[2,0],[3]]","2","[[2,1,3],[0,0],[0]]","1","0","","","","","","5","","","","","","","","",""
"","","","","","single-stim-button","43","296812","0.0-2.0-13.2-0.2","5aef97b09516fe00010959f4","E1","batch5","","3059","tol_tohand","","","","tol_peg_1","3059","3059","0","[[0,0,0],[2,0],[3]]","3","[[2,1,3],[0,0],[0]]","1","0","","","","","","5","","","","","","","","",""
"","","","","","single-stim-button","44","300847","0.0-2.0-13.2-1.2","5aef97b09516fe00010959f4","E1","batch5","","4034","tol_toboard","","","","tol_peg_1","4034","4034","0","[[1,0,0],[2,0],[3]]","3","[[2,1,3],[0,0],[0]]","1","0","","","","","","5","","","","","","","","",""
"","","","","","single-stim-button","45","303950","0.0-2.0-13.3-0.3","5aef97b09516fe00010959f4","E1","batch5","","3102","tol_tohand","","","","tol_peg_3","3102","3102","0","[[1,0,0],[2,0],[0]]","4","[[2,1,3],[0,0],[0]]","1","0","","","","","","5","","","","","","","","",""
"","","","","","single-stim-button","46","304791","0.0-2.0-13.3-1.3","5aef97b09516fe00010959f4","E1","batch5","","841","tol_toboard","","","","tol_peg_1","841","841","0","[[1,3,0],[2,0],[0]]","4","[[2,1,3],[0,0],[0]]","1","0","","","","","","5","","","","","","","","",""
"","","","","","single-stim-button","47","305293","0.0-2.0-13.4-0.4","5aef97b09516fe00010959f4","E1","batch5","","501","tol_tohand","","","","tol_peg_2","501","501","0","[[1,3,0],[0,0],[0]]","5","[[2,1,3],[0,0],[0]]","1","0","","","","","","5","","","","","","","","",""
"","","","","","single-stim-button","48","306120","0.0-2.0-13.4-1.4","5aef97b09516fe00010959f4","E1","batch5","","826","tol_toboard","","","","tol_peg_3","826","826","0","[[1,3,0],[0,0],[2]]","5","[[2,1,3],[0,0],[0]]","1","0","","","","","","5","","","","","","","","",""
"","","","","","single-stim-button","49","306238","0.0-2.0-13.5-0.5","5aef97b09516fe00010959f4","E1","batch5","","118","tol_tohand","","","","tol_peg_3","118","118","0","[[1,3,0],[0,0],[0]]","6","[[2,1,3],[0,0],[0]]","1","0","","","","","","5","","","","","","","","",""
"","","","","","single-stim-button","50","306954","0.0-2.0-13.5-1.5","5aef97b09516fe00010959f4","E1","batch5","","716","tol_toboard","","","","tol_peg_3","716","716","0","[[1,3,0],[0,0],[2]]","6","[[2,1,3],[0,0],[0]]","1","0","","","","","","5","","","","","","","","",""
"","","","","","single-stim-button","51","308186","0.0-2.0-13.6-0.6","5aef97b09516fe00010959f4","E1","batch5","","1230","tol_tohand","","","","tol_peg_1","1230","1230","0","[[1,0,0],[0,0],[2]]","7","[[2,1,3],[0,0],[0]]","1","0","","","","","","5","","","","","","","","",""
"","","","","","single-stim-button","52","309571","0.0-2.0-13.6-1.6","5aef97b09516fe00010959f4","E1","batch5","","1384","tol_toboard","","","","tol_peg_2","1384","1384","0","[[1,0,0],[3,0],[2]]","7","[[2,1,3],[0,0],[0]]","1","0","","","","","","5","","","","","","","","",""
"","","","","","single-stim-button","53","311524","0.0-2.0-13.7-0.7","5aef97b09516fe00010959f4","E1","batch5","","1953","tol_tohand","","","","tol_peg_1","1953","1953","0","[[0,0,0],[3,0],[2]]","8","[[2,1,3],[0,0],[0]]","1","0","","","","","","5","","","","","","","","",""
"","","","","","single-stim-button","54","312311","0.0-2.0-13.7-1.7","5aef97b09516fe00010959f4","E1","batch5","","786","tol_toboard","","","","tol_peg_2","786","786","0","[[0,0,0],[3,1],[2]]","8","[[2,1,3],[0,0],[0]]","1","0","","","","","","5","","","","","","","","",""
"","","","","","single-stim-button","55","313536","0.0-2.0-13.8-0.8","5aef97b09516fe00010959f4","E1","batch5","","1223","tol_tohand","","","","tol_peg_3","1223","1223","0","[[0,0,0],[3,1],[0]]","9","[[2,1,3],[0,0],[0]]","1","0","","","","","","5","","","","","","","","",""
"","","","","","single-stim-button","56","314572","0.0-2.0-13.8-1.8","5aef97b09516fe00010959f4","E1","batch5","","1036","tol_toboard","","","","tol_peg_1","1036","1036","0","[[2,0,0],[3,1],[0]]","9","[[2,1,3],[0,0],[0]]","1","0","","","","","","5","","","","","","","","",""
"","","","","","single-stim-button","57","315254","0.0-2.0-13.9-0.9","5aef97b09516fe00010959f4","E1","batch5","","682","tol_tohand","","","","tol_peg_2","682","682","0","[[2,0,0],[3,0],[0]]","10","[[2,1,3],[0,0],[0]]","1","0","","","","","","5","","","","","","","","",""
"","","","","","single-stim-button","58","315935","0.0-2.0-13.9-1.9","5aef97b09516fe00010959f4","E1","batch5","","681","tol_toboard","","","","tol_peg_1","681","681","0","[[2,1,0],[3,0],[0]]","10","[[2,1,3],[0,0],[0]]","1","0","","","","","","5","","","","","","","","",""
"","","","","","single-stim-button","59","316464","0.0-2.0-13.10-0.10","5aef97b09516fe00010959f4","E1","batch5","","528","tol_tohand","","","","tol_peg_2","528","528","0","[[2,1,0],[0,0],[0]]","11","[[2,1,3],[0,0],[0]]","1","0","","","","","","5","","","","","","","","",""
"","","","","","single-stim-button","60","317153","0.0-2.0-13.10-1.10","5aef97b09516fe00010959f4","E1","batch5","","689","tol_toboard","","","","tol_peg_1","689","689","0","[[2,1,3],[0,0],[0]]","11","[[2,1,3],[0,0],[0]]","1","0","","","","","","5","","","","","","","","",""
"","","","","","poldrack-single-stim","61","318162","0.0-2.0-14.0","5aef97b09516fe00010959f4","E1","batch5","","-1","tol_feedback","","","true","","1000","1000","500","","","","","","-1","none","true","16162","30128","","","","","","","","","",""
"","","","","","html-button-response","62","323034","0.0-2.0-15.0","5aef97b09516fe00010959f4","E1","batch5","","4871.5","tol_trial_num","<div class = centerbox><p class = center-block-text>problem <strong>3</strong> out of 25 problems</p></div>","0","","","","","","","","","","","","","","","","","","","","","","","","",""
"","","","","","single-stim-button","63","326742","0.0-2.0-16.0-0.0","5aef97b09516fe00010959f4","E1","batch5","","3707","tol_tohand","","","","tol_peg_1","3707","3707","0","[[2,0,0],[0,0],[1]]","1","[[1,2,0],[3,0],[0]]","2","0","","","","","","4","","","","","","","","",""
"","","","","","single-stim-button","64","332274","0.0-2.0-16.0-1.0","5aef97b09516fe00010959f4","E1","batch5","","5530","tol_toboard","","","","tol_peg_2","5530","5530","0","[[2,0,0],[3,0],[1]]","1","[[1,2,0],[3,0],[0]]","2","0","","","","","","4","","","","","","","","",""
"","","","","","single-stim-button","65","335024","0.0-2.0-16.1-0.1","5aef97b09516fe00010959f4","E1","batch5","","2749","tol_tohand","","","","tol_peg_1","2749","2749","0","[[0,0,0],[3,0],[1]]","2","[[1,2,0],[3,0],[0]]","2","0","","","","","","4","","","","","","","","",""
"","","","","","single-stim-button","66","335851","0.0-2.0-16.1-1.1","5aef97b09516fe00010959f4","E1","batch5","","827","tol_toboard","","","","tol_peg_2","827","827","0","[[0,0,0],[3,2],[1]]","2","[[1,2,0],[3,0],[0]]","2","0","","","","","","4","","","","","","","","",""
"","","","","","single-stim-button","67","336457","0.0-2.0-16.2-0.2","5aef97b09516fe00010959f4","E1","batch5","","605","tol_tohand","","","","tol_peg_3","605","605","0","[[0,0,0],[3,2],[0]]","3","[[1,2,0],[3,0],[0]]","2","0","","","","","","4","","","","","","","","",""
"","","","","","single-stim-button","68","337201","0.0-2.0-16.2-1.2","5aef97b09516fe00010959f4","E1","batch5","","744","tol_toboard","","","","tol_peg_1","744","744","0","[[1,0,0],[3,2],[0]]","3","[[1,2,0],[3,0],[0]]","2","0","","","","","","4","","","","","","","","",""
"","","","","","single-stim-button","69","337973","0.0-2.0-16.3-0.3","5aef97b09516fe00010959f4","E1","batch5","","772","tol_tohand","","","","tol_peg_2","772","772","0","[[1,0,0],[3,0],[0]]","4","[[1,2,0],[3,0],[0]]","2","0","","","","","","4","","","","","","","","",""
"","","","","","single-stim-button","70","338578","0.0-2.0-16.3-1.3","5aef97b09516fe00010959f4","E1","batch5","","604","tol_toboard","","","","tol_peg_1","604","604","0","[[1,2,0],[3,0],[0]]","4","[[1,2,0],[3,0],[0]]","2","0","","","","","","4","","","","","","","","",""
"","","","","","poldrack-single-stim","71","339591","0.0-2.0-17.0","5aef97b09516fe00010959f4","E1","batch5","","-1","tol_feedback","","","true","","1000","1000","500","","","","","","-1","none","true","3707","7833","","","","","","","","","",""
"","","","","","html-button-response","72","341381","0.0-2.0-18.0","5aef97b09516fe00010959f4","E1","batch5","","1789.2000000178814","tol_trial_num","<div class = centerbox><p class = center-block-text>problem <strong>4</strong> out of 25 problems</p></div>","0","","","","","","","","","","","","","","","","","","","","","","","","",""
"","","","","","single-stim-button","73","347622","0.0-2.0-19.0-0.0","5aef97b09516fe00010959f4","E1","batch5","","6240","tol_tohand","","","","tol_peg_2","6240","6240","0","[[3,0,0],[2,0],[0]]","1","[[3,0,0],[1,0],[2]]","3","0","","","","","","3","","","","","","","","",""
"","","","","","single-stim-button","74","348749","0.0-2.0-19.0-1.0","5aef97b09516fe00010959f4","E1","batch5","","1126","tol_toboard","","","","tol_peg_1","1126","1126","0","[[3,1,0],[2,0],[0]]","1","[[3,0,0],[1,0],[2]]","3","0","","","","","","3","","","","","","","","",""
"","","","","","single-stim-button","75","349466","0.0-2.0-19.1-0.1","5aef97b09516fe00010959f4","E1","batch5","","717","tol_tohand","","","","tol_peg_2","717","717","0","[[3,1,0],[0,0],[0]]","2","[[3,0,0],[1,0],[2]]","3","0","","","","","","3","","","","","","","","",""
"","","","","","single-stim-button","76","350238","0.0-2.0-19.1-1.1","5aef97b09516fe00010959f4","E1","batch5","","771","tol_toboard","","","","tol_peg_3","771","771","0","[[3,1,0],[0,0],[2]]","2","[[3,0,0],[1,0],[2]]","3","0","","","","","","3","","","","","","","","",""
"","","","","","single-stim-button","77","351032","0.0-2.0-19.2-0.2","5aef97b09516fe00010959f4","E1","batch5","","793","tol_tohand","","","","tol_peg_1","793","793","0","[[3,0,0],[0,0],[2]]","3","[[3,0,0],[1,0],[2]]","3","0","","","","","","3","","","","","","","","",""
"","","","","","single-stim-button","78","351825","0.0-2.0-19.2-1.2","5aef97b09516fe00010959f4","E1","batch5","","793","tol_toboard","","","","tol_peg_2","793","793","0","[[3,0,0],[1,0],[2]]","3","[[3,0,0],[1,0],[2]]","3","0","","","","","","3","","","","","","","","",""
"","","","","","poldrack-single-stim","79","352826","0.0-2.0-20.0","5aef97b09516fe00010959f4","E1","batch5","","-1","tol_feedback","","","true","","1000","1000","500","","","","","","-1","none","true","6240","7750","","","","","","","","","",""
"","","","","","html-button-response","80","355505","0.0-2.0-21.0","5aef97b09516fe00010959f4","E1","batch5","","2677.800000011921","tol_trial_num","<div class = centerbox><p class = center-block-text>problem <strong>5</strong> out of 25 problems</p></div>","0","","","","","","","","","","","","","","","","","","","","","","","","",""
"","","","","","single-stim-button","81","365488","0.0-2.0-22.0-0.0","5aef97b09516fe00010959f4","E1","batch5","","9981","tol_tohand","","","","tol_peg_3","9981","9981","0","[[1,0,0],[2,0],[0]]","1","[[0,0,0],[1,2],[3]]","4","0","","","","","","7","","","","","","","","",""
"","","","","","single-stim-button","82","366288","0.0-2.0-22.0-1.0","5aef97b09516fe00010959f4","E1","batch5","","799","tol_toboard","","","","tol_peg_1","799","799","0","[[1,3,0],[2,0],[0]]","1","[[0,0,0],[1,2],[3]]","4","0","","","","","","7","","","","","","","","",""
"","","","","","single-stim-button","83","367499","0.0-2.0-22.1-0.1","5aef97b09516fe00010959f4","E1","batch5","","1210","tol_tohand","","","","tol_peg_2","1210","1210","0","[[1,3,0],[0,0],[0]]","2","[[0,0,0],[1,2],[3]]","4","0","","","","","","7","","","","","","","","",""
"","","","","","single-stim-button","84","368361","0.0-2.0-22.1-1.1","5aef97b09516fe00010959f4","E1","batch5","","862","tol_toboard","","","","tol_peg_3","862","862","0","[[1,3,0],[0,0],[2]]","2","[[0,0,0],[1,2],[3]]","4","0","","","","","","7","","","","","","","","",""
"","","","","","single-stim-button","85","375741","0.0-2.0-22.2-0.2","5aef97b09516fe00010959f4","E1","batch5","","7379","tol_tohand","","","","tol_peg_1","7379","7379","0","[[1,0,0],[0,0],[2]]","3","[[0,0,0],[1,2],[3]]","4","0","","","","","","7","","","","","","","","",""
"","","","","","single-stim-button","86","378697","0.0-2.0-22.2-1.2","5aef97b09516fe00010959f4","E1","batch5","","2956","tol_toboard","","","","tol_peg_2","2956","2956","0","[[1,0,0],[3,0],[2]]","3","[[0,0,0],[1,2],[3]]","4","0","","","","","","7","","","","","","","","",""
"","","","","","single-stim-button","87","379811","0.0-2.0-22.3-0.3","5aef97b09516fe00010959f4","E1","batch5","","1114","tol_tohand","","","","tol_peg_1","1114","1114","0","[[0,0,0],[3,0],[2]]","4","[[0,0,0],[1,2],[3]]","4","0","","","","","","7","","","","","","","","",""
"","","","","","single-stim-button","88","380583","0.0-2.0-22.3-1.3","5aef97b09516fe00010959f4","E1","batch5","","772","tol_toboard","","","","tol_peg_2","772","772","0","[[0,0,0],[3,1],[2]]","4","[[0,0,0],[1,2],[3]]","4","0","","","","","","7","","","","","","","","",""
"","","","","","single-stim-button","89","381159","0.0-2.0-22.4-0.4","5aef97b09516fe00010959f4","E1","batch5","","576","tol_tohand","","","","tol_peg_3","576","576","0","[[0,0,0],[3,1],[0]]","5","[[0,0,0],[1,2],[3]]","4","0","","","","","","7","","","","","","","","",""
"","","","","","single-stim-button","90","381974","0.0-2.0-22.4-1.4","5aef97b09516fe00010959f4","E1","batch5","","814","tol_toboard","","","","tol_peg_1","814","814","0","[[2,0,0],[3,1],[0]]","5","[[0,0,0],[1,2],[3]]","4","0","","","","","","7","","","","","","","","",""
"","","","","","single-stim-button","91","383553","0.0-2.0-22.5-0.5","5aef97b09516fe00010959f4","E1","batch5","","1579","tol_tohand","","","","tol_peg_2","1579","1579","0","[[2,0,0],[3,0],[0]]","6","[[0,0,0],[1,2],[3]]","4","0","","","","","","7","","","","","","","","",""
"","","","","","single-stim-button","92","384506","0.0-2.0-22.5-1.5","5aef97b09516fe00010959f4","E1","batch5","","953","tol_toboard","","","","tol_peg_3","953","953","0","[[2,0,0],[3,0],[1]]","6","[[0,0,0],[1,2],[3]]","4","0","","","","","","7","","","","","","","","",""
"","","","","","single-stim-button","93","386287","0.0-2.0-22.6-0.6","5aef97b09516fe00010959f4","E1","batch5","","1780","tol_tohand","","","","tol_peg_2","1780","1780","0","[[2,0,0],[0,0],[1]]","7","[[0,0,0],[1,2],[3]]","4","0","","","","","","7","","","","","","","","",""
"","","","","","single-stim-button","94","386866","0.0-2.0-22.6-1.6","5aef97b09516fe00010959f4","E1","batch5","","579","tol_toboard","","","","tol_peg_1","579","579","0","[[2,3,0],[0,0],[1]]","7","[[0,0,0],[1,2],[3]]","4","0","","","","","","7","","","","","","","","",""
"","","","","","single-stim-button","95","387916","0.0-2.0-22.7-0.7","5aef97b09516fe00010959f4","E1","batch5","","1049","tol_tohand","","","","tol_peg_3","1049","1049","0","[[2,3,0],[0,0],[0]]","8","[[0,0,0],[1,2],[3]]","4","0","","","","","","7","","","","","","","","",""
"","","","","","single-stim-button","96","388702","0.0-2.0-22.7-1.7","5aef97b09516fe00010959f4","E1","batch5","","786","tol_toboard","","","","tol_peg_2","786","786","0","[[2,3,0],[1,0],[0]]","8","[[0,0,0],[1,2],[3]]","4","0","","","","","","7","","","","","","","","",""
"","","","","","single-stim-button","97","389279","0.0-2.0-22.8-0.8","5aef97b09516fe00010959f4","E1","batch5","","576","tol_tohand","","","","tol_peg_1","576","576","0","[[2,0,0],[1,0],[0]]","9","[[0,0,0],[1,2],[3]]","4","0","","","","","","7","","","","","","","","",""
"","","","","","single-stim-button","98","390044","0.0-2.0-22.8-1.8","5aef97b09516fe00010959f4","E1","batch5","","764","tol_toboard","","","","tol_peg_3","764","764","0","[[2,0,0],[1,0],[3]]","9","[[0,0,0],[1,2],[3]]","4","0","","","","","","7","","","","","","","","",""
"","","","","","single-stim-button","99","390656","0.0-2.0-22.9-0.9","5aef97b09516fe00010959f4","E1","batch5","","611","tol_tohand","","","","tol_peg_1","611","611","0","[[0,0,0],[1,0],[3]]","10","[[0,0,0],[1,2],[3]]","4","0","","","","","","7","","","","","","","","",""
"","","","","","single-stim-button","100","391443","0.0-2.0-22.9-1.9","5aef97b09516fe00010959f4","E1","batch5","","787","tol_toboard","","","","tol_peg_2","787","787","0","[[0,0,0],[1,2],[3]]","10","[[0,0,0],[1,2],[3]]","4","0","","","","","","7","","","","","","","","",""
"","","","","","poldrack-single-stim","101","392453","0.0-2.0-23.0","5aef97b09516fe00010959f4","E1","batch5","","-1","tol_feedback","","","true","","1000","1000","500","","","","","","-1","none","true","9981","25855","","","","","","","","","",""
"","","","","","html-button-response","102","393978","0.0-2.0-24.0","5aef97b09516fe00010959f4","E1","batch5","","1524","tol_trial_num","<div class = centerbox><p class = center-block-text>problem <strong>6</strong> out of 25 problems</p></div>","0","","","","","","","","","","","","","","","","","","","","","","","","",""
"","","","","","single-stim-button","103","397404","0.0-2.0-25.0-0.0","5aef97b09516fe00010959f4","E1","batch5","","3426","tol_tohand","","","","tol_peg_2","3426","3426","0","[[0,0,0],[1,0],[3]]","1","[[1,0,0],[2,3],[0]]","5","0","","","","","","6","","","","","","","","",""
"","","","","","single-stim-button","104","399325","0.0-2.0-25.0-1.0","5aef97b09516fe00010959f4","E1","batch5","","1919","tol_toboard","","","","tol_peg_1","1919","1919","0","[[2,0,0],[1,0],[3]]","1","[[1,0,0],[2,3],[0]]","5","0","","","","","","6","","","","","","","","",""
"","","","","","single-stim-button","105","405287","0.0-2.0-25.1-0.1","5aef97b09516fe00010959f4","E1","batch5","","5961","tol_tohand","","","","tol_peg_2","5961","5961","0","[[2,0,0],[0,0],[3]]","2","[[1,0,0],[2,3],[0]]","5","0","","","","","","6","","","","","","","","",""
"","","","","","single-stim-button","106","408848","0.0-2.0-25.1-1.1","5aef97b09516fe00010959f4","E1","batch5","","3561","tol_toboard","","","","tol_peg_2","3561","3561","0","[[2,0,0],[1,0],[3]]","2","[[1,0,0],[2,3],[0]]","5","0","","","","","","6","","","","","","","","",""
"","","","","","single-stim-button","107","409572","0.0-2.0-25.2-0.2","5aef97b09516fe00010959f4","E1","batch5","","723","tol_tohand","","","","tol_peg_3","723","723","0","[[2,0,0],[1,0],[0]]","3","[[1,0,0],[2,3],[0]]","5","0","","","","","","6","","","","","","","","",""
"","","","","","single-stim-button","108","410685","0.0-2.0-25.2-1.2","5aef97b09516fe00010959f4","E1","batch5","","1112","tol_toboard","","","","tol_peg_1","1112","1112","0","[[2,3,0],[1,0],[0]]","3","[[1,0,0],[2,3],[0]]","5","0","","","","","","6","","","","","","","","",""
"","","","","","single-stim-button","109","411902","0.0-2.0-25.3-0.3","5aef97b09516fe00010959f4","E1","batch5","","1217","tol_tohand","","","","tol_peg_2","1217","1217","0","[[2,3,0],[0,0],[0]]","4","[[1,0,0],[2,3],[0]]","5","0","","","","","","6","","","","","","","","",""
"","","","","","single-stim-button","110","412890","0.0-2.0-25.3-1.3","5aef97b09516fe00010959f4","E1","batch5","","987","tol_toboard","","","","tol_peg_3","987","987","0","[[2,3,0],[0,0],[1]]","4","[[1,0,0],[2,3],[0]]","5","0","","","","","","6","","","","","","","","",""
"","","","","","single-stim-button","111","413704","0.0-2.0-25.4-0.4","5aef97b09516fe00010959f4","E1","batch5","","814","tol_tohand","","","","tol_peg_1","814","814","0","[[2,0,0],[0,0],[1]]","5","[[1,0,0],[2,3],[0]]","5","0","","","","","","6","","","","","","","","",""
"","","","","","single-stim-button","112","414428","0.0-2.0-25.4-1.4","5aef97b09516fe00010959f4","E1","batch5","","724","tol_toboard","","","","tol_peg_2","724","724","0","[[2,0,0],[3,0],[1]]","5","[[1,0,0],[2,3],[0]]","5","0","","","","","","6","","","","","","","","",""
"","","","","","single-stim-button","113","414964","0.0-2.0-25.5-0.5","5aef97b09516fe00010959f4","E1","batch5","","536","tol_tohand","","","","tol_peg_1","536","536","0","[[0,0,0],[3,0],[1]]","6","[[1,0,0],[2,3],[0]]","5","0","","","","","","6","","","","","","","","",""
"","","","","","single-stim-button","114","415874","0.0-2.0-25.5-1.5","5aef97b09516fe00010959f4","E1","batch5","","910","tol_toboard","","","","tol_peg_2","910","910","0","[[0,0,0],[3,2],[1]]","6","[[1,0,0],[2,3],[0]]","5","0","","","","","","6","","","","","","","","",""
"","","","","","single-stim-button","115","416445","0.0-2.0-25.6-0.6","5aef97b09516fe00010959f4","E1","batch5","","570","tol_tohand","","","","tol_peg_3","570","570","0","[[0,0,0],[3,2],[0]]","7","[[1,0,0],[2,3],[0]]","5","0","","","","","","6","","","","","","","","",""
"","","","","","single-stim-button","116","417190","0.0-2.0-25.6-1.6","5aef97b09516fe00010959f4","E1","batch5","","745","tol_toboard","","","","tol_peg_1","745","745","0","[[1,0,0],[3,2],[0]]","7","[[1,0,0],[2,3],[0]]","5","0","","","","","","6","","","","","","","","",""
"","","","","","single-stim-button","117","418845","0.0-2.0-25.7-0.7","5aef97b09516fe00010959f4","E1","batch5","","1655","tol_tohand","","","","tol_peg_2","1655","1655","0","[[1,0,0],[3,0],[0]]","8","[[1,0,0],[2,3],[0]]","5","0","","","","","","6","","","","","","","","",""
"","","","","","single-stim-button","118","419777","0.0-2.0-25.7-1.7","5aef97b09516fe00010959f4","E1","batch5","","932","tol_toboard","","","","tol_peg_3","932","932","0","[[1,0,0],[3,0],[2]]","8","[[1,0,0],[2,3],[0]]","5","0","","","","","","6","","","","","","","","",""
"","","","","","single-stim-button","119","420278","0.0-2.0-25.8-0.8","5aef97b09516fe00010959f4","E1","batch5","","500","tol_tohand","","","","tol_peg_2","500","500","0","[[1,0,0],[0,0],[2]]","9","[[1,0,0],[2,3],[0]]","5","0","","","","","","6","","","","","","","","",""
"","","","","","single-stim-button","120","420863","0.0-2.0-25.8-1.8","5aef97b09516fe00010959f4","E1","batch5","","585","tol_toboard","","","","tol_peg_1","585","585","0","[[1,3,0],[0,0],[2]]","9","[[1,0,0],[2,3],[0]]","5","0","","","","","","6","","","","","","","","",""
"","","","","","single-stim-button","121","421398","0.0-2.0-25.9-0.9","5aef97b09516fe00010959f4","E1","batch5","","535","tol_tohand","","","","tol_peg_3","535","535","0","[[1,3,0],[0,0],[0]]","10","[[1,0,0],[2,3],[0]]","5","0","","","","","","6","","","","","","","","",""
"","","","","","single-stim-button","122","422121","0.0-2.0-25.9-1.9","5aef97b09516fe00010959f4","E1","batch5","","722","tol_toboard","","","","tol_peg_2","722","722","0","[[1,3,0],[2,0],[0]]","10","[[1,0,0],[2,3],[0]]","5","0","","","","","","6","","","","","","","","",""
"","","","","","single-stim-button","123","422727","0.0-2.0-25.10-0.10","5aef97b09516fe00010959f4","E1","batch5","","605","tol_tohand","","","","tol_peg_1","605","605","0","[[1,0,0],[2,0],[0]]","11","[[1,0,0],[2,3],[0]]","5","0","","","","","","6","","","","","","","","",""
"","","","","","single-stim-button","124","423221","0.0-2.0-25.10-1.10","5aef97b09516fe00010959f4","E1","batch5","","494","tol_toboard","","","","tol_peg_2","494","494","0","[[1,0,0],[2,3],[0]]","11","[[1,0,0],[2,3],[0]]","5","0","","","","","","6","","","","","","","","",""
"","","","","","poldrack-single-stim","125","424222","0.0-2.0-26.0","5aef97b09516fe00010959f4","E1","batch5","","-1","tol_feedback","","","true","","1000","1000","500","","","","","","-1","none","true","3426","16542","","","","","","","","","",""
"","","","","","html-button-response","126","426289","0.0-2.0-27.0","5aef97b09516fe00010959f4","E1","batch5","","2066.0999999940395","tol_trial_num","<div class = centerbox><p class = center-block-text>problem <strong>7</strong> out of 25 problems</p></div>","0","","","","","","","","","","","","","","","","","","","","","","","","",""
"","","","","","single-stim-button","127","429642","0.0-2.0-28.0-0.0","5aef97b09516fe00010959f4","E1","batch5","","3353","tol_tohand","","","","tol_peg_3","3353","3353","0","[[2,1,0],[0,0],[0]]","1","[[1,2,0],[3,0],[0]]","6","0","","","","","","5","","","","","","","","",""
"","","","","","single-stim-button","128","438643","0.0-2.0-28.0-1.0","5aef97b09516fe00010959f4","E1","batch5","","9001","tol_toboard","","","","tol_peg_2","9001","9001","0","[[2,1,0],[3,0],[0]]","1","[[1,2,0],[3,0],[0]]","6","0","","","","","","5","","","","","","","","",""
"","","","","","single-stim-button","129","439367","0.0-2.0-28.1-0.1","5aef97b09516fe00010959f4","E1","batch5","","723","tol_tohand","","","","tol_peg_1","723","723","0","[[2,0,0],[3,0],[0]]","2","[[1,2,0],[3,0],[0]]","6","0","","","","","","5","","","","","","","","",""
"","","","","","single-stim-button","130","442261","0.0-2.0-28.1-1.1","5aef97b09516fe00010959f4","E1","batch5","","2893","tol_toboard","","","","tol_peg_2","2893","2893","0","[[2,0,0],[3,1],[0]]","2","[[1,2,0],[3,0],[0]]","6","0","","","","","","5","","","","","","","","",""
"","","","","","single-stim-button","131","442818","0.0-2.0-28.2-0.2","5aef97b09516fe00010959f4","E1","batch5","","557","tol_tohand","","","","tol_peg_1","557","557","0","[[0,0,0],[3,1],[0]]","3","[[1,2,0],[3,0],[0]]","6","0","","","","","","5","","","","","","","","",""
"","","","","","single-stim-button","132","443826","0.0-2.0-28.2-1.2","5aef97b09516fe00010959f4","E1","batch5","","1007","tol_toboard","","","","tol_peg_3","1007","1007","0","[[0,0,0],[3,1],[2]]","3","[[1,2,0],[3,0],[0]]","6","0","","","","","","5","","","","","","","","",""
"","","","","","single-stim-button","133","444362","0.0-2.0-28.3-0.3","5aef97b09516fe00010959f4","E1","batch5","","535","tol_tohand","","","","tol_peg_2","535","535","0","[[0,0,0],[3,0],[2]]","4","[[1,2,0],[3,0],[0]]","6","0","","","","","","5","","","","","","","","",""
"","","","","","single-stim-button","134","445163","0.0-2.0-28.3-1.3","5aef97b09516fe00010959f4","E1","batch5","","800","tol_toboard","","","","tol_peg_1","800","800","0","[[1,0,0],[3,0],[2]]","4","[[1,2,0],[3,0],[0]]","6","0","","","","","","5","","","","","","","","",""
"","","","","","single-stim-button","135","446052","0.0-2.0-28.4-0.4","5aef97b09516fe00010959f4","E1","batch5","","889","tol_tohand","","","","tol_peg_3","889","889","0","[[1,0,0],[3,0],[0]]","5","[[1,2,0],[3,0],[0]]","6","0","","","","","","5","","","","","","","","",""
"","","","","","single-stim-button","136","446874","0.0-2.0-28.4-1.4","5aef97b09516fe00010959f4","E1","batch5","","821","tol_toboard","","","","tol_peg_1","821","821","0","[[1,2,0],[3,0],[0]]","5","[[1,2,0],[3,0],[0]]","6","0","","","","","","5","","","","","","","","",""
"","","","","","poldrack-single-stim","137","447880","0.0-2.0-29.0","5aef97b09516fe00010959f4","E1","batch5","","-1","tol_feedback","","","true","","1000","1000","500","","","","","","-1","none","true","3353","6057","","","","","","","","","",""
"","","","","","html-button-response","138","449954","0.0-2.0-30.0","5aef97b09516fe00010959f4","E1","batch5","","2073.2999999821186","tol_trial_num","<div class = centerbox><p class = center-block-text>problem <strong>8</strong> out of 25 problems</p></div>","0","","","","","","","","","","","","","","","","","","","","","","","","",""
"","","","","","single-stim-button","139","454379","0.0-2.0-31.0-0.0","5aef97b09516fe00010959f4","E1","batch5","","4425","tol_tohand","","","","tol_peg_3","4425","4425","0","[[0,0,0],[2,3],[0]]","1","[[1,2,0],[3,0],[0]]","7","0","","","","","","4","","","","","","","","",""
"","","","","","single-stim-button","140","455283","0.0-2.0-31.0-1.0","5aef97b09516fe00010959f4","E1","batch5","","903","tol_toboard","","","","tol_peg_1","903","903","0","[[1,0,0],[2,3],[0]]","1","[[1,2,0],[3,0],[0]]","7","0","","","","","","4","","","","","","","","",""
"","","","","","single-stim-button","141","456049","0.0-2.0-31.1-0.1","5aef97b09516fe00010959f4","E1","batch5","","765","tol_tohand","","","","tol_peg_2","765","765","0","[[1,0,0],[2,0],[0]]","2","[[1,2,0],[3,0],[0]]","7","0","","","","","","4","","","","","","","","",""
"","","","","","single-stim-button","142","457022","0.0-2.0-31.1-1.1","5aef97b09516fe00010959f4","E1","batch5","","972","tol_toboard","","","","tol_peg_3","972","972","0","[[1,0,0],[2,0],[3]]","2","[[1,2,0],[3,0],[0]]","7","0","","","","","","4","","","","","","","","",""
"","","","","","single-stim-button","143","457767","0.0-2.0-31.2-0.2","5aef97b09516fe00010959f4","E1","batch5","","745","tol_tohand","","","","tol_peg_2","745","745","0","[[1,0,0],[0,0],[3]]","3","[[1,2,0],[3,0],[0]]","7","0","","","","","","4","","","","","","","","",""
"","","","","","single-stim-button","144","458414","0.0-2.0-31.2-1.2","5aef97b09516fe00010959f4","E1","batch5","","647","tol_toboard","","","","tol_peg_1","647","647","0","[[1,2,0],[0,0],[3]]","3","[[1,2,0],[3,0],[0]]","7","0","","","","","","4","","","","","","","","",""
"","","","","","single-stim-button","145","458908","0.0-2.0-31.3-0.3","5aef97b09516fe00010959f4","E1","batch5","","493","tol_tohand","","","","tol_peg_3","493","493","0","[[1,2,0],[0,0],[0]]","4","[[1,2,0],[3,0],[0]]","7","0","","","","","","4","","","","","","","","",""
"","","","","","single-stim-button","146","459520","0.0-2.0-31.3-1.3","5aef97b09516fe00010959f4","E1","batch5","","611","tol_toboard","","","","tol_peg_2","611","611","0","[[1,2,0],[3,0],[0]]","4","[[1,2,0],[3,0],[0]]","7","0","","","","","","4","","","","","","","","",""
"","","","","","poldrack-single-stim","147","460523","0.0-2.0-32.0","5aef97b09516fe00010959f4","E1","batch5","","-1","tol_feedback","","","true","","1000","1000","500","","","","","","-1","none","true","4425","6428","","","","","","","","","",""
"","","","","","html-button-response","148","461565","0.0-2.0-33.0","5aef97b09516fe00010959f4","E1","batch5","","1040.300000011921","tol_trial_num","<div class = centerbox><p class = center-block-text>problem <strong>9</strong> out of 25 problems</p></div>","0","","","","","","","","","","","","","","","","","","","","","","","","",""
"","","","","","single-stim-button","149","465864","0.0-2.0-34.0-0.0","5aef97b09516fe00010959f4","E1","batch5","","4299","tol_tohand","","","","tol_peg_1","4299","4299","0","[[3,0,0],[0,0],[1]]","1","[[2,1,0],[3,0],[0]]","8","0","","","","","","6","","","","","","","","",""
"","","","","","single-stim-button","150","470247","0.0-2.0-34.0-1.0","5aef97b09516fe00010959f4","E1","batch5","","4382","tol_toboard","","","","tol_peg_2","4382","4382","0","[[3,0,0],[2,0],[1]]","1","[[2,1,0],[3,0],[0]]","8","0","","","","","","6","","","","","","","","",""
"","","","","","single-stim-button","151","477814","0.0-2.0-34.1-0.1","5aef97b09516fe00010959f4","E1","batch5","","7566","tol_tohand","","","","tol_peg_3","7566","7566","0","[[3,0,0],[2,0],[0]]","2","[[2,1,0],[3,0],[0]]","8","0","","","","","","6","","","","","","","","",""
"","","","","","single-stim-button","152","478657","0.0-2.0-34.1-1.1","5aef97b09516fe00010959f4","E1","batch5","","841","tol_toboard","","","","tol_peg_1","841","841","0","[[3,1,0],[2,0],[0]]","2","[[2,1,0],[3,0],[0]]","8","0","","","","","","6","","","","","","","","",""
"","","","","","single-stim-button","153","479352","0.0-2.0-34.2-0.2","5aef97b09516fe00010959f4","E1","batch5","","695","tol_tohand","","","","tol_peg_2","695","695","0","[[3,1,0],[0,0],[0]]","3","[[2,1,0],[3,0],[0]]","8","0","","","","","","6","","","","","","","","",""
"","","","","","single-stim-button","154","480256","0.0-2.0-34.2-1.2","5aef97b09516fe00010959f4","E1","batch5","","903","tol_toboard","","","","tol_peg_3","903","903","0","[[3,1,0],[0,0],[2]]","3","[[2,1,0],[3,0],[0]]","8","0","","","","","","6","","","","","","","","",""
"","","","","","single-stim-button","155","483749","0.0-2.0-34.3-0.3","5aef97b09516fe00010959f4","E1","batch5","","3492","tol_tohand","","","","tol_peg_1","3492","3492","0","[[3,0,0],[0,0],[2]]","4","[[2,1,0],[3,0],[0]]","8","0","","","","","","6","","","","","","","","",""
"","","","","","single-stim-button","156","484535","0.0-2.0-34.3-1.3","5aef97b09516fe00010959f4","E1","batch5","","785","tol_toboard","","","","tol_peg_2","785","785","0","[[3,0,0],[1,0],[2]]","4","[[2,1,0],[3,0],[0]]","8","0","","","","","","6","","","","","","","","",""
"","","","","","single-stim-button","157","484988","0.0-2.0-34.4-0.4","5aef97b09516fe00010959f4","E1","batch5","","451","tol_tohand","","","","tol_peg_1","451","451","0","[[0,0,0],[1,0],[2]]","5","[[2,1,0],[3,0],[0]]","8","0","","","","","","6","","","","","","","","",""
"","","","","","single-stim-button","158","485648","0.0-2.0-34.4-1.4","5aef97b09516fe00010959f4","E1","batch5","","660","tol_toboard","","","","tol_peg_2","660","660","0","[[0,0,0],[1,3],[2]]","5","[[2,1,0],[3,0],[0]]","8","0","","","","","","6","","","","","","","","",""
"","","","","","single-stim-button","159","486239","0.0-2.0-34.5-0.5","5aef97b09516fe00010959f4","E1","batch5","","591","tol_tohand","","","","tol_peg_3","591","591","0","[[0,0,0],[1,3],[0]]","6","[[2,1,0],[3,0],[0]]","8","0","","","","","","6","","","","","","","","",""
"","","","","","single-stim-button","160","487123","0.0-2.0-34.5-1.5","5aef97b09516fe00010959f4","E1","batch5","","883","tol_toboard","","","","tol_peg_1","883","883","0","[[2,0,0],[1,3],[0]]","6","[[2,1,0],[3,0],[0]]","8","0","","","","","","6","","","","","","","","",""
"","","","","","single-stim-button","161","488292","0.0-2.0-34.6-0.6","5aef97b09516fe00010959f4","E1","batch5","","1168","tol_tohand","","","","tol_peg_2","1168","1168","0","[[2,0,0],[1,0],[0]]","7","[[2,1,0],[3,0],[0]]","8","0","","","","","","6","","","","","","","","",""
"","","","","","single-stim-button","162","489113","0.0-2.0-34.6-1.6","5aef97b09516fe00010959f4","E1","batch5","","821","tol_toboard","","","","tol_peg_3","821","821","0","[[2,0,0],[1,0],[3]]","7","[[2,1,0],[3,0],[0]]","8","0","","","","","","6","","","","","","","","",""
"","","","","","single-stim-button","163","490483","0.0-2.0-34.7-0.7","5aef97b09516fe00010959f4","E1","batch5","","1370","tol_tohand","","","","tol_peg_2","1370","1370","0","[[2,0,0],[0,0],[3]]","8","[[2,1,0],[3,0],[0]]","8","0","","","","","","6","","","","","","","","",""
"","","","","","single-stim-button","164","491429","0.0-2.0-34.7-1.7","5aef97b09516fe00010959f4","E1","batch5","","946","tol_toboard","","","","tol_peg_1","946","946","0","[[2,1,0],[0,0],[3]]","8","[[2,1,0],[3,0],[0]]","8","0","","","","","","6","","","","","","","","",""
"","","","","","single-stim-button","165","492221","0.0-2.0-34.8-0.8","5aef97b09516fe00010959f4","E1","batch5","","791","tol_tohand","","","","tol_peg_3","791","791","0","[[2,1,0],[0,0],[0]]","9","[[2,1,0],[3,0],[0]]","8","0","","","","","","6","","","","","","","","",""
"","","","","","single-stim-button","166","492973","0.0-2.0-34.8-1.8","5aef97b09516fe00010959f4","E1","batch5","","751","tol_toboard","","","","tol_peg_2","751","751","0","[[2,1,0],[3,0],[0]]","9","[[2,1,0],[3,0],[0]]","8","0","","","","","","6","","","","","","","","",""
"","","","","","poldrack-single-stim","167","493975","0.0-2.0-35.0","5aef97b09516fe00010959f4","E1","batch5","","-1","tol_feedback","","","true","","1000","1000","500","","","","","","-1","none","true","4299","20423","","","","","","","","","",""
"","","","","","html-button-response","168","494902","0.0-2.0-36.0","5aef97b09516fe00010959f4","E1","batch5","","926.2000000178814","tol_trial_num","<div class = centerbox><p class = center-block-text>problem <strong>10</strong> out of 25 problems</p></div>","0","","","","","","","","","","","","","","","","","","","","","","","","",""
"","","","","","single-stim-button","169","498740","0.0-2.0-37.0-0.0","5aef97b09516fe00010959f4","E1","batch5","","3838","tol_tohand","","","","tol_peg_2","3838","3838","0","[[3,0,0],[0,0],[2]]","1","[[3,0,0],[2,1],[0]]","9","0","","","","","","3","","","","","","","","",""
"","","","","","single-stim-button","170","499555","0.0-2.0-37.0-1.0","5aef97b09516fe00010959f4","E1","batch5","","815","tol_toboard","","","","tol_peg_1","815","815","0","[[3,1,0],[0,0],[2]]","1","[[3,0,0],[2,1],[0]]","9","0","","","","","","3","","","","","","","","",""
"","","","","","single-stim-button","171","500194","0.0-2.0-37.1-0.1","5aef97b09516fe00010959f4","E1","batch5","","639","tol_tohand","","","","tol_peg_3","639","639","0","[[3,1,0],[0,0],[0]]","2","[[3,0,0],[2,1],[0]]","9","0","","","","","","3","","","","","","","","",""
"","","","","","single-stim-button","172","500842","0.0-2.0-37.1-1.1","5aef97b09516fe00010959f4","E1","batch5","","648","tol_toboard","","","","tol_peg_2","648","648","0","[[3,1,0],[2,0],[0]]","2","[[3,0,0],[2,1],[0]]","9","0","","","","","","3","","","","","","","","",""
"","","","","","single-stim-button","173","501475","0.0-2.0-37.2-0.2","5aef97b09516fe00010959f4","E1","batch5","","633","tol_tohand","","","","tol_peg_1","633","633","0","[[3,0,0],[2,0],[0]]","3","[[3,0,0],[2,1],[0]]","9","0","","","","","","3","","","","","","","","",""
"","","","","","single-stim-button","174","502045","0.0-2.0-37.2-1.2","5aef97b09516fe00010959f4","E1","batch5","","568","tol_toboard","","","","tol_peg_2","568","568","0","[[3,0,0],[2,1],[0]]","3","[[3,0,0],[2,1],[0]]","9","0","","","","","","3","","","","","","","","",""
"","","","","","poldrack-single-stim","175","503049","0.0-2.0-38.0","5aef97b09516fe00010959f4","E1","batch5","","-1","tol_feedback","","","true","","1000","1000","500","","","","","","-1","none","true","3838","5110","","","","","","","","","",""
"","","","","","html-button-response","176","504346","0.0-2.0-39.0","5aef97b09516fe00010959f4","E1","batch5","","1296.199999988079","tol_trial_num","<div class = centerbox><p class = center-block-text>problem <strong>11</strong> out of 25 problems</p></div>","0","","","","","","","","","","","","","","","","","","","","","","","","",""
"","","","","","single-stim-button","177","516721","0.0-2.0-40.0-0.0","5aef97b09516fe00010959f4","E1","batch5","","12375","tol_tohand","","","","tol_peg_1","12375","12375","0","[[1,0,0],[3,0],[0]]","1","[[2,0,0],[1,3],[0]]","10","0","","","","","","6","","","","","","","","",""
"","","","","","single-stim-button","178","519872","0.0-2.0-40.0-1.0","5aef97b09516fe00010959f4","E1","batch5","","3150","tol_toboard","","","","tol_peg_2","3150","3150","0","[[1,0,0],[3,2],[0]]","1","[[2,0,0],[1,3],[0]]","10","0","","","","","","6","","","","","","","","",""
"","","","","","single-stim-button","179","520589","0.0-2.0-40.1-0.1","5aef97b09516fe00010959f4","E1","batch5","","717","tol_tohand","","","","tol_peg_1","717","717","0","[[0,0,0],[3,2],[0]]","2","[[2,0,0],[1,3],[0]]","10","0","","","","","","6","","","","","","","","",""
"","","","","","single-stim-button","180","521256","0.0-2.0-40.1-1.1","5aef97b09516fe00010959f4","E1","batch5","","666","tol_toboard","","","","tol_peg_3","666","666","0","[[0,0,0],[3,2],[1]]","2","[[2,0,0],[1,3],[0]]","10","0","","","","","","6","","","","","","","","",""
"","","","","","single-stim-button","181","522272","0.0-2.0-40.2-0.2","5aef97b09516fe00010959f4","E1","batch5","","1016","tol_tohand","","","","tol_peg_2","1016","1016","0","[[0,0,0],[3,0],[1]]","3","[[2,0,0],[1,3],[0]]","10","0","","","","","","6","","","","","","","","",""
"","","","","","single-stim-button","182","523016","0.0-2.0-40.2-1.2","5aef97b09516fe00010959f4","E1","batch5","","744","tol_toboard","","","","tol_peg_1","744","744","0","[[2,0,0],[3,0],[1]]","3","[[2,0,0],[1,3],[0]]","10","0","","","","","","6","","","","","","","","",""
"","","","","","single-stim-button","183","524664","0.0-2.0-40.3-0.3","5aef97b09516fe00010959f4","E1","batch5","","1647","tol_tohand","","","","tol_peg_2","1647","1647","0","[[2,0,0],[0,0],[1]]","4","[[2,0,0],[1,3],[0]]","10","0","","","","","","6","","","","","","","","",""
"","","","","","single-stim-button","184","525342","0.0-2.0-40.3-1.3","5aef97b09516fe00010959f4","E1","batch5","","676","tol_toboard","","","","tol_peg_1","676","676","0","[[2,3,0],[0,0],[1]]","4","[[2,0,0],[1,3],[0]]","10","0","","","","","","6","","","","","","","","",""
"","","","","","single-stim-button","185","525994","0.0-2.0-40.4-0.4","5aef97b09516fe00010959f4","E1","batch5","","652","tol_tohand","","","","tol_peg_3","652","652","0","[[2,3,0],[0,0],[0]]","5","[[2,0,0],[1,3],[0]]","10","0","","","","","","6","","","","","","","","",""
"","","","","","single-stim-button","186","526453","0.0-2.0-40.4-1.4","5aef97b09516fe00010959f4","E1","batch5","","459","tol_toboard","","","","tol_peg_2","459","459","0","[[2,3,0],[1,0],[0]]","5","[[2,0,0],[1,3],[0]]","10","0","","","","","","6","","","","","","","","",""
"","","","","","single-stim-button","187","527024","0.0-2.0-40.5-0.5","5aef97b09516fe00010959f4","E1","batch5","","570","tol_tohand","","","","tol_peg_1","570","570","0","[[2,0,0],[1,0],[0]]","6","[[2,0,0],[1,3],[0]]","10","0","","","","","","6","","","","","","","","",""
"","","","","","single-stim-button","188","527677","0.0-2.0-40.5-1.5","5aef97b09516fe00010959f4","E1","batch5","","652","tol_toboard","","","","tol_peg_2","652","652","0","[[2,0,0],[1,3],[0]]","6","[[2,0,0],[1,3],[0]]","10","0","","","","","","6","","","","","","","","",""
"","","","","","poldrack-single-stim","189","528682","0.0-2.0-41.0","5aef97b09516fe00010959f4","E1","batch5","","-1","tol_feedback","","","true","","1000","1000","500","","","","","","-1","none","true","12375","16977","","","","","","","","","",""
"","","","","","html-button-response","190","530383","0.0-2.0-42.0","5aef97b09516fe00010959f4","E1","batch5","","1699.5","tol_trial_num","<div class = centerbox><p class = center-block-text>problem <strong>12</strong> out of 25 problems</p></div>","0","","","","","","","","","","","","","","","","","","","","","","","","",""
"","","","","","single-stim-button","191","542863","0.0-2.0-43.0-0.0","5aef97b09516fe00010959f4","E1","batch5","","12480","tol_tohand","","","","tol_peg_1","12480","12480","0","[[1,0,0],[3,0],[0]]","1","[[2,3,0],[0,0],[1]]","11","0","","","","","","4","","","","","","","","",""
"","","","","","single-stim-button","192","543544","0.0-2.0-43.0-1.0","5aef97b09516fe00010959f4","E1","batch5","","680","tol_toboard","","","","tol_peg_2","680","680","0","[[1,0,0],[3,2],[0]]","1","[[2,3,0],[0,0],[1]]","11","0","","","","","","4","","","","","","","","",""
"","","","","","single-stim-button","193","544053","0.0-2.0-43.1-0.1","5aef97b09516fe00010959f4","E1","batch5","","508","tol_tohand","","","","tol_peg_1","508","508","0","[[0,0,0],[3,2],[0]]","2","[[2,3,0],[0,0],[1]]","11","0","","","","","","4","","","","","","","","",""
"","","","","","single-stim-button","194","544706","0.0-2.0-43.1-1.1","5aef97b09516fe00010959f4","E1","batch5","","653","tol_toboard","","","","tol_peg_3","653","653","0","[[0,0,0],[3,2],[1]]","2","[[2,3,0],[0,0],[1]]","11","0","","","","","","4","","","","","","","","",""
"","","","","","single-stim-button","195","545207","0.0-2.0-43.2-0.2","5aef97b09516fe00010959f4","E1","batch5","","499","tol_tohand","","","","tol_peg_2","499","499","0","[[0,0,0],[3,0],[1]]","3","[[2,3,0],[0,0],[1]]","11","0","","","","","","4","","","","","","","","",""
"","","","","","single-stim-button","196","546077","0.0-2.0-43.2-1.2","5aef97b09516fe00010959f4","E1","batch5","","869","tol_toboard","","","","tol_peg_1","869","869","0","[[2,0,0],[3,0],[1]]","3","[[2,3,0],[0,0],[1]]","11","0","","","","","","4","","","","","","","","",""
"","","","","","single-stim-button","197","546918","0.0-2.0-43.3-0.3","5aef97b09516fe00010959f4","E1","batch5","","841","tol_tohand","","","","tol_peg_2","841","841","0","[[2,0,0],[0,0],[1]]","4","[[2,3,0],[0,0],[1]]","11","0","","","","","","4","","","","","","","","",""
"","","","","","single-stim-button","198","548108","0.0-2.0-43.3-1.3","5aef97b09516fe00010959f4","E1","batch5","","1190","tol_toboard","","","","tol_peg_1","1190","1190","0","[[2,3,0],[0,0],[1]]","4","[[2,3,0],[0,0],[1]]","11","0","","","","","","4","","","","","","","","",""
"","","","","","poldrack-single-stim","199","549111","0.0-2.0-44.0","5aef97b09516fe00010959f4","E1","batch5","","-1","tol_feedback","","","true","","1000","1000","500","","","","","","-1","none","true","12480","14328","","","","","","","","","",""
"","","","","","html-button-response","200","552790","0.0-2.0-45.0","5aef97b09516fe00010959f4","E1","batch5","","3679","tol_trial_num","<div class = centerbox><p class = center-block-text>problem <strong>13</strong> out of 25 problems</p></div>","0","","","","","","","","","","","","","","","","","","","","","","","","",""
"","","","","","single-stim-button","201","557541","0.0-2.0-46.0-0.0","5aef97b09516fe00010959f4","E1","batch5","","4750","tol_tohand","","","","tol_peg_2","4750","4750","0","[[1,2,0],[0,0],[0]]","1","[[0,0,0],[2,3],[1]]","12","0","","","","","","4","","","","","","","","",""
"","","","","","single-stim-button","202","558230","0.0-2.0-46.0-1.0","5aef97b09516fe00010959f4","E1","batch5","","688","tol_toboard","","","","tol_peg_3","688","688","0","[[1,2,0],[0,0],[3]]","1","[[0,0,0],[2,3],[1]]","12","0","","","","","","4","","","","","","","","",""
"","","","","","single-stim-button","203","558781","0.0-2.0-46.1-0.1","5aef97b09516fe00010959f4","E1","batch5","","549","tol_tohand","","","","tol_peg_1","549","549","0","[[1,0,0],[0,0],[3]]","2","[[0,0,0],[2,3],[1]]","12","0","","","","","","4","","","","","","","","",""
"","","","","","single-stim-button","204","559447","0.0-2.0-46.1-1.1","5aef97b09516fe00010959f4","E1","batch5","","666","tol_toboard","","","","tol_peg_2","666","666","0","[[1,0,0],[2,0],[3]]","2","[[0,0,0],[2,3],[1]]","12","0","","","","","","4","","","","","","","","",""
"","","","","","single-stim-button","205","560046","0.0-2.0-46.2-0.2","5aef97b09516fe00010959f4","E1","batch5","","597","tol_tohand","","","","tol_peg_3","597","597","0","[[1,0,0],[2,0],[0]]","3","[[0,0,0],[2,3],[1]]","12","0","","","","","","4","","","","","","","","",""
"","","","","","single-stim-button","206","560839","0.0-2.0-46.2-1.2","5aef97b09516fe00010959f4","E1","batch5","","792","tol_toboard","","","","tol_peg_2","792","792","0","[[1,0,0],[2,3],[0]]","3","[[0,0,0],[2,3],[1]]","12","0","","","","","","4","","","","","","","","",""
"","","","","","single-stim-button","207","561778","0.0-2.0-46.3-0.3","5aef97b09516fe00010959f4","E1","batch5","","939","tol_tohand","","","","tol_peg_1","939","939","0","[[0,0,0],[2,3],[0]]","4","[[0,0,0],[2,3],[1]]","12","0","","","","","","4","","","","","","","","",""
"","","","","","single-stim-button","208","562676","0.0-2.0-46.3-1.3","5aef97b09516fe00010959f4","E1","batch5","","896","tol_toboard","","","","tol_peg_3","896","896","0","[[0,0,0],[2,3],[1]]","4","[[0,0,0],[2,3],[1]]","12","0","","","","","","4","","","","","","","","",""
"","","","","","poldrack-single-stim","209","563690","0.0-2.0-47.0","5aef97b09516fe00010959f4","E1","batch5","","-1","tol_feedback","","","true","","1000","1000","500","","","","","","-1","none","true","4750","6835","","","","","","","","","",""
"","","","","","html-button-response","210","571754","0.0-2.0-48.0","5aef97b09516fe00010959f4","E1","batch5","","8063.0999999940395","attention_check","<p class = block-text>How many balls are in your board<br></p>","1","true","","","","","","","","","","","","","","","","","","","","","","","",""
"","","","","","html-button-response","211","572806","0.0-2.0-49.0","5aef97b09516fe00010959f4","E1","batch5","","1051.3999999761581","tol_trial_num","<div class = centerbox><p class = center-block-text>problem <strong>14</strong> out of 25 problems</p></div>","0","","","","","","","","","","","","","","","","","","","","","","","","",""
"","","","","","single-stim-button","212","576172","0.0-2.0-50.0-0.0","5aef97b09516fe00010959f4","E1","batch5","","3365","tol_tohand","","","","tol_peg_1","3365","3365","0","[[2,0,0],[3,0],[0]]","1","[[1,2,0],[3,0],[0]]","13","0","","","","","","4","","","","","","","","",""
"","","","","","single-stim-button","213","583735","0.0-2.0-50.0-1.0","5aef97b09516fe00010959f4","E1","batch5","","7562","tol_toboard","","","","tol_peg_2","7562","7562","0","[[2,0,0],[3,1],[0]]","1","[[1,2,0],[3,0],[0]]","13","0","","","","","","4","","","","","","","","",""
"","","","","","single-stim-button","214","584382","0.0-2.0-50.1-0.1","5aef97b09516fe00010959f4","E1","batch5","","647","tol_tohand","","","","tol_peg_1","647","647","0","[[0,0,0],[3,1],[0]]","2","[[1,2,0],[3,0],[0]]","13","0","","","","","","4","","","","","","","","",""
"","","","","","single-stim-button","215","585112","0.0-2.0-50.1-1.1","5aef97b09516fe00010959f4","E1","batch5","","729","tol_toboard","","","","tol_peg_3","729","729","0","[[0,0,0],[3,1],[2]]","2","[[1,2,0],[3,0],[0]]","13","0","","","","","","4","","","","","","","","",""
"","","","","","single-stim-button","216","587151","0.0-2.0-50.2-0.2","5aef97b09516fe00010959f4","E1","batch5","","2038","tol_tohand","","","","tol_peg_2","2038","2038","0","[[0,0,0],[3,0],[2]]","3","[[1,2,0],[3,0],[0]]","13","0","","","","","","4","","","","","","","","",""
"","","","","","single-stim-button","217","587903","0.0-2.0-50.2-1.2","5aef97b09516fe00010959f4","E1","batch5","","751","tol_toboard","","","","tol_peg_1","751","751","0","[[1,0,0],[3,0],[2]]","3","[[1,2,0],[3,0],[0]]","13","0","","","","","","4","","","","","","","","",""
"","","","","","single-stim-button","218","589168","0.0-2.0-50.3-0.3","5aef97b09516fe00010959f4","E1","batch5","","1265","tol_tohand","","","","tol_peg_3","1265","1265","0","[[1,0,0],[3,0],[0]]","4","[[1,2,0],[3,0],[0]]","13","0","","","","","","4","","","","","","","","",""
"","","","","","single-stim-button","219","590170","0.0-2.0-50.3-1.3","5aef97b09516fe00010959f4","E1","batch5","","1001","tol_toboard","","","","tol_peg_1","1001","1001","0","[[1,2,0],[3,0],[0]]","4","[[1,2,0],[3,0],[0]]","13","0","","","","","","4","","","","","","","","",""
"","","","","","poldrack-single-stim","220","591178","0.0-2.0-51.0","5aef97b09516fe00010959f4","E1","batch5","","-1","tol_feedback","","","true","","1000","1000","500","","","","","","-1","none","true","3365","7315","","","","","","","","","",""
"","","","","","html-button-response","221","595072","0.0-2.0-52.0","5aef97b09516fe00010959f4","E1","batch5","","3892.399999976158","tol_trial_num","<div class = centerbox><p class = center-block-text>problem <strong>15</strong> out of 25 problems</p></div>","0","","","","","","","","","","","","","","","","","","","","","","","","",""
"","","","","","single-stim-button","222","606463","0.0-2.0-53.0-0.0","5aef97b09516fe00010959f4","E1","batch5","","11391","tol_tohand","","","","tol_peg_1","11391","11391","0","[[1,0,0],[3,0],[0]]","1","[[2,0,0],[3,0],[1]]","14","0","","","","","","3","","","","","","","","",""
"","","","","","single-stim-button","223","607082","0.0-2.0-53.0-1.0","5aef97b09516fe00010959f4","E1","batch5","","618","tol_toboard","","","","tol_peg_2","618","618","0","[[1,0,0],[3,2],[0]]","1","[[2,0,0],[3,0],[1]]","14","0","","","","","","3","","","","","","","","",""
"","","","","","single-stim-button","224","607750","0.0-2.0-53.1-0.1","5aef97b09516fe00010959f4","E1","batch5","","667","tol_tohand","","","","tol_peg_1","667","667","0","[[0,0,0],[3,2],[0]]","2","[[2,0,0],[3,0],[1]]","14","0","","","","","","3","","","","","","","","",""
"","","","","","single-stim-button","225","608543","0.0-2.0-53.1-1.1","5aef97b09516fe00010959f4","E1","batch5","","793","tol_toboard","","","","tol_peg_3","793","793","0","[[0,0,0],[3,2],[1]]","2","[[2,0,0],[3,0],[1]]","14","0","","","","","","3","","","","","","","","",""
"","","","","","single-stim-button","226","609176","0.0-2.0-53.2-0.2","5aef97b09516fe00010959f4","E1","batch5","","633","tol_tohand","","","","tol_peg_2","633","633","0","[[0,0,0],[3,0],[1]]","3","[[2,0,0],[3,0],[1]]","14","0","","","","","","3","","","","","","","","",""
"","","","","","single-stim-button","227","610060","0.0-2.0-53.2-1.2","5aef97b09516fe00010959f4","E1","batch5","","883","tol_toboard","","","","tol_peg_1","883","883","0","[[2,0,0],[3,0],[1]]","3","[[2,0,0],[3,0],[1]]","14","0","","","","","","3","","","","","","","","",""
"","","","","","poldrack-single-stim","228","611070","0.0-2.0-54.0","5aef97b09516fe00010959f4","E1","batch5","","-1","tol_feedback","","","true","","1000","1000","500","","","","","","-1","none","true","11391","12691","","","","","","","","","",""
"","","","","","html-button-response","229","612565","0.0-2.0-55.0","5aef97b09516fe00010959f4","E1","batch5","","1493.5","tol_trial_num","<div class = centerbox><p class = center-block-text>problem <strong>16</strong> out of 25 problems</p></div>","0","","","","","","","","","","","","","","","","","","","","","","","","",""
"","","","","","single-stim-button","230","621066","0.0-2.0-56.0-0.0","5aef97b09516fe00010959f4","E1","batch5","","8501","tol_tohand","","","","tol_peg_3","8501","8501","0","[[0,0,0],[2,3],[0]]","1","[[2,3,0],[1,0],[0]]","15","0","","","","","","7","","","","","","","","",""
"","","","","","single-stim-button","231","621881","0.0-2.0-56.0-1.0","5aef97b09516fe00010959f4","E1","batch5","","815","tol_toboard","","","","tol_peg_1","815","815","0","[[1,0,0],[2,3],[0]]","1","[[2,3,0],[1,0],[0]]","15","0","","","","","","7","","","","","","","","",""
"","","","","","single-stim-button","232","622500","0.0-2.0-56.1-0.1","5aef97b09516fe00010959f4","E1","batch5","","619","tol_tohand","","","","tol_peg_2","619","619","0","[[1,0,0],[2,0],[0]]","2","[[2,3,0],[1,0],[0]]","15","0","","","","","","7","","","","","","","","",""
"","","","","","single-stim-button","233","623495","0.0-2.0-56.1-1.1","5aef97b09516fe00010959f4","E1","batch5","","994","tol_toboard","","","","tol_peg_3","994","994","0","[[1,0,0],[2,0],[3]]","2","[[2,3,0],[1,0],[0]]","15","0","","","","","","7","","","","","","","","",""
"","","","","","single-stim-button","234","632309","0.0-2.0-56.2-0.2","5aef97b09516fe00010959f4","E1","batch5","","8813","tol_tohand","","","","tol_peg_3","8813","8813","0","[[1,0,0],[2,0],[0]]","3","[[2,3,0],[1,0],[0]]","15","0","","","","","","7","","","","","","","","",""
"","","","","","single-stim-button","235","633123","0.0-2.0-56.2-1.2","5aef97b09516fe00010959f4","E1","batch5","","814","tol_toboard","","","","tol_peg_1","814","814","0","[[1,3,0],[2,0],[0]]","3","[[2,3,0],[1,0],[0]]","15","0","","","","","","7","","","","","","","","",""
"","","","","","single-stim-button","236","633937","0.0-2.0-56.3-0.3","5aef97b09516fe00010959f4","E1","batch5","","814","tol_tohand","","","","tol_peg_2","814","814","0","[[1,3,0],[0,0],[0]]","4","[[2,3,0],[1,0],[0]]","15","0","","","","","","7","","","","","","","","",""
"","","","","","single-stim-button","237","636191","0.0-2.0-56.3-1.3","5aef97b09516fe00010959f4","E1","batch5","","2254","tol_toboard","","","","tol_peg_3","2254","2254","0","[[1,3,0],[0,0],[2]]","4","[[2,3,0],[1,0],[0]]","15","0","","","","","","7","","","","","","","","",""
"","","","","","single-stim-button","238","636929","0.0-2.0-56.4-0.4","5aef97b09516fe00010959f4","E1","batch5","","737","tol_tohand","","","","tol_peg_1","737","737","0","[[1,0,0],[0,0],[2]]","5","[[2,3,0],[1,0],[0]]","15","0","","","","","","7","","","","","","","","",""
"","","","","","single-stim-button","239","638146","0.0-2.0-56.4-1.4","5aef97b09516fe00010959f4","E1","batch5","","1216","tol_toboard","","","","tol_peg_2","1216","1216","0","[[1,0,0],[3,0],[2]]","5","[[2,3,0],[1,0],[0]]","15","0","","","","","","7","","","","","","","","",""
"","","","","","single-stim-button","240","638675","0.0-2.0-56.5-0.5","5aef97b09516fe00010959f4","E1","batch5","","528","tol_tohand","","","","tol_peg_1","528","528","0","[[0,0,0],[3,0],[2]]","6","[[2,3,0],[1,0],[0]]","15","0","","","","","","7","","","","","","","","",""
"","","","","","single-stim-button","241","639670","0.0-2.0-56.5-1.5","5aef97b09516fe00010959f4","E1","batch5","","994","tol_toboard","","","","tol_peg_2","994","994","0","[[0,0,0],[3,1],[2]]","6","[[2,3,0],[1,0],[0]]","15","0","","","","","","7","","","","","","","","",""
"","","","","","single-stim-button","242","640227","0.0-2.0-56.6-0.6","5aef97b09516fe00010959f4","E1","batch5","","556","tol_tohand","","","","tol_peg_3","556","556","0","[[0,0,0],[3,1],[0]]","7","[[2,3,0],[1,0],[0]]","15","0","","","","","","7","","","","","","","","",""
"","","","","","single-stim-button","243","640957","0.0-2.0-56.6-1.6","5aef97b09516fe00010959f4","E1","batch5","","730","tol_toboard","","","","tol_peg_1","730","730","0","[[2,0,0],[3,1],[0]]","7","[[2,3,0],[1,0],[0]]","15","0","","","","","","7","","","","","","","","",""
"","","","","","single-stim-button","244","642279","0.0-2.0-56.7-0.7","5aef97b09516fe00010959f4","E1","batch5","","1322","tol_tohand","","","","tol_peg_2","1322","1322","0","[[2,0,0],[3,0],[0]]","8","[[2,3,0],[1,0],[0]]","15","0","","","","","","7","","","","","","","","",""
"","","","","","single-stim-button","245","643114","0.0-2.0-56.7-1.7","5aef97b09516fe00010959f4","E1","batch5","","834","tol_toboard","","","","tol_peg_3","834","834","0","[[2,0,0],[3,0],[1]]","8","[[2,3,0],[1,0],[0]]","15","0","","","","","","7","","","","","","","","",""
"","","","","","single-stim-button","246","643642","0.0-2.0-56.8-0.8","5aef97b09516fe00010959f4","E1","batch5","","528","tol_tohand","","","","tol_peg_2","528","528","0","[[2,0,0],[0,0],[1]]","9","[[2,3,0],[1,0],[0]]","15","0","","","","","","7","","","","","","","","",""
"","","","","","single-stim-button","247","644596","0.0-2.0-56.8-1.8","5aef97b09516fe00010959f4","E1","batch5","","953","tol_toboard","","","","tol_peg_1","953","953","0","[[2,3,0],[0,0],[1]]","9","[[2,3,0],[1,0],[0]]","15","0","","","","","","7","","","","","","","","",""
"","","","","","single-stim-button","248","645660","0.0-2.0-56.9-0.9","5aef97b09516fe00010959f4","E1","batch5","","1063","tol_tohand","","","","tol_peg_3","1063","1063","0","[[2,3,0],[0,0],[0]]","10","[[2,3,0],[1,0],[0]]","15","0","","","","","","7","","","","","","","","",""
"","","","","","single-stim-button","249","646425","0.0-2.0-56.9-1.9","5aef97b09516fe00010959f4","E1","batch5","","765","tol_toboard","","","","tol_peg_2","765","765","0","[[2,3,0],[1,0],[0]]","10","[[2,3,0],[1,0],[0]]","15","0","","","","","","7","","","","","","","","",""
"","","","","","poldrack-single-stim","250","647438","0.0-2.0-57.0","5aef97b09516fe00010959f4","E1","batch5","","-1","tol_feedback","","","true","","1000","1000","500","","","","","","-1","none","true","8501","23481","","","","","","","","","",""
"","","","","","html-button-response","251","651238","0.0-2.0-58.0","5aef97b09516fe00010959f4","E1","batch5","","3798.7000000178814","tol_trial_num","<div class = centerbox><p class = center-block-text>problem <strong>17</strong> out of 25 problems</p></div>","0","","","","","","","","","","","","","","","","","","","","","","","","",""
"","","","","","single-stim-button","252","662956","0.0-2.0-59.0-0.0","5aef97b09516fe00010959f4","E1","batch5","","11718","tol_tohand","","","","tol_peg_1","11718","11718","0","[[1,0,0],[3,0],[0]]","1","[[3,1,0],[2,0],[0]]","16","0","","","","","","5","","","","","","","","",""
"","","","","","single-stim-button","253","668007","0.0-2.0-59.0-1.0","5aef97b09516fe00010959f4","E1","batch5","","5051","tol_toboard","","","","tol_peg_3","5051","5051","0","[[1,0,0],[3,0],[2]]","1","[[3,1,0],[2,0],[0]]","16","0","","","","","","5","","","","","","","","",""
"","","","","","single-stim-button","254","668731","0.0-2.0-59.1-0.1","5aef97b09516fe00010959f4","E1","batch5","","723","tol_tohand","","","","tol_peg_1","723","723","0","[[0,0,0],[3,0],[2]]","2","[[3,1,0],[2,0],[0]]","16","0","","","","","","5","","","","","","","","",""
"","","","","","single-stim-button","255","672870","0.0-2.0-59.1-1.1","5aef97b09516fe00010959f4","E1","batch5","","4138","tol_toboard","","","","tol_peg_2","4138","4138","0","[[0,0,0],[3,1],[2]]","2","[[3,1,0],[2,0],[0]]","16","0","","","","","","5","","","","","","","","",""
"","","","","","single-stim-button","256","675673","0.0-2.0-59.2-0.2","5aef97b09516fe00010959f4","E1","batch5","","2803","tol_tohand","","","","tol_peg_2","2803","2803","0","[[0,0,0],[3,0],[2]]","3","[[3,1,0],[2,0],[0]]","16","0","","","","","","5","","","","","","","","",""
"","","","","","single-stim-button","257","676488","0.0-2.0-59.2-1.2","5aef97b09516fe00010959f4","E1","batch5","","814","tol_toboard","","","","tol_peg_1","814","814","0","[[1,0,0],[3,0],[2]]","3","[[3,1,0],[2,0],[0]]","16","0","","","","","","5","","","","","","","","",""
"","","","","","single-stim-button","258","678178","0.0-2.0-59.3-0.3","5aef97b09516fe00010959f4","E1","batch5","","1690","tol_tohand","","","","tol_peg_3","1690","1690","0","[[1,0,0],[3,0],[0]]","4","[[3,1,0],[2,0],[0]]","16","0","","","","","","5","","","","","","","","",""
"","","","","","single-stim-button","259","678819","0.0-2.0-59.3-1.3","5aef97b09516fe00010959f4","E1","batch5","","639","tol_toboard","","","","tol_peg_2","639","639","0","[[1,0,0],[3,2],[0]]","4","[[3,1,0],[2,0],[0]]","16","0","","","","","","5","","","","","","","","",""
"","","","","","single-stim-button","260","679347","0.0-2.0-59.4-0.4","5aef97b09516fe00010959f4","E1","batch5","","528","tol_tohand","","","","tol_peg_1","528","528","0","[[0,0,0],[3,2],[0]]","5","[[3,1,0],[2,0],[0]]","16","0","","","","","","5","","","","","","","","",""
"","","","","","single-stim-button","261","680412","0.0-2.0-59.4-1.4","5aef97b09516fe00010959f4","E1","batch5","","1065","tol_toboard","","","","tol_peg_3","1065","1065","0","[[0,0,0],[3,2],[1]]","5","[[3,1,0],[2,0],[0]]","16","0","","","","","","5","","","","","","","","",""
"","","","","","single-stim-button","262","681268","0.0-2.0-59.5-0.5","5aef97b09516fe00010959f4","E1","batch5","","855","tol_tohand","","","","tol_peg_2","855","855","0","[[0,0,0],[3,0],[1]]","6","[[3,1,0],[2,0],[0]]","16","0","","","","","","5","","","","","","","","",""
"","","","","","single-stim-button","263","682047","0.0-2.0-59.5-1.5","5aef97b09516fe00010959f4","E1","batch5","","779","tol_toboard","","","","tol_peg_1","779","779","0","[[2,0,0],[3,0],[1]]","6","[[3,1,0],[2,0],[0]]","16","0","","","","","","5","","","","","","","","",""
"","","","","","single-stim-button","264","683091","0.0-2.0-59.6-0.6","5aef97b09516fe00010959f4","E1","batch5","","1042","tol_tohand","","","","tol_peg_2","1042","1042","0","[[2,0,0],[0,0],[1]]","7","[[3,1,0],[2,0],[0]]","16","0","","","","","","5","","","","","","","","",""
"","","","","","single-stim-button","265","685950","0.0-2.0-59.6-1.6","5aef97b09516fe00010959f4","E1","batch5","","2859","tol_toboard","","","","tol_peg_2","2859","2859","0","[[2,0,0],[3,0],[1]]","7","[[3,1,0],[2,0],[0]]","16","0","","","","","","5","","","","","","","","",""
"","","","","","single-stim-button","266","687036","0.0-2.0-59.7-0.7","5aef97b09516fe00010959f4","E1","batch5","","1085","tol_tohand","","","","tol_peg_3","1085","1085","0","[[2,0,0],[3,0],[0]]","8","[[3,1,0],[2,0],[0]]","16","0","","","","","","5","","","","","","","","",""
"","","","","","single-stim-button","267","690410","0.0-2.0-59.7-1.7","5aef97b09516fe00010959f4","E1","batch5","","3373","tol_toboard","","","","tol_peg_3","3373","3373","0","[[2,0,0],[3,0],[1]]","8","[[3,1,0],[2,0],[0]]","16","0","","","","","","5","","","","","","","","",""
"","","","","","single-stim-button","268","700692","0.0-2.0-59.8-0.8","5aef97b09516fe00010959f4","E1","batch5","","10282","tol_tohand","","","","tol_peg_3","10282","10282","0","[[2,0,0],[3,0],[0]]","9","[[3,1,0],[2,0],[0]]","16","0","","","","","","5","","","","","","","","",""
"","","","","","single-stim-button","269","701367","0.0-2.0-59.8-1.8","5aef97b09516fe00010959f4","E1","batch5","","673","tol_toboard","","","","tol_peg_1","673","673","0","[[2,1,0],[3,0],[0]]","9","[[3,1,0],[2,0],[0]]","16","0","","","","","","5","","","","","","","","",""
"","","","","","single-stim-button","270","701944","0.0-2.0-59.9-0.9","5aef97b09516fe00010959f4","E1","batch5","","577","tol_tohand","","","","tol_peg_2","577","577","0","[[2,1,0],[0,0],[0]]","10","[[3,1,0],[2,0],[0]]","16","0","","","","","","5","","","","","","","","",""
"","","","","","single-stim-button","271","702827","0.0-2.0-59.9-1.9","5aef97b09516fe00010959f4","E1","batch5","","883","tol_toboard","","","","tol_peg_3","883","883","0","[[2,1,0],[0,0],[3]]","10","[[3,1,0],[2,0],[0]]","16","0","","","","","","5","","","","","","","","",""
"","","","","","single-stim-button","272","704087","0.0-2.0-59.10-0.10","5aef97b09516fe00010959f4","E1","batch5","","1259","tol_tohand","","","","tol_peg_1","1259","1259","0","[[2,0,0],[0,0],[3]]","11","[[3,1,0],[2,0],[0]]","16","0","","","","","","5","","","","","","","","",""
"","","","","","single-stim-button","273","705221","0.0-2.0-59.10-1.10","5aef97b09516fe00010959f4","E1","batch5","","1134","tol_toboard","","","","tol_peg_2","1134","1134","0","[[2,0,0],[1,0],[3]]","11","[[3,1,0],[2,0],[0]]","16","0","","","","","","5","","","","","","","","",""
"","","","","","single-stim-button","274","705798","0.0-2.0-59.11-0.11","5aef97b09516fe00010959f4","E1","batch5","","577","tol_tohand","","","","tol_peg_1","577","577","0","[[0,0,0],[1,0],[3]]","12","[[3,1,0],[2,0],[0]]","16","0","","","","","","5","","","","","","","","",""
"","","","","","single-stim-button","275","706264","0.0-2.0-59.11-1.11","5aef97b09516fe00010959f4","E1","batch5","","465","tol_toboard","","","","tol_peg_2","465","465","0","[[0,0,0],[1,2],[3]]","12","[[3,1,0],[2,0],[0]]","16","0","","","","","","5","","","","","","","","",""
"","","","","","single-stim-button","276","706911","0.0-2.0-59.12-0.12","5aef97b09516fe00010959f4","E1","batch5","","646","tol_tohand","","","","tol_peg_3","646","646","0","[[0,0,0],[1,2],[0]]","13","[[3,1,0],[2,0],[0]]","16","0","","","","","","5","","","","","","","","",""
"","","","","","single-stim-button","277","707655","0.0-2.0-59.12-1.12","5aef97b09516fe00010959f4","E1","batch5","","744","tol_toboard","","","","tol_peg_1","744","744","0","[[3,0,0],[1,2],[0]]","13","[[3,1,0],[2,0],[0]]","16","0","","","","","","5","","","","","","","","",""
"","","","","","single-stim-button","278","708213","0.0-2.0-59.13-0.13","5aef97b09516fe00010959f4","E1","batch5","","557","tol_tohand","","","","tol_peg_2","557","557","0","[[3,0,0],[1,0],[0]]","14","[[3,1,0],[2,0],[0]]","16","0","","","","","","5","","","","","","","","",""
"","","","","","single-stim-button","279","708915","0.0-2.0-59.13-1.13","5aef97b09516fe00010959f4","E1","batch5","","702","tol_toboard","","","","tol_peg_3","702","702","0","[[3,0,0],[1,0],[2]]","14","[[3,1,0],[2,0],[0]]","16","0","","","","","","5","","","","","","","","",""
"","","","","","single-stim-button","280","709437","0.0-2.0-59.14-0.14","5aef97b09516fe00010959f4","E1","batch5","","522","tol_tohand","","","","tol_peg_2","522","522","0","[[3,0,0],[0,0],[2]]","15","[[3,1,0],[2,0],[0]]","16","0","","","","","","5","","","","","","","","",""
"","","","","","single-stim-button","281","710140","0.0-2.0-59.14-1.14","5aef97b09516fe00010959f4","E1","batch5","","703","tol_toboard","","","","tol_peg_1","703","703","0","[[3,1,0],[0,0],[2]]","15","[[3,1,0],[2,0],[0]]","16","0","","","","","","5","","","","","","","","",""
"","","","","","single-stim-button","282","710599","0.0-2.0-59.15-0.15","5aef97b09516fe00010959f4","E1","batch5","","458","tol_tohand","","","","tol_peg_3","458","458","0","[[3,1,0],[0,0],[0]]","16","[[3,1,0],[2,0],[0]]","16","0","","","","","","5","","","","","","","","",""
"","","","","","single-stim-button","283","711245","0.0-2.0-59.15-1.15","5aef97b09516fe00010959f4","E1","batch5","","646","tol_toboard","","","","tol_peg_2","646","646","0","[[3,1,0],[2,0],[0]]","16","[[3,1,0],[2,0],[0]]","16","0","","","","","","5","","","","","","","","",""
"","","","","","poldrack-single-stim","284","712260","0.0-2.0-60.0","5aef97b09516fe00010959f4","E1","batch5","","-1","tol_feedback","","","true","","1000","1000","500","","","","","","-1","none","true","11718","35322","","","","","","","","","",""
"","","","","","html-button-response","285","713911","0.0-2.0-61.0","5aef97b09516fe00010959f4","E1","batch5","","1649.9000000059605","tol_trial_num","<div class = centerbox><p class = center-block-text>problem <strong>18</strong> out of 25 problems</p></div>","0","","","","","","","","","","","","","","","","","","","","","","","","",""
"","","","","","single-stim-button","286","724437","0.0-2.0-62.0-0.0","5aef97b09516fe00010959f4","E1","batch5","","10526","tol_tohand","","","","tol_peg_1","10526","10526","0","[[1,0,0],[3,0],[0]]","1","[[3,0,0],[2,0],[1]]","17","0","","","","","","5","","","","","","","","",""
"","","","","","single-stim-button","287","726155","0.0-2.0-62.0-1.0","5aef97b09516fe00010959f4","E1","batch5","","1717","tol_toboard","","","","tol_peg_2","1717","1717","0","[[1,0,0],[3,2],[0]]","1","[[3,0,0],[2,0],[1]]","17","0","","","","","","5","","","","","","","","",""
"","","","","","single-stim-button","288","726795","0.0-2.0-62.1-0.1","5aef97b09516fe00010959f4","E1","batch5","","639","tol_tohand","","","","tol_peg_1","639","639","0","[[0,0,0],[3,2],[0]]","2","[[3,0,0],[2,0],[1]]","17","0","","","","","","5","","","","","","","","",""
"","","","","","single-stim-button","289","727762","0.0-2.0-62.1-1.1","5aef97b09516fe00010959f4","E1","batch5","","965","tol_toboard","","","","tol_peg_3","965","965","0","[[0,0,0],[3,2],[1]]","2","[[3,0,0],[2,0],[1]]","17","0","","","","","","5","","","","","","","","",""
"","","","","","single-stim-button","290","729641","0.0-2.0-62.2-0.2","5aef97b09516fe00010959f4","E1","batch5","","1879","tol_tohand","","","","tol_peg_3","1879","1879","0","[[0,0,0],[3,2],[0]]","3","[[3,0,0],[2,0],[1]]","17","0","","","","","","5","","","","","","","","",""
"","","","","","single-stim-button","291","730503","0.0-2.0-62.2-1.2","5aef97b09516fe00010959f4","E1","batch5","","862","tol_toboard","","","","tol_peg_1","862","862","0","[[1,0,0],[3,2],[0]]","3","[[3,0,0],[2,0],[1]]","17","0","","","","","","5","","","","","","","","",""
"","","","","","single-stim-button","292","731115","0.0-2.0-62.3-0.3","5aef97b09516fe00010959f4","E1","batch5","","611","tol_tohand","","","","tol_peg_2","611","611","0","[[1,0,0],[3,0],[0]]","4","[[3,0,0],[2,0],[1]]","17","0","","","","","","5","","","","","","","","",""
"","","","","","single-stim-button","293","734309","0.0-2.0-62.3-1.3","5aef97b09516fe00010959f4","E1","batch5","","3192","tol_toboard","","","","tol_peg_3","3192","3192","0","[[1,0,0],[3,0],[2]]","4","[[3,0,0],[2,0],[1]]","17","0","","","","","","5","","","","","","","","",""
"","","","","","single-stim-button","294","740063","0.0-2.0-62.4-0.4","5aef97b09516fe00010959f4","E1","batch5","","5753","tol_tohand","","","","tol_peg_3","5753","5753","0","[[1,0,0],[3,0],[0]]","5","[[3,0,0],[2,0],[1]]","17","0","","","","","","5","","","","","","","","",""
"","","","","","single-stim-button","295","741885","0.0-2.0-62.4-1.4","5aef97b09516fe00010959f4","E1","batch5","","1822","tol_toboard","","","","tol_peg_2","1822","1822","0","[[1,0,0],[3,2],[0]]","5","[[3,0,0],[2,0],[1]]","17","0","","","","","","5","","","","","","","","",""
"","","","","","single-stim-button","296","742490","0.0-2.0-62.5-0.5","5aef97b09516fe00010959f4","E1","batch5","","605","tol_tohand","","","","tol_peg_1","605","605","0","[[0,0,0],[3,2],[0]]","6","[[3,0,0],[2,0],[1]]","17","0","","","","","","5","","","","","","","","",""
"","","","","","single-stim-button","297","743618","0.0-2.0-62.5-1.5","5aef97b09516fe00010959f4","E1","batch5","","1127","tol_toboard","","","","tol_peg_3","1127","1127","0","[[0,0,0],[3,2],[1]]","6","[[3,0,0],[2,0],[1]]","17","0","","","","","","5","","","","","","","","",""
"","","","","","single-stim-button","298","744515","0.0-2.0-62.6-0.6","5aef97b09516fe00010959f4","E1","batch5","","896","tol_tohand","","","","tol_peg_2","896","896","0","[[0,0,0],[3,0],[1]]","7","[[3,0,0],[2,0],[1]]","17","0","","","","","","5","","","","","","","","",""
"","","","","","single-stim-button","299","747395","0.0-2.0-62.6-1.6","5aef97b09516fe00010959f4","E1","batch5","","2880","tol_toboard","","","","tol_peg_1","2880","2880","0","[[2,0,0],[3,0],[1]]","7","[[3,0,0],[2,0],[1]]","17","0","","","","","","5","","","","","","","","",""
"","","","","","single-stim-button","300","748926","0.0-2.0-62.7-0.7","5aef97b09516fe00010959f4","E1","batch5","","1530","tol_tohand","","","","tol_peg_2","1530","1530","0","[[2,0,0],[0,0],[1]]","8","[[3,0,0],[2,0],[1]]","17","0","","","","","","5","","","","","","","","",""
"","","","","","single-stim-button","301","766254","0.0-2.0-62.7-1.7","5aef97b09516fe00010959f4","E1","batch5","","17326","tol_toboard","","","","tol_peg_1","17326","17326","0","[[2,3,0],[0,0],[1]]","8","[[3,0,0],[2,0],[1]]","17","0","","","","","","5","","","","","","","","",""
"","","","","","single-stim-button","302","766921","0.0-2.0-62.8-0.8","5aef97b09516fe00010959f4","E1","batch5","","667","tol_tohand","","","","tol_peg_3","667","667","0","[[2,3,0],[0,0],[0]]","9","[[3,0,0],[2,0],[1]]","17","0","","","","","","5","","","","","","","","",""
"","","","","","single-stim-button","303","767847","0.0-2.0-62.8-1.8","5aef97b09516fe00010959f4","E1","batch5","","924","tol_toboard","","","","tol_peg_2","924","924","0","[[2,3,0],[1,0],[0]]","9","[[3,0,0],[2,0],[1]]","17","0","","","","","","5","","","","","","","","",""
"","","","","","single-stim-button","304","768890","0.0-2.0-62.9-0.9","5aef97b09516fe00010959f4","E1","batch5","","1043","tol_tohand","","","","tol_peg_1","1043","1043","0","[[2,0,0],[1,0],[0]]","10","[[3,0,0],[2,0],[1]]","17","0","","","","","","5","","","","","","","","",""
"","","","","","single-stim-button","305","769467","0.0-2.0-62.9-1.9","5aef97b09516fe00010959f4","E1","batch5","","577","tol_toboard","","","","tol_peg_3","577","577","0","[[2,0,0],[1,0],[3]]","10","[[3,0,0],[2,0],[1]]","17","0","","","","","","5","","","","","","","","",""
"","","","","","single-stim-button","306","771096","0.0-2.0-62.10-0.10","5aef97b09516fe00010959f4","E1","batch5","","1628","tol_tohand","","","","tol_peg_1","1628","1628","0","[[0,0,0],[1,0],[3]]","11","[[3,0,0],[2,0],[1]]","17","0","","","","","","5","","","","","","","","",""
"","","","","","single-stim-button","307","771659","0.0-2.0-62.10-1.10","5aef97b09516fe00010959f4","E1","batch5","","563","tol_toboard","","","","tol_peg_2","563","563","0","[[0,0,0],[1,2],[3]]","11","[[3,0,0],[2,0],[1]]","17","0","","","","","","5","","","","","","","","",""
"","","","","","single-stim-button","308","772494","0.0-2.0-62.11-0.11","5aef97b09516fe00010959f4","E1","batch5","","835","tol_tohand","","","","tol_peg_3","835","835","0","[[0,0,0],[1,2],[0]]","12","[[3,0,0],[2,0],[1]]","17","0","","","","","","5","","","","","","","","",""
"","","","","","single-stim-button","309","773224","0.0-2.0-62.11-1.11","5aef97b09516fe00010959f4","E1","batch5","","730","tol_toboard","","","","tol_peg_1","730","730","0","[[3,0,0],[1,2],[0]]","12","[[3,0,0],[2,0],[1]]","17","0","","","","","","5","","","","","","","","",""
"","","","","","single-stim-button","310","774754","0.0-2.0-62.12-0.12","5aef97b09516fe00010959f4","E1","batch5","","1528","tol_tohand","","","","tol_peg_2","1528","1528","0","[[3,0,0],[1,0],[0]]","13","[[3,0,0],[2,0],[1]]","17","0","","","","","","5","","","","","","","","",""
"","","","","","single-stim-button","311","775499","0.0-2.0-62.12-1.12","5aef97b09516fe00010959f4","E1","batch5","","745","tol_toboard","","","","tol_peg_1","745","745","0","[[3,2,0],[1,0],[0]]","13","[[3,0,0],[2,0],[1]]","17","0","","","","","","5","","","","","","","","",""
"","","","","","single-stim-button","312","776243","0.0-2.0-62.13-0.13","5aef97b09516fe00010959f4","E1","batch5","","743","tol_tohand","","","","tol_peg_2","743","743","0","[[3,2,0],[0,0],[0]]","14","[[3,0,0],[2,0],[1]]","17","0","","","","","","5","","","","","","","","",""
"","","","","","single-stim-button","313","777195","0.0-2.0-62.13-1.13","5aef97b09516fe00010959f4","E1","batch5","","952","tol_toboard","","","","tol_peg_3","952","952","0","[[3,2,0],[0,0],[1]]","14","[[3,0,0],[2,0],[1]]","17","0","","","","","","5","","","","","","","","",""
"","","","","","single-stim-button","314","777725","0.0-2.0-62.14-0.14","5aef97b09516fe00010959f4","E1","batch5","","528","tol_tohand","","","","tol_peg_1","528","528","0","[[3,0,0],[0,0],[1]]","15","[[3,0,0],[2,0],[1]]","17","0","","","","","","5","","","","","","","","",""
"","","","","","single-stim-button","315","778364","0.0-2.0-62.14-1.14","5aef97b09516fe00010959f4","E1","batch5","","639","tol_toboard","","","","tol_peg_2","639","639","0","[[3,0,0],[2,0],[1]]","15","[[3,0,0],[2,0],[1]]","17","0","","","","","","5","","","","","","","","",""
"","","","","","poldrack-single-stim","316","779368","0.0-2.0-63.0","5aef97b09516fe00010959f4","E1","batch5","","-1","tol_feedback","","","true","","1000","1000","500","","","","","","-1","none","true","10526","29411","","","","","","","","","",""
"","","","","","html-button-response","317","784330","0.0-2.0-64.0","5aef97b09516fe00010959f4","E1","batch5","","4961.600000023842","tol_trial_num","<div class = centerbox><p class = center-block-text>problem <strong>19</strong> out of 25 problems</p></div>","0","","","","","","","","","","","","","","","","","","","","","","","","",""
"","","","","","single-stim-button","318","799581","0.0-2.0-65.0-0.0","5aef97b09516fe00010959f4","E1","batch5","","15250","tol_tohand","","","","tol_peg_2","15250","15250","0","[[1,2,0],[0,0],[0]]","1","[[0,0,0],[1,2],[3]]","18","0","","","","","","7","","","","","","","","",""
"","","","","","single-stim-button","319","800627","0.0-2.0-65.0-1.0","5aef97b09516fe00010959f4","E1","batch5","","1046","tol_toboard","","","","tol_peg_3","1046","1046","0","[[1,2,0],[0,0],[3]]","1","[[0,0,0],[1,2],[3]]","18","0","","","","","","7","","","","","","","","",""
"","","","","","single-stim-button","320","801335","0.0-2.0-65.1-0.1","5aef97b09516fe00010959f4","E1","batch5","","707","tol_tohand","","","","tol_peg_3","707","707","0","[[1,2,0],[0,0],[0]]","2","[[0,0,0],[1,2],[3]]","18","0","","","","","","7","","","","","","","","",""
"","","","","","single-stim-button","321","801996","0.0-2.0-65.1-1.1","5aef97b09516fe00010959f4","E1","batch5","","661","tol_toboard","","","","tol_peg_3","661","661","0","[[1,2,0],[0,0],[3]]","2","[[0,0,0],[1,2],[3]]","18","0","","","","","","7","","","","","","","","",""
"","","","","","single-stim-button","322","802934","0.0-2.0-65.2-0.2","5aef97b09516fe00010959f4","E1","batch5","","937","tol_tohand","","","","tol_peg_1","937","937","0","[[1,0,0],[0,0],[3]]","3","[[0,0,0],[1,2],[3]]","18","0","","","","","","7","","","","","","","","",""
"","","","","","single-stim-button","323","803865","0.0-2.0-65.2-1.2","5aef97b09516fe00010959f4","E1","batch5","","931","tol_toboard","","","","tol_peg_2","931","931","0","[[1,0,0],[2,0],[3]]","3","[[0,0,0],[1,2],[3]]","18","0","","","","","","7","","","","","","","","",""
"","","","","","single-stim-button","324","805181","0.0-2.0-65.3-0.3","5aef97b09516fe00010959f4","E1","batch5","","1315","tol_tohand","","","","tol_peg_1","1315","1315","0","[[0,0,0],[2,0],[3]]","4","[[0,0,0],[1,2],[3]]","18","0","","","","","","7","","","","","","","","",""
"","","","","","single-stim-button","325","805981","0.0-2.0-65.3-1.3","5aef97b09516fe00010959f4","E1","batch5","","799","tol_toboard","","","","tol_peg_2","799","799","0","[[0,0,0],[2,1],[3]]","4","[[0,0,0],[1,2],[3]]","18","0","","","","","","7","","","","","","","","",""
"","","","","","single-stim-button","326","806753","0.0-2.0-65.4-0.4","5aef97b09516fe00010959f4","E1","batch5","","772","tol_tohand","","","","tol_peg_3","772","772","0","[[0,0,0],[2,1],[0]]","5","[[0,0,0],[1,2],[3]]","18","0","","","","","","7","","","","","","","","",""
"","","","","","single-stim-button","327","807906","0.0-2.0-65.4-1.4","5aef97b09516fe00010959f4","E1","batch5","","1151","tol_toboard","","","","tol_peg_1","1151","1151","0","[[3,0,0],[2,1],[0]]","5","[[0,0,0],[1,2],[3]]","18","0","","","","","","7","","","","","","","","",""
"","","","","","single-stim-button","328","809445","0.0-2.0-65.5-0.5","5aef97b09516fe00010959f4","E1","batch5","","1539","tol_tohand","","","","tol_peg_2","1539","1539","0","[[3,0,0],[2,0],[0]]","6","[[0,0,0],[1,2],[3]]","18","0","","","","","","7","","","","","","","","",""
"","","","","","single-stim-button","329","810656","0.0-2.0-65.5-1.5","5aef97b09516fe00010959f4","E1","batch5","","1210","tol_toboard","","","","tol_peg_3","1210","1210","0","[[3,0,0],[2,0],[1]]","6","[[0,0,0],[1,2],[3]]","18","0","","","","","","7","","","","","","","","",""
"","","","","","single-stim-button","330","816034","0.0-2.0-65.6-0.6","5aef97b09516fe00010959f4","E1","batch5","","5377","tol_tohand","","","","tol_peg_2","5377","5377","0","[[3,0,0],[0,0],[1]]","7","[[0,0,0],[1,2],[3]]","18","0","","","","","","7","","","","","","","","",""
"","","","","","single-stim-button","331","816972","0.0-2.0-65.6-1.6","5aef97b09516fe00010959f4","E1","batch5","","938","tol_toboard","","","","tol_peg_1","938","938","0","[[3,2,0],[0,0],[1]]","7","[[0,0,0],[1,2],[3]]","18","0","","","","","","7","","","","","","","","",""
"","","","","","single-stim-button","332","817682","0.0-2.0-65.7-0.7","5aef97b09516fe00010959f4","E1","batch5","","708","tol_tohand","","","","tol_peg_3","708","708","0","[[3,2,0],[0,0],[0]]","8","[[0,0,0],[1,2],[3]]","18","0","","","","","","7","","","","","","","","",""
"","","","","","single-stim-button","333","818774","0.0-2.0-65.7-1.7","5aef97b09516fe00010959f4","E1","batch5","","1092","tol_toboard","","","","tol_peg_2","1092","1092","0","[[3,2,0],[1,0],[0]]","8","[[0,0,0],[1,2],[3]]","18","0","","","","","","7","","","","","","","","",""
"","","","","","single-stim-button","334","819602","0.0-2.0-65.8-0.8","5aef97b09516fe00010959f4","E1","batch5","","827","tol_tohand","","","","tol_peg_1","827","827","0","[[3,0,0],[1,0],[0]]","9","[[0,0,0],[1,2],[3]]","18","0","","","","","","7","","","","","","","","",""
"","","","","","single-stim-button","335","820458","0.0-2.0-65.8-1.8","5aef97b09516fe00010959f4","E1","batch5","","855","tol_toboard","","","","tol_peg_2","855","855","0","[[3,0,0],[1,2],[0]]","9","[[0,0,0],[1,2],[3]]","18","0","","","","","","7","","","","","","","","",""
"","","","","","single-stim-button","336","821321","0.0-2.0-65.9-0.9","5aef97b09516fe00010959f4","E1","batch5","","863","tol_tohand","","","","tol_peg_1","863","863","0","[[0,0,0],[1,2],[0]]","10","[[0,0,0],[1,2],[3]]","18","0","","","","","","7","","","","","","","","",""
"","","","","","single-stim-button","337","822560","0.0-2.0-65.9-1.9","5aef97b09516fe00010959f4","E1","batch5","","1238","tol_toboard","","","","tol_peg_3","1238","1238","0","[[0,0,0],[1,2],[3]]","10","[[0,0,0],[1,2],[3]]","18","0","","","","","","7","","","","","","","","",""
"","","","","","poldrack-single-stim","338","823565","0.0-2.0-66.0","5aef97b09516fe00010959f4","E1","batch5","","-1","tol_feedback","","","true","","1000","1000","500","","","","","","-1","none","true","15250","28295","","","","","","","","","",""
"","","","","","html-button-response","339","825280","0.0-2.0-67.0","5aef97b09516fe00010959f4","E1","batch5","","1713.3999999761581","tol_trial_num","<div class = centerbox><p class = center-block-text>problem <strong>20</strong> out of 25 problems</p></div>","0","","","","","","","","","","","","","","","","","","","","","","","","",""
"","","","","","single-stim-button","340","840659","0.0-2.0-68.0-0.0","5aef97b09516fe00010959f4","E1","batch5","","15379","tol_tohand","","","","tol_peg_2","15379","15379","0","[[1,2,0],[0,0],[0]]","1","[[2,1,0],[0,0],[3]]","19","0","","","","","","5","","","","","","","","",""
"","","","","","single-stim-button","341","841828","0.0-2.0-68.0-1.0","5aef97b09516fe00010959f4","E1","batch5","","1168","tol_toboard","","","","tol_peg_3","1168","1168","0","[[1,2,0],[0,0],[3]]","1","[[2,1,0],[0,0],[3]]","19","0","","","","","","5","","","","","","","","",""
"","","","","","single-stim-button","342","842482","0.0-2.0-68.1-0.1","5aef97b09516fe00010959f4","E1","batch5","","654","tol_tohand","","","","tol_peg_1","654","654","0","[[1,0,0],[0,0],[3]]","2","[[2,1,0],[0,0],[3]]","19","0","","","","","","5","","","","","","","","",""
"","","","","","single-stim-button","343","843121","0.0-2.0-68.1-1.1","5aef97b09516fe00010959f4","E1","batch5","","639","tol_toboard","","","","tol_peg_2","639","639","0","[[1,0,0],[2,0],[3]]","2","[[2,1,0],[0,0],[3]]","19","0","","","","","","5","","","","","","","","",""
"","","","","","single-stim-button","344","843698","0.0-2.0-68.2-0.2","5aef97b09516fe00010959f4","E1","batch5","","577","tol_tohand","","","","tol_peg_1","577","577","0","[[0,0,0],[2,0],[3]]","3","[[2,1,0],[0,0],[3]]","19","0","","","","","","5","","","","","","","","",""
"","","","","","single-stim-button","345","844616","0.0-2.0-68.2-1.2","5aef97b09516fe00010959f4","E1","batch5","","917","tol_toboard","","","","tol_peg_2","917","917","0","[[0,0,0],[2,1],[3]]","3","[[2,1,0],[0,0],[3]]","19","0","","","","","","5","","","","","","","","",""
"","","","","","single-stim-button","346","850585","0.0-2.0-68.3-0.3","5aef97b09516fe00010959f4","E1","batch5","","5968","tol_tohand","","","","tol_peg_3","5968","5968","0","[[0,0,0],[2,1],[0]]","4","[[2,1,0],[0,0],[3]]","19","0","","","","","","5","","","","","","","","",""
"","","","","","single-stim-button","347","852825","0.0-2.0-68.3-1.3","5aef97b09516fe00010959f4","E1","batch5","","2240","tol_toboard","","","","tol_peg_1","2240","2240","0","[[3,0,0],[2,1],[0]]","4","[[2,1,0],[0,0],[3]]","19","0","","","","","","5","","","","","","","","",""
"","","","","","single-stim-button","348","853854","0.0-2.0-68.4-0.4","5aef97b09516fe00010959f4","E1","batch5","","1029","tol_tohand","","","","tol_peg_2","1029","1029","0","[[3,0,0],[2,0],[0]]","5","[[2,1,0],[0,0],[3]]","19","0","","","","","","5","","","","","","","","",""
"","","","","","single-stim-button","349","854481","0.0-2.0-68.4-1.4","5aef97b09516fe00010959f4","E1","batch5","","627","tol_toboard","","","","tol_peg_1","627","627","0","[[3,1,0],[2,0],[0]]","5","[[2,1,0],[0,0],[3]]","19","0","","","","","","5","","","","","","","","",""
"","","","","","single-stim-button","350","856686","0.0-2.0-68.5-0.5","5aef97b09516fe00010959f4","E1","batch5","","2204","tol_tohand","","","","tol_peg_2","2204","2204","0","[[3,1,0],[0,0],[0]]","6","[[2,1,0],[0,0],[3]]","19","0","","","","","","5","","","","","","","","",""
"","","","","","single-stim-button","351","857354","0.0-2.0-68.5-1.5","5aef97b09516fe00010959f4","E1","batch5","","667","tol_toboard","","","","tol_peg_3","667","667","0","[[3,1,0],[0,0],[2]]","6","[[2,1,0],[0,0],[3]]","19","0","","","","","","5","","","","","","","","",""
"","","","","","single-stim-button","352","860713","0.0-2.0-68.6-0.6","5aef97b09516fe00010959f4","E1","batch5","","3358","tol_tohand","","","","tol_peg_1","3358","3358","0","[[3,0,0],[0,0],[2]]","7","[[2,1,0],[0,0],[3]]","19","0","","","","","","5","","","","","","","","",""
"","","","","","single-stim-button","353","861256","0.0-2.0-68.6-1.6","5aef97b09516fe00010959f4","E1","batch5","","542","tol_toboard","","","","tol_peg_2","542","542","0","[[3,0,0],[1,0],[2]]","7","[[2,1,0],[0,0],[3]]","19","0","","","","","","5","","","","","","","","",""
