"success","timeout","failed_images","failed_audio","failed_video","trial_type","trial_index","time_elapsed","internal_node_id","subject_id","study_id","session_id","view_history","rt","task","stimulus","response","correct","mouse_click","stim_duration","block_duration","timing_post_trial","current_position","tol_num_moves_made","tol_target","tol_problem_id","tol_rt","key_press","possible_responses","tol_correct","preplanning","tol_rt_per_trial","tol_min_moves","answer","item","fiar_detect_rt","fiar_detect_correct","total_correct_fiar_detect","post_trial_gap","choices","spm_correct","spm_rt"
"true","false","[]","[]","[]","preload","0","2831","0.0-0.0","5af9fab60a7ecb00011820b8","E1","batch5","","","","","","","","","","","","","","","","","","","","","","","","","","","","","",""
"true","","","","","fullscreen","1","9089","0.0-1.0-0.0","5af9fab60a7ecb00011820b8","E1","batch5","","","","","","","","","","","","","","","","","","","","","","","","","","","","","",""
"true","","","","","fullscreen","2","14930","0.0-2.0-0.0","5af9fab60a7ecb00011820b8","E1","batch5","","","","","","","","","","","","","","","","","","","","","","","","","","","","","",""
"","","","","","instructions","3","43918","0.0-2.0-1.0-0.0-0.0","5af9fab60a7ecb00011820b8","E1","batch5","[{""page_index"":0,""viewing_time"":4096.10000038147},{""page_index"":1,""viewing_time"":2741.3999996185303},{""page_index"":2,""viewing_time"":3243},{""page_index"":3,""viewing_time"":5932},{""page_index"":4,""viewing_time"":2256.800000190735},{""page_index"":5,""viewing_time"":8765},{""page_index"":6,""viewing_time"":1952.0999994277954}]","28986.699999809265","tol-instructions","","","","","","","","","","","","","","","","","","","","","","","","","","",""
"","","","","","html-button-response","4","45054","0.0-2.0-1.0-1.0-0.0","5af9fab60a7ecb00011820b8","E1","batch5","","1134.5","tol_enter_quiz","<p class=block-text> Let's answer a few questions <br>","0","","","","","","","","","","","","","","","","","","","","","","","","",""
"","","","","","html-button-response","5","49056","0.0-2.0-1.0-1.0-1.0","5af9fab60a7ecb00011820b8","E1","batch5","","3999.5","tol_quiz","<p class = block-text>True or False: You can only move the ball on top of a peg. <br></p>","0","true","","","","","","","","","","","","","","","","","","","","","","","",""
"","","","","","html-button-response","6","50167","0.0-2.0-1.0-1.0-2.0","5af9fab60a7ecb00011820b8","E1","batch5","","1108.4000005722046","tol_quiz_feedback","<p class = block-text>Correct! You can only move the ball on top of a peg.</p>","0","","","","","","","","","","","","","","","","","","","","","","","","",""
"","","","","","html-button-response","7","52451","0.0-2.0-1.0-1.0-3.0","5af9fab60a7ecb00011820b8","E1","batch5","","2281.199999809265","tol_quiz","<p class = block-text>True or False: You should try to match your board with the target board with fewest moves possible. <br></p>","0","true","","","","","","","","","","","","","","","","","","","","","","","",""
"","","","","","html-button-response","8","53418","0.0-2.0-1.0-1.0-4.0","5af9fab60a7ecb00011820b8","E1","batch5","","964.1999998092651","tol_quiz_feedback","<p class = block-text>Correct! </p>","0","","","","","","","","","","","","","","","","","","","","","","","","",""
"","","","","","html-button-response","9","54752","0.0-2.0-2.0","5af9fab60a7ecb00011820b8","E1","batch5","","1331.7000007629395","","<p class=block-text> Now that you've understood the game, let's practice a few easier examples before we start!<br> <br>","0","","","","","","","","","","","","","","","","","","","","","","","","",""
"","","","","","single-stim-button","10","57192","0.0-2.0-3.0-0.0","5af9fab60a7ecb00011820b8","E1","batch5","","2438","tol_practice","","","","tol_peg_2","2438","2438","0","[[1,2,0],[0,0],[0]]","1","[[1,2,0],[0,0],[3]]","practice","2438","","","","","","","","","","","","","","",""
"","","","","","single-stim-button","11","58349","0.0-2.0-3.0-1.0","5af9fab60a7ecb00011820b8","E1","batch5","","1155","tol_practice","","","","tol_peg_3","1155","1155","0","[[1,2,0],[0,0],[3]]","1","[[1,2,0],[0,0],[3]]","practice","1155","","","","","","","","","","","","","","",""
"","","","","","poldrack-single-stim","12","59356","0.0-2.0-4.0","5af9fab60a7ecb00011820b8","E1","batch5","","-1","tol_feedback","","","true","","1000","1000","500","","","","","","-1","none","true","","0","","","","","","","","","",""
"","","","","","single-stim-button","13","62039","0.0-2.0-5.0-0.0","5af9fab60a7ecb00011820b8","E1","batch5","","2680","tol_practice","","","","tol_peg_1","2680","2680","0","[[1,0,0],[3,0],[0]]","2","[[0,0,0],[3,1],[2]]","practice","2680","","","","","","","","","","","","","","",""
"","","","","","single-stim-button","14","63303","0.0-2.0-5.0-1.0","5af9fab60a7ecb00011820b8","E1","batch5","","1262","tol_practice","","","","tol_peg_3","1262","1262","0","[[1,0,0],[3,0],[2]]","2","[[0,0,0],[3,1],[2]]","practice","1262","","","","","","","","","","","","","","",""
"","","","","","single-stim-button","15","64363","0.0-2.0-5.1-0.1","5af9fab60a7ecb00011820b8","E1","batch5","","1057","tol_practice","","","","tol_peg_1","1057","1057","0","[[0,0,0],[3,0],[2]]","3","[[0,0,0],[3,1],[2]]","practice","1057","","","","","","","","","","","","","","",""
"","","","","","single-stim-button","16","65179","0.0-2.0-5.1-1.1","5af9fab60a7ecb00011820b8","E1","batch5","","813","tol_practice","","","","tol_peg_2","813","813","0","[[0,0,0],[3,1],[2]]","3","[[0,0,0],[3,1],[2]]","practice","813","","","","","","","","","","","","","","",""
"","","","","","poldrack-single-stim","17","66187","0.0-2.0-6.0","5af9fab60a7ecb00011820b8","E1","batch5","","-1","tol_feedback","","","true","","1000","1000","500","","","","","","-1","none","true","","0","","","","","","","","","",""
"","","","","","single-stim-button","18","68451","0.0-2.0-7.0-0.0","5af9fab60a7ecb00011820b8","E1","batch5","","2262","tol_practice","","","","tol_peg_2","2262","2262","0","[[1,2,0],[0,0],[0]]","4","[[1,0,0],[2,0],[3]]","practice","2262","","","","","","","","","","","","","","",""
"","","","","","single-stim-button","19","69666","0.0-2.0-7.0-1.0","5af9fab60a7ecb00011820b8","E1","batch5","","1211","tol_practice","","","","tol_peg_3","1211","1211","0","[[1,2,0],[0,0],[3]]","4","[[1,0,0],[2,0],[3]]","practice","1211","","","","","","","","","","","","","","",""
"","","","","","single-stim-button","20","70860","0.0-2.0-7.1-0.1","5af9fab60a7ecb00011820b8","E1","batch5","","1190","tol_practice","","","","tol_peg_1","1190","1190","0","[[1,0,0],[0,0],[3]]","5","[[1,0,0],[2,0],[3]]","practice","1190","","","","","","","","","","","","","","",""
"","","","","","single-stim-button","21","72182","0.0-2.0-7.1-1.1","5af9fab60a7ecb00011820b8","E1","batch5","","1319","tol_practice","","","","tol_peg_2","1319","1319","0","[[1,0,0],[2,0],[3]]","5","[[1,0,0],[2,0],[3]]","practice","1319","","","","","","","","","","","","","","",""
"","","","","","poldrack-single-stim","22","73196","0.0-2.0-8.0","5af9fab60a7ecb00011820b8","E1","batch5","","-1","tol_feedback","","","true","","1000","1000","500","","","","","","-1","none","true","","0","","","","","","","","","",""
"","","","","","html-button-response","23","74529","0.0-2.0-9.0","5af9fab60a7ecb00011820b8","E1","batch5","","1330.8000001907349","tol_instruction","<div class = centerbox><p class = center-block-text>Great job! You are done with practice trials<br>You are about to start official trials.<br> <br> Problem <strong>1</strong> out of 25 problems</p></div>","0","","","","","","","","","","","","","","","","","","","","","","","","",""
"","","","","","single-stim-button","24","78155","0.0-2.0-10.0-0.0","5af9fab60a7ecb00011820b8","E1","batch5","","2615","tol_tohand","","","","tol_peg_2","2615","2615","0","[[1,2,0],[0,0],[0]]","1","[[1,3,0],[2,0],[0]]","0","0","","","","","","3","","","","","","","","",""
"","","","","","single-stim-button","25","80151","0.0-2.0-10.0-1.0","5af9fab60a7ecb00011820b8","E1","batch5","","1993","tol_toboard","","","","tol_peg_3","1993","1993","0","[[1,2,0],[0,0],[3]]","1","[[1,3,0],[2,0],[0]]","0","0","","","","","","3","","","","","","","","",""
"","","","","","single-stim-button","26","81198","0.0-2.0-10.1-0.1","5af9fab60a7ecb00011820b8","E1","batch5","","1045","tol_tohand","","","","tol_peg_1","1045","1045","0","[[1,0,0],[0,0],[3]]","2","[[1,3,0],[2,0],[0]]","0","0","","","","","","3","","","","","","","","",""
"","","","","","single-stim-button","27","82610","0.0-2.0-10.1-1.1","5af9fab60a7ecb00011820b8","E1","batch5","","1410","tol_toboard","","","","tol_peg_2","1410","1410","0","[[1,0,0],[2,0],[3]]","2","[[1,3,0],[2,0],[0]]","0","0","","","","","","3","","","","","","","","",""
"","","","","","single-stim-button","28","83949","0.0-2.0-10.2-0.2","5af9fab60a7ecb00011820b8","E1","batch5","","1336","tol_tohand","","","","tol_peg_3","1336","1336","0","[[1,0,0],[2,0],[0]]","3","[[1,3,0],[2,0],[0]]","0","0","","","","","","3","","","","","","","","",""
"","","","","","single-stim-button","29","85167","0.0-2.0-10.2-1.2","5af9fab60a7ecb00011820b8","E1","batch5","","1215","tol_toboard","","","","tol_peg_1","1215","1215","0","[[1,3,0],[2,0],[0]]","3","[[1,3,0],[2,0],[0]]","0","0","","","","","","3","","","","","","","","",""
"","","","","","poldrack-single-stim","30","86176","0.0-2.0-11.0","5af9fab60a7ecb00011820b8","E1","batch5","","-1","tol_feedback","","","true","","1000","1000","500","","","","","","-1","none","true","2615","4996","","","","","","","","","",""
"","","","","","html-button-response","31","87519","0.0-2.0-12.0","5af9fab60a7ecb00011820b8","E1","batch5","","1340.6000003814697","tol_trial_num","<div class = centerbox><p class = center-block-text>problem <strong>2</strong> out of 25 problems</p></div>","0","","","","","","","","","","","","","","","","","","","","","","","","",""
"","","","","","single-stim-button","32","90791","0.0-2.0-13.0-0.0","5af9fab60a7ecb00011820b8","E1","batch5","","3269","tol_tohand","","","","tol_peg_1","3269","3269","0","[[1,0,0],[3,0],[0]]","1","[[2,1,3],[0,0],[0]]","1","0","","","","","","5","","","","","","","","",""
"","","","","","single-stim-button","33","93187","0.0-2.0-13.0-1.0","5af9fab60a7ecb00011820b8","E1","batch5","","2394","tol_toboard","","","","tol_peg_3","2394","2394","0","[[1,0,0],[3,0],[2]]","1","[[2,1,3],[0,0],[0]]","1","0","","","","","","5","","","","","","","","",""
"","","","","","single-stim-button","34","94532","0.0-2.0-13.1-0.1","5af9fab60a7ecb00011820b8","E1","batch5","","1343","tol_tohand","","","","tol_peg_1","1343","1343","0","[[0,0,0],[3,0],[2]]","2","[[2,1,3],[0,0],[0]]","1","0","","","","","","5","","","","","","","","",""
"","","","","","single-stim-button","35","95771","0.0-2.0-13.1-1.1","5af9fab60a7ecb00011820b8","E1","batch5","","1237","tol_toboard","","","","tol_peg_2","1237","1237","0","[[0,0,0],[3,1],[2]]","2","[[2,1,3],[0,0],[0]]","1","0","","","","","","5","","","","","","","","",""
"","","","","","single-stim-button","36","96813","0.0-2.0-13.2-0.2","5af9fab60a7ecb00011820b8","E1","batch5","","1041","tol_tohand","","","","tol_peg_3","1041","1041","0","[[0,0,0],[3,1],[0]]","3","[[2,1,3],[0,0],[0]]","1","0","","","","","","5","","","","","","","","",""
"","","","","","single-stim-button","37","98003","0.0-2.0-13.2-1.2","5af9fab60a7ecb00011820b8","E1","batch5","","1188","tol_toboard","","","","tol_peg_1","1188","1188","0","[[2,0,0],[3,1],[0]]","3","[[2,1,3],[0,0],[0]]","1","0","","","","","","5","","","","","","","","",""
"","","","","","single-stim-button","38","99025","0.0-2.0-13.3-0.3","5af9fab60a7ecb00011820b8","E1","batch5","","1020","tol_tohand","","","","tol_peg_2","1020","1020","0","[[2,0,0],[3,0],[0]]","4","[[2,1,3],[0,0],[0]]","1","0","","","","","","5","","","","","","","","",""
"","","","","","single-stim-button","39","100147","0.0-2.0-13.3-1.3","5af9fab60a7ecb00011820b8","E1","batch5","","1119","tol_toboard","","","","tol_peg_1","1119","1119","0","[[2,1,0],[3,0],[0]]","4","[[2,1,3],[0,0],[0]]","1","0","","","","","","5","","","","","","","","",""
"","","","","","single-stim-button","40","101122","0.0-2.0-13.4-0.4","5af9fab60a7ecb00011820b8","E1","batch5","","972","tol_tohand","","","","tol_peg_2","972","972","0","[[2,1,0],[0,0],[0]]","5","[[2,1,3],[0,0],[0]]","1","0","","","","","","5","","","","","","","","",""
"","","","","","single-stim-button","41","102098","0.0-2.0-13.4-1.4","5af9fab60a7ecb00011820b8","E1","batch5","","973","tol_toboard","","","","tol_peg_1","973","973","0","[[2,1,3],[0,0],[0]]","5","[[2,1,3],[0,0],[0]]","1","0","","","","","","5","","","","","","","","",""
"","","","","","poldrack-single-stim","42","103102","0.0-2.0-14.0","5af9fab60a7ecb00011820b8","E1","batch5","","-1","tol_feedback","","","true","","1000","1000","500","","","","","","-1","none","true","3269","7645","","","","","","","","","",""
"","","","","","html-button-response","43","104627","0.0-2.0-15.0","5af9fab60a7ecb00011820b8","E1","batch5","","1523.6999998092651","tol_trial_num","<div class = centerbox><p class = center-block-text>problem <strong>3</strong> out of 25 problems</p></div>","0","","","","","","","","","","","","","","","","","","","","","","","","",""
"","","","","","single-stim-button","44","107394","0.0-2.0-16.0-0.0","5af9fab60a7ecb00011820b8","E1","batch5","","2764","tol_tohand","","","","tol_peg_1","2764","2764","0","[[2,0,0],[0,0],[1]]","1","[[1,2,0],[3,0],[0]]","2","0","","","","","","4","","","","","","","","",""
"","","","","","single-stim-button","45","108826","0.0-2.0-16.0-1.0","5af9fab60a7ecb00011820b8","E1","batch5","","1429","tol_toboard","","","","tol_peg_2","1429","1429","0","[[2,0,0],[3,0],[1]]","1","[[1,2,0],[3,0],[0]]","2","0","","","","","","4","","","","","","","","",""
"","","","","","single-stim-button","46","110620","0.0-2.0-16.1-0.1","5af9fab60a7ecb00011820b8","E1","batch5","","1792","tol_tohand","","","","tol_peg_1","1792","1792","0","[[0,0,0],[3,0],[1]]","2","[[1,2,0],[3,0],[0]]","2","0","","","","","","4","","","","","","","","",""
"","","","","","single-stim-button","47","111804","0.0-2.0-16.1-1.1","5af9fab60a7ecb00011820b8","E1","batch5","","1182","tol_toboard","","","","tol_peg_2","1182","1182","0","[[0,0,0],[3,2],[1]]","2","[[1,2,0],[3,0],[0]]","2","0","","","","","","4","","","","","","","","",""
"","","","","","single-stim-button","48","112859","0.0-2.0-16.2-0.2","5af9fab60a7ecb00011820b8","E1","batch5","","1052","tol_tohand","","","","tol_peg_3","1052","1052","0","[[0,0,0],[3,2],[0]]","3","[[1,2,0],[3,0],[0]]","2","0","","","","","","4","","","","","","","","",""
"","","","","","single-stim-button","49","114105","0.0-2.0-16.2-1.2","5af9fab60a7ecb00011820b8","E1","batch5","","1243","tol_toboard","","","","tol_peg_1","1243","1243","0","[[1,0,0],[3,2],[0]]","3","[[1,2,0],[3,0],[0]]","2","0","","","","","","4","","","","","","","","",""
"","","","","","single-stim-button","50","115498","0.0-2.0-16.3-0.3","5af9fab60a7ecb00011820b8","E1","batch5","","1390","tol_tohand","","","","tol_peg_2","1390","1390","0","[[1,0,0],[3,0],[0]]","4","[[1,2,0],[3,0],[0]]","2","0","","","","","","4","","","","","","","","",""
"","","","","","single-stim-button","51","116471","0.0-2.0-16.3-1.3","5af9fab60a7ecb00011820b8","E1","batch5","","970","tol_toboard","","","","tol_peg_1","970","970","0","[[1,2,0],[3,0],[0]]","4","[[1,2,0],[3,0],[0]]","2","0","","","","","","4","","","","","","","","",""
"","","","","","poldrack-single-stim","52","117484","0.0-2.0-17.0","5af9fab60a7ecb00011820b8","E1","batch5","","-1","tol_feedback","","","true","","1000","1000","500","","","","","","-1","none","true","2764","6998","","","","","","","","","",""
"","","","","","html-button-response","53","119013","0.0-2.0-18.0","5af9fab60a7ecb00011820b8","E1","batch5","","1526.8999996185303","tol_trial_num","<div class = centerbox><p class = center-block-text>problem <strong>4</strong> out of 25 problems</p></div>","0","","","","","","","","","","","","","","","","","","","","","","","","",""
"","","","","","single-stim-button","54","122735","0.0-2.0-19.0-0.0","5af9fab60a7ecb00011820b8","E1","batch5","","3719","tol_tohand","","","","tol_peg_2","3719","3719","0","[[3,0,0],[2,0],[0]]","1","[[3,0,0],[1,0],[2]]","3","0","","","","","","3","","","","","","","","",""
"","","","","","single-stim-button","55","123882","0.0-2.0-19.0-1.0","5af9fab60a7ecb00011820b8","E1","batch5","","1144","tol_toboard","","","","tol_peg_1","1144","1144","0","[[3,1,0],[2,0],[0]]","1","[[3,0,0],[1,0],[2]]","3","0","","","","","","3","","","","","","","","",""
"","","","","","single-stim-button","56","124881","0.0-2.0-19.1-0.1","5af9fab60a7ecb00011820b8","E1","batch5","","996","tol_tohand","","","","tol_peg_2","996","996","0","[[3,1,0],[0,0],[0]]","2","[[3,0,0],[1,0],[2]]","3","0","","","","","","3","","","","","","","","",""
"","","","","","single-stim-button","57","125950","0.0-2.0-19.1-1.1","5af9fab60a7ecb00011820b8","E1","batch5","","1066","tol_toboard","","","","tol_peg_3","1066","1066","0","[[3,1,0],[0,0],[2]]","2","[[3,0,0],[1,0],[2]]","3","0","","","","","","3","","","","","","","","",""
"","","","","","single-stim-button","58","127134","0.0-2.0-19.2-0.2","5af9fab60a7ecb00011820b8","E1","batch5","","1180","tol_tohand","","","","tol_peg_1","1180","1180","0","[[3,0,0],[0,0],[2]]","3","[[3,0,0],[1,0],[2]]","3","0","","","","","","3","","","","","","","","",""
"","","","","","single-stim-button","59","128197","0.0-2.0-19.2-1.2","5af9fab60a7ecb00011820b8","E1","batch5","","1060","tol_toboard","","","","tol_peg_2","1060","1060","0","[[3,0,0],[1,0],[2]]","3","[[3,0,0],[1,0],[2]]","3","0","","","","","","3","","","","","","","","",""
"","","","","","poldrack-single-stim","60","129200","0.0-2.0-20.0","5af9fab60a7ecb00011820b8","E1","batch5","","-1","tol_feedback","","","true","","1000","1000","500","","","","","","-1","none","true","3719","5895","","","","","","","","","",""
"","","","","","html-button-response","61","130374","0.0-2.0-21.0","5af9fab60a7ecb00011820b8","E1","batch5","","1171.6999998092651","tol_trial_num","<div class = centerbox><p class = center-block-text>problem <strong>5</strong> out of 25 problems</p></div>","0","","","","","","","","","","","","","","","","","","","","","","","","",""
"","","","","","single-stim-button","62","143253","0.0-2.0-22.0-0.0","5af9fab60a7ecb00011820b8","E1","batch5","","12876","tol_tohand","","","","tol_peg_3","12876","12876","0","[[1,0,0],[2,0],[0]]","1","[[0,0,0],[1,2],[3]]","4","0","","","","","","7","","","","","","","","",""
"","","","","","single-stim-button","63","144154","0.0-2.0-22.0-1.0","5af9fab60a7ecb00011820b8","E1","batch5","","898","tol_toboard","","","","tol_peg_2","898","898","0","[[1,0,0],[2,3],[0]]","1","[[0,0,0],[1,2],[3]]","4","0","","","","","","7","","","","","","","","",""
"","","","","","single-stim-button","64","145069","0.0-2.0-22.1-0.1","5af9fab60a7ecb00011820b8","E1","batch5","","913","tol_tohand","","","","tol_peg_1","913","913","0","[[0,0,0],[2,3],[0]]","2","[[0,0,0],[1,2],[3]]","4","0","","","","","","7","","","","","","","","",""
"","","","","","single-stim-button","65","146489","0.0-2.0-22.1-1.1","5af9fab60a7ecb00011820b8","E1","batch5","","1418","tol_toboard","","","","tol_peg_3","1418","1418","0","[[0,0,0],[2,3],[1]]","2","[[0,0,0],[1,2],[3]]","4","0","","","","","","7","","","","","","","","",""
"","","","","","single-stim-button","66","153381","0.0-2.0-22.2-0.2","5af9fab60a7ecb00011820b8","E1","batch5","","6890","tol_tohand","","","","tol_peg_2","6890","6890","0","[[0,0,0],[2,0],[1]]","3","[[0,0,0],[1,2],[3]]","4","0","","","","","","7","","","","","","","","",""
"","","","","","single-stim-button","67","154229","0.0-2.0-22.2-1.2","5af9fab60a7ecb00011820b8","E1","batch5","","845","tol_toboard","","","","tol_peg_2","845","845","0","[[0,0,0],[2,3],[1]]","3","[[0,0,0],[1,2],[3]]","4","0","","","","","","7","","","","","","","","",""
"","","","","","single-stim-button","68","166551","0.0-2.0-22.3-0.3","5af9fab60a7ecb00011820b8","E1","batch5","","12319","tol_tohand","","","","tol_peg_2","12319","12319","0","[[0,0,0],[2,0],[1]]","4","[[0,0,0],[1,2],[3]]","4","0","","","","","","7","","","","","","","","",""
"","","","","","single-stim-button","69","167756","0.0-2.0-22.3-1.3","5af9fab60a7ecb00011820b8","E1","batch5","","1200","tol_toboard","","","","tol_peg_1","1200","1200","0","[[3,0,0],[2,0],[1]]","4","[[0,0,0],[1,2],[3]]","4","0","","","","","","7","","","","","","","","",""
"","","","","","single-stim-button","70","170838","0.0-2.0-22.4-0.4","5af9fab60a7ecb00011820b8","E1","batch5","","3078","tol_tohand","","","","tol_peg_2","3078","3078","0","[[3,0,0],[0,0],[1]]","5","[[0,0,0],[1,2],[3]]","4","0","","","","","","7","","","","","","","","",""
"","","","","","single-stim-button","71","172693","0.0-2.0-22.4-1.4","5af9fab60a7ecb00011820b8","E1","batch5","","1852","tol_toboard","","","","tol_peg_1","1852","1852","0","[[3,2,0],[0,0],[1]]","5","[[0,0,0],[1,2],[3]]","4","0","","","","","","7","","","","","","","","",""
"","","","","","single-stim-button","72","173778","0.0-2.0-22.5-0.5","5af9fab60a7ecb00011820b8","E1","batch5","","1082","tol_tohand","","","","tol_peg_3","1082","1082","0","[[3,2,0],[0,0],[0]]","6","[[0,0,0],[1,2],[3]]","4","0","","","","","","7","","","","","","","","",""
"","","","","","single-stim-button","73","175216","0.0-2.0-22.5-1.5","5af9fab60a7ecb00011820b8","E1","batch5","","1436","tol_toboard","","","","tol_peg_2","1436","1436","0","[[3,2,0],[1,0],[0]]","6","[[0,0,0],[1,2],[3]]","4","0","","","","","","7","","","","","","","","",""
"","","","","","single-stim-button","74","176109","0.0-2.0-22.6-0.6","5af9fab60a7ecb00011820b8","E1","batch5","","890","tol_tohand","","","","tol_peg_1","890","890","0","[[3,0,0],[1,0],[0]]","7","[[0,0,0],[1,2],[3]]","4","0","","","","","","7","","","","","","","","",""
"","","","","","single-stim-button","75","177015","0.0-2.0-22.6-1.6","5af9fab60a7ecb00011820b8","E1","batch5","","903","tol_toboard","","","","tol_peg_2","903","903","0","[[3,0,0],[1,2],[0]]","7","[[0,0,0],[1,2],[3]]","4","0","","","","","","7","","","","","","","","",""
"","","","","","single-stim-button","76","177902","0.0-2.0-22.7-0.7","5af9fab60a7ecb00011820b8","E1","batch5","","885","tol_tohand","","","","tol_peg_1","885","885","0","[[0,0,0],[1,2],[0]]","8","[[0,0,0],[1,2],[3]]","4","0","","","","","","7","","","","","","","","",""
"","","","","","single-stim-button","77","178948","0.0-2.0-22.7-1.7","5af9fab60a7ecb00011820b8","E1","batch5","","1043","tol_toboard","","","","tol_peg_3","1043","1043","0","[[0,0,0],[1,2],[3]]","8","[[0,0,0],[1,2],[3]]","4","0","","","","","","7","","","","","","","","",""
"","","","","","poldrack-single-stim","78","179952","0.0-2.0-23.0","5af9fab60a7ecb00011820b8","E1","batch5","","-1","tol_feedback","","","true","","1000","1000","500","","","","","","-1","none","true","12876","38933","","","","","","","","","",""
"","","","","","html-button-response","79","181024","0.0-2.0-24.0","5af9fab60a7ecb00011820b8","E1","batch5","","1071.1999998092651","tol_trial_num","<div class = centerbox><p class = center-block-text>problem <strong>6</strong> out of 25 problems</p></div>","0","","","","","","","","","","","","","","","","","","","","","","","","",""
"","","","","","single-stim-button","80","207261","0.0-2.0-25.0-0.0","5af9fab60a7ecb00011820b8","E1","batch5","","26234","tol_tohand","","","","tol_peg_2","26234","26234","0","[[0,0,0],[1,0],[3]]","1","[[1,0,0],[2,3],[0]]","5","0","","","","","","6","","","","","","","","",""
"","","","","","single-stim-button","81","208510","0.0-2.0-25.0-1.0","5af9fab60a7ecb00011820b8","E1","batch5","","1247","tol_toboard","","","","tol_peg_1","1247","1247","0","[[2,0,0],[1,0],[3]]","1","[[1,0,0],[2,3],[0]]","5","0","","","","","","6","","","","","","","","",""
"","","","","","single-stim-button","82","212499","0.0-2.0-25.1-0.1","5af9fab60a7ecb00011820b8","E1","batch5","","3986","tol_tohand","","","","tol_peg_2","3986","3986","0","[[2,0,0],[0,0],[3]]","2","[[1,0,0],[2,3],[0]]","5","0","","","","","","6","","","","","","","","",""
"","","","","","single-stim-button","83","219148","0.0-2.0-25.1-1.1","5af9fab60a7ecb00011820b8","E1","batch5","","6646","tol_toboard","","","","tol_peg_2","6646","6646","0","[[2,0,0],[1,0],[3]]","2","[[1,0,0],[2,3],[0]]","5","0","","","","","","6","","","","","","","","",""
"","","","","","single-stim-button","84","220119","0.0-2.0-25.2-0.2","5af9fab60a7ecb00011820b8","E1","batch5","","969","tol_tohand","","","","tol_peg_3","969","969","0","[[2,0,0],[1,0],[0]]","3","[[1,0,0],[2,3],[0]]","5","0","","","","","","6","","","","","","","","",""
"","","","","","single-stim-button","85","221291","0.0-2.0-25.2-1.2","5af9fab60a7ecb00011820b8","E1","batch5","","1168","tol_toboard","","","","tol_peg_1","1168","1168","0","[[2,3,0],[1,0],[0]]","3","[[1,0,0],[2,3],[0]]","5","0","","","","","","6","","","","","","","","",""
"","","","","","single-stim-button","86","222292","0.0-2.0-25.3-0.3","5af9fab60a7ecb00011820b8","E1","batch5","","999","tol_tohand","","","","tol_peg_2","999","999","0","[[2,3,0],[0,0],[0]]","4","[[1,0,0],[2,3],[0]]","5","0","","","","","","6","","","","","","","","",""
"","","","","","single-stim-button","87","224028","0.0-2.0-25.3-1.3","5af9fab60a7ecb00011820b8","E1","batch5","","1733","tol_toboard","","","","tol_peg_3","1733","1733","0","[[2,3,0],[0,0],[1]]","4","[[1,0,0],[2,3],[0]]","5","0","","","","","","6","","","","","","","","",""
"","","","","","single-stim-button","88","225107","0.0-2.0-25.4-0.4","5af9fab60a7ecb00011820b8","E1","batch5","","1078","tol_tohand","","","","tol_peg_1","1078","1078","0","[[2,0,0],[0,0],[1]]","5","[[1,0,0],[2,3],[0]]","5","0","","","","","","6","","","","","","","","",""
"","","","","","single-stim-button","89","226524","0.0-2.0-25.4-1.4","5af9fab60a7ecb00011820b8","E1","batch5","","1415","tol_toboard","","","","tol_peg_2","1415","1415","0","[[2,0,0],[3,0],[1]]","5","[[1,0,0],[2,3],[0]]","5","0","","","","","","6","","","","","","","","",""
"","","","","","single-stim-button","90","227422","0.0-2.0-25.5-0.5","5af9fab60a7ecb00011820b8","E1","batch5","","896","tol_tohand","","","","tol_peg_1","896","896","0","[[0,0,0],[3,0],[1]]","6","[[1,0,0],[2,3],[0]]","5","0","","","","","","6","","","","","","","","",""
"","","","","","single-stim-button","91","228348","0.0-2.0-25.5-1.5","5af9fab60a7ecb00011820b8","E1","batch5","","923","tol_toboard","","","","tol_peg_2","923","923","0","[[0,0,0],[3,2],[1]]","6","[[1,0,0],[2,3],[0]]","5","0","","","","","","6","","","","","","","","",""
"","","","","","single-stim-button","92","229254","0.0-2.0-25.6-0.6","5af9fab60a7ecb00011820b8","E1","batch5","","903","tol_tohand","","","","tol_peg_3","903","903","0","[[0,0,0],[3,2],[0]]","7","[[1,0,0],[2,3],[0]]","5","0","","","","","","6","","","","","","","","",""
"","","","","","single-stim-button","93","230347","0.0-2.0-25.6-1.6","5af9fab60a7ecb00011820b8","E1","batch5","","1089","tol_toboard","","","","tol_peg_1","1089","1089","0","[[1,0,0],[3,2],[0]]","7","[[1,0,0],[2,3],[0]]","5","0","","","","","","6","","","","","","","","",""
"","","","","","single-stim-button","94","231288","0.0-2.0-25.7-0.7","5af9fab60a7ecb00011820b8","E1","batch5","","938","tol_tohand","","","","tol_peg_2","938","938","0","[[1,0,0],[3,0],[0]]","8","[[1,0,0],[2,3],[0]]","5","0","","","","","","6","","","","","","","","",""
"","","","","","single-stim-button","95","232283","0.0-2.0-25.7-1.7","5af9fab60a7ecb00011820b8","E1","batch5","","994","tol_toboard","","","","tol_peg_3","994","994","0","[[1,0,0],[3,0],[2]]","8","[[1,0,0],[2,3],[0]]","5","0","","","","","","6","","","","","","","","",""
"","","","","","single-stim-button","96","233529","0.0-2.0-25.8-0.8","5af9fab60a7ecb00011820b8","E1","batch5","","1243","tol_tohand","","","","tol_peg_2","1243","1243","0","[[1,0,0],[0,0],[2]]","9","[[1,0,0],[2,3],[0]]","5","0","","","","","","6","","","","","","","","",""
"","","","","","single-stim-button","97","234444","0.0-2.0-25.8-1.8","5af9fab60a7ecb00011820b8","E1","batch5","","912","tol_toboard","","","","tol_peg_1","912","912","0","[[1,3,0],[0,0],[2]]","9","[[1,0,0],[2,3],[0]]","5","0","","","","","","6","","","","","","","","",""
"","","","","","single-stim-button","98","235800","0.0-2.0-25.9-0.9","5af9fab60a7ecb00011820b8","E1","batch5","","1353","tol_tohand","","","","tol_peg_3","1353","1353","0","[[1,3,0],[0,0],[0]]","10","[[1,0,0],[2,3],[0]]","5","0","","","","","","6","","","","","","","","",""
"","","","","","single-stim-button","99","236789","0.0-2.0-25.9-1.9","5af9fab60a7ecb00011820b8","E1","batch5","","987","tol_toboard","","","","tol_peg_2","987","987","0","[[1,3,0],[2,0],[0]]","10","[[1,0,0],[2,3],[0]]","5","0","","","","","","6","","","","","","","","",""
"","","","","","single-stim-button","100","237597","0.0-2.0-25.10-0.10","5af9fab60a7ecb00011820b8","E1","batch5","","805","tol_tohand","","","","tol_peg_1","805","805","0","[[1,0,0],[2,0],[0]]","11","[[1,0,0],[2,3],[0]]","5","0","","","","","","6","","","","","","","","",""
"","","","","","single-stim-button","101","238463","0.0-2.0-25.10-1.10","5af9fab60a7ecb00011820b8","E1","batch5","","863","tol_toboard","","","","tol_peg_2","863","863","0","[[1,0,0],[2,3],[0]]","11","[[1,0,0],[2,3],[0]]","5","0","","","","","","6","","","","","","","","",""
"","","","","","poldrack-single-stim","102","239467","0.0-2.0-26.0","5af9fab60a7ecb00011820b8","E1","batch5","","-1","tol_feedback","","","true","","1000","1000","500","","","","","","-1","none","true","26234","39404","","","","","","","","","",""
"","","","","","html-button-response","103","240623","0.0-2.0-27.0","5af9fab60a7ecb00011820b8","E1","batch5","","1154.1999998092651","tol_trial_num","<div class = centerbox><p class = center-block-text>problem <strong>7</strong> out of 25 problems</p></div>","0","","","","","","","","","","","","","","","","","","","","","","","","",""
"","","","","","single-stim-button","104","245038","0.0-2.0-28.0-0.0","5af9fab60a7ecb00011820b8","E1","batch5","","4411","tol_tohand","","","","tol_peg_1","4411","4411","0","[[2,0,0],[0,0],[3]]","1","[[1,2,0],[3,0],[0]]","6","0","","","","","","5","","","","","","","","",""
"","","","","","single-stim-button","105","246147","0.0-2.0-28.0-1.0","5af9fab60a7ecb00011820b8","E1","batch5","","1107","tol_toboard","","","","tol_peg_2","1107","1107","0","[[2,0,0],[1,0],[3]]","1","[[1,2,0],[3,0],[0]]","6","0","","","","","","5","","","","","","","","",""
"","","","","","single-stim-button","106","254494","0.0-2.0-28.1-0.1","5af9fab60a7ecb00011820b8","E1","batch5","","8344","tol_tohand","","","","tol_peg_2","8344","8344","0","[[2,0,0],[0,0],[3]]","2","[[1,2,0],[3,0],[0]]","6","0","","","","","","5","","","","","","","","",""
"","","","","","single-stim-button","107","255364","0.0-2.0-28.1-1.1","5af9fab60a7ecb00011820b8","E1","batch5","","867","tol_toboard","","","","tol_peg_1","867","867","0","[[2,1,0],[0,0],[3]]","2","[[1,2,0],[3,0],[0]]","6","0","","","","","","5","","","","","","","","",""
"","","","","","single-stim-button","108","256197","0.0-2.0-28.2-0.2","5af9fab60a7ecb00011820b8","E1","batch5","","830","tol_tohand","","","","tol_peg_3","830","830","0","[[2,1,0],[0,0],[0]]","3","[[1,2,0],[3,0],[0]]","6","0","","","","","","5","","","","","","","","",""
"","","","","","single-stim-button","109","257088","0.0-2.0-28.2-1.2","5af9fab60a7ecb00011820b8","E1","batch5","","889","tol_toboard","","","","tol_peg_2","889","889","0","[[2,1,0],[3,0],[0]]","3","[[1,2,0],[3,0],[0]]","6","0","","","","","","5","","","","","","","","",""
"","","","","","single-stim-button","110","257928","0.0-2.0-28.3-0.3","5af9fab60a7ecb00011820b8","E1","batch5","","837","tol_tohand","","","","tol_peg_1","837","837","0","[[2,0,0],[3,0],[0]]","4","[[1,2,0],[3,0],[0]]","6","0","","","","","","5","","","","","","","","",""
"","","","","","single-stim-button","111","259200","0.0-2.0-28.3-1.3","5af9fab60a7ecb00011820b8","E1","batch5","","1270","tol_toboard","","","","tol_peg_3","1270","1270","0","[[2,0,0],[3,0],[1]]","4","[[1,2,0],[3,0],[0]]","6","0","","","","","","5","","","","","","","","",""
"","","","","","single-stim-button","112","260761","0.0-2.0-28.4-0.4","5af9fab60a7ecb00011820b8","E1","batch5","","1558","tol_tohand","","","","tol_peg_1","1558","1558","0","[[0,0,0],[3,0],[1]]","5","[[1,2,0],[3,0],[0]]","6","0","","","","","","5","","","","","","","","",""
"","","","","","single-stim-button","113","261656","0.0-2.0-28.4-1.4","5af9fab60a7ecb00011820b8","E1","batch5","","892","tol_toboard","","","","tol_peg_2","892","892","0","[[0,0,0],[3,2],[1]]","5","[[1,2,0],[3,0],[0]]","6","0","","","","","","5","","","","","","","","",""
"","","","","","single-stim-button","114","262502","0.0-2.0-28.5-0.5","5af9fab60a7ecb00011820b8","E1","batch5","","843","tol_tohand","","","","tol_peg_3","843","843","0","[[0,0,0],[3,2],[0]]","6","[[1,2,0],[3,0],[0]]","6","0","","","","","","5","","","","","","","","",""
"","","","","","single-stim-button","115","263497","0.0-2.0-28.5-1.5","5af9fab60a7ecb00011820b8","E1","batch5","","994","tol_toboard","","","","tol_peg_1","994","994","0","[[1,0,0],[3,2],[0]]","6","[[1,2,0],[3,0],[0]]","6","0","","","","","","5","","","","","","","","",""
"","","","","","single-stim-button","116","264383","0.0-2.0-28.6-0.6","5af9fab60a7ecb00011820b8","E1","batch5","","884","tol_tohand","","","","tol_peg_2","884","884","0","[[1,0,0],[3,0],[0]]","7","[[1,2,0],[3,0],[0]]","6","0","","","","","","5","","","","","","","","",""
"","","","","","single-stim-button","117","265168","0.0-2.0-28.6-1.6","5af9fab60a7ecb00011820b8","E1","batch5","","782","tol_toboard","","","","tol_peg_1","782","782","0","[[1,2,0],[3,0],[0]]","7","[[1,2,0],[3,0],[0]]","6","0","","","","","","5","","","","","","","","",""
"","","","","","poldrack-single-stim","118","266182","0.0-2.0-29.0","5af9fab60a7ecb00011820b8","E1","batch5","","-1","tol_feedback","","","true","","1000","1000","500","","","","","","-1","none","true","4411","17707","","","","","","","","","",""
"","","","","","html-button-response","119","268003","0.0-2.0-30.0","5af9fab60a7ecb00011820b8","E1","batch5","","1819.1999998092651","tol_trial_num","<div class = centerbox><p class = center-block-text>problem <strong>8</strong> out of 25 problems</p></div>","0","","","","","","","","","","","","","","","","","","","","","","","","",""
"","","","","","single-stim-button","120","271646","0.0-2.0-31.0-0.0","5af9fab60a7ecb00011820b8","E1","batch5","","3639","tol_tohand","","","","tol_peg_3","3639","3639","0","[[0,0,0],[2,3],[0]]","1","[[1,2,0],[3,0],[0]]","7","0","","","","","","4","","","","","","","","",""
"","","","","","single-stim-button","121","272887","0.0-2.0-31.0-1.0","5af9fab60a7ecb00011820b8","E1","batch5","","1238","tol_toboard","","","","tol_peg_1","1238","1238","0","[[1,0,0],[2,3],[0]]","1","[[1,2,0],[3,0],[0]]","7","0","","","","","","4","","","","","","","","",""
"","","","","","single-stim-button","122","274029","0.0-2.0-31.1-0.1","5af9fab60a7ecb00011820b8","E1","batch5","","1138","tol_tohand","","","","tol_peg_2","1138","1138","0","[[1,0,0],[2,0],[0]]","2","[[1,2,0],[3,0],[0]]","7","0","","","","","","4","","","","","","","","",""
"","","","","","single-stim-button","123","275614","0.0-2.0-31.1-1.1","5af9fab60a7ecb00011820b8","E1","batch5","","1583","tol_toboard","","","","tol_peg_3","1583","1583","0","[[1,0,0],[2,0],[3]]","2","[[1,2,0],[3,0],[0]]","7","0","","","","","","4","","","","","","","","",""
"","","","","","single-stim-button","124","275999","0.0-2.0-31.2-0.2","5af9fab60a7ecb00011820b8","E1","batch5","","382","tol_tohand","","","","tol_peg_3","382","382","0","[[1,0,0],[2,0],[0]]","3","[[1,2,0],[3,0],[0]]","7","0","","","","","","4","","","","","","","","",""
"","","","","","single-stim-button","125","277931","0.0-2.0-31.2-1.2","5af9fab60a7ecb00011820b8","E1","batch5","","1929","tol_toboard","","","","tol_peg_3","1929","1929","0","[[1,0,0],[2,0],[3]]","3","[[1,2,0],[3,0],[0]]","7","0","","","","","","4","","","","","","","","",""
"","","","","","single-stim-button","126","278773","0.0-2.0-31.3-0.3","5af9fab60a7ecb00011820b8","E1","batch5","","840","tol_tohand","","","","tol_peg_2","840","840","0","[[1,0,0],[0,0],[3]]","4","[[1,2,0],[3,0],[0]]","7","0","","","","","","4","","","","","","","","",""
"","","","","","single-stim-button","127","279592","0.0-2.0-31.3-1.3","5af9fab60a7ecb00011820b8","E1","batch5","","816","tol_toboard","","","","tol_peg_1","816","816","0","[[1,2,0],[0,0],[3]]","4","[[1,2,0],[3,0],[0]]","7","0","","","","","","4","","","","","","","","",""
"","","","","","single-stim-button","128","280576","0.0-2.0-31.4-0.4","5af9fab60a7ecb00011820b8","E1","batch5","","981","tol_tohand","","","","tol_peg_3","981","981","0","[[1,2,0],[0,0],[0]]","5","[[1,2,0],[3,0],[0]]","7","0","","","","","","4","","","","","","","","",""
"","","","","","single-stim-button","129","281543","0.0-2.0-31.4-1.4","5af9fab60a7ecb00011820b8","E1","batch5","","964","tol_toboard","","","","tol_peg_2","964","964","0","[[1,2,0],[3,0],[0]]","5","[[1,2,0],[3,0],[0]]","7","0","","","","","","4","","","","","","","","",""
"","","","","","poldrack-single-stim","130","282547","0.0-2.0-32.0","5af9fab60a7ecb00011820b8","E1","batch5","","-1","tol_feedback","","","true","","1000","1000","500","","","","","","-1","none","true","3639","6980","","","","","","","","","",""
"","","","","","html-button-response","131","283695","0.0-2.0-33.0","5af9fab60a7ecb00011820b8","E1","batch5","","1145.5","tol_trial_num","<div class = centerbox><p class = center-block-text>problem <strong>9</strong> out of 25 problems</p></div>","0","","","","","","","","","","","","","","","","","","","","","","","","",""
"","","","","","single-stim-button","132","296303","0.0-2.0-34.0-0.0","5af9fab60a7ecb00011820b8","E1","batch5","","12605","tol_tohand","","","","tol_peg_1","12605","12605","0","[[3,0,0],[0,0],[1]]","1","[[2,1,0],[3,0],[0]]","8","0","","","","","","6","","","","","","","","",""
"","","","","","single-stim-button","133","297629","0.0-2.0-34.0-1.0","5af9fab60a7ecb00011820b8","E1","batch5","","1322","tol_toboard","","","","tol_peg_2","1322","1322","0","[[3,0,0],[2,0],[1]]","1","[[2,1,0],[3,0],[0]]","8","0","","","","","","6","","","","","","","","",""
"","","","","","single-stim-button","134","307125","0.0-2.0-34.1-0.1","5af9fab60a7ecb00011820b8","E1","batch5","","9493","tol_tohand","","","","tol_peg_3","9493","9493","0","[[3,0,0],[2,0],[0]]","2","[[2,1,0],[3,0],[0]]","8","0","","","","","","6","","","","","","","","",""
"","","","","","single-stim-button","135","308135","0.0-2.0-34.1-1.1","5af9fab60a7ecb00011820b8","E1","batch5","","1009","tol_toboard","","","","tol_peg_2","1009","1009","0","[[3,0,0],[2,1],[0]]","2","[[2,1,0],[3,0],[0]]","8","0","","","","","","6","","","","","","","","",""
"","","","","","single-stim-button","136","308945","0.0-2.0-34.2-0.2","5af9fab60a7ecb00011820b8","E1","batch5","","808","tol_tohand","","","","tol_peg_1","808","808","0","[[0,0,0],[2,1],[0]]","3","[[2,1,0],[3,0],[0]]","8","0","","","","","","6","","","","","","","","",""
"","","","","","single-stim-button","137","310246","0.0-2.0-34.2-1.2","5af9fab60a7ecb00011820b8","E1","batch5","","1299","tol_toboard","","","","tol_peg_3","1299","1299","0","[[0,0,0],[2,1],[3]]","3","[[2,1,0],[3,0],[0]]","8","0","","","","","","6","","","","","","","","",""
"","","","","","single-stim-button","138","311299","0.0-2.0-34.3-0.3","5af9fab60a7ecb00011820b8","E1","batch5","","1050","tol_tohand","","","","tol_peg_2","1050","1050","0","[[0,0,0],[2,0],[3]]","4","[[2,1,0],[3,0],[0]]","8","0","","","","","","6","","","","","","","","",""
"","","","","","single-stim-button","139","312937","0.0-2.0-34.3-1.3","5af9fab60a7ecb00011820b8","E1","batch5","","1636","tol_toboard","","","","tol_peg_1","1636","1636","0","[[1,0,0],[2,0],[3]]","4","[[2,1,0],[3,0],[0]]","8","0","","","","","","6","","","","","","","","",""
"","","","","","single-stim-button","140","314004","0.0-2.0-34.4-0.4","5af9fab60a7ecb00011820b8","E1","batch5","","1065","tol_tohand","","","","tol_peg_2","1065","1065","0","[[1,0,0],[0,0],[3]]","5","[[2,1,0],[3,0],[0]]","8","0","","","","","","6","","","","","","","","",""
"","","","","","single-stim-button","141","314972","0.0-2.0-34.4-1.4","5af9fab60a7ecb00011820b8","E1","batch5","","965","tol_toboard","","","","tol_peg_1","965","965","0","[[1,2,0],[0,0],[3]]","5","[[2,1,0],[3,0],[0]]","8","0","","","","","","6","","","","","","","","",""
"","","","","","single-stim-button","142","315991","0.0-2.0-34.5-0.5","5af9fab60a7ecb00011820b8","E1","batch5","","1016","tol_tohand","","","","tol_peg_3","1016","1016","0","[[1,2,0],[0,0],[0]]","6","[[2,1,0],[3,0],[0]]","8","0","","","","","","6","","","","","","","","",""
"","","","","","single-stim-button","143","316999","0.0-2.0-34.5-1.5","5af9fab60a7ecb00011820b8","E1","batch5","","1005","tol_toboard","","","","tol_peg_2","1005","1005","0","[[1,2,0],[3,0],[0]]","6","[[2,1,0],[3,0],[0]]","8","0","","","","","","6","","","","","","","","",""
"","","","","","single-stim-button","144","317928","0.0-2.0-34.6-0.6","5af9fab60a7ecb00011820b8","E1","batch5","","927","tol_tohand","","","","tol_peg_1","927","927","0","[[1,0,0],[3,0],[0]]","7","[[2,1,0],[3,0],[0]]","8","0","","","","","","6","","","","","","","","",""
"","","","","","single-stim-button","145","318920","0.0-2.0-34.6-1.6","5af9fab60a7ecb00011820b8","E1","batch5","","990","tol_toboard","","","","tol_peg_2","990","990","0","[[1,0,0],[3,2],[0]]","7","[[2,1,0],[3,0],[0]]","8","0","","","","","","6","","","","","","","","",""
"","","","","","single-stim-button","146","319853","0.0-2.0-34.7-0.7","5af9fab60a7ecb00011820b8","E1","batch5","","931","tol_tohand","","","","tol_peg_1","931","931","0","[[0,0,0],[3,2],[0]]","8","[[2,1,0],[3,0],[0]]","8","0","","","","","","6","","","","","","","","",""
"","","","","","single-stim-button","147","321080","0.0-2.0-34.7-1.7","5af9fab60a7ecb00011820b8","E1","batch5","","1225","tol_toboard","","","","tol_peg_3","1225","1225","0","[[0,0,0],[3,2],[1]]","8","[[2,1,0],[3,0],[0]]","8","0","","","","","","6","","","","","","","","",""
"","","","","","single-stim-button","148","321973","0.0-2.0-34.8-0.8","5af9fab60a7ecb00011820b8","E1","batch5","","890","tol_tohand","","","","tol_peg_2","890","890","0","[[0,0,0],[3,0],[1]]","9","[[2,1,0],[3,0],[0]]","8","0","","","","","","6","","","","","","","","",""
"","","","","","single-stim-button","149","322870","0.0-2.0-34.8-1.8","5af9fab60a7ecb00011820b8","E1","batch5","","894","tol_toboard","","","","tol_peg_1","894","894","0","[[2,0,0],[3,0],[1]]","9","[[2,1,0],[3,0],[0]]","8","0","","","","","","6","","","","","","","","",""
"","","","","","single-stim-button","150","323748","0.0-2.0-34.9-0.9","5af9fab60a7ecb00011820b8","E1","batch5","","875","tol_tohand","","","","tol_peg_3","875","875","0","[[2,0,0],[3,0],[0]]","10","[[2,1,0],[3,0],[0]]","8","0","","","","","","6","","","","","","","","",""
"","","","","","single-stim-button","151","324765","0.0-2.0-34.9-1.9","5af9fab60a7ecb00011820b8","E1","batch5","","1014","tol_toboard","","","","tol_peg_1","1014","1014","0","[[2,1,0],[3,0],[0]]","10","[[2,1,0],[3,0],[0]]","8","0","","","","","","6","","","","","","","","",""
"","","","","","poldrack-single-stim","152","325768","0.0-2.0-35.0","5af9fab60a7ecb00011820b8","E1","batch5","","-1","tol_feedback","","","true","","1000","1000","500","","","","","","-1","none","true","12605","29660","","","","","","","","","",""
"","","","","","html-button-response","153","327070","0.0-2.0-36.0","5af9fab60a7ecb00011820b8","E1","batch5","","1299.6999998092651","tol_trial_num","<div class = centerbox><p class = center-block-text>problem <strong>10</strong> out of 25 problems</p></div>","0","","","","","","","","","","","","","","","","","","","","","","","","",""
"","","","","","single-stim-button","154","330926","0.0-2.0-37.0-0.0","5af9fab60a7ecb00011820b8","E1","batch5","","3853","tol_tohand","","","","tol_peg_2","3853","3853","0","[[3,0,0],[0,0],[2]]","1","[[3,0,0],[2,1],[0]]","9","0","","","","","","3","","","","","","","","",""
"","","","","","single-stim-button","155","331757","0.0-2.0-37.0-1.0","5af9fab60a7ecb00011820b8","E1","batch5","","827","tol_toboard","","","","tol_peg_1","827","827","0","[[3,1,0],[0,0],[2]]","1","[[3,0,0],[2,1],[0]]","9","0","","","","","","3","","","","","","","","",""
"","","","","","single-stim-button","156","332626","0.0-2.0-37.1-0.1","5af9fab60a7ecb00011820b8","E1","batch5","","867","tol_tohand","","","","tol_peg_3","867","867","0","[[3,1,0],[0,0],[0]]","2","[[3,0,0],[2,1],[0]]","9","0","","","","","","3","","","","","","","","",""
"","","","","","single-stim-button","157","333578","0.0-2.0-37.1-1.1","5af9fab60a7ecb00011820b8","E1","batch5","","949","tol_toboard","","","","tol_peg_2","949","949","0","[[3,1,0],[2,0],[0]]","2","[[3,0,0],[2,1],[0]]","9","0","","","","","","3","","","","","","","","",""
"","","","","","single-stim-button","158","334426","0.0-2.0-37.2-0.2","5af9fab60a7ecb00011820b8","E1","batch5","","845","tol_tohand","","","","tol_peg_1","845","845","0","[[3,0,0],[2,0],[0]]","3","[[3,0,0],[2,1],[0]]","9","0","","","","","","3","","","","","","","","",""
"","","","","","single-stim-button","159","335362","0.0-2.0-37.2-1.2","5af9fab60a7ecb00011820b8","E1","batch5","","933","tol_toboard","","","","tol_peg_2","933","933","0","[[3,0,0],[2,1],[0]]","3","[[3,0,0],[2,1],[0]]","9","0","","","","","","3","","","","","","","","",""
"","","","","","poldrack-single-stim","160","336365","0.0-2.0-38.0","5af9fab60a7ecb00011820b8","E1","batch5","","-1","tol_feedback","","","true","","1000","1000","500","","","","","","-1","none","true","3853","5565","","","","","","","","","",""
"","","","","","html-button-response","161","338447","0.0-2.0-39.0","5af9fab60a7ecb00011820b8","E1","batch5","","2080.2000007629395","tol_trial_num","<div class = centerbox><p class = center-block-text>problem <strong>11</strong> out of 25 problems</p></div>","0","","","","","","","","","","","","","","","","","","","","","","","","",""
"","","","","","single-stim-button","162","353374","0.0-2.0-40.0-0.0","5af9fab60a7ecb00011820b8","E1","batch5","","14923","tol_tohand","","","","tol_peg_2","14923","14923","0","[[1,2,0],[0,0],[0]]","1","[[2,0,0],[1,3],[0]]","10","0","","","","","","6","","","","","","","","",""
"","","","","","single-stim-button","163","354508","0.0-2.0-40.0-1.0","5af9fab60a7ecb00011820b8","E1","batch5","","1131","tol_toboard","","","","tol_peg_3","1131","1131","0","[[1,2,0],[0,0],[3]]","1","[[2,0,0],[1,3],[0]]","10","0","","","","","","6","","","","","","","","",""
"","","","","","single-stim-button","164","357042","0.0-2.0-40.1-0.1","5af9fab60a7ecb00011820b8","E1","batch5","","2532","tol_tohand","","","","tol_peg_1","2532","2532","0","[[1,0,0],[0,0],[3]]","2","[[2,0,0],[1,3],[0]]","10","0","","","","","","6","","","","","","","","",""
"","","","","","single-stim-button","165","358600","0.0-2.0-40.1-1.1","5af9fab60a7ecb00011820b8","E1","batch5","","1557","tol_toboard","","","","tol_peg_2","1557","1557","0","[[1,0,0],[2,0],[3]]","2","[[2,0,0],[1,3],[0]]","10","0","","","","","","6","","","","","","","","",""
"","","","","","single-stim-button","166","360174","0.0-2.0-40.2-0.2","5af9fab60a7ecb00011820b8","E1","batch5","","1572","tol_tohand","","","","tol_peg_1","1572","1572","0","[[0,0,0],[2,0],[3]]","3","[[2,0,0],[1,3],[0]]","10","0","","","","","","6","","","","","","","","",""
"","","","","","single-stim-button","167","361299","0.0-2.0-40.2-1.2","5af9fab60a7ecb00011820b8","E1","batch5","","1121","tol_toboard","","","","tol_peg_2","1121","1121","0","[[0,0,0],[2,1],[3]]","3","[[2,0,0],[1,3],[0]]","10","0","","","","","","6","","","","","","","","",""
"","","","","","single-stim-button","168","366242","0.0-2.0-40.3-0.3","5af9fab60a7ecb00011820b8","E1","batch5","","4940","tol_tohand","","","","tol_peg_3","4940","4940","0","[[0,0,0],[2,1],[0]]","4","[[2,0,0],[1,3],[0]]","10","0","","","","","","6","","","","","","","","",""
"","","","","","single-stim-button","169","367517","0.0-2.0-40.3-1.3","5af9fab60a7ecb00011820b8","E1","batch5","","1272","tol_toboard","","","","tol_peg_1","1272","1272","0","[[3,0,0],[2,1],[0]]","4","[[2,0,0],[1,3],[0]]","10","0","","","","","","6","","","","","","","","",""
"","","","","","single-stim-button","170","368218","0.0-2.0-40.4-0.4","5af9fab60a7ecb00011820b8","E1","batch5","","697","tol_tohand","","","","tol_peg_2","697","697","0","[[3,0,0],[2,0],[0]]","5","[[2,0,0],[1,3],[0]]","10","0","","","","","","6","","","","","","","","",""
"","","","","","single-stim-button","171","369247","0.0-2.0-40.4-1.4","5af9fab60a7ecb00011820b8","E1","batch5","","1027","tol_toboard","","","","tol_peg_3","1027","1027","0","[[3,0,0],[2,0],[1]]","5","[[2,0,0],[1,3],[0]]","10","0","","","","","","6","","","","","","","","",""
"","","","","","single-stim-button","172","375588","0.0-2.0-40.5-0.5","5af9fab60a7ecb00011820b8","E1","batch5","","6339","tol_tohand","","","","tol_peg_2","6339","6339","0","[[3,0,0],[0,0],[1]]","6","[[2,0,0],[1,3],[0]]","10","0","","","","","","6","","","","","","","","",""
"","","","","","single-stim-button","173","379123","0.0-2.0-40.5-1.5","5af9fab60a7ecb00011820b8","E1","batch5","","3532","tol_toboard","","","","tol_peg_1","3532","3532","0","[[3,2,0],[0,0],[1]]","6","[[2,0,0],[1,3],[0]]","10","0","","","","","","6","","","","","","","","",""
"","","","","","single-stim-button","174","380777","0.0-2.0-40.6-0.6","5af9fab60a7ecb00011820b8","E1","batch5","","1651","tol_tohand","","","","tol_peg_3","1651","1651","0","[[3,2,0],[0,0],[0]]","7","[[2,0,0],[1,3],[0]]","10","0","","","","","","6","","","","","","","","",""
"","","","","","single-stim-button","175","381698","0.0-2.0-40.6-1.6","5af9fab60a7ecb00011820b8","E1","batch5","","918","tol_toboard","","","","tol_peg_2","918","918","0","[[3,2,0],[1,0],[0]]","7","[[2,0,0],[1,3],[0]]","10","0","","","","","","6","","","","","","","","",""
"","","","","","single-stim-button","176","382621","0.0-2.0-40.7-0.7","5af9fab60a7ecb00011820b8","E1","batch5","","920","tol_tohand","","","","tol_peg_1","920","920","0","[[3,0,0],[1,0],[0]]","8","[[2,0,0],[1,3],[0]]","10","0","","","","","","6","","","","","","","","",""
"","","","","","single-stim-button","177","383686","0.0-2.0-40.7-1.7","5af9fab60a7ecb00011820b8","E1","batch5","","1062","tol_toboard","","","","tol_peg_3","1062","1062","0","[[3,0,0],[1,0],[2]]","8","[[2,0,0],[1,3],[0]]","10","0","","","","","","6","","","","","","","","",""
"","","","","","single-stim-button","178","384836","0.0-2.0-40.8-0.8","5af9fab60a7ecb00011820b8","E1","batch5","","1150","tol_tohand","","","","tol_peg_1","1150","1150","0","[[0,0,0],[1,0],[2]]","9","[[2,0,0],[1,3],[0]]","10","0","","","","","","6","","","","","","","","",""
"","","","","","single-stim-button","179","385638","0.0-2.0-40.8-1.8","5af9fab60a7ecb00011820b8","E1","batch5","","800","tol_toboard","","","","tol_peg_2","800","800","0","[[0,0,0],[1,3],[2]]","9","[[2,0,0],[1,3],[0]]","10","0","","","","","","6","","","","","","","","",""
"","","","","","single-stim-button","180","386326","0.0-2.0-40.9-0.9","5af9fab60a7ecb00011820b8","E1","batch5","","685","tol_tohand","","","","tol_peg_3","685","685","0","[[0,0,0],[1,3],[0]]","10","[[2,0,0],[1,3],[0]]","10","0","","","","","","6","","","","","","","","",""
"","","","","","single-stim-button","181","387343","0.0-2.0-40.9-1.9","5af9fab60a7ecb00011820b8","E1","batch5","","1015","tol_toboard","","","","tol_peg_1","1015","1015","0","[[2,0,0],[1,3],[0]]","10","[[2,0,0],[1,3],[0]]","10","0","","","","","","6","","","","","","","","",""
"","","","","","poldrack-single-stim","182","388357","0.0-2.0-41.0","5af9fab60a7ecb00011820b8","E1","batch5","","-1","tol_feedback","","","true","","1000","1000","500","","","","","","-1","none","true","14923","35409","","","","","","","","","",""
"","","","","","html-button-response","183","389398","0.0-2.0-42.0","5af9fab60a7ecb00011820b8","E1","batch5","","1038.3999996185303","tol_trial_num","<div class = centerbox><p class = center-block-text>problem <strong>12</strong> out of 25 problems</p></div>","0","","","","","","","","","","","","","","","","","","","","","","","","",""
"","","","","","single-stim-button","184","394724","0.0-2.0-43.0-0.0","5af9fab60a7ecb00011820b8","E1","batch5","","5323","tol_tohand","","","","tol_peg_1","5323","5323","0","[[1,0,0],[3,0],[0]]","1","[[2,3,0],[0,0],[1]]","11","0","","","","","","4","","","","","","","","",""
"","","","","","single-stim-button","185","395650","0.0-2.0-43.0-1.0","5af9fab60a7ecb00011820b8","E1","batch5","","924","tol_toboard","","","","tol_peg_2","924","924","0","[[1,0,0],[3,2],[0]]","1","[[2,3,0],[0,0],[1]]","11","0","","","","","","4","","","","","","","","",""
"","","","","","single-stim-button","186","396417","0.0-2.0-43.1-0.1","5af9fab60a7ecb00011820b8","E1","batch5","","764","tol_tohand","","","","tol_peg_1","764","764","0","[[0,0,0],[3,2],[0]]","2","[[2,3,0],[0,0],[1]]","11","0","","","","","","4","","","","","","","","",""
"","","","","","single-stim-button","187","397516","0.0-2.0-43.1-1.1","5af9fab60a7ecb00011820b8","E1","batch5","","1096","tol_toboard","","","","tol_peg_3","1096","1096","0","[[0,0,0],[3,2],[1]]","2","[[2,3,0],[0,0],[1]]","11","0","","","","","","4","","","","","","","","",""
"","","","","","single-stim-button","188","398524","0.0-2.0-43.2-0.2","5af9fab60a7ecb00011820b8","E1","batch5","","1005","tol_tohand","","","","tol_peg_2","1005","1005","0","[[0,0,0],[3,0],[1]]","3","[[2,3,0],[0,0],[1]]","11","0","","","","","","4","","","","","","","","",""
"","","","","","single-stim-button","189","400107","0.0-2.0-43.2-1.2","5af9fab60a7ecb00011820b8","E1","batch5","","1582","tol_toboard","","","","tol_peg_1","1582","1582","0","[[2,0,0],[3,0],[1]]","3","[[2,3,0],[0,0],[1]]","11","0","","","","","","4","","","","","","","","",""
"","","","","","single-stim-button","190","400936","0.0-2.0-43.3-0.3","5af9fab60a7ecb00011820b8","E1","batch5","","825","tol_tohand","","","","tol_peg_2","825","825","0","[[2,0,0],[0,0],[1]]","4","[[2,3,0],[0,0],[1]]","11","0","","","","","","4","","","","","","","","",""
"","","","","","single-stim-button","191","401705","0.0-2.0-43.3-1.3","5af9fab60a7ecb00011820b8","E1","batch5","","766","tol_toboard","","","","tol_peg_1","766","766","0","[[2,3,0],[0,0],[1]]","4","[[2,3,0],[0,0],[1]]","11","0","","","","","","4","","","","","","","","",""
"","","","","","poldrack-single-stim","192","402710","0.0-2.0-44.0","5af9fab60a7ecb00011820b8","E1","batch5","","-1","tol_feedback","","","true","","1000","1000","500","","","","","","-1","none","true","5323","7917","","","","","","","","","",""
"","","","","","html-button-response","193","403898","0.0-2.0-45.0","5af9fab60a7ecb00011820b8","E1","batch5","","1185.5","tol_trial_num","<div class = centerbox><p class = center-block-text>problem <strong>13</strong> out of 25 problems</p></div>","0","","","","","","","","","","","","","","","","","","","","","","","","",""
"","","","","","single-stim-button","194","408934","0.0-2.0-46.0-0.0","5af9fab60a7ecb00011820b8","E1","batch5","","5033","tol_tohand","","","","tol_peg_2","5033","5033","0","[[1,2,0],[0,0],[0]]","1","[[0,0,0],[2,3],[1]]","12","0","","","","","","4","","","","","","","","",""
"","","","","","single-stim-button","195","410092","0.0-2.0-46.0-1.0","5af9fab60a7ecb00011820b8","E1","batch5","","1154","tol_toboard","","","","tol_peg_3","1154","1154","0","[[1,2,0],[0,0],[3]]","1","[[0,0,0],[2,3],[1]]","12","0","","","","","","4","","","","","","","","",""
"","","","","","single-stim-button","196","411793","0.0-2.0-46.1-0.1","5af9fab60a7ecb00011820b8","E1","batch5","","1698","tol_tohand","","","","tol_peg_1","1698","1698","0","[[1,0,0],[0,0],[3]]","2","[[0,0,0],[2,3],[1]]","12","0","","","","","","4","","","","","","","","",""
"","","","","","single-stim-button","197","412746","0.0-2.0-46.1-1.1","5af9fab60a7ecb00011820b8","E1","batch5","","951","tol_toboard","","","","tol_peg_2","951","951","0","[[1,0,0],[2,0],[3]]","2","[[0,0,0],[2,3],[1]]","12","0","","","","","","4","","","","","","","","",""
"","","","","","single-stim-button","198","413550","0.0-2.0-46.2-0.2","5af9fab60a7ecb00011820b8","E1","batch5","","801","tol_tohand","","","","tol_peg_3","801","801","0","[[1,0,0],[2,0],[0]]","3","[[0,0,0],[2,3],[1]]","12","0","","","","","","4","","","","","","","","",""
"","","","","","single-stim-button","199","414253","0.0-2.0-46.2-1.2","5af9fab60a7ecb00011820b8","E1","batch5","","700","tol_toboard","","","","tol_peg_2","700","700","0","[[1,0,0],[2,3],[0]]","3","[[0,0,0],[2,3],[1]]","12","0","","","","","","4","","","","","","","","",""
"","","","","","single-stim-button","200","415030","0.0-2.0-46.3-0.3","5af9fab60a7ecb00011820b8","E1","batch5","","774","tol_tohand","","","","tol_peg_1","774","774","0","[[0,0,0],[2,3],[0]]","4","[[0,0,0],[2,3],[1]]","12","0","","","","","","4","","","","","","","","",""
"","","","","","single-stim-button","201","416115","0.0-2.0-46.3-1.3","5af9fab60a7ecb00011820b8","E1","batch5","","1083","tol_toboard","","","","tol_peg_3","1083","1083","0","[[0,0,0],[2,3],[1]]","4","[[0,0,0],[2,3],[1]]","12","0","","","","","","4","","","","","","","","",""
"","","","","","poldrack-single-stim","202","417123","0.0-2.0-47.0","5af9fab60a7ecb00011820b8","E1","batch5","","-1","tol_feedback","","","true","","1000","1000","500","","","","","","-1","none","true","5033","8306","","","","","","","","","",""
"","","","","","html-button-response","203","419222","0.0-2.0-48.0","5af9fab60a7ecb00011820b8","E1","batch5","","2097.1000003814697","attention_check","<p class = block-text>How many balls are in your board<br></p>","1","true","","","","","","","","","","","","","","","","","","","","","","","",""
"","","","","","html-button-response","204","420656","0.0-2.0-49.0","5af9fab60a7ecb00011820b8","E1","batch5","","1431.8999996185303","tol_trial_num","<div class = centerbox><p class = center-block-text>problem <strong>14</strong> out of 25 problems</p></div>","0","","","","","","","","","","","","","","","","","","","","","","","","",""
"","","","","","single-stim-button","205","425914","0.0-2.0-50.0-0.0","5af9fab60a7ecb00011820b8","E1","batch5","","5256","tol_tohand","","","","tol_peg_1","5256","5256","0","[[2,0,0],[3,0],[0]]","1","[[1,2,0],[3,0],[0]]","13","0","","","","","","4","","","","","","","","",""
"","","","","","single-stim-button","206","427082","0.0-2.0-50.0-1.0","5af9fab60a7ecb00011820b8","E1","batch5","","1167","tol_toboard","","","","tol_peg_2","1167","1167","0","[[2,0,0],[3,1],[0]]","1","[[1,2,0],[3,0],[0]]","13","0","","","","","","4","","","","","","","","",""
"","","","","","single-stim-button","207","427872","0.0-2.0-50.1-0.1","5af9fab60a7ecb00011820b8","E1","batch5","","788","tol_tohand","","","","tol_peg_1","788","788","0","[[0,0,0],[3,1],[0]]","2","[[1,2,0],[3,0],[0]]","13","0","","","","","","4","","","","","","","","",""
"","","","","","single-stim-button","208","428981","0.0-2.0-50.1-1.1","5af9fab60a7ecb00011820b8","E1","batch5","","1106","tol_toboard","","","","tol_peg_3","1106","1106","0","[[0,0,0],[3,1],[2]]","2","[[1,2,0],[3,0],[0]]","13","0","","","","","","4","","","","","","","","",""
"","","","","","single-stim-button","209","429760","0.0-2.0-50.2-0.2","5af9fab60a7ecb00011820b8","E1","batch5","","776","tol_tohand","","","","tol_peg_2","776","776","0","[[0,0,0],[3,0],[2]]","3","[[1,2,0],[3,0],[0]]","13","0","","","","","","4","","","","","","","","",""
"","","","","","single-stim-button","210","430665","0.0-2.0-50.2-1.2","5af9fab60a7ecb00011820b8","E1","batch5","","903","tol_toboard","","","","tol_peg_1","903","903","0","[[1,0,0],[3,0],[2]]","3","[[1,2,0],[3,0],[0]]","13","0","","","","","","4","","","","","","","","",""
"","","","","","single-stim-button","211","432714","0.0-2.0-50.3-0.3","5af9fab60a7ecb00011820b8","E1","batch5","","2047","tol_tohand","","","","tol_peg_3","2047","2047","0","[[1,0,0],[3,0],[0]]","4","[[1,2,0],[3,0],[0]]","13","0","","","","","","4","","","","","","","","",""
"","","","","","single-stim-button","212","433131","0.0-2.0-50.3-1.3","5af9fab60a7ecb00011820b8","E1","batch5","","414","tol_toboard","","","","tol_peg_3","414","414","0","[[1,0,0],[3,0],[2]]","4","[[1,2,0],[3,0],[0]]","13","0","","","","","","4","","","","","","","","",""
"","","","","","single-stim-button","213","434210","0.0-2.0-50.4-0.4","5af9fab60a7ecb00011820b8","E1","batch5","","1076","tol_tohand","","","","tol_peg_3","1076","1076","0","[[1,0,0],[3,0],[0]]","5","[[1,2,0],[3,0],[0]]","13","0","","","","","","4","","","","","","","","",""
"","","","","","single-stim-button","214","435368","0.0-2.0-50.4-1.4","5af9fab60a7ecb00011820b8","E1","batch5","","1157","tol_toboard","","","","tol_peg_1","1157","1157","0","[[1,2,0],[3,0],[0]]","5","[[1,2,0],[3,0],[0]]","13","0","","","","","","4","","","","","","","","",""
"","","","","","poldrack-single-stim","215","436370","0.0-2.0-51.0","5af9fab60a7ecb00011820b8","E1","batch5","","-1","tol_feedback","","","true","","1000","1000","500","","","","","","-1","none","true","5256","9943","","","","","","","","","",""
"","","","","","html-button-response","216","437630","0.0-2.0-52.0","5af9fab60a7ecb00011820b8","E1","batch5","","1257.6999998092651","tol_trial_num","<div class = centerbox><p class = center-block-text>problem <strong>15</strong> out of 25 problems</p></div>","0","","","","","","","","","","","","","","","","","","","","","","","","",""
"","","","","","single-stim-button","217","440776","0.0-2.0-53.0-0.0","5af9fab60a7ecb00011820b8","E1","batch5","","3142","tol_tohand","","","","tol_peg_1","3142","3142","0","[[1,0,0],[3,0],[0]]","1","[[2,0,0],[3,0],[1]]","14","0","","","","","","3","","","","","","","","",""
"","","","","","single-stim-button","218","441805","0.0-2.0-53.0-1.0","5af9fab60a7ecb00011820b8","E1","batch5","","1026","tol_toboard","","","","tol_peg_2","1026","1026","0","[[1,0,0],[3,2],[0]]","1","[[2,0,0],[3,0],[1]]","14","0","","","","","","3","","","","","","","","",""
"","","","","","single-stim-button","219","442670","0.0-2.0-53.1-0.1","5af9fab60a7ecb00011820b8","E1","batch5","","862","tol_tohand","","","","tol_peg_1","862","862","0","[[0,0,0],[3,2],[0]]","2","[[2,0,0],[3,0],[1]]","14","0","","","","","","3","","","","","","","","",""
"","","","","","single-stim-button","220","443896","0.0-2.0-53.1-1.1","5af9fab60a7ecb00011820b8","E1","batch5","","1223","tol_toboard","","","","tol_peg_3","1223","1223","0","[[0,0,0],[3,2],[1]]","2","[[2,0,0],[3,0],[1]]","14","0","","","","","","3","","","","","","","","",""
"","","","","","single-stim-button","221","444754","0.0-2.0-53.2-0.2","5af9fab60a7ecb00011820b8","E1","batch5","","855","tol_tohand","","","","tol_peg_2","855","855","0","[[0,0,0],[3,0],[1]]","3","[[2,0,0],[3,0],[1]]","14","0","","","","","","3","","","","","","","","",""
"","","","","","single-stim-button","222","445877","0.0-2.0-53.2-1.2","5af9fab60a7ecb00011820b8","E1","batch5","","1120","tol_toboard","","","","tol_peg_1","1120","1120","0","[[2,0,0],[3,0],[1]]","3","[[2,0,0],[3,0],[1]]","14","0","","","","","","3","","","","","","","","",""
"","","","","","poldrack-single-stim","223","446887","0.0-2.0-54.0","5af9fab60a7ecb00011820b8","E1","batch5","","-1","tol_feedback","","","true","","1000","1000","500","","","","","","-1","none","true","3142","4859","","","","","","","","","",""
"","","","","","html-button-response","224","448006","0.0-2.0-55.0","5af9fab60a7ecb00011820b8","E1","batch5","","1116.1000003814697","tol_trial_num","<div class = centerbox><p class = center-block-text>problem <strong>16</strong> out of 25 problems</p></div>","0","","","","","","","","","","","","","","","","","","","","","","","","",""
"","","","","","single-stim-button","225","453294","0.0-2.0-56.0-0.0","5af9fab60a7ecb00011820b8","E1","batch5","","5284","tol_tohand","","","","tol_peg_3","5284","5284","0","[[0,0,0],[2,3],[0]]","1","[[2,3,0],[1,0],[0]]","15","0","","","","","","7","","","","","","","","",""
"","","","","","single-stim-button","226","454372","0.0-2.0-56.0-1.0","5af9fab60a7ecb00011820b8","E1","batch5","","1075","tol_toboard","","","","tol_peg_1","1075","1075","0","[[1,0,0],[2,3],[0]]","1","[[2,3,0],[1,0],[0]]","15","0","","","","","","7","","","","","","","","",""
"","","","","","single-stim-button","227","455390","0.0-2.0-56.1-0.1","5af9fab60a7ecb00011820b8","E1","batch5","","1015","tol_tohand","","","","tol_peg_2","1015","1015","0","[[1,0,0],[2,0],[0]]","2","[[2,3,0],[1,0],[0]]","15","0","","","","","","7","","","","","","","","",""
"","","","","","single-stim-button","228","456846","0.0-2.0-56.1-1.1","5af9fab60a7ecb00011820b8","E1","batch5","","1452","tol_toboard","","","","tol_peg_3","1452","1452","0","[[1,0,0],[2,0],[3]]","2","[[2,3,0],[1,0],[0]]","15","0","","","","","","7","","","","","","","","",""
"","","","","","single-stim-button","229","465149","0.0-2.0-56.2-0.2","5af9fab60a7ecb00011820b8","E1","batch5","","8300","tol_tohand","","","","tol_peg_2","8300","8300","0","[[1,0,0],[0,0],[3]]","3","[[2,3,0],[1,0],[0]]","15","0","","","","","","7","","","","","","","","",""
"","","","","","single-stim-button","230","465405","0.0-2.0-56.2-1.2","5af9fab60a7ecb00011820b8","E1","batch5","","254","tol_toboard","","","","tol_peg_2","254","254","0","[[1,0,0],[2,0],[3]]","3","[[2,3,0],[1,0],[0]]","15","0","","","","","","7","","","","","","","","",""
"","","","","","single-stim-button","231","465626","0.0-2.0-56.3-0.3","5af9fab60a7ecb00011820b8","E1","batch5","","219","tol_tohand","","","","tol_peg_2","219","219","0","[[1,0,0],[0,0],[3]]","4","[[2,3,0],[1,0],[0]]","15","0","","","","","","7","","","","","","","","",""
"","","","","","single-stim-button","232","468273","0.0-2.0-56.3-1.3","5af9fab60a7ecb00011820b8","E1","batch5","","2644","tol_toboard","","","","tol_peg_1","2644","2644","0","[[1,2,0],[0,0],[3]]","4","[[2,3,0],[1,0],[0]]","15","0","","","","","","7","","","","","","","","",""
"","","","","","single-stim-button","233","469363","0.0-2.0-56.4-0.4","5af9fab60a7ecb00011820b8","E1","batch5","","1086","tol_tohand","","","","tol_peg_3","1086","1086","0","[[1,2,0],[0,0],[0]]","5","[[2,3,0],[1,0],[0]]","15","0","","","","","","7","","","","","","","","",""
"","","","","","single-stim-button","234","470298","0.0-2.0-56.4-1.4","5af9fab60a7ecb00011820b8","E1","batch5","","933","tol_toboard","","","","tol_peg_2","933","933","0","[[1,2,0],[3,0],[0]]","5","[[2,3,0],[1,0],[0]]","15","0","","","","","","7","","","","","","","","",""
"","","","","","single-stim-button","235","470524","0.0-2.0-56.5-0.5","5af9fab60a7ecb00011820b8","E1","batch5","","223","tol_tohand","","","","tol_peg_2","223","223","0","[[1,2,0],[0,0],[0]]","6","[[2,3,0],[1,0],[0]]","15","0","","","","","","7","","","","","","","","",""
"","","","","","single-stim-button","236","471746","0.0-2.0-56.5-1.5","5af9fab60a7ecb00011820b8","E1","batch5","","1220","tol_toboard","","","","tol_peg_2","1220","1220","0","[[1,2,0],[3,0],[0]]","6","[[2,3,0],[1,0],[0]]","15","0","","","","","","7","","","","","","","","",""
"","","","","","single-stim-button","237","472602","0.0-2.0-56.6-0.6","5af9fab60a7ecb00011820b8","E1","batch5","","854","tol_tohand","","","","tol_peg_1","854","854","0","[[1,0,0],[3,0],[0]]","7","[[2,3,0],[1,0],[0]]","15","0","","","","","","7","","","","","","","","",""
"","","","","","single-stim-button","238","473867","0.0-2.0-56.6-1.6","5af9fab60a7ecb00011820b8","E1","batch5","","1262","tol_toboard","","","","tol_peg_3","1262","1262","0","[[1,0,0],[3,0],[2]]","7","[[2,3,0],[1,0],[0]]","15","0","","","","","","7","","","","","","","","",""
"","","","","","single-stim-button","239","475052","0.0-2.0-56.7-0.7","5af9fab60a7ecb00011820b8","E1","batch5","","1182","tol_tohand","","","","tol_peg_1","1182","1182","0","[[0,0,0],[3,0],[2]]","8","[[2,3,0],[1,0],[0]]","15","0","","","","","","7","","","","","","","","",""
"","","","","","single-stim-button","240","476846","0.0-2.0-56.7-1.7","5af9fab60a7ecb00011820b8","E1","batch5","","1790","tol_toboard","","","","tol_peg_2","1790","1790","0","[[0,0,0],[3,1],[2]]","8","[[2,3,0],[1,0],[0]]","15","0","","","","","","7","","","","","","","","",""
"","","","","","single-stim-button","241","477611","0.0-2.0-56.8-0.8","5af9fab60a7ecb00011820b8","E1","batch5","","763","tol_tohand","","","","tol_peg_3","763","763","0","[[0,0,0],[3,1],[0]]","9","[[2,3,0],[1,0],[0]]","15","0","","","","","","7","","","","","","","","",""
"","","","","","single-stim-button","242","478827","0.0-2.0-56.8-1.8","5af9fab60a7ecb00011820b8","E1","batch5","","1213","tol_toboard","","","","tol_peg_1","1213","1213","0","[[2,0,0],[3,1],[0]]","9","[[2,3,0],[1,0],[0]]","15","0","","","","","","7","","","","","","","","",""
"","","","","","single-stim-button","243","479732","0.0-2.0-56.9-0.9","5af9fab60a7ecb00011820b8","E1","batch5","","902","tol_tohand","","","","tol_peg_2","902","902","0","[[2,0,0],[3,0],[0]]","10","[[2,3,0],[1,0],[0]]","15","0","","","","","","7","","","","","","","","",""
"","","","","","single-stim-button","244","480829","0.0-2.0-56.9-1.9","5af9fab60a7ecb00011820b8","E1","batch5","","1096","tol_toboard","","","","tol_peg_3","1096","1096","0","[[2,0,0],[3,0],[1]]","10","[[2,3,0],[1,0],[0]]","15","0","","","","","","7","","","","","","","","",""
"","","","","","single-stim-button","245","481597","0.0-2.0-56.10-0.10","5af9fab60a7ecb00011820b8","E1","batch5","","765","tol_tohand","","","","tol_peg_2","765","765","0","[[2,0,0],[0,0],[1]]","11","[[2,3,0],[1,0],[0]]","15","0","","","","","","7","","","","","","","","",""
"","","","","","single-stim-button","246","482383","0.0-2.0-56.10-1.10","5af9fab60a7ecb00011820b8","E1","batch5","","783","tol_toboard","","","","tol_peg_1","783","783","0","[[2,3,0],[0,0],[1]]","11","[[2,3,0],[1,0],[0]]","15","0","","","","","","7","","","","","","","","",""
"","","","","","single-stim-button","247","483873","0.0-2.0-56.11-0.11","5af9fab60a7ecb00011820b8","E1","batch5","","1487","tol_tohand","","","","tol_peg_3","1487","1487","0","[[2,3,0],[0,0],[0]]","12","[[2,3,0],[1,0],[0]]","15","0","","","","","","7","","","","","","","","",""
"","","","","","single-stim-button","248","484251","0.0-2.0-56.11-1.11","5af9fab60a7ecb00011820b8","E1","batch5","","374","tol_toboard","","","","tol_peg_3","374","374","0","[[2,3,0],[0,0],[1]]","12","[[2,3,0],[1,0],[0]]","15","0","","","","","","7","","","","","","","","",""
"","","","","","single-stim-button","249","485378","0.0-2.0-56.12-0.12","5af9fab60a7ecb00011820b8","E1","batch5","","1124","tol_tohand","","","","tol_peg_3","1124","1124","0","[[2,3,0],[0,0],[0]]","13","[[2,3,0],[1,0],[0]]","15","0","","","","","","7","","","","","","","","",""
"","","","","","single-stim-button","250","486601","0.0-2.0-56.12-1.12","5af9fab60a7ecb00011820b8","E1","batch5","","1222","tol_toboard","","","","tol_peg_2","1222","1222","0","[[2,3,0],[1,0],[0]]","13","[[2,3,0],[1,0],[0]]","15","0","","","","","","7","","","","","","","","",""
"","","","","","poldrack-single-stim","251","487613","0.0-2.0-57.0","5af9fab60a7ecb00011820b8","E1","batch5","","-1","tol_feedback","","","true","","1000","1000","500","","","","","","-1","none","true","5284","23204","","","","","","","","","",""
"","","","","","html-button-response","252","489065","0.0-2.0-58.0","5af9fab60a7ecb00011820b8","E1","batch5","","1449.0999994277954","tol_trial_num","<div class = centerbox><p class = center-block-text>problem <strong>17</strong> out of 25 problems</p></div>","0","","","","","","","","","","","","","","","","","","","","","","","","",""
"","","","","","single-stim-button","253","492421","0.0-2.0-59.0-0.0","5af9fab60a7ecb00011820b8","E1","batch5","","3353","tol_tohand","","","","tol_peg_1","3353","3353","0","[[1,0,0],[3,0],[0]]","1","[[3,1,0],[2,0],[0]]","16","0","","","","","","5","","","","","","","","",""
"","","","","","single-stim-button","254","509045","0.0-2.0-59.0-1.0","5af9fab60a7ecb00011820b8","E1","batch5","","16621","tol_toboard","","","","tol_peg_1","16621","16621","0","[[1,2,0],[3,0],[0]]","1","[[3,1,0],[2,0],[0]]","16","0","","","","","","5","","","","","","","","",""
"","","","","","single-stim-button","255","510040","0.0-2.0-59.1-0.1","5af9fab60a7ecb00011820b8","E1","batch5","","992","tol_tohand","","","","tol_peg_2","992","992","0","[[1,2,0],[0,0],[0]]","2","[[3,1,0],[2,0],[0]]","16","0","","","","","","5","","","","","","","","",""
"","","","","","single-stim-button","256","511122","0.0-2.0-59.1-1.1","5af9fab60a7ecb00011820b8","E1","batch5","","1079","tol_toboard","","","","tol_peg_3","1079","1079","0","[[1,2,0],[0,0],[3]]","2","[[3,1,0],[2,0],[0]]","16","0","","","","","","5","","","","","","","","",""
"","","","","","single-stim-button","257","512208","0.0-2.0-59.2-0.2","5af9fab60a7ecb00011820b8","E1","batch5","","1083","tol_tohand","","","","tol_peg_1","1083","1083","0","[[1,0,0],[0,0],[3]]","3","[[3,1,0],[2,0],[0]]","16","0","","","","","","5","","","","","","","","",""
"","","","","","single-stim-button","258","513661","0.0-2.0-59.2-1.2","5af9fab60a7ecb00011820b8","E1","batch5","","1450","tol_toboard","","","","tol_peg_2","1450","1450","0","[[1,0,0],[2,0],[3]]","3","[[3,1,0],[2,0],[0]]","16","0","","","","","","5","","","","","","","","",""
"","","","","","single-stim-button","259","515218","0.0-2.0-59.3-0.3","5af9fab60a7ecb00011820b8","E1","batch5","","1554","tol_tohand","","","","tol_peg_1","1554","1554","0","[[0,0,0],[2,0],[3]]","4","[[3,1,0],[2,0],[0]]","16","0","","","","","","5","","","","","","","","",""
"","","","","","single-stim-button","260","516088","0.0-2.0-59.3-1.3","5af9fab60a7ecb00011820b8","E1","batch5","","867","tol_toboard","","","","tol_peg_2","867","867","0","[[0,0,0],[2,1],[3]]","4","[[3,1,0],[2,0],[0]]","16","0","","","","","","5","","","","","","","","",""
"","","","","","single-stim-button","261","516799","0.0-2.0-59.4-0.4","5af9fab60a7ecb00011820b8","E1","batch5","","709","tol_tohand","","","","tol_peg_3","709","709","0","[[0,0,0],[2,1],[0]]","5","[[3,1,0],[2,0],[0]]","16","0","","","","","","5","","","","","","","","",""
"","","","","","single-stim-button","262","517826","0.0-2.0-59.4-1.4","5af9fab60a7ecb00011820b8","E1","batch5","","1024","tol_toboard","","","","tol_peg_1","1024","1024","0","[[3,0,0],[2,1],[0]]","5","[[3,1,0],[2,0],[0]]","16","0","","","","","","5","","","","","","","","",""
"","","","","","single-stim-button","263","518730","0.0-2.0-59.5-0.5","5af9fab60a7ecb00011820b8","E1","batch5","","902","tol_tohand","","","","tol_peg_2","902","902","0","[[3,0,0],[2,0],[0]]","6","[[3,1,0],[2,0],[0]]","16","0","","","","","","5","","","","","","","","",""
"","","","","","single-stim-button","264","519593","0.0-2.0-59.5-1.5","5af9fab60a7ecb00011820b8","E1","batch5","","860","tol_toboard","","","","tol_peg_1","860","860","0","[[3,1,0],[2,0],[0]]","6","[[3,1,0],[2,0],[0]]","16","0","","","","","","5","","","","","","","","",""
"","","","","","poldrack-single-stim","265","520598","0.0-2.0-60.0","5af9fab60a7ecb00011820b8","E1","batch5","","-1","tol_feedback","","","true","","1000","1000","500","","","","","","-1","none","true","3353","8593","","","","","","","","","",""
"","","","","","html-button-response","266","522008","0.0-2.0-61.0","5af9fab60a7ecb00011820b8","E1","batch5","","1407.8999996185303","tol_trial_num","<div class = centerbox><p class = center-block-text>problem <strong>18</strong> out of 25 problems</p></div>","0","","","","","","","","","","","","","","","","","","","","","","","","",""
"","","","","","single-stim-button","267","526084","0.0-2.0-62.0-0.0","5af9fab60a7ecb00011820b8","E1","batch5","","4072","tol_tohand","","","","tol_peg_1","4072","4072","0","[[1,0,0],[3,0],[0]]","1","[[3,0,0],[2,0],[1]]","17","0","","","","","","5","","","","","","","","",""
"","","","","","single-stim-button","268","528135","0.0-2.0-62.0-1.0","5af9fab60a7ecb00011820b8","E1","batch5","","2048","tol_toboard","","","","tol_peg_2","2048","2048","0","[[1,0,0],[3,2],[0]]","1","[[3,0,0],[2,0],[1]]","17","0","","","","","","5","","","","","","","","",""
"","","","","","single-stim-button","269","528894","0.0-2.0-62.1-0.1","5af9fab60a7ecb00011820b8","E1","batch5","","755","tol_tohand","","","","tol_peg_1","755","755","0","[[0,0,0],[3,2],[0]]","2","[[3,0,0],[2,0],[1]]","17","0","","","","","","5","","","","","","","","",""
"","","","","","single-stim-button","270","529968","0.0-2.0-62.1-1.1","5af9fab60a7ecb00011820b8","E1","batch5","","1072","tol_toboard","","","","tol_peg_3","1072","1072","0","[[0,0,0],[3,2],[1]]","2","[[3,0,0],[2,0],[1]]","17","0","","","","","","5","","","","","","","","",""
"","","","","","single-stim-button","271","532485","0.0-2.0-62.2-0.2","5af9fab60a7ecb00011820b8","E1","batch5","","2515","tol_tohand","","","","tol_peg_2","2515","2515","0","[[0,0,0],[3,0],[1]]","3","[[3,0,0],[2,0],[1]]","17","0","","","","","","5","","","","","","","","",""
"","","","","","single-stim-button","272","535680","0.0-2.0-62.2-1.2","5af9fab60a7ecb00011820b8","E1","batch5","","3193","tol_toboard","","","","tol_peg_1","3193","3193","0","[[2,0,0],[3,0],[1]]","3","[[3,0,0],[2,0],[1]]","17","0","","","","","","5","","","","","","","","",""
"","","","","","single-stim-button","273","536551","0.0-2.0-62.3-0.3","5af9fab60a7ecb00011820b8","E1","batch5","","868","tol_tohand","","","","tol_peg_2","868","868","0","[[2,0,0],[0,0],[1]]","4","[[3,0,0],[2,0],[1]]","17","0","","","","","","5","","","","","","","","",""
"","","","","","single-stim-button","274","538072","0.0-2.0-62.3-1.3","5af9fab60a7ecb00011820b8","E1","batch5","","1518","tol_toboard","","","","tol_peg_1","1518","1518","0","[[2,3,0],[0,0],[1]]","4","[[3,0,0],[2,0],[1]]","17","0","","","","","","5","","","","","","","","",""
"","","","","","single-stim-button","275","538484","0.0-2.0-62.4-0.4","5af9fab60a7ecb00011820b8","E1","batch5","","409","tol_tohand","","","","tol_peg_1","409","409","0","[[2,0,0],[0,0],[1]]","5","[[3,0,0],[2,0],[1]]","17","0","","","","","","5","","","","","","","","",""
"","","","","","single-stim-button","276","539177","0.0-2.0-62.4-1.4","5af9fab60a7ecb00011820b8","E1","batch5","","691","tol_toboard","","","","tol_peg_1","691","691","0","[[2,3,0],[0,0],[1]]","5","[[3,0,0],[2,0],[1]]","17","0","","","","","","5","","","","","","","","",""
"","","","","","single-stim-button","277","540289","0.0-2.0-62.5-0.5","5af9fab60a7ecb00011820b8","E1","batch5","","1109","tol_tohand","","","","tol_peg_3","1109","1109","0","[[2,3,0],[0,0],[0]]","6","[[3,0,0],[2,0],[1]]","17","0","","","","","","5","","","","","","","","",""
"","","","","","single-stim-button","278","541363","0.0-2.0-62.5-1.5","5af9fab60a7ecb00011820b8","E1","batch5","","1071","tol_toboard","","","","tol_peg_2","1071","1071","0","[[2,3,0],[1,0],[0]]","6","[[3,0,0],[2,0],[1]]","17","0","","","","","","5","","","","","","","","",""
"","","","","","single-stim-button","279","542761","0.0-2.0-62.6-0.6","5af9fab60a7ecb00011820b8","E1","batch5","","1395","tol_tohand","","","","tol_peg_1","1395","1395","0","[[2,0,0],[1,0],[0]]","7","[[3,0,0],[2,0],[1]]","17","0","","","","","","5","","","","","","","","",""
"","","","","","single-stim-button","280","543947","0.0-2.0-62.6-1.6","5af9fab60a7ecb00011820b8","E1","batch5","","1184","tol_toboard","","","","tol_peg_3","1184","1184","0","[[2,0,0],[1,0],[3]]","7","[[3,0,0],[2,0],[1]]","17","0","","","","","","5","","","","","","","","",""
"","","","","","single-stim-button","281","545181","0.0-2.0-62.7-0.7","5af9fab60a7ecb00011820b8","E1","batch5","","1232","tol_tohand","","","","tol_peg_1","1232","1232","0","[[0,0,0],[1,0],[3]]","8","[[3,0,0],[2,0],[1]]","17","0","","","","","","5","","","","","","","","",""
"","","","","","single-stim-button","282","546059","0.0-2.0-62.7-1.7","5af9fab60a7ecb00011820b8","E1","batch5","","875","tol_toboard","","","","tol_peg_2","875","875","0","[[0,0,0],[1,2],[3]]","8","[[3,0,0],[2,0],[1]]","17","0","","","","","","5","","","","","","","","",""
"","","","","","single-stim-button","283","546939","0.0-2.0-62.8-0.8","5af9fab60a7ecb00011820b8","E1","batch5","","877","tol_tohand","","","","tol_peg_3","877","877","0","[[0,0,0],[1,2],[0]]","9","[[3,0,0],[2,0],[1]]","17","0","","","","","","5","","","","","","","","",""
"","","","","","single-stim-button","284","547998","0.0-2.0-62.8-1.8","5af9fab60a7ecb00011820b8","E1","batch5","","1056","tol_toboard","","","","tol_peg_1","1056","1056","0","[[3,0,0],[1,2],[0]]","9","[[3,0,0],[2,0],[1]]","17","0","","","","","","5","","","","","","","","",""
"","","","","","single-stim-button","285","548925","0.0-2.0-62.9-0.9","5af9fab60a7ecb00011820b8","E1","batch5","","923","tol_tohand","","","","tol_peg_2","923","923","0","[[3,0,0],[1,0],[0]]","10","[[3,0,0],[2,0],[1]]","17","0","","","","","","5","","","","","","","","",""
"","","","","","single-stim-button","286","549853","0.0-2.0-62.9-1.9","5af9fab60a7ecb00011820b8","E1","batch5","","925","tol_toboard","","","","tol_peg_3","925","925","0","[[3,0,0],[1,0],[2]]","10","[[3,0,0],[2,0],[1]]","17","0","","","","","","5","","","","","","","","",""
"","","","","","single-stim-button","287","550664","0.0-2.0-62.10-0.10","5af9fab60a7ecb00011820b8","E1","batch5","","809","tol_tohand","","","","tol_peg_2","809","809","0","[[3,0,0],[0,0],[2]]","11","[[3,0,0],[2,0],[1]]","17","0","","","","","","5","","","","","","","","",""
"","","","","","single-stim-button","288","553066","0.0-2.0-62.10-1.10","5af9fab60a7ecb00011820b8","E1","batch5","","2399","tol_toboard","","","","tol_peg_1","2399","2399","0","[[3,1,0],[0,0],[2]]","11","[[3,0,0],[2,0],[1]]","17","0","","","","","","5","","","","","","","","",""
"","","","","","single-stim-button","289","553896","0.0-2.0-62.11-0.11","5af9fab60a7ecb00011820b8","E1","batch5","","828","tol_tohand","","","","tol_peg_3","828","828","0","[[3,1,0],[0,0],[0]]","12","[[3,0,0],[2,0],[1]]","17","0","","","","","","5","","","","","","","","",""
"","","","","","single-stim-button","290","555072","0.0-2.0-62.11-1.11","5af9fab60a7ecb00011820b8","E1","batch5","","1174","tol_toboard","","","","tol_peg_2","1174","1174","0","[[3,1,0],[2,0],[0]]","12","[[3,0,0],[2,0],[1]]","17","0","","","","","","5","","","","","","","","",""
"","","","","","single-stim-button","291","555916","0.0-2.0-62.12-0.12","5af9fab60a7ecb00011820b8","E1","batch5","","844","tol_tohand","","","","tol_peg_1","844","844","0","[[3,0,0],[2,0],[0]]","13","[[3,0,0],[2,0],[1]]","17","0","","","","","","5","","","","","","","","",""
"","","","","","single-stim-button","292","557126","0.0-2.0-62.12-1.12","5af9fab60a7ecb00011820b8","E1","batch5","","1208","tol_toboard","","","","tol_peg_3","1208","1208","0","[[3,0,0],[2,0],[1]]","13","[[3,0,0],[2,0],[1]]","17","0","","","","","","5","","","","","","","","",""
"","","","","","poldrack-single-stim","293","558143","0.0-2.0-63.0","5af9fab60a7ecb00011820b8","E1","batch5","","-1","tol_feedback","","","true","","1000","1000","500","","","","","","-1","none","true","4072","16636","","","","","","","","","",""
"","","","","","html-button-response","294","561441","0.0-2.0-64.0","5af9fab60a7ecb00011820b8","E1","batch5","","3295.7999992370605","tol_trial_num","<div class = centerbox><p class = center-block-text>problem <strong>19</strong> out of 25 problems</p></div>","0","","","","","","","","","","","","","","","","","","","","","","","","",""
"","","","","","single-stim-button","295","563454","0.0-2.0-65.0-0.0","5af9fab60a7ecb00011820b8","E1","batch5","","2009","tol_tohand","","","","tol_peg_2","2009","2009","0","[[1,2,0],[0,0],[0]]","1","[[0,0,0],[1,2],[3]]","18","0","","","","","","7","","","","","","","","",""
"","","","","","single-stim-button","296","566474","0.0-2.0-65.0-1.0","5af9fab60a7ecb00011820b8","E1","batch5","","3019","tol_toboard","","","","tol_peg_3","3019","3019","0","[[1,2,0],[0,0],[3]]","1","[[0,0,0],[1,2],[3]]","18","0","","","","","","7","","","","","","","","",""
"","","","","","single-stim-button","297","569274","0.0-2.0-65.1-0.1","5af9fab60a7ecb00011820b8","E1","batch5","","2799","tol_tohand","","","","tol_peg_1","2799","2799","0","[[1,0,0],[0,0],[3]]","2","[[0,0,0],[1,2],[3]]","18","0","","","","","","7","","","","","","","","",""
"","","","","","single-stim-button","298","571757","0.0-2.0-65.1-1.1","5af9fab60a7ecb00011820b8","E1","batch5","","2481","tol_toboard","","","","tol_peg_2","2481","2481","0","[[1,0,0],[2,0],[3]]","2","[[0,0,0],[1,2],[3]]","18","0","","","","","","7","","","","","","","","",""
"","","","","","single-stim-button","299","573525","0.0-2.0-65.2-0.2","5af9fab60a7ecb00011820b8","E1","batch5","","1764","tol_tohand","","","","tol_peg_1","1764","1764","0","[[0,0,0],[2,0],[3]]","3","[[0,0,0],[1,2],[3]]","18","0","","","","","","7","","","","","","","","",""
"","","","","","single-stim-button","300","574506","0.0-2.0-65.2-1.2","5af9fab60a7ecb00011820b8","E1","batch5","","980","tol_toboard","","","","tol_peg_2","980","980","0","[[0,0,0],[2,1],[3]]","3","[[0,0,0],[1,2],[3]]","18","0","","","","","","7","","","","","","","","",""
"","","","","","single-stim-button","301","575554","0.0-2.0-65.3-0.3","5af9fab60a7ecb00011820b8","E1","batch5","","1047","tol_tohand","","","","tol_peg_3","1047","1047","0","[[0,0,0],[2,1],[0]]","4","[[0,0,0],[1,2],[3]]","18","0","","","","","","7","","","","","","","","",""
"","","","","","single-stim-button","302","576278","0.0-2.0-65.3-1.3","5af9fab60a7ecb00011820b8","E1","batch5","","722","tol_toboard","","","","tol_peg_1","722","722","0","[[3,0,0],[2,1],[0]]","4","[[0,0,0],[1,2],[3]]","18","0","","","","","","7","","","","","","","","",""
"","","","","","single-stim-button","303","576499","0.0-2.0-65.4-0.4","5af9fab60a7ecb00011820b8","E1","batch5","","218","tol_tohand","","","","tol_peg_1","218","218","0","[[0,0,0],[2,1],[0]]","5","[[0,0,0],[1,2],[3]]","18","0","","","","","","7","","","","","","","","",""
"","","","","","single-stim-button","304","577763","0.0-2.0-65.4-1.4","5af9fab60a7ecb00011820b8","E1","batch5","","1262","tol_toboard","","","","tol_peg_1","1262","1262","0","[[3,0,0],[2,1],[0]]","5","[[0,0,0],[1,2],[3]]","18","0","","","","","","7","","","","","","","","",""
"","","","","","single-stim-button","305","578681","0.0-2.0-65.5-0.5","5af9fab60a7ecb00011820b8","E1","batch5","","915","tol_tohand","","","","tol_peg_2","915","915","0","[[3,0,0],[2,0],[0]]","6","[[0,0,0],[1,2],[3]]","18","0","","","","","","7","","","","","","","","",""
"","","","","","single-stim-button","306","579557","0.0-2.0-65.5-1.5","5af9fab60a7ecb00011820b8","E1","batch5","","874","tol_toboard","","","","tol_peg_3","874","874","0","[[3,0,0],[2,0],[1]]","6","[[0,0,0],[1,2],[3]]","18","0","","","","","","7","","","","","","","","",""
"","","","","","single-stim-button","307","580413","0.0-2.0-65.6-0.6","5af9fab60a7ecb00011820b8","E1","batch5","","853","tol_tohand","","","","tol_peg_2","853","853","0","[[3,0,0],[0,0],[1]]","7","[[0,0,0],[1,2],[3]]","18","0","","","","","","7","","","","","","","","",""
"","","","","","single-stim-button","308","583087","0.0-2.0-65.6-1.6","5af9fab60a7ecb00011820b8","E1","batch5","","2672","tol_toboard","","","","tol_peg_1","2672","2672","0","[[3,2,0],[0,0],[1]]","7","[[0,0,0],[1,2],[3]]","18","0","","","","","","7","","","","","","","","",""
"","","","","","single-stim-button","309","584152","0.0-2.0-65.7-0.7","5af9fab60a7ecb00011820b8","E1","batch5","","1061","tol_tohand","","","","tol_peg_3","1061","1061","0","[[3,2,0],[0,0],[0]]","8","[[0,0,0],[1,2],[3]]","18","0","","","","","","7","","","","","","","","",""
"","","","","","single-stim-button","310","585300","0.0-2.0-65.7-1.7","5af9fab60a7ecb00011820b8","E1","batch5","","1144","tol_toboard","","","","tol_peg_2","1144","1144","0","[[3,2,0],[1,0],[0]]","8","[[0,0,0],[1,2],[3]]","18","0","","","","","","7","","","","","","","","",""
"","","","","","single-stim-button","311","586049","0.0-2.0-65.8-0.8","5af9fab60a7ecb00011820b8","E1","batch5","","746","tol_tohand","","","","tol_peg_1","746","746","0","[[3,0,0],[1,0],[0]]","9","[[0,0,0],[1,2],[3]]","18","0","","","","","","7","","","","","","","","",""
"","","","","","single-stim-button","312","586850","0.0-2.0-65.8-1.8","5af9fab60a7ecb00011820b8","E1","batch5","","798","tol_toboard","","","","tol_peg_2","798","798","0","[[3,0,0],[1,2],[0]]","9","[[0,0,0],[1,2],[3]]","18","0","","","","","","7","","","","","","","","",""
"","","","","","single-stim-button","313","587606","0.0-2.0-65.9-0.9","5af9fab60a7ecb00011820b8","E1","batch5","","754","tol_tohand","","","","tol_peg_1","754","754","0","[[0,0,0],[1,2],[0]]","10","[[0,0,0],[1,2],[3]]","18","0","","","","","","7","","","","","","","","",""
"","","","","","single-stim-button","314","588804","0.0-2.0-65.9-1.9","5af9fab60a7ecb00011820b8","E1","batch5","","1198","tol_toboard","","","","tol_peg_3","1198","1198","0","[[0,0,0],[1,2],[3]]","10","[[0,0,0],[1,2],[3]]","18","0","","","","","","7","","","","","","","","",""
"","","","","","poldrack-single-stim","315","589812","0.0-2.0-66.0","5af9fab60a7ecb00011820b8","E1","batch5","","-1","tol_feedback","","","true","","1000","1000","500","","","","","","-1","none","true","2009","12166","","","","","","","","","",""
"","","","","","html-button-response","316","590862","0.0-2.0-67.0","5af9fab60a7ecb00011820b8","E1","batch5","","1048.1000003814697","tol_trial_num","<div class = centerbox><p class = center-block-text>problem <strong>20</strong> out of 25 problems</p></div>","0","","","","","","","","","","","","","","","","","","","","","","","","",""
"","","","","","single-stim-button","317","599890","0.0-2.0-68.0-0.0","5af9fab60a7ecb00011820b8","E1","batch5","","9025","tol_tohand","","","","tol_peg_1","9025","9025","0","[[1,0,0],[3,0],[0]]","1","[[2,1,0],[0,0],[3]]","19","0","","","","","","5","","","","","","","","",""
"","","","","","single-stim-button","318","601124","0.0-2.0-68.0-1.0","5af9fab60a7ecb00011820b8","E1","batch5","","1231","tol_toboard","","","","tol_peg_2","1231","1231","0","[[1,0,0],[3,2],[0]]","1","[[2,1,0],[0,0],[3]]","19","0","","","","","","5","","","","","","","","",""
"","","","","","single-stim-button","319","601909","0.0-2.0-68.1-0.1","5af9fab60a7ecb00011820b8","E1","batch5","","782","tol_tohand","","","","tol_peg_1","782","782","0","[[0,0,0],[3,2],[0]]","2","[[2,1,0],[0,0],[3]]","19","0","","","","","","5","","","","","","","","",""
"","","","","","single-stim-button","320","603322","0.0-2.0-68.1-1.1","5af9fab60a7ecb00011820b8","E1","batch5","","1410","tol_toboard","","","","tol_peg_3","1410","1410","0","[[0,0,0],[3,2],[1]]","2","[[2,1,0],[0,0],[3]]","19","0","","","","","","5","","","","","","","","",""
"","","","","","single-stim-button","321","604222","0.0-2.0-68.2-0.2","5af9fab60a7ecb00011820b8","E1","batch5","","899","tol_tohand","","","","tol_peg_2","899","899","0","[[0,0,0],[3,0],[1]]","3","[[2,1,0],[0,0],[3]]","19","0","","","","","","5","","","","","","","","",""
"","","","","","single-stim-button","322","605363","0.0-2.0-68.2-1.2","5af9fab60a7ecb00011820b8","E1","batch5","","1139","tol_toboard","","","","tol_peg_1","1139","1139","0","[[2,0,0],[3,0],[1]]","3","[[2,1,0],[0,0],[3]]","19","0","","","","","","5","","","","","","","","",""
"","","","","","single-stim-button","323","606523","0.0-2.0-68.3-0.3","5af9fab60a7ecb00011820b8","E1","batch5","","1157","tol_tohand","","","","tol_peg_3","1157","1157","0","[[2,0,0],[3,0],[0]]","4","[[2,1,0],[0,0],[3]]","19","0","","","","","","5","","","","","","","","",""
"","","","","","single-stim-button","324","607524","0.0-2.0-68.3-1.3","5af9fab60a7ecb00011820b8","E1","batch5","","999","tol_toboard","","","","tol_peg_1","999","999","0","[[2,1,0],[3,0],[0]]","4","[[2,1,0],[0,0],[3]]","19","0","","","","","","5","","","","","","","","",""
"","","","","","single-stim-button","325","608258","0.0-2.0-68.4-0.4","5af9fab60a7ecb00011820b8","E1","batch5","","731","tol_tohand","","","","tol_peg_2","731","731","0","[[2,1,0],[0,0],[0]]","5","[[2,1,0],[0,0],[3]]","19","0","","","","","","5","","","","","","","","",""
"","","","","","single-stim-button","326","609129","0.0-2.0-68.4-1.4","5af9fab60a7ecb00011820b8","E1","batch5","","868","tol_toboard","","","","tol_peg_3","868","868","0","[[2,1,0],[0,0],[3]]","5","[[2,1,0],[0,0],[3]]","19","0","","","","","","5","","","","","","","","",""
"","","","","","poldrack-single-stim","327","610137","0.0-2.0-69.0","5af9fab60a7ecb00011820b8","E1","batch5","","-1","tol_feedback","","","true","","1000","1000","500","","","","","","-1","none","true","9025","12594","","","","","","","","","",""
"","","","","","html-button-response","328","611639","0.0-2.0-70.0","5af9fab60a7ecb00011820b8","E1","batch5","","1500.6000003814697","tol_trial_num","<div class = centerbox><p class = center-block-text>problem <strong>21</strong> out of 25 problems</p></div>","0","","","","","","","","","","","","","","","","","","","","","","","","",""
"","","","","","single-stim-button","329","618848","0.0-2.0-71.0-0.0","5af9fab60a7ecb00011820b8","E1","batch5","","7205","tol_tohand","","","","tol_peg_1","7205","7205","0","[[1,0,0],[3,0],[0]]","1","[[3,2,0],[0,0],[1]]","20","0","","","","","","6","","","","","","","","",""
"","","","","","single-stim-button","330","630996","0.0-2.0-71.0-1.0","5af9fab60a7ecb00011820b8","E1","batch5","","12145","tol_toboard","","","","tol_peg_1","12145","12145","0","[[1,2,0],[3,0],[0]]","1","[[3,2,0],[0,0],[1]]","20","0","","","","","","6","","","","","","","","",""
"","","","","","single-stim-button","331","631947","0.0-2.0-71.1-0.1","5af9fab60a7ecb00011820b8","E1","batch5","","948","tol_tohand","","","","tol_peg_2","948","948","0","[[1,2,0],[0,0],[0]]","2","[[3,2,0],[0,0],[1]]","20","0","","","","","","6","","","","","","","","",""
"","","","","","single-stim-button","332","633295","0.0-2.0-71.1-1.1","5af9fab60a7ecb00011820b8","E1","batch5","","1346","tol_toboard","","","","tol_peg_3","1346","1346","0","[[1,2,0],[0,0],[3]]","2","[[3,2,0],[0,0],[1]]","20","0","","","","","","6","","","","","","","","",""
"","","","","","single-stim-button","333","635335","0.0-2.0-71.2-0.2","5af9fab60a7ecb00011820b8","E1","batch5","","2039","tol_tohand","","","","tol_peg_1","2039","2039","0","[[1,0,0],[0,0],[3]]","3","[[3,2,0],[0,0],[1]]","20","0","","","","","","6","","","","","","","","",""
"","","","","","single-stim-button","334","636528","0.0-2.0-71.2-1.2","5af9fab60a7ecb00011820b8","E1","batch5","","1190","tol_toboard","","","","tol_peg_2","1190","1190","0","[[1,0,0],[2,0],[3]]","3","[[3,2,0],[0,0],[1]]","20","0","","","","","","6","","","","","","","","",""
"","","","","","single-stim-button","335","637881","0.0-2.0-71.3-0.3","5af9fab60a7ecb00011820b8","E1","batch5","","1349","tol_tohand","","","","tol_peg_1","1349","1349","0","[[0,0,0],[2,0],[3]]","4","[[3,2,0],[0,0],[1]]","20","0","","","","","","6","","","","","","","","",""
"","","","","","single-stim-button","336","638715","0.0-2.0-71.3-1.3","5af9fab60a7ecb00011820b8","E1","batch5","","832","tol_toboard","","","","tol_peg_2","832","832","0","[[0,0,0],[2,1],[3]]","4","[[3,2,0],[0,0],[1]]","20","0","","","","","","6","","","","","","","","",""
"","","","","","single-stim-button","337","639485","0.0-2.0-71.4-0.4","5af9fab60a7ecb00011820b8","E1","batch5","","768","tol_tohand","","","","tol_peg_3","768","768","0","[[0,0,0],[2,1],[0]]","5","[[3,2,0],[0,0],[1]]","20","0","","","","","","6","","","","","","","","",""
"","","","","","single-stim-button","338","640573","0.0-2.0-71.4-1.4","5af9fab60a7ecb00011820b8","E1","batch5","","1087","tol_toboard","","","","tol_peg_1","1087","1087","0","[[3,0,0],[2,1],[0]]","5","[[3,2,0],[0,0],[1]]","20","0","","","","","","6","","","","","","","","",""
"","","","","","single-stim-button","339","641499","0.0-2.0-71.5-0.5","5af9fab60a7ecb00011820b8","E1","batch5","","924","tol_tohand","","","","tol_peg_2","924","924","0","[[3,0,0],[2,0],[0]]","6","[[3,2,0],[0,0],[1]]","20","0","","","","","","6","","","","","","","","",""
"","","","","","single-stim-button","340","642373","0.0-2.0-71.5-1.5","5af9fab60a7ecb00011820b8","E1","batch5","","871","tol_toboard","","","","tol_peg_3","871","871","0","[[3,0,0],[2,0],[1]]","6","[[3,2,0],[0,0],[1]]","20","0","","","","","","6","","","","","","","","",""
"","","","","","single-stim-button","341","643144","0.0-2.0-71.6-0.6","5af9fab60a7ecb00011820b8","E1","batch5","","768","tol_tohand","","","","tol_peg_2","768","768","0","[[3,0,0],[0,0],[1]]","7","[[3,2,0],[0,0],[1]]","20","0","","","","","","6","","","","","","","","",""
"","","","","","single-stim-button","342","643933","0.0-2.0-71.6-1.6","5af9fab60a7ecb00011820b8","E1","batch5","","787","tol_toboard","","","","tol_peg_1","787","787","0","[[3,2,0],[0,0],[1]]","7","[[3,2,0],[0,0],[1]]","20","0","","","","","","6","","","","","","","","",""
"","","","","","poldrack-single-stim","343","644938","0.0-2.0-72.0","5af9fab60a7ecb00011820b8","E1","batch5","","-1","tol_feedback","","","true","","1000","1000","500","","","","","","-1","none","true","7205","14001","","","","","","","","","",""
"","","","","","html-button-response","344","646140","0.0-2.0-73.0","5af9fab60a7ecb00011820b8","E1","batch5","","1200.3999996185303","tol_trial_num","<div class = centerbox><p class = center-block-text>problem <strong>22</strong> out of 25 problems</p></div>","0","","","","","","","","","","","","","","","","","","","","","","","","",""
"","","","","","single-stim-button","345","662798","0.0-2.0-74.0-0.0","5af9fab60a7ecb00011820b8","E1","batch5","","16653","tol_tohand","","","","tol_peg_2","16653","16653","0","[[1,0,0],[2,0],[0]]","1","[[0,0,0],[1,2],[3]]","21","0","","","","","","6","","","","","","","","",""
"","","","","","single-stim-button","346","667859","0.0-2.0-74.0-1.0","5af9fab60a7ecb00011820b8","E1","batch5","","5058","tol_toboard","","","","tol_peg_3","5058","5058","0","[[1,0,0],[2,0],[3]]","1","[[0,0,0],[1,2],[3]]","21","0","","","","","","6","","","","","","","","",""
"","","","","","single-stim-button","347","668838","0.0-2.0-74.1-0.1","5af9fab60a7ecb00011820b8","E1","batch5","","977","tol_tohand","","","","tol_peg_1","977","977","0","[[0,0,0],[2,0],[3]]","2","[[0,0,0],[1,2],[3]]","21","0","","","","","","6","","","","","","","","",""
"","","","","","single-stim-button","348","669843","0.0-2.0-74.1-1.1","5af9fab60a7ecb00011820b8","E1","batch5","","1002","tol_toboard","","","","tol_peg_2","1002","1002","0","[[0,0,0],[2,1],[3]]","2","[[0,0,0],[1,2],[3]]","21","0","","","","","","6","","","","","","","","",""
"","","","","","single-stim-button","349","670678","0.0-2.0-74.2-0.2","5af9fab60a7ecb00011820b8","E1","batch5","","832","tol_tohand","","","","tol_peg_3","832","832","0","[[0,0,0],[2,1],[0]]","3","[[0,0,0],[1,2],[3]]","21","0","","","","","","6","","","","","","","","",""
"","","","","","single-stim-button","350","672016","0.0-2.0-74.2-1.2","5af9fab60a7ecb00011820b8","E1","batch5","","1336","tol_toboard","","","","tol_peg_1","1336","1336","0","[[3,0,0],[2,1],[0]]","3","[[0,0,0],[1,2],[3]]","21","0","","","","","","6","","","","","","","","",""
"","","","","","single-stim-button","351","673146","0.0-2.0-74.3-0.3","5af9fab60a7ecb00011820b8","E1","batch5","","1127","tol_tohand","","","","tol_peg_2","1127","1127","0","[[3,0,0],[2,0],[0]]","4","[[0,0,0],[1,2],[3]]","21","0","","","","","","6","","","","","","","","",""
"","","","","","single-stim-button","352","674093","0.0-2.0-74.3-1.3","5af9fab60a7ecb00011820b8","E1","batch5","","946","tol_toboard","","","","tol_peg_3","946","946","0","[[3,0,0],[2,0],[1]]","4","[[0,0,0],[1,2],[3]]","21","0","","","","","","6","","","","","","","","",""
"","","","","","single-stim-button","353","674899","0.0-2.0-74.4-0.4","5af9fab60a7ecb00011820b8","E1","batch5","","803","tol_tohand","","","","tol_peg_2","803","803","0","[[3,0,0],[0,0],[1]]","5","[[0,0,0],[1,2],[3]]","21","0","","","","","","6","","","","","","","","",""
"","","","","","single-stim-button","354","675723","0.0-2.0-74.4-1.4","5af9fab60a7ecb00011820b8","E1","batch5","","822","tol_toboard","","","","tol_peg_1","822","822","0","[[3,2,0],[0,0],[1]]","5","[[0,0,0],[1,2],[3]]","21","0","","","","","","6","","","","","","","","",""
"","","","","","single-stim-button","355","676800","0.0-2.0-74.5-0.5","5af9fab60a7ecb00011820b8","E1","batch5","","1073","tol_tohand","","","","tol_peg_3","1073","1073","0","[[3,2,0],[0,0],[0]]","6","[[0,0,0],[1,2],[3]]","21","0","","","","","","6","","","","","","","","",""
