"success","timeout","failed_images","failed_audio","failed_video","trial_type","trial_index","time_elapsed","internal_node_id","subject_id","study_id","session_id","view_history","rt","task","stimulus","response","correct","mouse_click","stim_duration","block_duration","timing_post_trial","current_position","tol_num_moves_made","tol_target","tol_problem_id","tol_rt","key_press","possible_responses","tol_correct","preplanning","tol_rt_per_trial","tol_min_moves","answer","item","fiar_detect_rt","fiar_detect_correct","total_correct_fiar_detect","post_trial_gap","choices","spm_correct","spm_rt"
"true","false","[]","[]","[]","preload","0","14463","0.0-0.0","5b0481d17ac6e4000107e12a","C3","batch3","","","","","","","","","","","","","","","","","","","","","","","","","","","","","",""
"true","","","","","fullscreen","1","33442","0.0-1.0-0.0","5b0481d17ac6e4000107e12a","C3","batch3","","","","","","","","","","","","","","","","","","","","","","","","","","","","","",""
"true","","","","","fullscreen","2","37242","0.0-2.0-0.0","5b0481d17ac6e4000107e12a","C3","batch3","","","","","","","","","","","","","","","","","","","","","","","","","","","","","",""
"","","","","","instructions","3","110042","0.0-2.0-1.0-0.0-0.0","5b0481d17ac6e4000107e12a","C3","batch3","[{""page_index"":0,""viewing_time"":12942.100000023842},{""page_index"":1,""viewing_time"":14728.099999964237},{""page_index"":2,""viewing_time"":3616.400000035763},{""page_index"":3,""viewing_time"":9886.5},{""page_index"":4,""viewing_time"":11587.399999976158},{""page_index"":5,""viewing_time"":15388.600000023842},{""page_index"":6,""viewing_time"":4650.199999988079}]","72799.60000002384","tol-instructions","","","","","","","","","","","","","","","","","","","","","","","","","","",""
"","","","","","html-button-response","4","111622","0.0-2.0-1.0-1.0-0.0","5b0481d17ac6e4000107e12a","C3","batch3","","1579.5","tol_enter_quiz","<p class=block-text> Let's answer a few questions <br>","0","","","","","","","","","","","","","","","","","","","","","","","","",""
"","","","","","html-button-response","5","129457","0.0-2.0-1.0-1.0-1.0","5b0481d17ac6e4000107e12a","C3","batch3","","17833.899999976158","tol_quiz","<p class = block-text>True or False: You can only move the ball on top of a peg. <br></p>","0","true","","","","","","","","","","","","","","","","","","","","","","","",""
"","","","","","html-button-response","6","131361","0.0-2.0-1.0-1.0-2.0","5b0481d17ac6e4000107e12a","C3","batch3","","1903.5","tol_quiz_feedback","<p class = block-text>Correct! You can only move the ball on top of a peg.</p>","0","","","","","","","","","","","","","","","","","","","","","","","","",""
"","","","","","html-button-response","7","135090","0.0-2.0-1.0-1.0-3.0","5b0481d17ac6e4000107e12a","C3","batch3","","3728.599999964237","tol_quiz","<p class = block-text>True or False: You should try to match your board with the target board with fewest moves possible. <br></p>","0","true","","","","","","","","","","","","","","","","","","","","","","","",""
"","","","","","html-button-response","8","136083","0.0-2.0-1.0-1.0-4.0","5b0481d17ac6e4000107e12a","C3","batch3","","991.8999999761581","tol_quiz_feedback","<p class = block-text>Correct! </p>","0","","","","","","","","","","","","","","","","","","","","","","","","",""
"","","","","","html-button-response","9","140036","0.0-2.0-2.0","5b0481d17ac6e4000107e12a","C3","batch3","","3951.400000035763","","<p class=block-text> Now that you've understood the game, let's practice a few easier examples before we start!<br> <br>","0","","","","","","","","","","","","","","","","","","","","","","","","",""
"","","","","","single-stim-button","10","143623","0.0-2.0-3.0-0.0","5b0481d17ac6e4000107e12a","C3","batch3","","3587","tol_practice","","","","tol_peg_2","3587","3587","0","[[1,2,0],[0,0],[0]]","1","[[1,2,0],[0,0],[3]]","practice","3587","","","","","","","","","","","","","","",""
"","","","","","single-stim-button","11","146694","0.0-2.0-3.0-1.0","5b0481d17ac6e4000107e12a","C3","batch3","","3070","tol_practice","","","","tol_peg_3","3070","3070","0","[[1,2,0],[0,0],[3]]","1","[[1,2,0],[0,0],[3]]","practice","3070","","","","","","","","","","","","","","",""
"","","","","","poldrack-single-stim","12","147704","0.0-2.0-4.0","5b0481d17ac6e4000107e12a","C3","batch3","","-1","tol_feedback","","","true","","1000","1000","500","","","","","","-1","none","true","","0","","","","","","","","","",""
"","","","","","single-stim-button","13","155866","0.0-2.0-5.0-0.0","5b0481d17ac6e4000107e12a","C3","batch3","","8161","tol_practice","","","","tol_peg_1","8161","8161","0","[[1,0,0],[3,0],[0]]","2","[[0,0,0],[3,1],[2]]","practice","8161","","","","","","","","","","","","","","",""
"","","","","","single-stim-button","14","157396","0.0-2.0-5.0-1.0","5b0481d17ac6e4000107e12a","C3","batch3","","1529","tol_practice","","","","tol_peg_3","1529","1529","0","[[1,0,0],[3,0],[2]]","2","[[0,0,0],[3,1],[2]]","practice","1529","","","","","","","","","","","","","","",""
"","","","","","single-stim-button","15","158784","0.0-2.0-5.1-0.1","5b0481d17ac6e4000107e12a","C3","batch3","","1388","tol_practice","","","","tol_peg_1","1388","1388","0","[[0,0,0],[3,0],[2]]","3","[[0,0,0],[3,1],[2]]","practice","1388","","","","","","","","","","","","","","",""
"","","","","","single-stim-button","16","160091","0.0-2.0-5.1-1.1","5b0481d17ac6e4000107e12a","C3","batch3","","1307","tol_practice","","","","tol_peg_2","1307","1307","0","[[0,0,0],[3,1],[2]]","3","[[0,0,0],[3,1],[2]]","practice","1307","","","","","","","","","","","","","","",""
"","","","","","poldrack-single-stim","17","161101","0.0-2.0-6.0","5b0481d17ac6e4000107e12a","C3","batch3","","-1","tol_feedback","","","true","","1000","1000","500","","","","","","-1","none","true","","0","","","","","","","","","",""
"","","","","","single-stim-button","18","165239","0.0-2.0-7.0-0.0","5b0481d17ac6e4000107e12a","C3","batch3","","4137","tol_practice","","","","tol_peg_2","4137","4137","0","[[1,2,0],[0,0],[0]]","4","[[1,0,0],[2,0],[3]]","practice","4137","","","","","","","","","","","","","","",""
"","","","","","single-stim-button","19","166576","0.0-2.0-7.0-1.0","5b0481d17ac6e4000107e12a","C3","batch3","","1336","tol_practice","","","","tol_peg_3","1336","1336","0","[[1,2,0],[0,0],[3]]","4","[[1,0,0],[2,0],[3]]","practice","1336","","","","","","","","","","","","","","",""
"","","","","","single-stim-button","20","167408","0.0-2.0-7.1-0.1","5b0481d17ac6e4000107e12a","C3","batch3","","831","tol_practice","","","","tol_peg_1","831","831","0","[[1,0,0],[0,0],[3]]","5","[[1,0,0],[2,0],[3]]","practice","831","","","","","","","","","","","","","","",""
"","","","","","single-stim-button","21","168776","0.0-2.0-7.1-1.1","5b0481d17ac6e4000107e12a","C3","batch3","","1367","tol_practice","","","","tol_peg_2","1367","1367","0","[[1,0,0],[2,0],[3]]","5","[[1,0,0],[2,0],[3]]","practice","1367","","","","","","","","","","","","","","",""
"","","","","","poldrack-single-stim","22","169777","0.0-2.0-8.0","5b0481d17ac6e4000107e12a","C3","batch3","","-1","tol_feedback","","","true","","1000","1000","500","","","","","","-1","none","true","","0","","","","","","","","","",""
"","","","","","html-button-response","23","174187","0.0-2.0-9.0","5b0481d17ac6e4000107e12a","C3","batch3","","4410.199999988079","tol_instruction","<div class = centerbox><p class = center-block-text>Great job! You are done with practice trials<br>You are about to start official trials.<br> <br> Problem <strong>1</strong> out of 25 problems</p></div>","0","","","","","","","","","","","","","","","","","","","","","","","","",""
"","","","","","single-stim-button","24","181971","0.0-2.0-10.0-0.0","5b0481d17ac6e4000107e12a","C3","batch3","","6783","tol_tohand","","","","tol_peg_1","6783","6783","0","[[1,0,0],[3,0],[0]]","1","[[1,3,0],[2,0],[0]]","0","0","","","","","","3","","","","","","","","",""
"","","","","","single-stim-button","25","183157","0.0-2.0-10.0-1.0","5b0481d17ac6e4000107e12a","C3","batch3","","1186","tol_toboard","","","","tol_peg_3","1186","1186","0","[[1,0,0],[3,0],[2]]","1","[[1,3,0],[2,0],[0]]","0","0","","","","","","3","","","","","","","","",""
"","","","","","single-stim-button","26","184069","0.0-2.0-10.1-0.1","5b0481d17ac6e4000107e12a","C3","batch3","","912","tol_tohand","","","","tol_peg_2","912","912","0","[[1,0,0],[0,0],[2]]","2","[[1,3,0],[2,0],[0]]","0","0","","","","","","3","","","","","","","","",""
"","","","","","single-stim-button","27","185123","0.0-2.0-10.1-1.1","5b0481d17ac6e4000107e12a","C3","batch3","","1054","tol_toboard","","","","tol_peg_1","1054","1054","0","[[1,3,0],[0,0],[2]]","2","[[1,3,0],[2,0],[0]]","0","0","","","","","","3","","","","","","","","",""
"","","","","","single-stim-button","28","186005","0.0-2.0-10.2-0.2","5b0481d17ac6e4000107e12a","C3","batch3","","882","tol_tohand","","","","tol_peg_3","882","882","0","[[1,3,0],[0,0],[0]]","3","[[1,3,0],[2,0],[0]]","0","0","","","","","","3","","","","","","","","",""
"","","","","","single-stim-button","29","186988","0.0-2.0-10.2-1.2","5b0481d17ac6e4000107e12a","C3","batch3","","983","tol_toboard","","","","tol_peg_2","983","983","0","[[1,3,0],[2,0],[0]]","3","[[1,3,0],[2,0],[0]]","0","0","","","","","","3","","","","","","","","",""
"","","","","","poldrack-single-stim","30","187989","0.0-2.0-11.0","5b0481d17ac6e4000107e12a","C3","batch3","","-1","tol_feedback","","","true","","1000","1000","500","","","","","","-1","none","true","6783","8577","","","","","","","","","",""
"","","","","","html-button-response","31","189137","0.0-2.0-12.0","5b0481d17ac6e4000107e12a","C3","batch3","","1146.8999999761581","tol_trial_num","<div class = centerbox><p class = center-block-text>problem <strong>2</strong> out of 25 problems</p></div>","0","","","","","","","","","","","","","","","","","","","","","","","","",""
"","","","","","single-stim-button","32","193688","0.0-2.0-13.0-0.0","5b0481d17ac6e4000107e12a","C3","batch3","","4551","tol_tohand","","","","tol_peg_1","4551","4551","0","[[1,0,0],[3,0],[0]]","1","[[2,1,3],[0,0],[0]]","1","0","","","","","","5","","","","","","","","",""
"","","","","","single-stim-button","33","195816","0.0-2.0-13.0-1.0","5b0481d17ac6e4000107e12a","C3","batch3","","2128","tol_toboard","","","","tol_peg_3","2128","2128","0","[[1,0,0],[3,0],[2]]","1","[[2,1,3],[0,0],[0]]","1","0","","","","","","5","","","","","","","","",""
"","","","","","single-stim-button","34","197214","0.0-2.0-13.1-0.1","5b0481d17ac6e4000107e12a","C3","batch3","","1398","tol_tohand","","","","tol_peg_1","1398","1398","0","[[0,0,0],[3,0],[2]]","2","[[2,1,3],[0,0],[0]]","1","0","","","","","","5","","","","","","","","",""
"","","","","","single-stim-button","35","199526","0.0-2.0-13.1-1.1","5b0481d17ac6e4000107e12a","C3","batch3","","2311","tol_toboard","","","","tol_peg_1","2311","2311","0","[[1,0,0],[3,0],[2]]","2","[[2,1,3],[0,0],[0]]","1","0","","","","","","5","","","","","","","","",""
"","","","","","single-stim-button","36","200336","0.0-2.0-13.2-0.2","5b0481d17ac6e4000107e12a","C3","batch3","","810","tol_tohand","","","","tol_peg_2","810","810","0","[[1,0,0],[0,0],[2]]","3","[[2,1,3],[0,0],[0]]","1","0","","","","","","5","","","","","","","","",""
"","","","","","single-stim-button","37","204390","0.0-2.0-13.2-1.2","5b0481d17ac6e4000107e12a","C3","batch3","","4053","tol_toboard","","","","tol_peg_1","4053","4053","0","[[1,3,0],[0,0],[2]]","3","[[2,1,3],[0,0],[0]]","1","0","","","","","","5","","","","","","","","",""
"","","","","","single-stim-button","38","205647","0.0-2.0-13.3-0.3","5b0481d17ac6e4000107e12a","C3","batch3","","1257","tol_tohand","","","","tol_peg_1","1257","1257","0","[[1,0,0],[0,0],[2]]","4","[[2,1,3],[0,0],[0]]","1","0","","","","","","5","","","","","","","","",""
"","","","","","single-stim-button","39","207470","0.0-2.0-13.3-1.3","5b0481d17ac6e4000107e12a","C3","batch3","","1822","tol_toboard","","","","tol_peg_1","1822","1822","0","[[1,3,0],[0,0],[2]]","4","[[2,1,3],[0,0],[0]]","1","0","","","","","","5","","","","","","","","",""
"","","","","","single-stim-button","40","209294","0.0-2.0-13.4-0.4","5b0481d17ac6e4000107e12a","C3","batch3","","1824","tol_tohand","","","","tol_peg_3","1824","1824","0","[[1,3,0],[0,0],[0]]","5","[[2,1,3],[0,0],[0]]","1","0","","","","","","5","","","","","","","","",""
"","","","","","single-stim-button","41","210226","0.0-2.0-13.4-1.4","5b0481d17ac6e4000107e12a","C3","batch3","","932","tol_toboard","","","","tol_peg_2","932","932","0","[[1,3,0],[2,0],[0]]","5","[[2,1,3],[0,0],[0]]","1","0","","","","","","5","","","","","","","","",""
"","","","","","single-stim-button","42","211189","0.0-2.0-13.5-0.5","5b0481d17ac6e4000107e12a","C3","batch3","","963","tol_tohand","","","","tol_peg_1","963","963","0","[[1,0,0],[2,0],[0]]","6","[[2,1,3],[0,0],[0]]","1","0","","","","","","5","","","","","","","","",""
"","","","","","single-stim-button","43","212567","0.0-2.0-13.5-1.5","5b0481d17ac6e4000107e12a","C3","batch3","","1378","tol_toboard","","","","tol_peg_2","1378","1378","0","[[1,0,0],[2,3],[0]]","6","[[2,1,3],[0,0],[0]]","1","0","","","","","","5","","","","","","","","",""
"","","","","","single-stim-button","44","213215","0.0-2.0-13.6-0.6","5b0481d17ac6e4000107e12a","C3","batch3","","648","tol_tohand","","","","tol_peg_1","648","648","0","[[0,0,0],[2,3],[0]]","7","[[2,1,3],[0,0],[0]]","1","0","","","","","","5","","","","","","","","",""
"","","","","","single-stim-button","45","214563","0.0-2.0-13.6-1.6","5b0481d17ac6e4000107e12a","C3","batch3","","1348","tol_toboard","","","","tol_peg_3","1348","1348","0","[[0,0,0],[2,3],[1]]","7","[[2,1,3],[0,0],[0]]","1","0","","","","","","5","","","","","","","","",""
"","","","","","single-stim-button","46","218180","0.0-2.0-13.7-0.7","5b0481d17ac6e4000107e12a","C3","batch3","","3617","tol_tohand","","","","tol_peg_2","3617","3617","0","[[0,0,0],[2,0],[1]]","8","[[2,1,3],[0,0],[0]]","1","0","","","","","","5","","","","","","","","",""
"","","","","","single-stim-button","47","219032","0.0-2.0-13.7-1.7","5b0481d17ac6e4000107e12a","C3","batch3","","851","tol_toboard","","","","tol_peg_1","851","851","0","[[3,0,0],[2,0],[1]]","8","[[2,1,3],[0,0],[0]]","1","0","","","","","","5","","","","","","","","",""
"","","","","","single-stim-button","48","219822","0.0-2.0-13.8-0.8","5b0481d17ac6e4000107e12a","C3","batch3","","790","tol_tohand","","","","tol_peg_2","790","790","0","[[3,0,0],[0,0],[1]]","9","[[2,1,3],[0,0],[0]]","1","0","","","","","","5","","","","","","","","",""
"","","","","","single-stim-button","49","221819","0.0-2.0-13.8-1.8","5b0481d17ac6e4000107e12a","C3","batch3","","1997","tol_toboard","","","","tol_peg_2","1997","1997","0","[[3,0,0],[2,0],[1]]","9","[[2,1,3],[0,0],[0]]","1","0","","","","","","5","","","","","","","","",""
"","","","","","single-stim-button","50","227615","0.0-2.0-13.9-0.9","5b0481d17ac6e4000107e12a","C3","batch3","","5796","tol_tohand","","","","tol_peg_1","5796","5796","0","[[0,0,0],[2,0],[1]]","10","[[2,1,3],[0,0],[0]]","1","0","","","","","","5","","","","","","","","",""
"","","","","","single-stim-button","51","229136","0.0-2.0-13.9-1.9","5b0481d17ac6e4000107e12a","C3","batch3","","1520","tol_toboard","","","","tol_peg_1","1520","1520","0","[[3,0,0],[2,0],[1]]","10","[[2,1,3],[0,0],[0]]","1","0","","","","","","5","","","","","","","","",""
"","","","","","single-stim-button","52","232956","0.0-2.0-13.10-0.10","5b0481d17ac6e4000107e12a","C3","batch3","","3819","tol_tohand","","","","tol_peg_3","3819","3819","0","[[3,0,0],[2,0],[0]]","11","[[2,1,3],[0,0],[0]]","1","0","","","","","","5","","","","","","","","",""
"","","","","","single-stim-button","53","233685","0.0-2.0-13.10-1.10","5b0481d17ac6e4000107e12a","C3","batch3","","729","tol_toboard","","","","tol_peg_1","729","729","0","[[3,1,0],[2,0],[0]]","11","[[2,1,3],[0,0],[0]]","1","0","","","","","","5","","","","","","","","",""
"","","","","","single-stim-button","54","234678","0.0-2.0-13.11-0.11","5b0481d17ac6e4000107e12a","C3","batch3","","992","tol_tohand","","","","tol_peg_2","992","992","0","[[3,1,0],[0,0],[0]]","12","[[2,1,3],[0,0],[0]]","1","0","","","","","","5","","","","","","","","",""
"","","","","","single-stim-button","55","235459","0.0-2.0-13.11-1.11","5b0481d17ac6e4000107e12a","C3","batch3","","781","tol_toboard","","","","tol_peg_3","781","781","0","[[3,1,0],[0,0],[2]]","12","[[2,1,3],[0,0],[0]]","1","0","","","","","","5","","","","","","","","",""
"","","","","","single-stim-button","56","237405","0.0-2.0-13.12-0.12","5b0481d17ac6e4000107e12a","C3","batch3","","1945","tol_tohand","","","","tol_peg_1","1945","1945","0","[[3,0,0],[0,0],[2]]","13","[[2,1,3],[0,0],[0]]","1","0","","","","","","5","","","","","","","","",""
"","","","","","single-stim-button","57","238144","0.0-2.0-13.12-1.12","5b0481d17ac6e4000107e12a","C3","batch3","","739","tol_toboard","","","","tol_peg_2","739","739","0","[[3,0,0],[1,0],[2]]","13","[[2,1,3],[0,0],[0]]","1","0","","","","","","5","","","","","","","","",""
"","","","","","single-stim-button","58","239745","0.0-2.0-13.13-0.13","5b0481d17ac6e4000107e12a","C3","batch3","","1601","tol_tohand","","","","tol_peg_2","1601","1601","0","[[3,0,0],[0,0],[2]]","14","[[2,1,3],[0,0],[0]]","1","0","","","","","","5","","","","","","","","",""
"","","","","","single-stim-button","59","240749","0.0-2.0-13.13-1.13","5b0481d17ac6e4000107e12a","C3","batch3","","1004","tol_toboard","","","","tol_peg_1","1004","1004","0","[[3,1,0],[0,0],[2]]","14","[[2,1,3],[0,0],[0]]","1","0","","","","","","5","","","","","","","","",""
"","","","","","single-stim-button","60","241479","0.0-2.0-13.14-0.14","5b0481d17ac6e4000107e12a","C3","batch3","","730","tol_tohand","","","","tol_peg_3","730","730","0","[[3,1,0],[0,0],[0]]","15","[[2,1,3],[0,0],[0]]","1","0","","","","","","5","","","","","","","","",""
"","","","","","single-stim-button","61","242148","0.0-2.0-13.14-1.14","5b0481d17ac6e4000107e12a","C3","batch3","","668","tol_toboard","","","","tol_peg_1","668","668","0","[[3,1,2],[0,0],[0]]","15","[[2,1,3],[0,0],[0]]","1","0","","","","","","5","","","","","","","","",""
"","","","","","single-stim-button","62","243961","0.0-2.0-13.15-0.15","5b0481d17ac6e4000107e12a","C3","batch3","","1813","tol_tohand","","","","tol_peg_1","1813","1813","0","[[3,1,0],[0,0],[0]]","16","[[2,1,3],[0,0],[0]]","1","0","","","","","","5","","","","","","","","",""
"","","","","","single-stim-button","63","244924","0.0-2.0-13.15-1.15","5b0481d17ac6e4000107e12a","C3","batch3","","962","tol_toboard","","","","tol_peg_3","962","962","0","[[3,1,0],[0,0],[2]]","16","[[2,1,3],[0,0],[0]]","1","0","","","","","","5","","","","","","","","",""
"","","","","","single-stim-button","64","246495","0.0-2.0-13.16-0.16","5b0481d17ac6e4000107e12a","C3","batch3","","1570","tol_tohand","","","","tol_peg_1","1570","1570","0","[[3,0,0],[0,0],[2]]","17","[[2,1,3],[0,0],[0]]","1","0","","","","","","5","","","","","","","","",""
"","","","","","single-stim-button","65","247276","0.0-2.0-13.16-1.16","5b0481d17ac6e4000107e12a","C3","batch3","","781","tol_toboard","","","","tol_peg_2","781","781","0","[[3,0,0],[1,0],[2]]","17","[[2,1,3],[0,0],[0]]","1","0","","","","","","5","","","","","","","","",""
"","","","","","single-stim-button","66","247934","0.0-2.0-13.17-0.17","5b0481d17ac6e4000107e12a","C3","batch3","","658","tol_tohand","","","","tol_peg_1","658","658","0","[[0,0,0],[1,0],[2]]","18","[[2,1,3],[0,0],[0]]","1","0","","","","","","5","","","","","","","","",""
"","","","","","single-stim-button","67","248572","0.0-2.0-13.17-1.17","5b0481d17ac6e4000107e12a","C3","batch3","","638","tol_toboard","","","","tol_peg_2","638","638","0","[[0,0,0],[1,3],[2]]","18","[[2,1,3],[0,0],[0]]","1","0","","","","","","5","","","","","","","","",""
"","","","","","single-stim-button","68","249302","0.0-2.0-13.18-0.18","5b0481d17ac6e4000107e12a","C3","batch3","","729","tol_tohand","","","","tol_peg_3","729","729","0","[[0,0,0],[1,3],[0]]","19","[[2,1,3],[0,0],[0]]","1","0","","","","","","5","","","","","","","","",""
"","","","","","single-stim-button","69","250184","0.0-2.0-13.18-1.18","5b0481d17ac6e4000107e12a","C3","batch3","","882","tol_toboard","","","","tol_peg_1","882","882","0","[[2,0,0],[1,3],[0]]","19","[[2,1,3],[0,0],[0]]","1","0","","","","","","5","","","","","","","","",""
"","","","","","single-stim-button","70","251471","0.0-2.0-13.19-0.19","5b0481d17ac6e4000107e12a","C3","batch3","","1287","tol_tohand","","","","tol_peg_2","1287","1287","0","[[2,0,0],[1,0],[0]]","20","[[2,1,3],[0,0],[0]]","1","0","","","","","","5","","","","","","","","",""
"","","","","","single-stim-button","71","252221","0.0-2.0-13.19-1.19","5b0481d17ac6e4000107e12a","C3","batch3","","750","tol_toboard","","","","tol_peg_3","750","750","0","[[2,0,0],[1,0],[3]]","20","[[2,1,3],[0,0],[0]]","1","0","","","","","","5","","","","","","","","",""
"","","","","","single-stim-button","72","252830","0.0-2.0-13.20-0.20","5b0481d17ac6e4000107e12a","C3","batch3","","608","tol_tohand","","","","tol_peg_2","608","608","0","[[2,0,0],[0,0],[3]]","21","[[2,1,3],[0,0],[0]]","1","0","","","","","","5","","","","","","","","",""
"","","","","","single-stim-button","73","253924","0.0-2.0-13.20-1.20","5b0481d17ac6e4000107e12a","C3","batch3","","1094","tol_toboard","","","","tol_peg_1","1094","1094","0","[[2,1,0],[0,0],[3]]","21","[[2,1,3],[0,0],[0]]","1","0","","","","","","5","","","","","","","","",""
"","","","","","single-stim-button","74","254654","0.0-2.0-13.21-0.21","5b0481d17ac6e4000107e12a","C3","batch3","","730","tol_tohand","","","","tol_peg_3","730","730","0","[[2,1,0],[0,0],[0]]","22","[[2,1,3],[0,0],[0]]","1","0","","","","","","5","","","","","","","","",""
"","","","","","single-stim-button","75","255253","0.0-2.0-13.21-1.21","5b0481d17ac6e4000107e12a","C3","batch3","","597","tol_toboard","","","","tol_peg_1","597","597","0","[[2,1,3],[0,0],[0]]","22","[[2,1,3],[0,0],[0]]","1","0","","","","","","5","","","","","","","","",""
"","","","","","poldrack-single-stim","76","256254","0.0-2.0-14.0","5b0481d17ac6e4000107e12a","C3","batch3","","-1","tol_feedback","","","true","","1000","1000","500","","","","","","-1","none","true","4551","38136","","","","","","","","","",""
"","","","","","html-button-response","77","257533","0.0-2.0-15.0","5b0481d17ac6e4000107e12a","C3","batch3","","1278.3999999761581","tol_trial_num","<div class = centerbox><p class = center-block-text>problem <strong>3</strong> out of 25 problems</p></div>","0","","","","","","","","","","","","","","","","","","","","","","","","",""
"","","","","","single-stim-button","78","262278","0.0-2.0-16.0-0.0","5b0481d17ac6e4000107e12a","C3","batch3","","4745","tol_tohand","","","","tol_peg_1","4745","4745","0","[[2,0,0],[0,0],[1]]","1","[[1,2,0],[3,0],[0]]","2","0","","","","","","4","","","","","","","","",""
"","","","","","single-stim-button","79","263971","0.0-2.0-16.0-1.0","5b0481d17ac6e4000107e12a","C3","batch3","","1692","tol_toboard","","","","tol_peg_2","1692","1692","0","[[2,0,0],[3,0],[1]]","1","[[1,2,0],[3,0],[0]]","2","0","","","","","","4","","","","","","","","",""
"","","","","","single-stim-button","80","265441","0.0-2.0-16.1-0.1","5b0481d17ac6e4000107e12a","C3","batch3","","1470","tol_tohand","","","","tol_peg_1","1470","1470","0","[[0,0,0],[3,0],[1]]","2","[[1,2,0],[3,0],[0]]","2","0","","","","","","4","","","","","","","","",""
"","","","","","single-stim-button","81","266343","0.0-2.0-16.1-1.1","5b0481d17ac6e4000107e12a","C3","batch3","","902","tol_toboard","","","","tol_peg_2","902","902","0","[[0,0,0],[3,2],[1]]","2","[[1,2,0],[3,0],[0]]","2","0","","","","","","4","","","","","","","","",""
"","","","","","single-stim-button","82","267082","0.0-2.0-16.2-0.2","5b0481d17ac6e4000107e12a","C3","batch3","","739","tol_tohand","","","","tol_peg_3","739","739","0","[[0,0,0],[3,2],[0]]","3","[[1,2,0],[3,0],[0]]","2","0","","","","","","4","","","","","","","","",""
"","","","","","single-stim-button","83","267792","0.0-2.0-16.2-1.2","5b0481d17ac6e4000107e12a","C3","batch3","","709","tol_toboard","","","","tol_peg_1","709","709","0","[[1,0,0],[3,2],[0]]","3","[[1,2,0],[3,0],[0]]","2","0","","","","","","4","","","","","","","","",""
"","","","","","single-stim-button","84","268370","0.0-2.0-16.3-0.3","5b0481d17ac6e4000107e12a","C3","batch3","","577","tol_tohand","","","","tol_peg_2","577","577","0","[[1,0,0],[3,0],[0]]","4","[[1,2,0],[3,0],[0]]","2","0","","","","","","4","","","","","","","","",""
"","","","","","single-stim-button","85","269130","0.0-2.0-16.3-1.3","5b0481d17ac6e4000107e12a","C3","batch3","","760","tol_toboard","","","","tol_peg_1","760","760","0","[[1,2,0],[3,0],[0]]","4","[[1,2,0],[3,0],[0]]","2","0","","","","","","4","","","","","","","","",""
"","","","","","poldrack-single-stim","86","270131","0.0-2.0-17.0","5b0481d17ac6e4000107e12a","C3","batch3","","-1","tol_feedback","","","true","","1000","1000","500","","","","","","-1","none","true","4745","7531","","","","","","","","","",""
"","","","","","html-button-response","87","271076","0.0-2.0-18.0","5b0481d17ac6e4000107e12a","C3","batch3","","943.9000000357628","tol_trial_num","<div class = centerbox><p class = center-block-text>problem <strong>4</strong> out of 25 problems</p></div>","0","","","","","","","","","","","","","","","","","","","","","","","","",""
"","","","","","single-stim-button","88","275689","0.0-2.0-19.0-0.0","5b0481d17ac6e4000107e12a","C3","batch3","","4613","tol_tohand","","","","tol_peg_2","4613","4613","0","[[3,0,0],[2,0],[0]]","1","[[3,0,0],[1,0],[2]]","3","0","","","","","","3","","","","","","","","",""
"","","","","","single-stim-button","89","276420","0.0-2.0-19.0-1.0","5b0481d17ac6e4000107e12a","C3","batch3","","731","tol_toboard","","","","tol_peg_1","731","731","0","[[3,1,0],[2,0],[0]]","1","[[3,0,0],[1,0],[2]]","3","0","","","","","","3","","","","","","","","",""
"","","","","","single-stim-button","90","277697","0.0-2.0-19.1-0.1","5b0481d17ac6e4000107e12a","C3","batch3","","1277","tol_tohand","","","","tol_peg_2","1277","1277","0","[[3,1,0],[0,0],[0]]","2","[[3,0,0],[1,0],[2]]","3","0","","","","","","3","","","","","","","","",""
"","","","","","single-stim-button","91","278680","0.0-2.0-19.1-1.1","5b0481d17ac6e4000107e12a","C3","batch3","","983","tol_toboard","","","","tol_peg_3","983","983","0","[[3,1,0],[0,0],[2]]","2","[[3,0,0],[1,0],[2]]","3","0","","","","","","3","","","","","","","","",""
"","","","","","single-stim-button","92","279471","0.0-2.0-19.2-0.2","5b0481d17ac6e4000107e12a","C3","batch3","","791","tol_tohand","","","","tol_peg_1","791","791","0","[[3,0,0],[0,0],[2]]","3","[[3,0,0],[1,0],[2]]","3","0","","","","","","3","","","","","","","","",""
"","","","","","single-stim-button","93","280191","0.0-2.0-19.2-1.2","5b0481d17ac6e4000107e12a","C3","batch3","","720","tol_toboard","","","","tol_peg_2","720","720","0","[[3,0,0],[1,0],[2]]","3","[[3,0,0],[1,0],[2]]","3","0","","","","","","3","","","","","","","","",""
"","","","","","poldrack-single-stim","94","281193","0.0-2.0-20.0","5b0481d17ac6e4000107e12a","C3","batch3","","-1","tol_feedback","","","true","","1000","1000","500","","","","","","-1","none","true","4613","6681","","","","","","","","","",""
"","","","","","html-button-response","95","282350","0.0-2.0-21.0","5b0481d17ac6e4000107e12a","C3","batch3","","1156.0999999642372","tol_trial_num","<div class = centerbox><p class = center-block-text>problem <strong>5</strong> out of 25 problems</p></div>","0","","","","","","","","","","","","","","","","","","","","","","","","",""
"","","","","","single-stim-button","96","287550","0.0-2.0-22.0-0.0","5b0481d17ac6e4000107e12a","C3","batch3","","5200","tol_tohand","","","","tol_peg_2","5200","5200","0","[[1,0,0],[0,0],[3]]","1","[[0,0,0],[1,2],[3]]","4","0","","","","","","7","","","","","","","","",""
"","","","","","single-stim-button","97","288645","0.0-2.0-22.0-1.0","5b0481d17ac6e4000107e12a","C3","batch3","","1094","tol_toboard","","","","tol_peg_1","1094","1094","0","[[1,2,0],[0,0],[3]]","1","[[0,0,0],[1,2],[3]]","4","0","","","","","","7","","","","","","","","",""
"","","","","","single-stim-button","98","291463","0.0-2.0-22.1-0.1","5b0481d17ac6e4000107e12a","C3","batch3","","2818","tol_tohand","","","","tol_peg_3","2818","2818","0","[[1,2,0],[0,0],[0]]","2","[[0,0,0],[1,2],[3]]","4","0","","","","","","7","","","","","","","","",""
"","","","","","single-stim-button","99","294677","0.0-2.0-22.1-1.1","5b0481d17ac6e4000107e12a","C3","batch3","","3214","tol_toboard","","","","tol_peg_3","3214","3214","0","[[1,2,0],[0,0],[3]]","2","[[0,0,0],[1,2],[3]]","4","0","","","","","","7","","","","","","","","",""
"","","","","","single-stim-button","100","295700","0.0-2.0-22.2-0.2","5b0481d17ac6e4000107e12a","C3","batch3","","1023","tol_tohand","","","","tol_peg_1","1023","1023","0","[[1,0,0],[0,0],[3]]","3","[[0,0,0],[1,2],[3]]","4","0","","","","","","7","","","","","","","","",""
"","","","","","single-stim-button","101","304156","0.0-2.0-22.2-1.2","5b0481d17ac6e4000107e12a","C3","batch3","","8456","tol_toboard","","","","tol_peg_1","8456","8456","0","[[1,2,0],[0,0],[3]]","3","[[0,0,0],[1,2],[3]]","4","0","","","","","","7","","","","","","","","",""
"","","","","","single-stim-button","102","306255","0.0-2.0-22.3-0.3","5b0481d17ac6e4000107e12a","C3","batch3","","2098","tol_tohand","","","","tol_peg_1","2098","2098","0","[[1,0,0],[0,0],[3]]","4","[[0,0,0],[1,2],[3]]","4","0","","","","","","7","","","","","","","","",""
"","","","","","single-stim-button","103","307026","0.0-2.0-22.3-1.3","5b0481d17ac6e4000107e12a","C3","batch3","","770","tol_toboard","","","","tol_peg_2","770","770","0","[[1,0,0],[2,0],[3]]","4","[[0,0,0],[1,2],[3]]","4","0","","","","","","7","","","","","","","","",""
"","","","","","single-stim-button","104","307816","0.0-2.0-22.4-0.4","5b0481d17ac6e4000107e12a","C3","batch3","","789","tol_tohand","","","","tol_peg_1","789","789","0","[[0,0,0],[2,0],[3]]","5","[[0,0,0],[1,2],[3]]","4","0","","","","","","7","","","","","","","","",""
"","","","","","single-stim-button","105","308943","0.0-2.0-22.4-1.4","5b0481d17ac6e4000107e12a","C3","batch3","","1125","tol_toboard","","","","tol_peg_2","1125","1125","0","[[0,0,0],[2,1],[3]]","5","[[0,0,0],[1,2],[3]]","4","0","","","","","","7","","","","","","","","",""
"","","","","","single-stim-button","106","309804","0.0-2.0-22.5-0.5","5b0481d17ac6e4000107e12a","C3","batch3","","861","tol_tohand","","","","tol_peg_3","861","861","0","[[0,0,0],[2,1],[0]]","6","[[0,0,0],[1,2],[3]]","4","0","","","","","","7","","","","","","","","",""
"","","","","","single-stim-button","107","310615","0.0-2.0-22.5-1.5","5b0481d17ac6e4000107e12a","C3","batch3","","811","tol_toboard","","","","tol_peg_1","811","811","0","[[3,0,0],[2,1],[0]]","6","[[0,0,0],[1,2],[3]]","4","0","","","","","","7","","","","","","","","",""
"","","","","","single-stim-button","108","311284","0.0-2.0-22.6-0.6","5b0481d17ac6e4000107e12a","C3","batch3","","669","tol_tohand","","","","tol_peg_2","669","669","0","[[3,0,0],[2,0],[0]]","7","[[0,0,0],[1,2],[3]]","4","0","","","","","","7","","","","","","","","",""
"","","","","","single-stim-button","109","313252","0.0-2.0-22.6-1.6","5b0481d17ac6e4000107e12a","C3","batch3","","1968","tol_toboard","","","","tol_peg_3","1968","1968","0","[[3,0,0],[2,0],[1]]","7","[[0,0,0],[1,2],[3]]","4","0","","","","","","7","","","","","","","","",""
"","","","","","single-stim-button","110","313971","0.0-2.0-22.7-0.7","5b0481d17ac6e4000107e12a","C3","batch3","","719","tol_tohand","","","","tol_peg_1","719","719","0","[[0,0,0],[2,0],[1]]","8","[[0,0,0],[1,2],[3]]","4","0","","","","","","7","","","","","","","","",""
"","","","","","single-stim-button","111","314681","0.0-2.0-22.7-1.7","5b0481d17ac6e4000107e12a","C3","batch3","","709","tol_toboard","","","","tol_peg_2","709","709","0","[[0,0,0],[2,3],[1]]","8","[[0,0,0],[1,2],[3]]","4","0","","","","","","7","","","","","","","","",""
"","","","","","single-stim-button","112","316678","0.0-2.0-22.8-0.8","5b0481d17ac6e4000107e12a","C3","batch3","","1997","tol_tohand","","","","tol_peg_3","1997","1997","0","[[0,0,0],[2,3],[0]]","9","[[0,0,0],[1,2],[3]]","4","0","","","","","","7","","","","","","","","",""
"","","","","","single-stim-button","113","317449","0.0-2.0-22.8-1.8","5b0481d17ac6e4000107e12a","C3","batch3","","770","tol_toboard","","","","tol_peg_1","770","770","0","[[1,0,0],[2,3],[0]]","9","[[0,0,0],[1,2],[3]]","4","0","","","","","","7","","","","","","","","",""
"","","","","","single-stim-button","114","318116","0.0-2.0-22.9-0.9","5b0481d17ac6e4000107e12a","C3","batch3","","666","tol_tohand","","","","tol_peg_2","666","666","0","[[1,0,0],[2,0],[0]]","10","[[0,0,0],[1,2],[3]]","4","0","","","","","","7","","","","","","","","",""
"","","","","","single-stim-button","115","324587","0.0-2.0-22.9-1.9","5b0481d17ac6e4000107e12a","C3","batch3","","6470","tol_toboard","","","","tol_peg_1","6470","6470","0","[[1,3,0],[2,0],[0]]","10","[[0,0,0],[1,2],[3]]","4","0","","","","","","7","","","","","","","","",""
"","","","","","single-stim-button","116","325188","0.0-2.0-22.10-0.10","5b0481d17ac6e4000107e12a","C3","batch3","","601","tol_tohand","","","","tol_peg_2","601","601","0","[[1,3,0],[0,0],[0]]","11","[[0,0,0],[1,2],[3]]","4","0","","","","","","7","","","","","","","","",""
"","","","","","single-stim-button","117","325824","0.0-2.0-22.10-1.10","5b0481d17ac6e4000107e12a","C3","batch3","","636","tol_toboard","","","","tol_peg_1","636","636","0","[[1,3,2],[0,0],[0]]","11","[[0,0,0],[1,2],[3]]","4","0","","","","","","7","","","","","","","","",""
"","","","","","single-stim-button","118","326839","0.0-2.0-22.11-0.11","5b0481d17ac6e4000107e12a","C3","batch3","","1013","tol_tohand","","","","tol_peg_1","1013","1013","0","[[1,3,0],[0,0],[0]]","12","[[0,0,0],[1,2],[3]]","4","0","","","","","","7","","","","","","","","",""
"","","","","","single-stim-button","119","329252","0.0-2.0-22.11-1.11","5b0481d17ac6e4000107e12a","C3","batch3","","2412","tol_toboard","","","","tol_peg_3","2412","2412","0","[[1,3,0],[0,0],[2]]","12","[[0,0,0],[1,2],[3]]","4","0","","","","","","7","","","","","","","","",""
"","","","","","single-stim-button","120","332517","0.0-2.0-22.12-0.12","5b0481d17ac6e4000107e12a","C3","batch3","","3265","tol_tohand","","","","tol_peg_1","3265","3265","0","[[1,0,0],[0,0],[2]]","13","[[0,0,0],[1,2],[3]]","4","0","","","","","","7","","","","","","","","",""
"","","","","","single-stim-button","121","334423","0.0-2.0-22.12-1.12","5b0481d17ac6e4000107e12a","C3","batch3","","1906","tol_toboard","","","","tol_peg_1","1906","1906","0","[[1,3,0],[0,0],[2]]","13","[[0,0,0],[1,2],[3]]","4","0","","","","","","7","","","","","","","","",""
"","","","","","single-stim-button","122","336876","0.0-2.0-22.13-0.13","5b0481d17ac6e4000107e12a","C3","batch3","","2453","tol_tohand","","","","tol_peg_1","2453","2453","0","[[1,0,0],[0,0],[2]]","14","[[0,0,0],[1,2],[3]]","4","0","","","","","","7","","","","","","","","",""
"","","","","","single-stim-button","123","338022","0.0-2.0-22.13-1.13","5b0481d17ac6e4000107e12a","C3","batch3","","1145","tol_toboard","","","","tol_peg_2","1145","1145","0","[[1,0,0],[3,0],[2]]","14","[[0,0,0],[1,2],[3]]","4","0","","","","","","7","","","","","","","","",""
"","","","","","single-stim-button","124","339685","0.0-2.0-22.14-0.14","5b0481d17ac6e4000107e12a","C3","batch3","","1663","tol_tohand","","","","tol_peg_3","1663","1663","0","[[1,0,0],[3,0],[0]]","15","[[0,0,0],[1,2],[3]]","4","0","","","","","","7","","","","","","","","",""
"","","","","","single-stim-button","125","340365","0.0-2.0-22.14-1.14","5b0481d17ac6e4000107e12a","C3","batch3","","680","tol_toboard","","","","tol_peg_2","680","680","0","[[1,0,0],[3,2],[0]]","15","[[0,0,0],[1,2],[3]]","4","0","","","","","","7","","","","","","","","",""
"","","","","","single-stim-button","126","341116","0.0-2.0-22.15-0.15","5b0481d17ac6e4000107e12a","C3","batch3","","750","tol_tohand","","","","tol_peg_1","750","750","0","[[0,0,0],[3,2],[0]]","16","[[0,0,0],[1,2],[3]]","4","0","","","","","","7","","","","","","","","",""
"","","","","","single-stim-button","127","341947","0.0-2.0-22.15-1.15","5b0481d17ac6e4000107e12a","C3","batch3","","831","tol_toboard","","","","tol_peg_3","831","831","0","[[0,0,0],[3,2],[1]]","16","[[0,0,0],[1,2],[3]]","4","0","","","","","","7","","","","","","","","",""
"","","","","","single-stim-button","128","344971","0.0-2.0-22.16-0.16","5b0481d17ac6e4000107e12a","C3","batch3","","3023","tol_tohand","","","","tol_peg_2","3023","3023","0","[[0,0,0],[3,0],[1]]","17","[[0,0,0],[1,2],[3]]","4","0","","","","","","7","","","","","","","","",""
"","","","","","single-stim-button","129","345710","0.0-2.0-22.16-1.16","5b0481d17ac6e4000107e12a","C3","batch3","","738","tol_toboard","","","","tol_peg_1","738","738","0","[[2,0,0],[3,0],[1]]","17","[[0,0,0],[1,2],[3]]","4","0","","","","","","7","","","","","","","","",""
"","","","","","single-stim-button","130","346411","0.0-2.0-22.17-0.17","5b0481d17ac6e4000107e12a","C3","batch3","","701","tol_tohand","","","","tol_peg_2","701","701","0","[[2,0,0],[0,0],[1]]","18","[[0,0,0],[1,2],[3]]","4","0","","","","","","7","","","","","","","","",""
"","","","","","single-stim-button","131","347080","0.0-2.0-22.17-1.17","5b0481d17ac6e4000107e12a","C3","batch3","","669","tol_toboard","","","","tol_peg_1","669","669","0","[[2,3,0],[0,0],[1]]","18","[[0,0,0],[1,2],[3]]","4","0","","","","","","7","","","","","","","","",""
"","","","","","single-stim-button","132","347739","0.0-2.0-22.18-0.18","5b0481d17ac6e4000107e12a","C3","batch3","","658","tol_tohand","","","","tol_peg_3","658","658","0","[[2,3,0],[0,0],[0]]","19","[[0,0,0],[1,2],[3]]","4","0","","","","","","7","","","","","","","","",""
"","","","","","single-stim-button","133","348582","0.0-2.0-22.18-1.18","5b0481d17ac6e4000107e12a","C3","batch3","","842","tol_toboard","","","","tol_peg_2","842","842","0","[[2,3,0],[1,0],[0]]","19","[[0,0,0],[1,2],[3]]","4","0","","","","","","7","","","","","","","","",""
"","","","","","single-stim-button","134","349738","0.0-2.0-22.19-0.19","5b0481d17ac6e4000107e12a","C3","batch3","","1156","tol_tohand","","","","tol_peg_1","1156","1156","0","[[2,0,0],[1,0],[0]]","20","[[0,0,0],[1,2],[3]]","4","0","","","","","","7","","","","","","","","",""
"","","","","","single-stim-button","135","350500","0.0-2.0-22.19-1.19","5b0481d17ac6e4000107e12a","C3","batch3","","761","tol_toboard","","","","tol_peg_3","761","761","0","[[2,0,0],[1,0],[3]]","20","[[0,0,0],[1,2],[3]]","4","0","","","","","","7","","","","","","","","",""
"","","","","","single-stim-button","136","351291","0.0-2.0-22.20-0.20","5b0481d17ac6e4000107e12a","C3","batch3","","791","tol_tohand","","","","tol_peg_1","791","791","0","[[0,0,0],[1,0],[3]]","21","[[0,0,0],[1,2],[3]]","4","0","","","","","","7","","","","","","","","",""
"","","","","","single-stim-button","137","351950","0.0-2.0-22.20-1.20","5b0481d17ac6e4000107e12a","C3","batch3","","659","tol_toboard","","","","tol_peg_2","659","659","0","[[0,0,0],[1,2],[3]]","21","[[0,0,0],[1,2],[3]]","4","0","","","","","","7","","","","","","","","",""
"","","","","","poldrack-single-stim","138","352951","0.0-2.0-23.0","5b0481d17ac6e4000107e12a","C3","batch3","","-1","tol_feedback","","","true","","1000","1000","500","","","","","","-1","none","true","5200","32914","","","","","","","","","",""
"","","","","","html-button-response","139","353796","0.0-2.0-24.0","5b0481d17ac6e4000107e12a","C3","batch3","","845.1000000238419","tol_trial_num","<div class = centerbox><p class = center-block-text>problem <strong>6</strong> out of 25 problems</p></div>","0","","","","","","","","","","","","","","","","","","","","","","","","",""
"","","","","","single-stim-button","140","358737","0.0-2.0-25.0-0.0","5b0481d17ac6e4000107e12a","C3","batch3","","4940","tol_tohand","","","","tol_peg_3","4940","4940","0","[[0,0,0],[1,2],[0]]","1","[[1,0,0],[2,3],[0]]","5","0","","","","","","6","","","","","","","","",""
"","","","","","single-stim-button","141","360501","0.0-2.0-25.0-1.0","5b0481d17ac6e4000107e12a","C3","batch3","","1764","tol_toboard","","","","tol_peg_1","1764","1764","0","[[3,0,0],[1,2],[0]]","1","[[1,0,0],[2,3],[0]]","5","0","","","","","","6","","","","","","","","",""
"","","","","","single-stim-button","142","361231","0.0-2.0-25.1-0.1","5b0481d17ac6e4000107e12a","C3","batch3","","730","tol_tohand","","","","tol_peg_2","730","730","0","[[3,0,0],[1,0],[0]]","2","[[1,0,0],[2,3],[0]]","5","0","","","","","","6","","","","","","","","",""
"","","","","","single-stim-button","143","361800","0.0-2.0-25.1-1.1","5b0481d17ac6e4000107e12a","C3","batch3","","567","tol_toboard","","","","tol_peg_1","567","567","0","[[3,2,0],[1,0],[0]]","2","[[1,0,0],[2,3],[0]]","5","0","","","","","","6","","","","","","","","",""
"","","","","","single-stim-button","144","362895","0.0-2.0-25.2-0.2","5b0481d17ac6e4000107e12a","C3","batch3","","1095","tol_tohand","","","","tol_peg_2","1095","1095","0","[[3,2,0],[0,0],[0]]","3","[[1,0,0],[2,3],[0]]","5","0","","","","","","6","","","","","","","","",""
"","","","","","single-stim-button","145","363899","0.0-2.0-25.2-1.2","5b0481d17ac6e4000107e12a","C3","batch3","","1004","tol_toboard","","","","tol_peg_3","1004","1004","0","[[3,2,0],[0,0],[1]]","3","[[1,0,0],[2,3],[0]]","5","0","","","","","","6","","","","","","","","",""
"","","","","","single-stim-button","146","364548","0.0-2.0-25.3-0.3","5b0481d17ac6e4000107e12a","C3","batch3","","649","tol_tohand","","","","tol_peg_1","649","649","0","[[3,0,0],[0,0],[1]]","4","[[1,0,0],[2,3],[0]]","5","0","","","","","","6","","","","","","","","",""
"","","","","","single-stim-button","147","365126","0.0-2.0-25.3-1.3","5b0481d17ac6e4000107e12a","C3","batch3","","578","tol_toboard","","","","tol_peg_2","578","578","0","[[3,0,0],[2,0],[1]]","4","[[1,0,0],[2,3],[0]]","5","0","","","","","","6","","","","","","","","",""
"","","","","","single-stim-button","148","365969","0.0-2.0-25.4-0.4","5b0481d17ac6e4000107e12a","C3","batch3","","843","tol_tohand","","","","tol_peg_1","843","843","0","[[0,0,0],[2,0],[1]]","5","[[1,0,0],[2,3],[0]]","5","0","","","","","","6","","","","","","","","",""
"","","","","","single-stim-button","149","366516","0.0-2.0-25.4-1.4","5b0481d17ac6e4000107e12a","C3","batch3","","547","tol_toboard","","","","tol_peg_2","547","547","0","[[0,0,0],[2,3],[1]]","5","[[1,0,0],[2,3],[0]]","5","0","","","","","","6","","","","","","","","",""
"","","","","","single-stim-button","150","367266","0.0-2.0-25.5-0.5","5b0481d17ac6e4000107e12a","C3","batch3","","750","tol_tohand","","","","tol_peg_3","750","750","0","[[0,0,0],[2,3],[0]]","6","[[1,0,0],[2,3],[0]]","5","0","","","","","","6","","","","","","","","",""
"","","","","","single-stim-button","151","368545","0.0-2.0-25.5-1.5","5b0481d17ac6e4000107e12a","C3","batch3","","1278","tol_toboard","","","","tol_peg_1","1278","1278","0","[[1,0,0],[2,3],[0]]","6","[[1,0,0],[2,3],[0]]","5","0","","","","","","6","","","","","","","","",""
"","","","","","poldrack-single-stim","152","369548","0.0-2.0-26.0","5b0481d17ac6e4000107e12a","C3","batch3","","-1","tol_feedback","","","true","","1000","1000","500","","","","","","-1","none","true","4940","9007","","","","","","","","","",""
"","","","","","html-button-response","153","370766","0.0-2.0-27.0","5b0481d17ac6e4000107e12a","C3","batch3","","1217.3999999761581","tol_trial_num","<div class = centerbox><p class = center-block-text>problem <strong>7</strong> out of 25 problems</p></div>","0","","","","","","","","","","","","","","","","","","","","","","","","",""
"","","","","","single-stim-button","154","374722","0.0-2.0-28.0-0.0","5b0481d17ac6e4000107e12a","C3","batch3","","3954","tol_tohand","","","","tol_peg_1","3954","3954","0","[[2,0,0],[0,0],[3]]","1","[[1,2,0],[3,0],[0]]","6","0","","","","","","5","","","","","","","","",""
"","","","","","single-stim-button","155","376315","0.0-2.0-28.0-1.0","5b0481d17ac6e4000107e12a","C3","batch3","","1592","tol_toboard","","","","tol_peg_2","1592","1592","0","[[2,0,0],[1,0],[3]]","1","[[1,2,0],[3,0],[0]]","6","0","","","","","","5","","","","","","","","",""
"","","","","","single-stim-button","156","377857","0.0-2.0-28.1-0.1","5b0481d17ac6e4000107e12a","C3","batch3","","1542","tol_tohand","","","","tol_peg_3","1542","1542","0","[[2,0,0],[1,0],[0]]","2","[[1,2,0],[3,0],[0]]","6","0","","","","","","5","","","","","","","","",""
"","","","","","single-stim-button","157","378435","0.0-2.0-28.1-1.1","5b0481d17ac6e4000107e12a","C3","batch3","","577","tol_toboard","","","","tol_peg_2","577","577","0","[[2,0,0],[1,3],[0]]","2","[[1,2,0],[3,0],[0]]","6","0","","","","","","5","","","","","","","","",""
"","","","","","single-stim-button","158","379135","0.0-2.0-28.2-0.2","5b0481d17ac6e4000107e12a","C3","batch3","","700","tol_tohand","","","","tol_peg_1","700","700","0","[[0,0,0],[1,3],[0]]","3","[[1,2,0],[3,0],[0]]","6","0","","","","","","5","","","","","","","","",""
"","","","","","single-stim-button","159","380118","0.0-2.0-28.2-1.2","5b0481d17ac6e4000107e12a","C3","batch3","","983","tol_toboard","","","","tol_peg_3","983","983","0","[[0,0,0],[1,3],[2]]","3","[[1,2,0],[3,0],[0]]","6","0","","","","","","5","","","","","","","","",""
"","","","","","single-stim-button","160","381924","0.0-2.0-28.3-0.3","5b0481d17ac6e4000107e12a","C3","batch3","","1805","tol_tohand","","","","tol_peg_2","1805","1805","0","[[0,0,0],[1,0],[2]]","4","[[1,2,0],[3,0],[0]]","6","0","","","","","","5","","","","","","","","",""
"","","","","","single-stim-button","161","382685","0.0-2.0-28.3-1.3","5b0481d17ac6e4000107e12a","C3","batch3","","761","tol_toboard","","","","tol_peg_1","761","761","0","[[3,0,0],[1,0],[2]]","4","[[1,2,0],[3,0],[0]]","6","0","","","","","","5","","","","","","","","",""
"","","","","","single-stim-button","162","383355","0.0-2.0-28.4-0.4","5b0481d17ac6e4000107e12a","C3","batch3","","668","tol_tohand","","","","tol_peg_2","668","668","0","[[3,0,0],[0,0],[2]]","5","[[1,2,0],[3,0],[0]]","6","0","","","","","","5","","","","","","","","",""
"","","","","","single-stim-button","163","384166","0.0-2.0-28.4-1.4","5b0481d17ac6e4000107e12a","C3","batch3","","810","tol_toboard","","","","tol_peg_1","810","810","0","[[3,1,0],[0,0],[2]]","5","[[1,2,0],[3,0],[0]]","6","0","","","","","","5","","","","","","","","",""
"","","","","","single-stim-button","164","386144","0.0-2.0-28.5-0.5","5b0481d17ac6e4000107e12a","C3","batch3","","1978","tol_tohand","","","","tol_peg_1","1978","1978","0","[[3,0,0],[0,0],[2]]","6","[[1,2,0],[3,0],[0]]","6","0","","","","","","5","","","","","","","","",""
"","","","","","single-stim-button","165","387584","0.0-2.0-28.5-1.5","5b0481d17ac6e4000107e12a","C3","batch3","","1440","tol_toboard","","","","tol_peg_2","1440","1440","0","[[3,0,0],[1,0],[2]]","6","[[1,2,0],[3,0],[0]]","6","0","","","","","","5","","","","","","","","",""
"","","","","","single-stim-button","166","388395","0.0-2.0-28.6-0.6","5b0481d17ac6e4000107e12a","C3","batch3","","811","tol_tohand","","","","tol_peg_1","811","811","0","[[0,0,0],[1,0],[2]]","7","[[1,2,0],[3,0],[0]]","6","0","","","","","","5","","","","","","","","",""
"","","","","","single-stim-button","167","389004","0.0-2.0-28.6-1.6","5b0481d17ac6e4000107e12a","C3","batch3","","609","tol_toboard","","","","tol_peg_2","609","609","0","[[0,0,0],[1,3],[2]]","7","[[1,2,0],[3,0],[0]]","6","0","","","","","","5","","","","","","","","",""
"","","","","","single-stim-button","168","390160","0.0-2.0-28.7-0.7","5b0481d17ac6e4000107e12a","C3","batch3","","1156","tol_tohand","","","","tol_peg_3","1156","1156","0","[[0,0,0],[1,3],[0]]","8","[[1,2,0],[3,0],[0]]","6","0","","","","","","5","","","","","","","","",""
"","","","","","single-stim-button","169","390850","0.0-2.0-28.7-1.7","5b0481d17ac6e4000107e12a","C3","batch3","","690","tol_toboard","","","","tol_peg_1","690","690","0","[[2,0,0],[1,3],[0]]","8","[[1,2,0],[3,0],[0]]","6","0","","","","","","5","","","","","","","","",""
"","","","","","single-stim-button","170","391469","0.0-2.0-28.8-0.8","5b0481d17ac6e4000107e12a","C3","batch3","","619","tol_tohand","","","","tol_peg_2","619","619","0","[[2,0,0],[1,0],[0]]","9","[[1,2,0],[3,0],[0]]","6","0","","","","","","5","","","","","","","","",""
"","","","","","single-stim-button","171","392179","0.0-2.0-28.8-1.8","5b0481d17ac6e4000107e12a","C3","batch3","","710","tol_toboard","","","","tol_peg_1","710","710","0","[[2,3,0],[1,0],[0]]","9","[[1,2,0],[3,0],[0]]","6","0","","","","","","5","","","","","","","","",""
"","","","","","single-stim-button","172","392726","0.0-2.0-28.9-0.9","5b0481d17ac6e4000107e12a","C3","batch3","","547","tol_tohand","","","","tol_peg_2","547","547","0","[[2,3,0],[0,0],[0]]","10","[[1,2,0],[3,0],[0]]","6","0","","","","","","5","","","","","","","","",""
"","","","","","single-stim-button","173","393660","0.0-2.0-28.9-1.9","5b0481d17ac6e4000107e12a","C3","batch3","","933","tol_toboard","","","","tol_peg_1","933","933","0","[[2,3,1],[0,0],[0]]","10","[[1,2,0],[3,0],[0]]","6","0","","","","","","5","","","","","","","","",""
"","","","","","single-stim-button","174","394218","0.0-2.0-28.10-0.10","5b0481d17ac6e4000107e12a","C3","batch3","","557","tol_tohand","","","","tol_peg_1","557","557","0","[[2,3,0],[0,0],[0]]","11","[[1,2,0],[3,0],[0]]","6","0","","","","","","5","","","","","","","","",""
"","","","","","single-stim-button","175","395506","0.0-2.0-28.10-1.10","5b0481d17ac6e4000107e12a","C3","batch3","","1288","tol_toboard","","","","tol_peg_3","1288","1288","0","[[2,3,0],[0,0],[1]]","11","[[1,2,0],[3,0],[0]]","6","0","","","","","","5","","","","","","","","",""
"","","","","","single-stim-button","176","397962","0.0-2.0-28.11-0.11","5b0481d17ac6e4000107e12a","C3","batch3","","2455","tol_tohand","","","","tol_peg_1","2455","2455","0","[[2,0,0],[0,0],[1]]","12","[[1,2,0],[3,0],[0]]","6","0","","","","","","5","","","","","","","","",""
"","","","","","single-stim-button","177","398590","0.0-2.0-28.11-1.11","5b0481d17ac6e4000107e12a","C3","batch3","","628","tol_toboard","","","","tol_peg_2","628","628","0","[[2,0,0],[3,0],[1]]","12","[[1,2,0],[3,0],[0]]","6","0","","","","","","5","","","","","","","","",""
"","","","","","single-stim-button","178","399087","0.0-2.0-28.12-0.12","5b0481d17ac6e4000107e12a","C3","batch3","","496","tol_tohand","","","","tol_peg_1","496","496","0","[[0,0,0],[3,0],[1]]","13","[[1,2,0],[3,0],[0]]","6","0","","","","","","5","","","","","","","","",""
"","","","","","single-stim-button","179","399706","0.0-2.0-28.12-1.12","5b0481d17ac6e4000107e12a","C3","batch3","","618","tol_toboard","","","","tol_peg_2","618","618","0","[[0,0,0],[3,2],[1]]","13","[[1,2,0],[3,0],[0]]","6","0","","","","","","5","","","","","","","","",""
"","","","","","single-stim-button","180","400528","0.0-2.0-28.13-0.13","5b0481d17ac6e4000107e12a","C3","batch3","","822","tol_tohand","","","","tol_peg_3","822","822","0","[[0,0,0],[3,2],[0]]","14","[[1,2,0],[3,0],[0]]","6","0","","","","","","5","","","","","","","","",""
"","","","","","single-stim-button","181","401350","0.0-2.0-28.13-1.13","5b0481d17ac6e4000107e12a","C3","batch3","","821","tol_toboard","","","","tol_peg_1","821","821","0","[[1,0,0],[3,2],[0]]","14","[[1,2,0],[3,0],[0]]","6","0","","","","","","5","","","","","","","","",""
"","","","","","single-stim-button","182","401988","0.0-2.0-28.14-0.14","5b0481d17ac6e4000107e12a","C3","batch3","","638","tol_tohand","","","","tol_peg_2","638","638","0","[[1,0,0],[3,0],[0]]","15","[[1,2,0],[3,0],[0]]","6","0","","","","","","5","","","","","","","","",""
"","","","","","single-stim-button","183","402738","0.0-2.0-28.14-1.14","5b0481d17ac6e4000107e12a","C3","batch3","","750","tol_toboard","","","","tol_peg_1","750","750","0","[[1,2,0],[3,0],[0]]","15","[[1,2,0],[3,0],[0]]","6","0","","","","","","5","","","","","","","","",""
"","","","","","poldrack-single-stim","184","403742","0.0-2.0-29.0","5b0481d17ac6e4000107e12a","C3","batch3","","-1","tol_feedback","","","true","","1000","1000","500","","","","","","-1","none","true","3954","18748","","","","","","","","","",""
"","","","","","html-button-response","185","404615","0.0-2.0-30.0","5b0481d17ac6e4000107e12a","C3","batch3","","873.2999999523163","tol_trial_num","<div class = centerbox><p class = center-block-text>problem <strong>8</strong> out of 25 problems</p></div>","0","","","","","","","","","","","","","","","","","","","","","","","","",""
"","","","","","single-stim-button","186","409303","0.0-2.0-31.0-0.0","5b0481d17ac6e4000107e12a","C3","batch3","","4687","tol_tohand","","","","tol_peg_3","4687","4687","0","[[0,0,0],[2,3],[0]]","1","[[1,2,0],[3,0],[0]]","7","0","","","","","","4","","","","","","","","",""
"","","","","","single-stim-button","187","410682","0.0-2.0-31.0-1.0","5b0481d17ac6e4000107e12a","C3","batch3","","1379","tol_toboard","","","","tol_peg_1","1379","1379","0","[[1,0,0],[2,3],[0]]","1","[[1,2,0],[3,0],[0]]","7","0","","","","","","4","","","","","","","","",""
"","","","","","single-stim-button","188","411555","0.0-2.0-31.1-0.1","5b0481d17ac6e4000107e12a","C3","batch3","","873","tol_tohand","","","","tol_peg_2","873","873","0","[[1,0,0],[2,0],[0]]","2","[[1,2,0],[3,0],[0]]","7","0","","","","","","4","","","","","","","","",""
"","","","","","single-stim-button","189","412326","0.0-2.0-31.1-1.1","5b0481d17ac6e4000107e12a","C3","batch3","","771","tol_toboard","","","","tol_peg_3","771","771","0","[[1,0,0],[2,0],[3]]","2","[[1,2,0],[3,0],[0]]","7","0","","","","","","4","","","","","","","","",""
"","","","","","single-stim-button","190","413057","0.0-2.0-31.2-0.2","5b0481d17ac6e4000107e12a","C3","batch3","","731","tol_tohand","","","","tol_peg_2","731","731","0","[[1,0,0],[0,0],[3]]","3","[[1,2,0],[3,0],[0]]","7","0","","","","","","4","","","","","","","","",""
"","","","","","single-stim-button","191","413909","0.0-2.0-31.2-1.2","5b0481d17ac6e4000107e12a","C3","batch3","","852","tol_toboard","","","","tol_peg_1","852","852","0","[[1,2,0],[0,0],[3]]","3","[[1,2,0],[3,0],[0]]","7","0","","","","","","4","","","","","","","","",""
"","","","","","single-stim-button","192","414538","0.0-2.0-31.3-0.3","5b0481d17ac6e4000107e12a","C3","batch3","","628","tol_tohand","","","","tol_peg_3","628","628","0","[[1,2,0],[0,0],[0]]","4","[[1,2,0],[3,0],[0]]","7","0","","","","","","4","","","","","","","","",""
"","","","","","single-stim-button","193","415440","0.0-2.0-31.3-1.3","5b0481d17ac6e4000107e12a","C3","batch3","","902","tol_toboard","","","","tol_peg_2","902","902","0","[[1,2,0],[3,0],[0]]","4","[[1,2,0],[3,0],[0]]","7","0","","","","","","4","","","","","","","","",""
"","","","","","poldrack-single-stim","194","416443","0.0-2.0-32.0","5b0481d17ac6e4000107e12a","C3","batch3","","-1","tol_feedback","","","true","","1000","1000","500","","","","","","-1","none","true","4687","6919","","","","","","","","","",""
"","","","","","html-button-response","195","417347","0.0-2.0-33.0","5b0481d17ac6e4000107e12a","C3","batch3","","903.5","tol_trial_num","<div class = centerbox><p class = center-block-text>problem <strong>9</strong> out of 25 problems</p></div>","0","","","","","","","","","","","","","","","","","","","","","","","","",""
"","","","","","single-stim-button","196","422551","0.0-2.0-34.0-0.0","5b0481d17ac6e4000107e12a","C3","batch3","","5204","tol_tohand","","","","tol_peg_1","5204","5204","0","[[3,0,0],[0,0],[1]]","1","[[2,1,0],[3,0],[0]]","8","0","","","","","","6","","","","","","","","",""
"","","","","","single-stim-button","197","423504","0.0-2.0-34.0-1.0","5b0481d17ac6e4000107e12a","C3","batch3","","953","tol_toboard","","","","tol_peg_2","953","953","0","[[3,0,0],[2,0],[1]]","1","[[2,1,0],[3,0],[0]]","8","0","","","","","","6","","","","","","","","",""
"","","","","","single-stim-button","198","425583","0.0-2.0-34.1-0.1","5b0481d17ac6e4000107e12a","C3","batch3","","2078","tol_tohand","","","","tol_peg_1","2078","2078","0","[[0,0,0],[2,0],[1]]","2","[[2,1,0],[3,0],[0]]","8","0","","","","","","6","","","","","","","","",""
"","","","","","single-stim-button","199","426283","0.0-2.0-34.1-1.1","5b0481d17ac6e4000107e12a","C3","batch3","","699","tol_toboard","","","","tol_peg_2","699","699","0","[[0,0,0],[2,3],[1]]","2","[[2,1,0],[3,0],[0]]","8","0","","","","","","6","","","","","","","","",""
"","","","","","single-stim-button","200","427024","0.0-2.0-34.2-0.2","5b0481d17ac6e4000107e12a","C3","batch3","","740","tol_tohand","","","","tol_peg_3","740","740","0","[[0,0,0],[2,3],[0]]","3","[[2,1,0],[3,0],[0]]","8","0","","","","","","6","","","","","","","","",""
"","","","","","single-stim-button","201","427704","0.0-2.0-34.2-1.2","5b0481d17ac6e4000107e12a","C3","batch3","","680","tol_toboard","","","","tol_peg_1","680","680","0","[[1,0,0],[2,3],[0]]","3","[[2,1,0],[3,0],[0]]","8","0","","","","","","6","","","","","","","","",""
"","","","","","single-stim-button","202","428434","0.0-2.0-34.3-0.3","5b0481d17ac6e4000107e12a","C3","batch3","","730","tol_tohand","","","","tol_peg_2","730","730","0","[[1,0,0],[2,0],[0]]","4","[[2,1,0],[3,0],[0]]","8","0","","","","","","6","","","","","","","","",""
"","","","","","single-stim-button","203","429144","0.0-2.0-34.3-1.3","5b0481d17ac6e4000107e12a","C3","batch3","","709","tol_toboard","","","","tol_peg_1","709","709","0","[[1,3,0],[2,0],[0]]","4","[[2,1,0],[3,0],[0]]","8","0","","","","","","6","","","","","","","","",""
"","","","","","single-stim-button","204","430442","0.0-2.0-34.4-0.4","5b0481d17ac6e4000107e12a","C3","batch3","","1298","tol_tohand","","","","tol_peg_2","1298","1298","0","[[1,3,0],[0,0],[0]]","5","[[2,1,0],[3,0],[0]]","8","0","","","","","","6","","","","","","","","",""
"","","","","","single-stim-button","205","431315","0.0-2.0-34.4-1.4","5b0481d17ac6e4000107e12a","C3","batch3","","872","tol_toboard","","","","tol_peg_3","872","872","0","[[1,3,0],[0,0],[2]]","5","[[2,1,0],[3,0],[0]]","8","0","","","","","","6","","","","","","","","",""
"","","","","","single-stim-button","206","432106","0.0-2.0-34.5-0.5","5b0481d17ac6e4000107e12a","C3","batch3","","791","tol_tohand","","","","tol_peg_1","791","791","0","[[1,0,0],[0,0],[2]]","6","[[2,1,0],[3,0],[0]]","8","0","","","","","","6","","","","","","","","",""
"","","","","","single-stim-button","207","433080","0.0-2.0-34.5-1.5","5b0481d17ac6e4000107e12a","C3","batch3","","974","tol_toboard","","","","tol_peg_2","974","974","0","[[1,0,0],[3,0],[2]]","6","[[2,1,0],[3,0],[0]]","8","0","","","","","","6","","","","","","","","",""
"","","","","","single-stim-button","208","434104","0.0-2.0-34.6-0.6","5b0481d17ac6e4000107e12a","C3","batch3","","1024","tol_tohand","","","","tol_peg_1","1024","1024","0","[[0,0,0],[3,0],[2]]","7","[[2,1,0],[3,0],[0]]","8","0","","","","","","6","","","","","","","","",""
"","","","","","single-stim-button","209","434834","0.0-2.0-34.6-1.6","5b0481d17ac6e4000107e12a","C3","batch3","","730","tol_toboard","","","","tol_peg_2","730","730","0","[[0,0,0],[3,1],[2]]","7","[[2,1,0],[3,0],[0]]","8","0","","","","","","6","","","","","","","","",""
"","","","","","single-stim-button","210","435829","0.0-2.0-34.7-0.7","5b0481d17ac6e4000107e12a","C3","batch3","","995","tol_tohand","","","","tol_peg_3","995","995","0","[[0,0,0],[3,1],[0]]","8","[[2,1,0],[3,0],[0]]","8","0","","","","","","6","","","","","","","","",""
"","","","","","single-stim-button","211","436701","0.0-2.0-34.7-1.7","5b0481d17ac6e4000107e12a","C3","batch3","","872","tol_toboard","","","","tol_peg_1","872","872","0","[[2,0,0],[3,1],[0]]","8","[[2,1,0],[3,0],[0]]","8","0","","","","","","6","","","","","","","","",""
"","","","","","single-stim-button","212","437665","0.0-2.0-34.8-0.8","5b0481d17ac6e4000107e12a","C3","batch3","","964","tol_tohand","","","","tol_peg_2","964","964","0","[[2,0,0],[3,0],[0]]","9","[[2,1,0],[3,0],[0]]","8","0","","","","","","6","","","","","","","","",""
"","","","","","single-stim-button","213","438436","0.0-2.0-34.8-1.8","5b0481d17ac6e4000107e12a","C3","batch3","","770","tol_toboard","","","","tol_peg_1","770","770","0","[[2,1,0],[3,0],[0]]","9","[[2,1,0],[3,0],[0]]","8","0","","","","","","6","","","","","","","","",""
"","","","","","poldrack-single-stim","214","439437","0.0-2.0-35.0","5b0481d17ac6e4000107e12a","C3","batch3","","-1","tol_feedback","","","true","","1000","1000","500","","","","","","-1","none","true","5204","13824","","","","","","","","","",""
"","","","","","html-button-response","215","440171","0.0-2.0-36.0","5b0481d17ac6e4000107e12a","C3","batch3","","733.5999999642372","tol_trial_num","<div class = centerbox><p class = center-block-text>problem <strong>10</strong> out of 25 problems</p></div>","0","","","","","","","","","","","","","","","","","","","","","","","","",""
"","","","","","single-stim-button","216","445650","0.0-2.0-37.0-0.0","5b0481d17ac6e4000107e12a","C3","batch3","","5478","tol_tohand","","","","tol_peg_2","5478","5478","0","[[3,0,0],[0,0],[2]]","1","[[3,0,0],[2,1],[0]]","9","0","","","","","","3","","","","","","","","",""
"","","","","","single-stim-button","217","446309","0.0-2.0-37.0-1.0","5b0481d17ac6e4000107e12a","C3","batch3","","659","tol_toboard","","","","tol_peg_1","659","659","0","[[3,1,0],[0,0],[2]]","1","[[3,0,0],[2,1],[0]]","9","0","","","","","","3","","","","","","","","",""
"","","","","","single-stim-button","218","446898","0.0-2.0-37.1-0.1","5b0481d17ac6e4000107e12a","C3","batch3","","587","tol_tohand","","","","tol_peg_3","587","587","0","[[3,1,0],[0,0],[0]]","2","[[3,0,0],[2,1],[0]]","9","0","","","","","","3","","","","","","","","",""
"","","","","","single-stim-button","219","447557","0.0-2.0-37.1-1.1","5b0481d17ac6e4000107e12a","C3","batch3","","659","tol_toboard","","","","tol_peg_2","659","659","0","[[3,1,0],[2,0],[0]]","2","[[3,0,0],[2,1],[0]]","9","0","","","","","","3","","","","","","","","",""
"","","","","","single-stim-button","220","448277","0.0-2.0-37.2-0.2","5b0481d17ac6e4000107e12a","C3","batch3","","720","tol_tohand","","","","tol_peg_1","720","720","0","[[3,0,0],[2,0],[0]]","3","[[3,0,0],[2,1],[0]]","9","0","","","","","","3","","","","","","","","",""
"","","","","","single-stim-button","221","448916","0.0-2.0-37.2-1.2","5b0481d17ac6e4000107e12a","C3","batch3","","639","tol_toboard","","","","tol_peg_2","639","639","0","[[3,0,0],[2,1],[0]]","3","[[3,0,0],[2,1],[0]]","9","0","","","","","","3","","","","","","","","",""
"","","","","","poldrack-single-stim","222","449918","0.0-2.0-38.0","5b0481d17ac6e4000107e12a","C3","batch3","","-1","tol_feedback","","","true","","1000","1000","500","","","","","","-1","none","true","5478","6785","","","","","","","","","",""
"","","","","","html-button-response","223","450905","0.0-2.0-39.0","5b0481d17ac6e4000107e12a","C3","batch3","","986.1000000238419","tol_trial_num","<div class = centerbox><p class = center-block-text>problem <strong>11</strong> out of 25 problems</p></div>","0","","","","","","","","","","","","","","","","","","","","","","","","",""
"","","","","","single-stim-button","224","456240","0.0-2.0-40.0-0.0","5b0481d17ac6e4000107e12a","C3","batch3","","5335","tol_tohand","","","","tol_peg_1","5335","5335","0","[[1,0,0],[3,0],[0]]","1","[[2,0,0],[1,3],[0]]","10","0","","","","","","6","","","","","","","","",""
"","","","","","single-stim-button","225","456950","0.0-2.0-40.0-1.0","5b0481d17ac6e4000107e12a","C3","batch3","","710","tol_toboard","","","","tol_peg_2","710","710","0","[[1,0,0],[3,2],[0]]","1","[[2,0,0],[1,3],[0]]","10","0","","","","","","6","","","","","","","","",""
"","","","","","single-stim-button","226","457741","0.0-2.0-40.1-0.1","5b0481d17ac6e4000107e12a","C3","batch3","","791","tol_tohand","","","","tol_peg_1","791","791","0","[[0,0,0],[3,2],[0]]","2","[[2,0,0],[1,3],[0]]","10","0","","","","","","6","","","","","","","","",""
"","","","","","single-stim-button","227","459070","0.0-2.0-40.1-1.1","5b0481d17ac6e4000107e12a","C3","batch3","","1329","tol_toboard","","","","tol_peg_3","1329","1329","0","[[0,0,0],[3,2],[1]]","2","[[2,0,0],[1,3],[0]]","10","0","","","","","","6","","","","","","","","",""
"","","","","","single-stim-button","228","459800","0.0-2.0-40.2-0.2","5b0481d17ac6e4000107e12a","C3","batch3","","730","tol_tohand","","","","tol_peg_2","730","730","0","[[0,0,0],[3,0],[1]]","3","[[2,0,0],[1,3],[0]]","10","0","","","","","","6","","","","","","","","",""
"","","","","","single-stim-button","229","460764","0.0-2.0-40.2-1.2","5b0481d17ac6e4000107e12a","C3","batch3","","964","tol_toboard","","","","tol_peg_1","964","964","0","[[2,0,0],[3,0],[1]]","3","[[2,0,0],[1,3],[0]]","10","0","","","","","","6","","","","","","","","",""
"","","","","","single-stim-button","230","461423","0.0-2.0-40.3-0.3","5b0481d17ac6e4000107e12a","C3","batch3","","659","tol_tohand","","","","tol_peg_2","659","659","0","[[2,0,0],[0,0],[1]]","4","[[2,0,0],[1,3],[0]]","10","0","","","","","","6","","","","","","","","",""
"","","","","","single-stim-button","231","462144","0.0-2.0-40.3-1.3","5b0481d17ac6e4000107e12a","C3","batch3","","720","tol_toboard","","","","tol_peg_1","720","720","0","[[2,3,0],[0,0],[1]]","4","[[2,0,0],[1,3],[0]]","10","0","","","","","","6","","","","","","","","",""
"","","","","","single-stim-button","232","462843","0.0-2.0-40.4-0.4","5b0481d17ac6e4000107e12a","C3","batch3","","699","tol_tohand","","","","tol_peg_3","699","699","0","[[2,3,0],[0,0],[0]]","5","[[2,0,0],[1,3],[0]]","10","0","","","","","","6","","","","","","","","",""
"","","","","","single-stim-button","233","463614","0.0-2.0-40.4-1.4","5b0481d17ac6e4000107e12a","C3","batch3","","769","tol_toboard","","","","tol_peg_2","769","769","0","[[2,3,0],[1,0],[0]]","5","[[2,0,0],[1,3],[0]]","10","0","","","","","","6","","","","","","","","",""
"","","","","","single-stim-button","234","464396","0.0-2.0-40.5-0.5","5b0481d17ac6e4000107e12a","C3","batch3","","781","tol_tohand","","","","tol_peg_1","781","781","0","[[2,0,0],[1,0],[0]]","6","[[2,0,0],[1,3],[0]]","10","0","","","","","","6","","","","","","","","",""
"","","","","","single-stim-button","235","464954","0.0-2.0-40.5-1.5","5b0481d17ac6e4000107e12a","C3","batch3","","558","tol_toboard","","","","tol_peg_2","558","558","0","[[2,0,0],[1,3],[0]]","6","[[2,0,0],[1,3],[0]]","10","0","","","","","","6","","","","","","","","",""
"","","","","","poldrack-single-stim","236","465956","0.0-2.0-41.0","5b0481d17ac6e4000107e12a","C3","batch3","","-1","tol_feedback","","","true","","1000","1000","500","","","","","","-1","none","true","5335","8995","","","","","","","","","",""
"","","","","","html-button-response","237","466718","0.0-2.0-42.0","5b0481d17ac6e4000107e12a","C3","batch3","","762.3000000119209","tol_trial_num","<div class = centerbox><p class = center-block-text>problem <strong>12</strong> out of 25 problems</p></div>","0","","","","","","","","","","","","","","","","","","","","","","","","",""
"","","","","","single-stim-button","238","471244","0.0-2.0-43.0-0.0","5b0481d17ac6e4000107e12a","C3","batch3","","4525","tol_tohand","","","","tol_peg_1","4525","4525","0","[[1,0,0],[3,0],[0]]","1","[[2,3,0],[0,0],[1]]","11","0","","","","","","4","","","","","","","","",""
"","","","","","single-stim-button","239","472186","0.0-2.0-43.0-1.0","5b0481d17ac6e4000107e12a","C3","batch3","","941","tol_toboard","","","","tol_peg_3","941","941","0","[[1,0,0],[3,0],[2]]","1","[[2,3,0],[0,0],[1]]","11","0","","","","","","4","","","","","","","","",""
"","","","","","single-stim-button","240","472928","0.0-2.0-43.1-0.1","5b0481d17ac6e4000107e12a","C3","batch3","","741","tol_tohand","","","","tol_peg_1","741","741","0","[[0,0,0],[3,0],[2]]","2","[[2,3,0],[0,0],[1]]","11","0","","","","","","4","","","","","","","","",""
"","","","","","single-stim-button","241","473586","0.0-2.0-43.1-1.1","5b0481d17ac6e4000107e12a","C3","batch3","","658","tol_toboard","","","","tol_peg_2","658","658","0","[[0,0,0],[3,1],[2]]","2","[[2,3,0],[0,0],[1]]","11","0","","","","","","4","","","","","","","","",""
"","","","","","single-stim-button","242","474155","0.0-2.0-43.2-0.2","5b0481d17ac6e4000107e12a","C3","batch3","","569","tol_tohand","","","","tol_peg_3","569","569","0","[[0,0,0],[3,1],[0]]","3","[[2,3,0],[0,0],[1]]","11","0","","","","","","4","","","","","","","","",""
"","","","","","single-stim-button","243","474895","0.0-2.0-43.2-1.2","5b0481d17ac6e4000107e12a","C3","batch3","","740","tol_toboard","","","","tol_peg_1","740","740","0","[[2,0,0],[3,1],[0]]","3","[[2,3,0],[0,0],[1]]","11","0","","","","","","4","","","","","","","","",""
"","","","","","single-stim-button","244","475706","0.0-2.0-43.3-0.3","5b0481d17ac6e4000107e12a","C3","batch3","","810","tol_tohand","","","","tol_peg_2","810","810","0","[[2,0,0],[3,0],[0]]","4","[[2,3,0],[0,0],[1]]","11","0","","","","","","4","","","","","","","","",""
"","","","","","single-stim-button","245","476467","0.0-2.0-43.3-1.3","5b0481d17ac6e4000107e12a","C3","batch3","","760","tol_toboard","","","","tol_peg_3","760","760","0","[[2,0,0],[3,0],[1]]","4","[[2,3,0],[0,0],[1]]","11","0","","","","","","4","","","","","","","","",""
"","","","","","single-stim-button","246","477055","0.0-2.0-43.4-0.4","5b0481d17ac6e4000107e12a","C3","batch3","","587","tol_tohand","","","","tol_peg_2","587","587","0","[[2,0,0],[0,0],[1]]","5","[[2,3,0],[0,0],[1]]","11","0","","","","","","4","","","","","","","","",""
"","","","","","single-stim-button","247","477645","0.0-2.0-43.4-1.4","5b0481d17ac6e4000107e12a","C3","batch3","","590","tol_toboard","","","","tol_peg_1","590","590","0","[[2,3,0],[0,0],[1]]","5","[[2,3,0],[0,0],[1]]","11","0","","","","","","4","","","","","","","","",""
"","","","","","poldrack-single-stim","248","478650","0.0-2.0-44.0","5b0481d17ac6e4000107e12a","C3","batch3","","-1","tol_feedback","","","true","","1000","1000","500","","","","","","-1","none","true","4525","7232","","","","","","","","","",""
"","","","","","html-button-response","249","479927","0.0-2.0-45.0","5b0481d17ac6e4000107e12a","C3","batch3","","1275.9000000357628","tol_trial_num","<div class = centerbox><p class = center-block-text>problem <strong>13</strong> out of 25 problems</p></div>","0","","","","","","","","","","","","","","","","","","","","","","","","",""
"","","","","","single-stim-button","250","484918","0.0-2.0-46.0-0.0","5b0481d17ac6e4000107e12a","C3","batch3","","4991","tol_tohand","","","","tol_peg_1","4991","4991","0","[[1,0,0],[3,0],[0]]","1","[[0,0,0],[2,3],[1]]","12","0","","","","","","4","","","","","","","","",""
"","","","","","single-stim-button","251","487738","0.0-2.0-46.0-1.0","5b0481d17ac6e4000107e12a","C3","batch3","","2820","tol_toboard","","","","tol_peg_3","2820","2820","0","[[1,0,0],[3,0],[2]]","1","[[0,0,0],[2,3],[1]]","12","0","","","","","","4","","","","","","","","",""
"","","","","","single-stim-button","252","488996","0.0-2.0-46.1-0.1","5b0481d17ac6e4000107e12a","C3","batch3","","1258","tol_tohand","","","","tol_peg_1","1258","1258","0","[[0,0,0],[3,0],[2]]","2","[[0,0,0],[2,3],[1]]","12","0","","","","","","4","","","","","","","","",""
"","","","","","single-stim-button","253","489726","0.0-2.0-46.1-1.1","5b0481d17ac6e4000107e12a","C3","batch3","","730","tol_toboard","","","","tol_peg_2","730","730","0","[[0,0,0],[3,1],[2]]","2","[[0,0,0],[2,3],[1]]","12","0","","","","","","4","","","","","","","","",""
"","","","","","single-stim-button","254","490751","0.0-2.0-46.2-0.2","5b0481d17ac6e4000107e12a","C3","batch3","","1024","tol_tohand","","","","tol_peg_2","1024","1024","0","[[0,0,0],[3,0],[2]]","3","[[0,0,0],[2,3],[1]]","12","0","","","","","","4","","","","","","","","",""
"","","","","","single-stim-button","255","491370","0.0-2.0-46.2-1.2","5b0481d17ac6e4000107e12a","C3","batch3","","619","tol_toboard","","","","tol_peg_1","619","619","0","[[1,0,0],[3,0],[2]]","3","[[0,0,0],[2,3],[1]]","12","0","","","","","","4","","","","","","","","",""
"","","","","","single-stim-button","256","492983","0.0-2.0-46.3-0.3","5b0481d17ac6e4000107e12a","C3","batch3","","1611","tol_tohand","","","","tol_peg_2","1611","1611","0","[[1,0,0],[0,0],[2]]","4","[[0,0,0],[2,3],[1]]","12","0","","","","","","4","","","","","","","","",""
"","","","","","single-stim-button","257","493855","0.0-2.0-46.3-1.3","5b0481d17ac6e4000107e12a","C3","batch3","","872","tol_toboard","","","","tol_peg_1","872","872","0","[[1,3,0],[0,0],[2]]","4","[[0,0,0],[2,3],[1]]","12","0","","","","","","4","","","","","","","","",""
"","","","","","single-stim-button","258","494545","0.0-2.0-46.4-0.4","5b0481d17ac6e4000107e12a","C3","batch3","","690","tol_tohand","","","","tol_peg_3","690","690","0","[[1,3,0],[0,0],[0]]","5","[[0,0,0],[2,3],[1]]","12","0","","","","","","4","","","","","","","","",""
"","","","","","single-stim-button","259","495173","0.0-2.0-46.4-1.4","5b0481d17ac6e4000107e12a","C3","batch3","","628","tol_toboard","","","","tol_peg_2","628","628","0","[[1,3,0],[2,0],[0]]","5","[[0,0,0],[2,3],[1]]","12","0","","","","","","4","","","","","","","","",""
"","","","","","single-stim-button","260","495903","0.0-2.0-46.5-0.5","5b0481d17ac6e4000107e12a","C3","batch3","","730","tol_tohand","","","","tol_peg_1","730","730","0","[[1,0,0],[2,0],[0]]","6","[[0,0,0],[2,3],[1]]","12","0","","","","","","4","","","","","","","","",""
"","","","","","single-stim-button","261","496644","0.0-2.0-46.5-1.5","5b0481d17ac6e4000107e12a","C3","batch3","","740","tol_toboard","","","","tol_peg_2","740","740","0","[[1,0,0],[2,3],[0]]","6","[[0,0,0],[2,3],[1]]","12","0","","","","","","4","","","","","","","","",""
"","","","","","single-stim-button","262","497405","0.0-2.0-46.6-0.6","5b0481d17ac6e4000107e12a","C3","batch3","","760","tol_tohand","","","","tol_peg_1","760","760","0","[[0,0,0],[2,3],[0]]","7","[[0,0,0],[2,3],[1]]","12","0","","","","","","4","","","","","","","","",""
"","","","","","single-stim-button","263","498278","0.0-2.0-46.6-1.6","5b0481d17ac6e4000107e12a","C3","batch3","","873","tol_toboard","","","","tol_peg_3","873","873","0","[[0,0,0],[2,3],[1]]","7","[[0,0,0],[2,3],[1]]","12","0","","","","","","4","","","","","","","","",""
"","","","","","poldrack-single-stim","264","499286","0.0-2.0-47.0","5b0481d17ac6e4000107e12a","C3","batch3","","-1","tol_feedback","","","true","","1000","1000","500","","","","","","-1","none","true","4991","11064","","","","","","","","","",""
"","","","","","html-button-response","265","503156","0.0-2.0-48.0","5b0481d17ac6e4000107e12a","C3","batch3","","3868.699999988079","attention_check","<p class = block-text>How many balls are in your board<br></p>","1","true","","","","","","","","","","","","","","","","","","","","","","","",""
"","","","","","html-button-response","266","504475","0.0-2.0-49.0","5b0481d17ac6e4000107e12a","C3","batch3","","1318.0999999642372","tol_trial_num","<div class = centerbox><p class = center-block-text>problem <strong>14</strong> out of 25 problems</p></div>","0","","","","","","","","","","","","","","","","","","","","","","","","",""
"","","","","","single-stim-button","267","510327","0.0-2.0-50.0-0.0","5b0481d17ac6e4000107e12a","C3","batch3","","5852","tol_tohand","","","","tol_peg_1","5852","5852","0","[[2,0,0],[3,0],[0]]","1","[[1,2,0],[3,0],[0]]","13","0","","","","","","4","","","","","","","","",""
"","","","","","single-stim-button","268","511778","0.0-2.0-50.0-1.0","5b0481d17ac6e4000107e12a","C3","batch3","","1450","tol_toboard","","","","tol_peg_3","1450","1450","0","[[2,0,0],[3,0],[1]]","1","[[1,2,0],[3,0],[0]]","13","0","","","","","","4","","","","","","","","",""
"","","","","","single-stim-button","269","512769","0.0-2.0-50.1-0.1","5b0481d17ac6e4000107e12a","C3","batch3","","991","tol_tohand","","","","tol_peg_1","991","991","0","[[0,0,0],[3,0],[1]]","2","[[1,2,0],[3,0],[0]]","13","0","","","","","","4","","","","","","","","",""
"","","","","","single-stim-button","270","513522","0.0-2.0-50.1-1.1","5b0481d17ac6e4000107e12a","C3","batch3","","752","tol_toboard","","","","tol_peg_2","752","752","0","[[0,0,0],[3,2],[1]]","2","[[1,2,0],[3,0],[0]]","13","0","","","","","","4","","","","","","","","",""
"","","","","","single-stim-button","271","514334","0.0-2.0-50.2-0.2","5b0481d17ac6e4000107e12a","C3","batch3","","812","tol_tohand","","","","tol_peg_3","812","812","0","[[0,0,0],[3,2],[0]]","3","[[1,2,0],[3,0],[0]]","13","0","","","","","","4","","","","","","","","",""
"","","","","","single-stim-button","272","515338","0.0-2.0-50.2-1.2","5b0481d17ac6e4000107e12a","C3","batch3","","1004","tol_toboard","","","","tol_peg_1","1004","1004","0","[[1,0,0],[3,2],[0]]","3","[[1,2,0],[3,0],[0]]","13","0","","","","","","4","","","","","","","","",""
"","","","","","single-stim-button","273","516048","0.0-2.0-50.3-0.3","5b0481d17ac6e4000107e12a","C3","batch3","","709","tol_tohand","","","","tol_peg_2","709","709","0","[[1,0,0],[3,0],[0]]","4","[[1,2,0],[3,0],[0]]","13","0","","","","","","4","","","","","","","","",""
"","","","","","single-stim-button","274","516860","0.0-2.0-50.3-1.3","5b0481d17ac6e4000107e12a","C3","batch3","","812","tol_toboard","","","","tol_peg_1","812","812","0","[[1,2,0],[3,0],[0]]","4","[[1,2,0],[3,0],[0]]","13","0","","","","","","4","","","","","","","","",""
"","","","","","poldrack-single-stim","275","517867","0.0-2.0-51.0","5b0481d17ac6e4000107e12a","C3","batch3","","-1","tol_feedback","","","true","","1000","1000","500","","","","","","-1","none","true","5852","8364","","","","","","","","","",""
"","","","","","html-button-response","276","518594","0.0-2.0-52.0","5b0481d17ac6e4000107e12a","C3","batch3","","725.5999999642372","tol_trial_num","<div class = centerbox><p class = center-block-text>problem <strong>15</strong> out of 25 problems</p></div>","0","","","","","","","","","","","","","","","","","","","","","","","","",""
"","","","","","single-stim-button","277","523119","0.0-2.0-53.0-0.0","5b0481d17ac6e4000107e12a","C3","batch3","","4525","tol_tohand","","","","tol_peg_1","4525","4525","0","[[1,0,0],[3,0],[0]]","1","[[2,0,0],[3,0],[1]]","14","0","","","","","","3","","","","","","","","",""
"","","","","","single-stim-button","278","524093","0.0-2.0-53.0-1.0","5b0481d17ac6e4000107e12a","C3","batch3","","974","tol_toboard","","","","tol_peg_2","974","974","0","[[1,0,0],[3,2],[0]]","1","[[2,0,0],[3,0],[1]]","14","0","","","","","","3","","","","","","","","",""
"","","","","","single-stim-button","279","524772","0.0-2.0-53.1-0.1","5b0481d17ac6e4000107e12a","C3","batch3","","679","tol_tohand","","","","tol_peg_1","679","679","0","[[0,0,0],[3,2],[0]]","2","[[2,0,0],[3,0],[1]]","14","0","","","","","","3","","","","","","","","",""
"","","","","","single-stim-button","280","525401","0.0-2.0-53.1-1.1","5b0481d17ac6e4000107e12a","C3","batch3","","628","tol_toboard","","","","tol_peg_3","628","628","0","[[0,0,0],[3,2],[1]]","2","[[2,0,0],[3,0],[1]]","14","0","","","","","","3","","","","","","","","",""
"","","","","","single-stim-button","281","526182","0.0-2.0-53.2-0.2","5b0481d17ac6e4000107e12a","C3","batch3","","781","tol_tohand","","","","tol_peg_2","781","781","0","[[0,0,0],[3,0],[1]]","3","[[2,0,0],[3,0],[1]]","14","0","","","","","","3","","","","","","","","",""
"","","","","","single-stim-button","282","526943","0.0-2.0-53.2-1.2","5b0481d17ac6e4000107e12a","C3","batch3","","761","tol_toboard","","","","tol_peg_1","761","761","0","[[2,0,0],[3,0],[1]]","3","[[2,0,0],[3,0],[1]]","14","0","","","","","","3","","","","","","","","",""
"","","","","","poldrack-single-stim","283","527944","0.0-2.0-54.0","5b0481d17ac6e4000107e12a","C3","batch3","","-1","tol_feedback","","","true","","1000","1000","500","","","","","","-1","none","true","4525","5985","","","","","","","","","",""
"","","","","","html-button-response","284","528901","0.0-2.0-55.0","5b0481d17ac6e4000107e12a","C3","batch3","","956.5999999642372","tol_trial_num","<div class = centerbox><p class = center-block-text>problem <strong>16</strong> out of 25 problems</p></div>","0","","","","","","","","","","","","","","","","","","","","","","","","",""
"","","","","","single-stim-button","285","536010","0.0-2.0-56.0-0.0","5b0481d17ac6e4000107e12a","C3","batch3","","7108","tol_tohand","","","","tol_peg_2","7108","7108","0","[[0,0,0],[2,0],[1]]","1","[[2,3,0],[1,0],[0]]","15","0","","","","","","7","","","","","","","","",""
"","","","","","single-stim-button","286","537015","0.0-2.0-56.0-1.0","5b0481d17ac6e4000107e12a","C3","batch3","","1003","tol_toboard","","","","tol_peg_1","1003","1003","0","[[3,0,0],[2,0],[1]]","1","[[2,3,0],[1,0],[0]]","15","0","","","","","","7","","","","","","","","",""
"","","","","","single-stim-button","287","537705","0.0-2.0-56.1-0.1","5b0481d17ac6e4000107e12a","C3","batch3","","689","tol_tohand","","","","tol_peg_2","689","689","0","[[3,0,0],[0,0],[1]]","2","[[2,3,0],[1,0],[0]]","15","0","","","","","","7","","","","","","","","",""
"","","","","","single-stim-button","288","538607","0.0-2.0-56.1-1.1","5b0481d17ac6e4000107e12a","C3","batch3","","902","tol_toboard","","","","tol_peg_1","902","902","0","[[3,2,0],[0,0],[1]]","2","[[2,3,0],[1,0],[0]]","15","0","","","","","","7","","","","","","","","",""
"","","","","","single-stim-button","289","540636","0.0-2.0-56.2-0.2","5b0481d17ac6e4000107e12a","C3","batch3","","2029","tol_tohand","","","","tol_peg_3","2029","2029","0","[[3,2,0],[0,0],[0]]","3","[[2,3,0],[1,0],[0]]","15","0","","","","","","7","","","","","","","","",""
"","","","","","single-stim-button","290","541742","0.0-2.0-56.2-1.2","5b0481d17ac6e4000107e12a","C3","batch3","","1105","tol_toboard","","","","tol_peg_2","1105","1105","0","[[3,2,0],[1,0],[0]]","3","[[2,3,0],[1,0],[0]]","15","0","","","","","","7","","","","","","","","",""
"","","","","","single-stim-button","291","543242","0.0-2.0-56.3-0.3","5b0481d17ac6e4000107e12a","C3","batch3","","1500","tol_tohand","","","","tol_peg_1","1500","1500","0","[[3,0,0],[1,0],[0]]","4","[[2,3,0],[1,0],[0]]","15","0","","","","","","7","","","","","","","","",""
"","","","","","single-stim-button","292","544065","0.0-2.0-56.3-1.3","5b0481d17ac6e4000107e12a","C3","batch3","","823","tol_toboard","","","","tol_peg_3","823","823","0","[[3,0,0],[1,0],[2]]","4","[[2,3,0],[1,0],[0]]","15","0","","","","","","7","","","","","","","","",""
"","","","","","single-stim-button","293","546561","0.0-2.0-56.4-0.4","5b0481d17ac6e4000107e12a","C3","batch3","","2495","tol_tohand","","","","tol_peg_1","2495","2495","0","[[0,0,0],[1,0],[2]]","5","[[2,3,0],[1,0],[0]]","15","0","","","","","","7","","","","","","","","",""
"","","","","","single-stim-button","294","547221","0.0-2.0-56.4-1.4","5b0481d17ac6e4000107e12a","C3","batch3","","659","tol_toboard","","","","tol_peg_2","659","659","0","[[0,0,0],[1,3],[2]]","5","[[2,3,0],[1,0],[0]]","15","0","","","","","","7","","","","","","","","",""
"","","","","","single-stim-button","295","548326","0.0-2.0-56.5-0.5","5b0481d17ac6e4000107e12a","C3","batch3","","1105","tol_tohand","","","","tol_peg_3","1105","1105","0","[[0,0,0],[1,3],[0]]","6","[[2,3,0],[1,0],[0]]","15","0","","","","","","7","","","","","","","","",""
"","","","","","single-stim-button","296","549614","0.0-2.0-56.5-1.5","5b0481d17ac6e4000107e12a","C3","batch3","","1288","tol_toboard","","","","tol_peg_1","1288","1288","0","[[2,0,0],[1,3],[0]]","6","[[2,3,0],[1,0],[0]]","15","0","","","","","","7","","","","","","","","",""
"","","","","","single-stim-button","297","550781","0.0-2.0-56.6-0.6","5b0481d17ac6e4000107e12a","C3","batch3","","1167","tol_tohand","","","","tol_peg_2","1167","1167","0","[[2,0,0],[1,0],[0]]","7","[[2,3,0],[1,0],[0]]","15","0","","","","","","7","","","","","","","","",""
"","","","","","single-stim-button","298","551562","0.0-2.0-56.6-1.6","5b0481d17ac6e4000107e12a","C3","batch3","","780","tol_toboard","","","","tol_peg_1","780","780","0","[[2,3,0],[1,0],[0]]","7","[[2,3,0],[1,0],[0]]","15","0","","","","","","7","","","","","","","","",""
"","","","","","poldrack-single-stim","299","552568","0.0-2.0-57.0","5b0481d17ac6e4000107e12a","C3","batch3","","-1","tol_feedback","","","true","","1000","1000","500","","","","","","-1","none","true","7108","16093","","","","","","","","","",""
"","","","","","html-button-response","300","553418","0.0-2.0-58.0","5b0481d17ac6e4000107e12a","C3","batch3","","848.8000000119209","tol_trial_num","<div class = centerbox><p class = center-block-text>problem <strong>17</strong> out of 25 problems</p></div>","0","","","","","","","","","","","","","","","","","","","","","","","","",""
"","","","","","single-stim-button","301","556470","0.0-2.0-59.0-0.0","5b0481d17ac6e4000107e12a","C3","batch3","","3052","tol_tohand","","","","tol_peg_1","3052","3052","0","[[1,0,0],[3,0],[0]]","1","[[3,1,0],[2,0],[0]]","16","0","","","","","","5","","","","","","","","",""
"","","","","","single-stim-button","302","557841","0.0-2.0-59.0-1.0","5b0481d17ac6e4000107e12a","C3","batch3","","1370","tol_toboard","","","","tol_peg_3","1370","1370","0","[[1,0,0],[3,0],[2]]","1","[[3,1,0],[2,0],[0]]","16","0","","","","","","5","","","","","","","","",""
"","","","","","single-stim-button","303","560132","0.0-2.0-59.1-0.1","5b0481d17ac6e4000107e12a","C3","batch3","","2291","tol_tohand","","","","tol_peg_1","2291","2291","0","[[0,0,0],[3,0],[2]]","2","[[3,1,0],[2,0],[0]]","16","0","","","","","","5","","","","","","","","",""
"","","","","","single-stim-button","304","562292","0.0-2.0-59.1-1.1","5b0481d17ac6e4000107e12a","C3","batch3","","2160","tol_toboard","","","","tol_peg_1","2160","2160","0","[[1,0,0],[3,0],[2]]","2","[[3,1,0],[2,0],[0]]","16","0","","","","","","5","","","","","","","","",""
"","","","","","single-stim-button","305","563074","0.0-2.0-59.2-0.2","5b0481d17ac6e4000107e12a","C3","batch3","","782","tol_tohand","","","","tol_peg_3","782","782","0","[[1,0,0],[3,0],[0]]","3","[[3,1,0],[2,0],[0]]","16","0","","","","","","5","","","","","","","","",""
"","","","","","single-stim-button","306","563692","0.0-2.0-59.2-1.2","5b0481d17ac6e4000107e12a","C3","batch3","","618","tol_toboard","","","","tol_peg_2","618","618","0","[[1,0,0],[3,2],[0]]","3","[[3,1,0],[2,0],[0]]","16","0","","","","","","5","","","","","","","","",""
"","","","","","single-stim-button","307","564321","0.0-2.0-59.3-0.3","5b0481d17ac6e4000107e12a","C3","batch3","","629","tol_tohand","","","","tol_peg_1","629","629","0","[[0,0,0],[3,2],[0]]","4","[[3,1,0],[2,0],[0]]","16","0","","","","","","5","","","","","","","","",""
"","","","","","single-stim-button","308","565122","0.0-2.0-59.3-1.3","5b0481d17ac6e4000107e12a","C3","batch3","","801","tol_toboard","","","","tol_peg_3","801","801","0","[[0,0,0],[3,2],[1]]","4","[[3,1,0],[2,0],[0]]","16","0","","","","","","5","","","","","","","","",""
"","","","","","single-stim-button","309","567404","0.0-2.0-59.4-0.4","5b0481d17ac6e4000107e12a","C3","batch3","","2281","tol_tohand","","","","tol_peg_2","2281","2281","0","[[0,0,0],[3,0],[1]]","5","[[3,1,0],[2,0],[0]]","16","0","","","","","","5","","","","","","","","",""
"","","","","","single-stim-button","310","568205","0.0-2.0-59.4-1.4","5b0481d17ac6e4000107e12a","C3","batch3","","801","tol_toboard","","","","tol_peg_1","801","801","0","[[2,0,0],[3,0],[1]]","5","[[3,1,0],[2,0],[0]]","16","0","","","","","","5","","","","","","","","",""
"","","","","","single-stim-button","311","569342","0.0-2.0-59.5-0.5","5b0481d17ac6e4000107e12a","C3","batch3","","1136","tol_tohand","","","","tol_peg_2","1136","1136","0","[[2,0,0],[0,0],[1]]","6","[[3,1,0],[2,0],[0]]","16","0","","","","","","5","","","","","","","","",""
"","","","","","single-stim-button","312","573856","0.0-2.0-59.5-1.5","5b0481d17ac6e4000107e12a","C3","batch3","","4514","tol_toboard","","","","tol_peg_1","4514","4514","0","[[2,3,0],[0,0],[1]]","6","[[3,1,0],[2,0],[0]]","16","0","","","","","","5","","","","","","","","",""
"","","","","","single-stim-button","313","574790","0.0-2.0-59.6-0.6","5b0481d17ac6e4000107e12a","C3","batch3","","934","tol_tohand","","","","tol_peg_3","934","934","0","[[2,3,0],[0,0],[0]]","7","[[3,1,0],[2,0],[0]]","16","0","","","","","","5","","","","","","","","",""
"","","","","","single-stim-button","314","575490","0.0-2.0-59.6-1.6","5b0481d17ac6e4000107e12a","C3","batch3","","700","tol_toboard","","","","tol_peg_2","700","700","0","[[2,3,0],[1,0],[0]]","7","[[3,1,0],[2,0],[0]]","16","0","","","","","","5","","","","","","","","",""
"","","","","","single-stim-button","315","578320","0.0-2.0-59.7-0.7","5b0481d17ac6e4000107e12a","C3","batch3","","2830","tol_tohand","","","","tol_peg_1","2830","2830","0","[[2,0,0],[1,0],[0]]","8","[[3,1,0],[2,0],[0]]","16","0","","","","","","5","","","","","","","","",""
"","","","","","single-stim-button","316","579080","0.0-2.0-59.7-1.7","5b0481d17ac6e4000107e12a","C3","batch3","","760","tol_toboard","","","","tol_peg_3","760","760","0","[[2,0,0],[1,0],[3]]","8","[[3,1,0],[2,0],[0]]","16","0","","","","","","5","","","","","","","","",""
"","","","","","single-stim-button","317","579710","0.0-2.0-59.8-0.8","5b0481d17ac6e4000107e12a","C3","batch3","","629","tol_tohand","","","","tol_peg_1","629","629","0","[[0,0,0],[1,0],[3]]","9","[[3,1,0],[2,0],[0]]","16","0","","","","","","5","","","","","","","","",""
"","","","","","single-stim-button","318","580481","0.0-2.0-59.8-1.8","5b0481d17ac6e4000107e12a","C3","batch3","","771","tol_toboard","","","","tol_peg_2","771","771","0","[[0,0,0],[1,2],[3]]","9","[[3,1,0],[2,0],[0]]","16","0","","","","","","5","","","","","","","","",""
"","","","","","single-stim-button","319","581688","0.0-2.0-59.9-0.9","5b0481d17ac6e4000107e12a","C3","batch3","","1207","tol_tohand","","","","tol_peg_3","1207","1207","0","[[0,0,0],[1,2],[0]]","10","[[3,1,0],[2,0],[0]]","16","0","","","","","","5","","","","","","","","",""
"","","","","","single-stim-button","320","582379","0.0-2.0-59.9-1.9","5b0481d17ac6e4000107e12a","C3","batch3","","690","tol_toboard","","","","tol_peg_1","690","690","0","[[3,0,0],[1,2],[0]]","10","[[3,1,0],[2,0],[0]]","16","0","","","","","","5","","","","","","","","",""
"","","","","","single-stim-button","321","583007","0.0-2.0-59.10-0.10","5b0481d17ac6e4000107e12a","C3","batch3","","628","tol_tohand","","","","tol_peg_2","628","628","0","[[3,0,0],[1,0],[0]]","11","[[3,1,0],[2,0],[0]]","16","0","","","","","","5","","","","","","","","",""
"","","","","","single-stim-button","322","583597","0.0-2.0-59.10-1.10","5b0481d17ac6e4000107e12a","C3","batch3","","589","tol_toboard","","","","tol_peg_3","589","589","0","[[3,0,0],[1,0],[2]]","11","[[3,1,0],[2,0],[0]]","16","0","","","","","","5","","","","","","","","",""
"","","","","","single-stim-button","323","584235","0.0-2.0-59.11-0.11","5b0481d17ac6e4000107e12a","C3","batch3","","638","tol_tohand","","","","tol_peg_2","638","638","0","[[3,0,0],[0,0],[2]]","12","[[3,1,0],[2,0],[0]]","16","0","","","","","","5","","","","","","","","",""
"","","","","","single-stim-button","324","584914","0.0-2.0-59.11-1.11","5b0481d17ac6e4000107e12a","C3","batch3","","679","tol_toboard","","","","tol_peg_1","679","679","0","[[3,1,0],[0,0],[2]]","12","[[3,1,0],[2,0],[0]]","16","0","","","","","","5","","","","","","","","",""
"","","","","","single-stim-button","325","585554","0.0-2.0-59.12-0.12","5b0481d17ac6e4000107e12a","C3","batch3","","639","tol_tohand","","","","tol_peg_3","639","639","0","[[3,1,0],[0,0],[0]]","13","[[3,1,0],[2,0],[0]]","16","0","","","","","","5","","","","","","","","",""
"","","","","","single-stim-button","326","586224","0.0-2.0-59.12-1.12","5b0481d17ac6e4000107e12a","C3","batch3","","670","tol_toboard","","","","tol_peg_2","670","670","0","[[3,1,0],[2,0],[0]]","13","[[3,1,0],[2,0],[0]]","16","0","","","","","","5","","","","","","","","",""
"","","","","","poldrack-single-stim","327","587225","0.0-2.0-60.0","5b0481d17ac6e4000107e12a","C3","batch3","","-1","tol_feedback","","","true","","1000","1000","500","","","","","","-1","none","true","3052","17676","","","","","","","","","",""
"","","","","","html-button-response","328","588060","0.0-2.0-61.0","5b0481d17ac6e4000107e12a","C3","batch3","","833.8000000119209","tol_trial_num","<div class = centerbox><p class = center-block-text>problem <strong>18</strong> out of 25 problems</p></div>","0","","","","","","","","","","","","","","","","","","","","","","","","",""
"","","","","","single-stim-button","329","593763","0.0-2.0-62.0-0.0","5b0481d17ac6e4000107e12a","C3","batch3","","5702","tol_tohand","","","","tol_peg_2","5702","5702","0","[[1,2,0],[0,0],[0]]","1","[[3,0,0],[2,0],[1]]","17","0","","","","","","5","","","","","","","","",""
"","","","","","single-stim-button","330","594838","0.0-2.0-62.0-1.0","5b0481d17ac6e4000107e12a","C3","batch3","","1075","tol_toboard","","","","tol_peg_3","1075","1075","0","[[1,2,0],[0,0],[3]]","1","[[3,0,0],[2,0],[1]]","17","0","","","","","","5","","","","","","","","",""
"","","","","","single-stim-button","331","595569","0.0-2.0-62.1-0.1","5b0481d17ac6e4000107e12a","C3","batch3","","731","tol_tohand","","","","tol_peg_1","731","731","0","[[1,0,0],[0,0],[3]]","2","[[3,0,0],[2,0],[1]]","17","0","","","","","","5","","","","","","","","",""
"","","","","","single-stim-button","332","596197","0.0-2.0-62.1-1.1","5b0481d17ac6e4000107e12a","C3","batch3","","627","tol_toboard","","","","tol_peg_2","627","627","0","[[1,0,0],[2,0],[3]]","2","[[3,0,0],[2,0],[1]]","17","0","","","","","","5","","","","","","","","",""
"","","","","","single-stim-button","333","597841","0.0-2.0-62.2-0.2","5b0481d17ac6e4000107e12a","C3","batch3","","1643","tol_tohand","","","","tol_peg_1","1643","1643","0","[[0,0,0],[2,0],[3]]","3","[[3,0,0],[2,0],[1]]","17","0","","","","","","5","","","","","","","","",""
"","","","","","single-stim-button","334","600276","0.0-2.0-62.2-1.2","5b0481d17ac6e4000107e12a","C3","batch3","","2435","tol_toboard","","","","tol_peg_2","2435","2435","0","[[0,0,0],[2,1],[3]]","3","[[3,0,0],[2,0],[1]]","17","0","","","","","","5","","","","","","","","",""
"","","","","","single-stim-button","335","601007","0.0-2.0-62.3-0.3","5b0481d17ac6e4000107e12a","C3","batch3","","729","tol_tohand","","","","tol_peg_3","729","729","0","[[0,0,0],[2,1],[0]]","4","[[3,0,0],[2,0],[1]]","17","0","","","","","","5","","","","","","","","",""
"","","","","","single-stim-button","336","602041","0.0-2.0-62.3-1.3","5b0481d17ac6e4000107e12a","C3","batch3","","1034","tol_toboard","","","","tol_peg_1","1034","1034","0","[[3,0,0],[2,1],[0]]","4","[[3,0,0],[2,0],[1]]","17","0","","","","","","5","","","","","","","","",""
"","","","","","single-stim-button","337","602741","0.0-2.0-62.4-0.4","5b0481d17ac6e4000107e12a","C3","batch3","","699","tol_tohand","","","","tol_peg_2","699","699","0","[[3,0,0],[2,0],[0]]","5","[[3,0,0],[2,0],[1]]","17","0","","","","","","5","","","","","","","","",""
"","","","","","single-stim-button","338","603411","0.0-2.0-62.4-1.4","5b0481d17ac6e4000107e12a","C3","batch3","","669","tol_toboard","","","","tol_peg_3","669","669","0","[[3,0,0],[2,0],[1]]","5","[[3,0,0],[2,0],[1]]","17","0","","","","","","5","","","","","","","","",""
"","","","","","poldrack-single-stim","339","604412","0.0-2.0-63.0","5b0481d17ac6e4000107e12a","C3","batch3","","-1","tol_feedback","","","true","","1000","1000","500","","","","","","-1","none","true","5702","9504","","","","","","","","","",""
"","","","","","html-button-response","340","605349","0.0-2.0-64.0","5b0481d17ac6e4000107e12a","C3","batch3","","936","tol_trial_num","<div class = centerbox><p class = center-block-text>problem <strong>19</strong> out of 25 problems</p></div>","0","","","","","","","","","","","","","","","","","","","","","","","","",""
"","","","","","single-stim-button","341","613719","0.0-2.0-65.0-0.0","5b0481d17ac6e4000107e12a","C3","batch3","","8370","tol_tohand","","","","tol_peg_2","8370","8370","0","[[1,2,0],[0,0],[0]]","1","[[0,0,0],[1,2],[3]]","18","0","","","","","","7","","","","","","","","",""
"","","","","","single-stim-button","342","614480","0.0-2.0-65.0-1.0","5b0481d17ac6e4000107e12a","C3","batch3","","760","tol_toboard","","","","tol_peg_3","760","760","0","[[1,2,0],[0,0],[3]]","1","[[0,0,0],[1,2],[3]]","18","0","","","","","","7","","","","","","","","",""
"","","","","","single-stim-button","343","617290","0.0-2.0-65.1-0.1","5b0481d17ac6e4000107e12a","C3","batch3","","2810","tol_tohand","","","","tol_peg_3","2810","2810","0","[[1,2,0],[0,0],[0]]","2","[[0,0,0],[1,2],[3]]","18","0","","","","","","7","","","","","","","","",""
"","","","","","single-stim-button","344","618995","0.0-2.0-65.1-1.1","5b0481d17ac6e4000107e12a","C3","batch3","","1705","tol_toboard","","","","tol_peg_2","1705","1705","0","[[1,2,0],[3,0],[0]]","2","[[0,0,0],[1,2],[3]]","18","0","","","","","","7","","","","","","","","",""
"","","","","","single-stim-button","345","621399","0.0-2.0-65.2-0.2","5b0481d17ac6e4000107e12a","C3","batch3","","2403","tol_tohand","","","","tol_peg_1","2403","2403","0","[[1,0,0],[3,0],[0]]","3","[[0,0,0],[1,2],[3]]","18","0","","","","","","7","","","","","","","","",""
"","","","","","single-stim-button","346","622180","0.0-2.0-65.2-1.2","5b0481d17ac6e4000107e12a","C3","batch3","","781","tol_toboard","","","","tol_peg_3","781","781","0","[[1,0,0],[3,0],[2]]","3","[[0,0,0],[1,2],[3]]","18","0","","","","","","7","","","","","","","","",""
"","","","","","single-stim-button","347","623173","0.0-2.0-65.3-0.3","5b0481d17ac6e4000107e12a","C3","batch3","","992","tol_tohand","","","","tol_peg_1","992","992","0","[[0,0,0],[3,0],[2]]","4","[[0,0,0],[1,2],[3]]","18","0","","","","","","7","","","","","","","","",""
"","","","","","single-stim-button","348","623915","0.0-2.0-65.3-1.3","5b0481d17ac6e4000107e12a","C3","batch3","","741","tol_toboard","","","","tol_peg_2","741","741","0","[[0,0,0],[3,1],[2]]","4","[[0,0,0],[1,2],[3]]","18","0","","","","","","7","","","","","","","","",""
"","","","","","single-stim-button","349","625275","0.0-2.0-65.4-0.4","5b0481d17ac6e4000107e12a","C3","batch3","","1360","tol_tohand","","","","tol_peg_3","1360","1360","0","[[0,0,0],[3,1],[0]]","5","[[0,0,0],[1,2],[3]]","18","0","","","","","","7","","","","","","","","",""
"","","","","","single-stim-button","350","626036","0.0-2.0-65.4-1.4","5b0481d17ac6e4000107e12a","C3","batch3","","760","tol_toboard","","","","tol_peg_1","760","760","0","[[2,0,0],[3,1],[0]]","5","[[0,0,0],[1,2],[3]]","18","0","","","","","","7","","","","","","","","",""
"","","","","","single-stim-button","351","627375","0.0-2.0-65.5-0.5","5b0481d17ac6e4000107e12a","C3","batch3","","1339","tol_tohand","","","","tol_peg_2","1339","1339","0","[[2,0,0],[3,0],[0]]","6","[[0,0,0],[1,2],[3]]","18","0","","","","","","7","","","","","","","","",""
"","","","","","single-stim-button","352","628217","0.0-2.0-65.5-1.5","5b0481d17ac6e4000107e12a","C3","batch3","","842","tol_toboard","","","","tol_peg_1","842","842","0","[[2,1,0],[3,0],[0]]","6","[[0,0,0],[1,2],[3]]","18","0","","","","","","7","","","","","","","","",""
"","","","","","single-stim-button","353","629130","0.0-2.0-65.6-0.6","5b0481d17ac6e4000107e12a","C3","batch3","","913","tol_tohand","","","","tol_peg_2","913","913","0","[[2,1,0],[0,0],[0]]","7","[[0,0,0],[1,2],[3]]","18","0","","","","","","7","","","","","","","","",""
"","","","","","single-stim-button","354","630956","0.0-2.0-65.6-1.6","5b0481d17ac6e4000107e12a","C3","batch3","","1826","tol_toboard","","","","tol_peg_3","1826","1826","0","[[2,1,0],[0,0],[3]]","7","[[0,0,0],[1,2],[3]]","18","0","","","","","","7","","","","","","","","",""
"","","","","","single-stim-button","355","631951","0.0-2.0-65.7-0.7","5b0481d17ac6e4000107e12a","C3","batch3","","993","tol_tohand","","","","tol_peg_1","993","993","0","[[2,0,0],[0,0],[3]]","8","[[0,0,0],[1,2],[3]]","18","0","","","","","","7","","","","","","","","",""
