"success","timeout","failed_images","failed_audio","failed_video","trial_type","trial_index","time_elapsed","internal_node_id","subject_id","study_id","session_id","view_history","rt","stimulus","response","task","correct","answer","item","fiar_detect_rt","fiar_detect_correct","total_correct_fiar_detect","post_trial_gap","choices","spm_correct","spm_rt","mouse_click","stim_duration","block_duration","timing_post_trial","current_position","tol_num_moves_made","tol_target","tol_problem_id","tol_rt","key_press","possible_responses","tol_correct","preplanning","tol_rt_per_trial","tol_min_moves"
"true","false","[]","[]","[]","preload","0","9559","0.0-0.0","5b0482fc325b6c0001bbb7f0","D2","batch4","","","","","","","","","","","","","","","","","","","","","","","","","","","","","",""
"true","","","","","fullscreen","1","22945","0.0-1.0-0.0","5b0482fc325b6c0001bbb7f0","D2","batch4","","","","","","","","","","","","","","","","","","","","","","","","","","","","","",""
"true","","","","","fullscreen","2","28405","0.0-2.0-0.0","5b0482fc325b6c0001bbb7f0","D2","batch4","","","","","","","","","","","","","","","","","","","","","","","","","","","","","",""
"","","","","","instructions","3","49464","0.0-2.0-1.0-0.0","5b0482fc325b6c0001bbb7f0","D2","batch4","[{""page_index"":0,""viewing_time"":10725.5},{""page_index"":1,""viewing_time"":10326}]","21052.399999976158","","","","","","","","","","","","","","","","","","","","","","","","","","","",""
"","","","","","html-button-response","4","51746","0.0-2.0-1.0-1.0-0.0","5b0482fc325b6c0001bbb7f0","D2","batch4","","2279.3000000715256","<p class=block-text> Let's answer a few questions <br>","0","pattern_enter_quiz","","","","","","","","","","","","","","","","","","","","","","","","",""
"","","","","","html-button-response","5","53857","0.0-2.0-1.0-1.0-1.0","5b0482fc325b6c0001bbb7f0","D2","batch4","","2107.6999999284744","<p class = block-text>True or False: You will have as much time as you want to make each choice. <br></p>","1","pattern_quiz","true","","","","","","","","","","","","","","","","","","","","","","","",""
"","","","","","html-button-response","6","55001","0.0-2.0-1.0-1.0-2.0","5b0482fc325b6c0001bbb7f0","D2","batch4","","1141.0999999046326","<p class = block-text>Correct! You should make your choice <strong> as fast as you can</strong>.</p>","0","pattern_quiz_feedback","","","","","","","","","","","","","","","","","","","","","","","","",""
"","","","","","html-button-response","7","58884","0.0-2.0-1.0-1.0-3.0","5b0482fc325b6c0001bbb7f0","D2","batch4","","3881.1999999284744","<p class = block-text>True or False: You will look for 4 pieces in black or white color connected in a row either horizontally, vertically or diagonally. <br></p>","0","pattern_quiz","true","","","","","","","","","","","","","","","","","","","","","","","",""
"","","","","","html-button-response","8","59889","0.0-2.0-1.0-1.0-4.0","5b0482fc325b6c0001bbb7f0","D2","batch4","","1001.7000000476837","<p class = block-text>Correct! </p>","0","pattern_quiz_feedback","","","","","","","","","","","","","","","","","","","","","","","","",""
"","","","","","html-button-response","9","65836","0.0-2.0-2.0","5b0482fc325b6c0001bbb7f0","D2","batch4","","5941.200000047684","<p class=block-text> Now that you've understood the game, let's do a few practice trials before we start!<br> <br>","0","pattern_enter_practice","","","","","","","","","","","","","","","","","","","","","","","","",""
"","","","","","image-keyboard-response","10","67345","0.0-2.0-3.0-0.0","5b0482fc325b6c0001bbb7f0","D2","batch4","","1496.4000000953674","stim/prac_yes_16_ver_w1.png","f","pattern_practice","true","f","","","","","","","","","","","","","","","","","","","","","","",""
"","","","","","html-keyboard-response","11","68365","0.0-2.0-3.0-1.0","5b0482fc325b6c0001bbb7f0","D2","batch4","","null","<p style=""font-size:30px;color:green;"">Correct!</p>","null","pattern_feedback","","","","","","","","","","","","","","","","","","","","","","","","",""
"","","","","","image-keyboard-response","12","69591","0.0-2.0-3.0-0.1","5b0482fc325b6c0001bbb7f0","D2","batch4","","1219.2999999523163","stim/prac_yes_20_dia_b1.png","f","pattern_practice","true","f","","","","","","","","","","","","","","","","","","","","","","",""
"","","","","","html-keyboard-response","13","70614","0.0-2.0-3.0-1.1","5b0482fc325b6c0001bbb7f0","D2","batch4","","null","<p style=""font-size:30px;color:green;"">Correct!</p>","null","pattern_feedback","","","","","","","","","","","","","","","","","","","","","","","","",""
"","","","","","image-keyboard-response","14","71936","0.0-2.0-3.0-0.2","5b0482fc325b6c0001bbb7f0","D2","batch4","","1319.1999999284744","stim/prac_no_18_1.png","j","pattern_practice","true","j","","","","","","","","","","","","","","","","","","","","","","",""
"","","","","","html-keyboard-response","15","72964","0.0-2.0-3.0-1.2","5b0482fc325b6c0001bbb7f0","D2","batch4","","null","<p style=""font-size:30px;color:green;"">Correct!</p>","null","pattern_feedback","","","","","","","","","","","","","","","","","","","","","","","","",""
"","","","","","image-keyboard-response","16","73911","0.0-2.0-3.0-0.3","5b0482fc325b6c0001bbb7f0","D2","batch4","","942.5","stim/prac_yes_18_hor_w1.png","f","pattern_practice","true","f","","","","","","","","","","","","","","","","","","","","","","",""
"","","","","","html-keyboard-response","17","74933","0.0-2.0-3.0-1.3","5b0482fc325b6c0001bbb7f0","D2","batch4","","null","<p style=""font-size:30px;color:green;"">Correct!</p>","null","pattern_feedback","","","","","","","","","","","","","","","","","","","","","","","","",""
"","","","","","image-keyboard-response","18","76673","0.0-2.0-3.0-0.4","5b0482fc325b6c0001bbb7f0","D2","batch4","","1736.2000000476837","stim/prac_no_16_1.png","j","pattern_practice","true","j","","","","","","","","","","","","","","","","","","","","","","",""
"","","","","","html-keyboard-response","19","77699","0.0-2.0-3.0-1.4","5b0482fc325b6c0001bbb7f0","D2","batch4","","null","<p style=""font-size:30px;color:green;"">Correct!</p>","null","pattern_feedback","","","","","","","","","","","","","","","","","","","","","","","","",""
"","","","","","html-button-response","20","108250","0.0-2.0-4.0","5b0482fc325b6c0001bbb7f0","D2","batch4","","30547.300000071526","<p class=block-text> Good job! You are done with practice trials!<br>
        You responded correctly on 100% of the trials.<br>
        Press the button below to start official trials. Now you won't see any feedback about your response</p>","0","pattern_enter_official_trials","","","","","","","","","","","","","","","","","","","","","","","","",""
"","","","","","html-keyboard-response","21","109053","0.0-2.0-5.0-0.0","5b0482fc325b6c0001bbb7f0","D2","batch4","","null","<p class=block-text>Trial 1 out of 78</p>","null","pattern_show_trial_num","","","","","","","","","","","","","","","","","","","","","","","","",""
"","","","","","image-keyboard-response","22","113036","0.0-2.0-5.0-1.0","5b0482fc325b6c0001bbb7f0","D2","batch4","","3974.600000023842","stim/yes_51_dia_b1.png","f","pattern_response","true","f","pattern_72","3974.600000023842","true","1","","","","","","","","","","","","","","","","","","",""
"","","","","","html-keyboard-response","23","114353","0.0-2.0-5.0-0.1","5b0482fc325b6c0001bbb7f0","D2","batch4","","null","<p class=block-text>Trial 2 out of 78</p>","null","pattern_show_trial_num","","","","","","","","","","","","","","","","","","","","","","","","",""
"","","","","","image-keyboard-response","24","115326","0.0-2.0-5.0-1.1","5b0482fc325b6c0001bbb7f0","D2","batch4","","966.5999999046326","stim/yes_33_dia_w1_w.png","f","pattern_response","true","f","pattern_56","966.5999999046326","true","2","","","","","","","","","","","","","","","","","","",""
"","","","","","html-keyboard-response","25","116654","0.0-2.0-5.0-0.2","5b0482fc325b6c0001bbb7f0","D2","batch4","","null","<p class=block-text>Trial 3 out of 78</p>","null","pattern_show_trial_num","","","","","","","","","","","","","","","","","","","","","","","","",""
"","","","","","image-keyboard-response","26","118065","0.0-2.0-5.0-1.2","5b0482fc325b6c0001bbb7f0","D2","batch4","","1404.6000000238419","stim/no_12_1.png","j","pattern_response","true","j","pattern_01","1404.6000000238419","true","3","","","","","","","","","","","","","","","","","","",""
"","","","","","html-keyboard-response","27","119388","0.0-2.0-5.0-0.3","5b0482fc325b6c0001bbb7f0","D2","batch4","","null","<p class=block-text>Trial 4 out of 78</p>","null","pattern_show_trial_num","","","","","","","","","","","","","","","","","","","","","","","","",""
"","","","","","image-keyboard-response","28","121262","0.0-2.0-5.0-1.3","5b0482fc325b6c0001bbb7f0","D2","batch4","","1869.6000000238419","stim/yes_53_ver_b1_b.png","f","pattern_response","true","f","pattern_74","1869.6000000238419","true","4","","","","","","","","","","","","","","","","","","",""
"","","","","","html-keyboard-response","29","122588","0.0-2.0-5.0-0.4","5b0482fc325b6c0001bbb7f0","D2","batch4","","null","<p class=block-text>Trial 5 out of 78</p>","null","pattern_show_trial_num","","","","","","","","","","","","","","","","","","","","","","","","",""
"","","","","","image-keyboard-response","30","126902","0.0-2.0-5.0-1.4","5b0482fc325b6c0001bbb7f0","D2","batch4","","4306.100000023842","stim/no_36_1_b.png","j","pattern_response","true","j","pattern_17","4306.100000023842","true","5","","","","","","","","","","","","","","","","","","",""
"","","","","","html-keyboard-response","31","128223","0.0-2.0-5.0-0.5","5b0482fc325b6c0001bbb7f0","D2","batch4","","null","<p class=block-text>Trial 6 out of 78</p>","null","pattern_show_trial_num","","","","","","","","","","","","","","","","","","","","","","","","",""
"","","","","","image-keyboard-response","32","135502","0.0-2.0-5.0-1.5","5b0482fc325b6c0001bbb7f0","D2","batch4","","7275.399999976158","stim/no_45_1_w.png","j","pattern_response","true","j","pattern_25","7275.399999976158","true","6","","","","","","","","","","","","","","","","","","",""
"","","","","","html-keyboard-response","33","136825","0.0-2.0-5.0-0.6","5b0482fc325b6c0001bbb7f0","D2","batch4","","null","<p class=block-text>Trial 7 out of 78</p>","null","pattern_show_trial_num","","","","","","","","","","","","","","","","","","","","","","","","",""
"","","","","","image-keyboard-response","34","137884","0.0-2.0-5.0-1.6","5b0482fc325b6c0001bbb7f0","D2","batch4","","1055.2999999523163","stim/yes_26_dia_w2_w.png","f","pattern_response","true","f","pattern_50","1055.2999999523163","true","7","","","","","","","","","","","","","","","","","","",""
"","","","","","html-keyboard-response","35","139207","0.0-2.0-5.0-0.7","5b0482fc325b6c0001bbb7f0","D2","batch4","","null","<p class=block-text>Trial 8 out of 78</p>","null","pattern_show_trial_num","","","","","","","","","","","","","","","","","","","","","","","","",""
"","","","","","image-keyboard-response","36","140294","0.0-2.0-5.0-1.7","5b0482fc325b6c0001bbb7f0","D2","batch4","","1082.2000000476837","stim/yes_15_dia_b1u_b.png","f","pattern_response","true","f","pattern_44","1082.2000000476837","true","8","","","","","","","","","","","","","","","","","","",""
"","","","","","html-keyboard-response","37","141609","0.0-2.0-5.0-0.8","5b0482fc325b6c0001bbb7f0","D2","batch4","","null","<p class=block-text>Trial 9 out of 78</p>","null","pattern_show_trial_num","","","","","","","","","","","","","","","","","","","","","","","","",""
"","","","","","image-keyboard-response","38","147562","0.0-2.0-5.0-1.8","5b0482fc325b6c0001bbb7f0","D2","batch4","","5950.5","stim/no_43_2_b.png","j","pattern_response","true","j","pattern_23","5950.5","true","9","","","","","","","","","","","","","","","","","","",""
"","","","","","html-keyboard-response","39","148874","0.0-2.0-5.0-0.9","5b0482fc325b6c0001bbb7f0","D2","batch4","","null","<p class=block-text>Trial 10 out of 78</p>","null","pattern_show_trial_num","","","","","","","","","","","","","","","","","","","","","","","","",""
"","","","","","image-keyboard-response","40","156101","0.0-2.0-5.0-1.9","5b0482fc325b6c0001bbb7f0","D2","batch4","","7219.599999904633","stim/no_47_1_b.png","j","pattern_response","true","j","pattern_27","7219.599999904633","true","10","","","","","","","","","","","","","","","","","","",""
"","","","","","html-keyboard-response","41","157429","0.0-2.0-5.0-0.10","5b0482fc325b6c0001bbb7f0","D2","batch4","","null","<p class=block-text>Trial 11 out of 78</p>","null","pattern_show_trial_num","","","","","","","","","","","","","","","","","","","","","","","","",""
"","","","","","image-keyboard-response","42","158802","0.0-2.0-5.0-1.10","5b0482fc325b6c0001bbb7f0","D2","batch4","","1365.5","stim/yes_49_hor_w1_b.png","f","pattern_response","true","f","pattern_70","1365.5","true","11","","","","","","","","","","","","","","","","","","",""
"","","","","","html-keyboard-response","43","160130","0.0-2.0-5.0-0.11","5b0482fc325b6c0001bbb7f0","D2","batch4","","null","<p class=block-text>Trial 12 out of 78</p>","null","pattern_show_trial_num","","","","","","","","","","","","","","","","","","","","","","","","",""
"","","","","","image-keyboard-response","44","161332","0.0-2.0-5.0-1.11","5b0482fc325b6c0001bbb7f0","D2","batch4","","1199","stim/yes_70_ver_b1.png","f","pattern_response","true","f","pattern_80","1199","true","12","","","","","","","","","","","","","","","","","","",""
"","","","","","html-keyboard-response","45","162647","0.0-2.0-5.0-0.12","5b0482fc325b6c0001bbb7f0","D2","batch4","","null","<p class=block-text>Trial 13 out of 78</p>","null","pattern_show_trial_num","","","","","","","","","","","","","","","","","","","","","","","","",""
"","","","","","image-keyboard-response","46","163738","0.0-2.0-5.0-1.12","5b0482fc325b6c0001bbb7f0","D2","batch4","","1084","stim/yes_23_ver_b1.png","f","pattern_response","true","f","pattern_48","1084","true","13","","","","","","","","","","","","","","","","","","",""
"","","","","","html-keyboard-response","47","165065","0.0-2.0-5.0-0.13","5b0482fc325b6c0001bbb7f0","D2","batch4","","null","<p class=block-text>Trial 14 out of 78</p>","null","pattern_show_trial_num","","","","","","","","","","","","","","","","","","","","","","","","",""
"","","","","","image-keyboard-response","48","165886","0.0-2.0-5.0-1.13","5b0482fc325b6c0001bbb7f0","D2","batch4","","815.1000000238419","stim/yes_36_ver_w1_w.png","f","pattern_response","true","f","pattern_58","815.1000000238419","true","14","","","","","","","","","","","","","","","","","","",""
"","","","","","html-keyboard-response","49","167215","0.0-2.0-5.0-0.14","5b0482fc325b6c0001bbb7f0","D2","batch4","","null","<p class=block-text>Trial 15 out of 78</p>","null","pattern_show_trial_num","","","","","","","","","","","","","","","","","","","","","","","","",""
"","","","","","image-keyboard-response","50","176768","0.0-2.0-5.0-1.14","5b0482fc325b6c0001bbb7f0","D2","batch4","","9548","stim/no_49_2_b.png","j","pattern_response","true","j","pattern_29","9548","true","15","","","","","","","","","","","","","","","","","","",""
"","","","","","html-keyboard-response","51","178084","0.0-2.0-5.0-0.15","5b0482fc325b6c0001bbb7f0","D2","batch4","","null","<p class=block-text>Trial 16 out of 78</p>","null","pattern_show_trial_num","","","","","","","","","","","","","","","","","","","","","","","","",""
"","","","","","image-keyboard-response","52","186916","0.0-2.0-5.0-1.15","5b0482fc325b6c0001bbb7f0","D2","batch4","","8824.899999976158","stim/no_58_1_w.png","j","pattern_response","true","j","pattern_35","8824.899999976158","true","16","","","","","","","","","","","","","","","","","","",""
"","","","","","html-keyboard-response","53","188236","0.0-2.0-5.0-0.16","5b0482fc325b6c0001bbb7f0","D2","batch4","","null","<p class=block-text>Trial 17 out of 78</p>","null","pattern_show_trial_num","","","","","","","","","","","","","","","","","","","","","","","","",""
"","","","","","image-keyboard-response","54","191161","0.0-2.0-5.0-1.16","5b0482fc325b6c0001bbb7f0","D2","batch4","","2917.600000023842","stim/no_15_1_w.png","j","pattern_response","true","j","pattern_03","2917.600000023842","true","17","","","","","","","","","","","","","","","","","","",""
"","","","","","html-keyboard-response","55","192476","0.0-2.0-5.0-0.17","5b0482fc325b6c0001bbb7f0","D2","batch4","","null","<p class=block-text>Trial 18 out of 78</p>","null","pattern_show_trial_num","","","","","","","","","","","","","","","","","","","","","","","","",""
"","","","","","image-keyboard-response","56","198420","0.0-2.0-5.0-1.17","5b0482fc325b6c0001bbb7f0","D2","batch4","","5936.600000023842","stim/no_33_1_b.png","j","pattern_response","true","j","pattern_15","5936.600000023842","true","18","","","","","","","","","","","","","","","","","","",""
"","","","","","html-keyboard-response","57","199739","0.0-2.0-5.0-0.18","5b0482fc325b6c0001bbb7f0","D2","batch4","","null","<p class=block-text>Trial 19 out of 78</p>","null","pattern_show_trial_num","","","","","","","","","","","","","","","","","","","","","","","","",""
"","","","","","image-keyboard-response","58","201087","0.0-2.0-5.0-1.18","5b0482fc325b6c0001bbb7f0","D2","batch4","","1339.7000000476837","stim/yes_30_ver_b1_b.png","f","pattern_response","true","f","pattern_54","1339.7000000476837","true","19","","","","","","","","","","","","","","","","","","",""
"","","","","","html-keyboard-response","59","202406","0.0-2.0-5.0-0.19","5b0482fc325b6c0001bbb7f0","D2","batch4","","null","<p class=block-text>Trial 20 out of 78</p>","null","pattern_show_trial_num","","","","","","","","","","","","","","","","","","","","","","","","",""
"","","","","","image-keyboard-response","60","204871","0.0-2.0-5.0-1.19","5b0482fc325b6c0001bbb7f0","D2","batch4","","2461.3000000715256","stim/yes_42_dia_w1_w.png","f","pattern_response","true","f","pattern_64","2461.3000000715256","true","20","","","","","","","","","","","","","","","","","","",""
"","","","","","html-keyboard-response","61","206190","0.0-2.0-5.0-0.20","5b0482fc325b6c0001bbb7f0","D2","batch4","","null","<p class=block-text>Trial 21 out of 78</p>","null","pattern_show_trial_num","","","","","","","","","","","","","","","","","","","","","","","","",""
"","","","","","image-keyboard-response","62","210692","0.0-2.0-5.0-1.20","5b0482fc325b6c0001bbb7f0","D2","batch4","","4494.100000023842","stim/no_30_1_b.png","j","pattern_response","true","j","pattern_13","4494.100000023842","true","21","","","","","","","","","","","","","","","","","","",""
"","","","","","html-keyboard-response","63","212008","0.0-2.0-5.0-0.21","5b0482fc325b6c0001bbb7f0","D2","batch4","","null","<p class=block-text>Trial 22 out of 78</p>","null","pattern_show_trial_num","","","","","","","","","","","","","","","","","","","","","","","","",""
"","","","","","image-keyboard-response","64","212843","0.0-2.0-5.0-1.21","5b0482fc325b6c0001bbb7f0","D2","batch4","","830.7000000476837","stim/yes_12_hor_w1_w.png","f","pattern_response","true","f","pattern_42","830.7000000476837","true","22","","","","","","","","","","","","","","","","","","",""
"","","","","","html-keyboard-response","65","214161","0.0-2.0-5.0-0.22","5b0482fc325b6c0001bbb7f0","D2","batch4","","null","<p class=block-text>Trial 23 out of 78</p>","null","pattern_show_trial_num","","","","","","","","","","","","","","","","","","","","","","","","",""
"","","","","","image-keyboard-response","66","215052","0.0-2.0-5.0-1.22","5b0482fc325b6c0001bbb7f0","D2","batch4","","888.3000000715256","stim/yes_39_hor_w1_w.png","f","pattern_response","true","f","pattern_62","888.3000000715256","true","23","","","","","","","","","","","","","","","","","","",""
"","","","","","html-keyboard-response","67","216376","0.0-2.0-5.0-0.23","5b0482fc325b6c0001bbb7f0","D2","batch4","","null","<p class=block-text>Trial 24 out of 78</p>","null","pattern_show_trial_num","","","","","","","","","","","","","","","","","","","","","","","","",""
"","","","","","image-keyboard-response","68","220794","0.0-2.0-5.0-1.23","5b0482fc325b6c0001bbb7f0","D2","batch4","","4413","stim/no_28_2.png","j","pattern_response","true","j","pattern_11","4413","true","24","","","","","","","","","","","","","","","","","","",""
"","","","","","html-keyboard-response","69","222110","0.0-2.0-5.0-0.24","5b0482fc325b6c0001bbb7f0","D2","batch4","","null","<p class=block-text>Trial 25 out of 78</p>","null","pattern_show_trial_num","","","","","","","","","","","","","","","","","","","","","","","","",""
"","","","","","image-keyboard-response","70","223388","0.0-2.0-5.0-1.24","5b0482fc325b6c0001bbb7f0","D2","batch4","","1271.1999999284744","stim/yes_46_ver_b1_b.png","f","pattern_response","true","f","pattern_68","1271.1999999284744","true","25","","","","","","","","","","","","","","","","","","",""
"","","","","","html-keyboard-response","71","224711","0.0-2.0-5.0-0.25","5b0482fc325b6c0001bbb7f0","D2","batch4","","null","<p class=block-text>Trial 26 out of 78</p>","null","pattern_show_trial_num","","","","","","","","","","","","","","","","","","","","","","","","",""
"","","","","","image-keyboard-response","72","227506","0.0-2.0-5.0-1.25","5b0482fc325b6c0001bbb7f0","D2","batch4","","2788.899999976158","stim/yes_63_dia_b1.png","f","pattern_response","true","f","pattern_78","2788.899999976158","true","26","","","","","","","","","","","","","","","","","","",""
"","","","","","html-keyboard-response","73","228830","0.0-2.0-5.0-0.26","5b0482fc325b6c0001bbb7f0","D2","batch4","","null","<p class=block-text>Trial 27 out of 78</p>","null","pattern_show_trial_num","","","","","","","","","","","","","","","","","","","","","","","","",""
"","","","","","image-keyboard-response","74","229947","0.0-2.0-5.0-1.26","5b0482fc325b6c0001bbb7f0","D2","batch4","","1109.6999999284744","stim/yes_17_ver_b1_b.png","f","pattern_response","true","f","pattern_46","1109.6999999284744","true","27","","","","","","","","","","","","","","","","","","",""
"","","","","","html-keyboard-response","75","231263","0.0-2.0-5.0-0.27","5b0482fc325b6c0001bbb7f0","D2","batch4","","null","<p class=block-text>Trial 28 out of 78</p>","null","pattern_show_trial_num","","","","","","","","","","","","","","","","","","","","","","","","",""
"","","","","","image-keyboard-response","76","234405","0.0-2.0-5.0-1.27","5b0482fc325b6c0001bbb7f0","D2","batch4","","3136.0999999046326","stim/yes_58_dia_w1_w.png","f","pattern_response","true","f","pattern_76","3136.0999999046326","true","28","","","","","","","","","","","","","","","","","","",""
"","","","","","html-keyboard-response","77","235714","0.0-2.0-5.0-0.28","5b0482fc325b6c0001bbb7f0","D2","batch4","","null","<p class=block-text>Trial 29 out of 78</p>","null","pattern_show_trial_num","","","","","","","","","","","","","","","","","","","","","","","","",""
"","","","","","image-keyboard-response","78","245591","0.0-2.0-5.0-1.28","5b0482fc325b6c0001bbb7f0","D2","batch4","","9872.600000023842","stim/no_53_1_b.png","j","pattern_response","true","j","pattern_33","9872.600000023842","true","29","","","","","","","","","","","","","","","","","","",""
"","","","","","html-keyboard-response","79","246917","0.0-2.0-5.0-0.29","5b0482fc325b6c0001bbb7f0","D2","batch4","","null","<p class=block-text>Trial 30 out of 78</p>","null","pattern_show_trial_num","","","","","","","","","","","","","","","","","","","","","","","","",""
"","","","","","image-keyboard-response","80","252333","0.0-2.0-5.0-1.29","5b0482fc325b6c0001bbb7f0","D2","batch4","","5408.5","stim/yes_44_ver_w1_w.png","j","pattern_response","false","f","pattern_66","5408.5","false","29","","","","","","","","","","","","","","","","","","",""
"","","","","","html-keyboard-response","81","253651","0.0-2.0-5.0-0.30","5b0482fc325b6c0001bbb7f0","D2","batch4","","null","<p class=block-text>Trial 31 out of 78</p>","null","pattern_show_trial_num","","","","","","","","","","","","","","","","","","","","","","","","",""
"","","","","","image-keyboard-response","82","259803","0.0-2.0-5.0-1.30","5b0482fc325b6c0001bbb7f0","D2","batch4","","6143.300000071526","stim/no_51_1.png","j","pattern_response","true","j","pattern_31","6143.300000071526","true","30","","","","","","","","","","","","","","","","","","",""
"","","","","","html-keyboard-response","83","261120","0.0-2.0-5.0-0.31","5b0482fc325b6c0001bbb7f0","D2","batch4","","null","<p class=block-text>Trial 32 out of 78</p>","null","pattern_show_trial_num","","","","","","","","","","","","","","","","","","","","","","","","",""
"","","","","","image-keyboard-response","84","265184","0.0-2.0-5.0-1.31","5b0482fc325b6c0001bbb7f0","D2","batch4","","4057.7000000476837","stim/no_25_1_b.png","j","pattern_response","true","j","pattern_09","4057.7000000476837","true","31","","","","","","","","","","","","","","","","","","",""
"","","","","","html-keyboard-response","85","266506","0.0-2.0-5.0-0.32","5b0482fc325b6c0001bbb7f0","D2","batch4","","null","<p class=block-text>Trial 33 out of 78</p>","null","pattern_show_trial_num","","","","","","","","","","","","","","","","","","","","","","","","",""
"","","","","","image-keyboard-response","86","268329","0.0-2.0-5.0-1.32","5b0482fc325b6c0001bbb7f0","D2","batch4","","1815.7999999523163","stim/no_18_1_b.png","j","pattern_response","true","j","pattern_05","1815.7999999523163","true","32","","","","","","","","","","","","","","","","","","",""
"","","","","","html-keyboard-response","87","269655","0.0-2.0-5.0-0.33","5b0482fc325b6c0001bbb7f0","D2","batch4","","null","<p class=block-text>Trial 34 out of 78</p>","null","pattern_show_trial_num","","","","","","","","","","","","","","","","","","","","","","","","",""
"","","","","","image-keyboard-response","88","270728","0.0-2.0-5.0-1.33","5b0482fc325b6c0001bbb7f0","D2","batch4","","1066","stim/yes_29_hor_b1_b.png","f","pattern_response","true","f","pattern_52","1066","true","33","","","","","","","","","","","","","","","","","","",""
"","","","","","html-keyboard-response","89","272056","0.0-2.0-5.0-0.34","5b0482fc325b6c0001bbb7f0","D2","batch4","","null","<p class=block-text>Trial 35 out of 78</p>","null","pattern_show_trial_num","","","","","","","","","","","","","","","","","","","","","","","","",""
"","","","","","image-keyboard-response","90","278531","0.0-2.0-5.0-1.34","5b0482fc325b6c0001bbb7f0","D2","batch4","","6469.099999904633","stim/no_39_1_w.png","j","pattern_response","true","j","pattern_21","6469.099999904633","true","34","","","","","","","","","","","","","","","","","","",""
"","","","","","html-keyboard-response","91","279874","0.0-2.0-5.0-0.35","5b0482fc325b6c0001bbb7f0","D2","batch4","","null","<p class=block-text>Trial 36 out of 78</p>","null","pattern_show_trial_num","","","","","","","","","","","","","","","","","","","","","","","","",""
"","","","","","image-keyboard-response","92","282962","0.0-2.0-5.0-1.35","5b0482fc325b6c0001bbb7f0","D2","batch4","","3080","stim/no_22_1_b.png","j","pattern_response","true","j","pattern_07","3080","true","35","","","","","","","","","","","","","","","","","","",""
"","","","","","html-keyboard-response","93","284292","0.0-2.0-5.0-0.36","5b0482fc325b6c0001bbb7f0","D2","batch4","","null","<p class=block-text>Trial 37 out of 78</p>","null","pattern_show_trial_num","","","","","","","","","","","","","","","","","","","","","","","","",""
"","","","","","image-keyboard-response","94","290249","0.0-2.0-5.0-1.36","5b0482fc325b6c0001bbb7f0","D2","batch4","","5950.600000023842","stim/no_37_2_w.png","j","pattern_response","true","j","pattern_19","5950.600000023842","true","36","","","","","","","","","","","","","","","","","","",""
"","","","","","html-keyboard-response","95","291578","0.0-2.0-5.0-0.37","5b0482fc325b6c0001bbb7f0","D2","batch4","","null","<p class=block-text>Trial 38 out of 78</p>","null","pattern_show_trial_num","","","","","","","","","","","","","","","","","","","","","","","","",""
"","","","","","image-keyboard-response","96","301309","0.0-2.0-5.0-1.37","5b0482fc325b6c0001bbb7f0","D2","batch4","","9723.5","stim/no_67_1.png","j","pattern_response","true","j","pattern_39","9723.5","true","37","","","","","","","","","","","","","","","","","","",""
"","","","","","html-keyboard-response","97","302628","0.0-2.0-5.0-0.38","5b0482fc325b6c0001bbb7f0","D2","batch4","","null","<p class=block-text>Trial 39 out of 78</p>","null","pattern_show_trial_num","","","","","","","","","","","","","","","","","","","","","","","","",""
"","","","","","image-keyboard-response","98","303879","0.0-2.0-5.0-1.38","5b0482fc325b6c0001bbb7f0","D2","batch4","","1244.8000000715256","stim/yes_37_hor_w1_w.png","f","pattern_response","true","f","pattern_60","1244.8000000715256","true","38","","","","","","","","","","","","","","","","","","",""
"","","","","","image-keyboard-response","99","306224","0.0-2.0-6.0","5b0482fc325b6c0001bbb7f0","D2","batch4","","1836","stim/empty_board.png","j","attention_check","true","j","","","","","500","[""f"",""j""]","","","","","","","","","","","","","","","","",""
"","","","","","html-keyboard-response","100","307031","0.0-2.0-7.0-0.0","5b0482fc325b6c0001bbb7f0","D2","batch4","","null","<p class=block-text>Trial 40 out of 78</p>","null","pattern_show_trial_num","","","","","","","","","","","","","","","","","","","","","","","","",""
"","","","","","image-keyboard-response","101","313118","0.0-2.0-7.0-1.0","5b0482fc325b6c0001bbb7f0","D2","batch4","","6079.899999976158","stim/no_52_1.png","j","pattern_response","true","j","pattern_32","6079.899999976158","true","39","","","","","","","","","","","","","","","","","","",""
"","","","","","html-keyboard-response","102","314462","0.0-2.0-7.0-0.1","5b0482fc325b6c0001bbb7f0","D2","batch4","","null","<p class=block-text>Trial 41 out of 78</p>","null","pattern_show_trial_num","","","","","","","","","","","","","","","","","","","","","","","","",""
"","","","","","image-keyboard-response","103","317144","0.0-2.0-7.0-1.1","5b0482fc325b6c0001bbb7f0","D2","batch4","","2676.8000000715256","stim/yes_38_hor_b1_b.png","f","pattern_response","true","f","pattern_61","2676.8000000715256","true","40","","","","","","","","","","","","","","","","","","",""
"","","","","","html-keyboard-response","104","318468","0.0-2.0-7.0-0.2","5b0482fc325b6c0001bbb7f0","D2","batch4","","null","<p class=block-text>Trial 42 out of 78</p>","null","pattern_show_trial_num","","","","","","","","","","","","","","","","","","","","","","","","",""
"","","","","","image-keyboard-response","105","319378","0.0-2.0-7.0-1.2","5b0482fc325b6c0001bbb7f0","D2","batch4","","902","stim/yes_14_hor_b1_w.png","f","pattern_response","true","f","pattern_43","902","true","41","","","","","","","","","","","","","","","","","","",""
"","","","","","html-keyboard-response","106","320699","0.0-2.0-7.0-0.3","5b0482fc325b6c0001bbb7f0","D2","batch4","","null","<p class=block-text>Trial 43 out of 78</p>","null","pattern_show_trial_num","","","","","","","","","","","","","","","","","","","","","","","","",""
"","","","","","image-keyboard-response","107","322211","0.0-2.0-7.0-1.3","5b0482fc325b6c0001bbb7f0","D2","batch4","","1505.8999999761581","stim/yes_52_ver_w1.png","f","pattern_response","true","f","pattern_73","1505.8999999761581","true","42","","","","","","","","","","","","","","","","","","",""
"","","","","","html-keyboard-response","108","323533","0.0-2.0-7.0-0.4","5b0482fc325b6c0001bbb7f0","D2","batch4","","null","<p class=block-text>Trial 44 out of 78</p>","null","pattern_show_trial_num","","","","","","","","","","","","","","","","","","","","","","","","",""
"","","","","","image-keyboard-response","109","332837","0.0-2.0-7.0-1.4","5b0482fc325b6c0001bbb7f0","D2","batch4","","9298.199999928474","stim/no_55_1_w.png","j","pattern_response","true","j","pattern_34","9298.199999928474","true","43","","","","","","","","","","","","","","","","","","",""
"","","","","","html-keyboard-response","110","334170","0.0-2.0-7.0-0.5","5b0482fc325b6c0001bbb7f0","D2","batch4","","null","<p class=block-text>Trial 45 out of 78</p>","null","pattern_show_trial_num","","","","","","","","","","","","","","","","","","","","","","","","",""
"","","","","","image-keyboard-response","111","339818","0.0-2.0-7.0-1.5","5b0482fc325b6c0001bbb7f0","D2","batch4","","5640","stim/no_29_1_b.png","j","pattern_response","true","j","pattern_12","5640","true","44","","","","","","","","","","","","","","","","","","",""
"","","","","","html-keyboard-response","112","341139","0.0-2.0-7.0-0.6","5b0482fc325b6c0001bbb7f0","D2","batch4","","null","<p class=block-text>Trial 46 out of 78</p>","null","pattern_show_trial_num","","","","","","","","","","","","","","","","","","","","","","","","",""
"","","","","","image-keyboard-response","113","347506","0.0-2.0-7.0-1.6","5b0482fc325b6c0001bbb7f0","D2","batch4","","6359.399999976158","stim/no_38_1_b.png","j","pattern_response","true","j","pattern_20","6359.399999976158","true","45","","","","","","","","","","","","","","","","","","",""
"","","","","","html-keyboard-response","114","348823","0.0-2.0-7.0-0.7","5b0482fc325b6c0001bbb7f0","D2","batch4","","null","<p class=block-text>Trial 47 out of 78</p>","null","pattern_show_trial_num","","","","","","","","","","","","","","","","","","","","","","","","",""
"","","","","","image-keyboard-response","115","352822","0.0-2.0-7.0-1.7","5b0482fc325b6c0001bbb7f0","D2","batch4","","3991.2000000476837","stim/yes_40_dia_b1_b.png","f","pattern_response","true","f","pattern_63","3991.2000000476837","true","46","","","","","","","","","","","","","","","","","","",""
"","","","","","html-keyboard-response","116","354140","0.0-2.0-7.0-0.8","5b0482fc325b6c0001bbb7f0","D2","batch4","","null","<p class=block-text>Trial 48 out of 78</p>","null","pattern_show_trial_num","","","","","","","","","","","","","","","","","","","","","","","","",""
"","","","","","image-keyboard-response","117","362274","0.0-2.0-7.0-1.8","5b0482fc325b6c0001bbb7f0","D2","batch4","","8125.100000023842","stim/no_50_1.png","j","pattern_response","true","j","pattern_30","8125.100000023842","true","47","","","","","","","","","","","","","","","","","","",""
"","","","","","html-keyboard-response","118","363591","0.0-2.0-7.0-0.9","5b0482fc325b6c0001bbb7f0","D2","batch4","","null","<p class=block-text>Trial 49 out of 78</p>","null","pattern_show_trial_num","","","","","","","","","","","","","","","","","","","","","","","","",""
"","","","","","image-keyboard-response","119","364558","0.0-2.0-7.0-1.9","5b0482fc325b6c0001bbb7f0","D2","batch4","","962.5","stim/yes_25_hor_b1_b.png","f","pattern_response","true","f","pattern_49","962.5","true","48","","","","","","","","","","","","","","","","","","",""
"","","","","","html-keyboard-response","120","365877","0.0-2.0-7.0-0.10","5b0482fc325b6c0001bbb7f0","D2","batch4","","null","<p class=block-text>Trial 50 out of 78</p>","null","pattern_show_trial_num","","","","","","","","","","","","","","","","","","","","","","","","",""
"","","","","","image-keyboard-response","121","367099","0.0-2.0-7.0-1.10","5b0482fc325b6c0001bbb7f0","D2","batch4","","1215.8999999761581","stim/yes_55_hor_w1_w.png","f","pattern_response","true","f","pattern_75","1215.8999999761581","true","49","","","","","","","","","","","","","","","","","","",""
"","","","","","html-keyboard-response","122","368427","0.0-2.0-7.0-0.11","5b0482fc325b6c0001bbb7f0","D2","batch4","","null","<p class=block-text>Trial 51 out of 78</p>","null","pattern_show_trial_num","","","","","","","","","","","","","","","","","","","","","","","","",""
"","","","","","image-keyboard-response","123","376723","0.0-2.0-7.0-1.11","5b0482fc325b6c0001bbb7f0","D2","batch4","","8290.299999952316","stim/no_62_1_w.png","j","pattern_response","true","j","pattern_36","8290.299999952316","true","50","","","","","","","","","","","","","","","","","","",""
"","","","","","html-keyboard-response","124","378045","0.0-2.0-7.0-0.12","5b0482fc325b6c0001bbb7f0","D2","batch4","","null","<p class=block-text>Trial 52 out of 78</p>","null","pattern_show_trial_num","","","","","","","","","","","","","","","","","","","","","","","","",""
"","","","","","image-keyboard-response","125","384621","0.0-2.0-7.0-1.12","5b0482fc325b6c0001bbb7f0","D2","batch4","","6568.699999928474","stim/no_36_2_w.png","j","pattern_response","true","j","pattern_18","6568.699999928474","true","51","","","","","","","","","","","","","","","","","","",""
"","","","","","html-keyboard-response","126","385947","0.0-2.0-7.0-0.13","5b0482fc325b6c0001bbb7f0","D2","batch4","","null","<p class=block-text>Trial 53 out of 78</p>","null","pattern_show_trial_num","","","","","","","","","","","","","","","","","","","","","","","","",""
"","","","","","image-keyboard-response","127","388923","0.0-2.0-7.0-1.13","5b0482fc325b6c0001bbb7f0","D2","batch4","","2968.2000000476837","stim/no_20_1_w.png","j","pattern_response","true","j","pattern_06","2968.2000000476837","true","52","","","","","","","","","","","","","","","","","","",""
"","","","","","html-keyboard-response","128","390250","0.0-2.0-7.0-0.14","5b0482fc325b6c0001bbb7f0","D2","batch4","","null","<p class=block-text>Trial 54 out of 78</p>","null","pattern_show_trial_num","","","","","","","","","","","","","","","","","","","","","","","","",""
"","","","","","image-keyboard-response","129","391479","0.0-2.0-7.0-1.14","5b0482fc325b6c0001bbb7f0","D2","batch4","","1223.2000000476837","stim/yes_35_dia_b1.png","f","pattern_response","true","f","pattern_57","1223.2000000476837","true","53","","","","","","","","","","","","","","","","","","",""
"","","","","","html-keyboard-response","130","392799","0.0-2.0-7.0-0.15","5b0482fc325b6c0001bbb7f0","D2","batch4","","null","<p class=block-text>Trial 55 out of 78</p>","null","pattern_show_trial_num","","","","","","","","","","","","","","","","","","","","","","","","",""
"","","","","","image-keyboard-response","131","397795","0.0-2.0-7.0-1.15","5b0482fc325b6c0001bbb7f0","D2","batch4","","4989.100000023842","stim/no_32_1_w.png","j","pattern_response","true","j","pattern_14","4989.100000023842","true","54","","","","","","","","","","","","","","","","","","",""
"","","","","","html-keyboard-response","132","399118","0.0-2.0-7.0-0.16","5b0482fc325b6c0001bbb7f0","D2","batch4","","null","<p class=block-text>Trial 56 out of 78</p>","null","pattern_show_trial_num","","","","","","","","","","","","","","","","","","","","","","","","",""
"","","","","","image-keyboard-response","133","406738","0.0-2.0-7.0-1.16","5b0482fc325b6c0001bbb7f0","D2","batch4","","7612.600000023842","stim/no_34_1_b.png","j","pattern_response","true","j","pattern_16","7612.600000023842","true","55","","","","","","","","","","","","","","","","","","",""
"","","","","","html-keyboard-response","134","408078","0.0-2.0-7.0-0.17","5b0482fc325b6c0001bbb7f0","D2","batch4","","null","<p class=block-text>Trial 57 out of 78</p>","null","pattern_show_trial_num","","","","","","","","","","","","","","","","","","","","","","","","",""
"","","","","","image-keyboard-response","135","409396","0.0-2.0-7.0-1.17","5b0482fc325b6c0001bbb7f0","D2","batch4","","1310.3000000715256","stim/yes_43_ver_w1_w.png","f","pattern_response","true","f","pattern_65","1310.3000000715256","true","56","","","","","","","","","","","","","","","","","","",""
"","","","","","html-keyboard-response","136","410720","0.0-2.0-7.0-0.18","5b0482fc325b6c0001bbb7f0","D2","batch4","","null","<p class=block-text>Trial 58 out of 78</p>","null","pattern_show_trial_num","","","","","","","","","","","","","","","","","","","","","","","","",""
"","","","","","image-keyboard-response","137","413038","0.0-2.0-7.0-1.18","5b0482fc325b6c0001bbb7f0","D2","batch4","","2311","stim/no_17_1_w.png","j","pattern_response","true","j","pattern_04","2311","true","57","","","","","","","","","","","","","","","","","","",""
"","","","","","html-keyboard-response","138","414354","0.0-2.0-7.0-0.19","5b0482fc325b6c0001bbb7f0","D2","batch4","","null","<p class=block-text>Trial 59 out of 78</p>","null","pattern_show_trial_num","","","","","","","","","","","","","","","","","","","","","","","","",""
"","","","","","image-keyboard-response","139","425223","0.0-2.0-7.0-1.19","5b0482fc325b6c0001bbb7f0","D2","batch4","","10861.700000047684","stim/no_44_1.png","j","pattern_response","true","j","pattern_24","10861.700000047684","true","58","","","","","","","","","","","","","","","","","","",""
"","","","","","html-keyboard-response","140","426540","0.0-2.0-7.0-0.20","5b0482fc325b6c0001bbb7f0","D2","batch4","","null","<p class=block-text>Trial 60 out of 78</p>","null","pattern_show_trial_num","","","","","","","","","","","","","","","","","","","","","","","","",""
"","","","","","image-keyboard-response","141","436490","0.0-2.0-7.0-1.20","5b0482fc325b6c0001bbb7f0","D2","batch4","","9941.900000095367","stim/no_65_1_b.png","j","pattern_response","true","j","pattern_38","9941.900000095367","true","59","","","","","","","","","","","","","","","","","","",""
"","","","","","html-keyboard-response","142","437808","0.0-2.0-7.0-0.21","5b0482fc325b6c0001bbb7f0","D2","batch4","","null","<p class=block-text>Trial 61 out of 78</p>","null","pattern_show_trial_num","","","","","","","","","","","","","","","","","","","","","","","","",""
"","","","","","image-keyboard-response","143","440226","0.0-2.0-7.0-1.21","5b0482fc325b6c0001bbb7f0","D2","batch4","","2413.5999999046326","stim/no_13_2_b.png","j","pattern_response","true","j","pattern_02","2413.5999999046326","true","60","","","","","","","","","","","","","","","","","","",""
"","","","","","html-keyboard-response","144","441540","0.0-2.0-7.0-0.22","5b0482fc325b6c0001bbb7f0","D2","batch4","","null","<p class=block-text>Trial 62 out of 78</p>","null","pattern_show_trial_num","","","","","","","","","","","","","","","","","","","","","","","","",""
"","","","","","image-keyboard-response","145","443576","0.0-2.0-7.0-1.22","5b0482fc325b6c0001bbb7f0","D2","batch4","","2027.8999999761581","stim/no_23_1.png","j","pattern_response","true","j","pattern_08","2027.8999999761581","true","61","","","","","","","","","","","","","","","","","","",""
"","","","","","html-keyboard-response","146","444894","0.0-2.0-7.0-0.23","5b0482fc325b6c0001bbb7f0","D2","batch4","","null","<p class=block-text>Trial 63 out of 78</p>","null","pattern_show_trial_num","","","","","","","","","","","","","","","","","","","","","","","","",""
"","","","","","image-keyboard-response","147","447496","0.0-2.0-7.0-1.23","5b0482fc325b6c0001bbb7f0","D2","batch4","","2594.899999976158","stim/yes_48_dia_w1_w.png","f","pattern_response","true","f","pattern_69","2594.899999976158","true","62","","","","","","","","","","","","","","","","","","",""
"","","","","","html-keyboard-response","148","448807","0.0-2.0-7.0-0.24","5b0482fc325b6c0001bbb7f0","D2","batch4","","null","<p class=block-text>Trial 64 out of 78</p>","null","pattern_show_trial_num","","","","","","","","","","","","","","","","","","","","","","","","",""
"","","","","","image-keyboard-response","149","450133","0.0-2.0-7.0-1.24","5b0482fc325b6c0001bbb7f0","D2","batch4","","1318.1000000238419","stim/yes_60_ver_b1_b.png","f","pattern_response","true","f","pattern_77","1318.1000000238419","true","63","","","","","","","","","","","","","","","","","","",""
"","","","","","html-keyboard-response","150","451462","0.0-2.0-7.0-0.25","5b0482fc325b6c0001bbb7f0","D2","batch4","","null","<p class=block-text>Trial 65 out of 78</p>","null","pattern_show_trial_num","","","","","","","","","","","","","","","","","","","","","","","","",""
"","","","","","image-keyboard-response","151","459237","0.0-2.0-7.0-1.25","5b0482fc325b6c0001bbb7f0","D2","batch4","","7767.5","stim/no_48_1_w.png","j","pattern_response","true","j","pattern_28","7767.5","true","64","","","","","","","","","","","","","","","","","","",""
"","","","","","html-keyboard-response","152","460564","0.0-2.0-7.0-0.26","5b0482fc325b6c0001bbb7f0","D2","batch4","","null","<p class=block-text>Trial 66 out of 78</p>","null","pattern_show_trial_num","","","","","","","","","","","","","","","","","","","","","","","","",""
"","","","","","image-keyboard-response","153","466658","0.0-2.0-7.0-1.26","5b0482fc325b6c0001bbb7f0","D2","batch4","","6082.899999976158","stim/no_42_1_w.png","j","pattern_response","true","j","pattern_22","6082.899999976158","true","65","","","","","","","","","","","","","","","","","","",""
"","","","","","html-keyboard-response","154","467982","0.0-2.0-7.0-0.27","5b0482fc325b6c0001bbb7f0","D2","batch4","","null","<p class=block-text>Trial 67 out of 78</p>","null","pattern_show_trial_num","","","","","","","","","","","","","","","","","","","","","","","","",""
"","","","","","image-keyboard-response","155","468923","0.0-2.0-7.0-1.27","5b0482fc325b6c0001bbb7f0","D2","batch4","","933.5","stim/yes_17_dia_w1.png","f","pattern_response","true","f","pattern_45","933.5","true","66","","","","","","","","","","","","","","","","","","",""
"","","","","","html-keyboard-response","156","470250","0.0-2.0-7.0-0.28","5b0482fc325b6c0001bbb7f0","D2","batch4","","null","<p class=block-text>Trial 68 out of 78</p>","null","pattern_show_trial_num","","","","","","","","","","","","","","","","","","","","","","","","",""
"","","","","","image-keyboard-response","157","475962","0.0-2.0-7.0-1.28","5b0482fc325b6c0001bbb7f0","D2","batch4","","5705.899999976158","stim/no_46_1_b.png","j","pattern_response","true","j","pattern_26","5705.899999976158","true","67","","","","","","","","","","","","","","","","","","",""
"","","","","","html-keyboard-response","158","477285","0.0-2.0-7.0-0.29","5b0482fc325b6c0001bbb7f0","D2","batch4","","null","<p class=block-text>Trial 69 out of 78</p>","null","pattern_show_trial_num","","","","","","","","","","","","","","","","","","","","","","","","",""
"","","","","","image-keyboard-response","159","478366","0.0-2.0-7.0-1.29","5b0482fc325b6c0001bbb7f0","D2","batch4","","1072.8999999761581","stim/yes_67_hor_b1.png","f","pattern_response","true","f","pattern_79","1072.8999999761581","true","68","","","","","","","","","","","","","","","","","","",""
"","","","","","html-keyboard-response","160","479684","0.0-2.0-7.0-0.30","5b0482fc325b6c0001bbb7f0","D2","batch4","","null","<p class=block-text>Trial 70 out of 78</p>","null","pattern_show_trial_num","","","","","","","","","","","","","","","","","","","","","","","","",""
"","","","","","image-keyboard-response","161","480600","0.0-2.0-7.0-1.30","5b0482fc325b6c0001bbb7f0","D2","batch4","","910.3999999761581","stim/yes_28_ver_b1.png","f","pattern_response","true","f","pattern_51","910.3999999761581","true","69","","","","","","","","","","","","","","","","","","",""
"","","","","","html-keyboard-response","162","481918","0.0-2.0-7.0-0.31","5b0482fc325b6c0001bbb7f0","D2","batch4","","null","<p class=block-text>Trial 71 out of 78</p>","null","pattern_show_trial_num","","","","","","","","","","","","","","","","","","","","","","","","",""
"","","","","","image-keyboard-response","163","482758","0.0-2.0-7.0-1.31","5b0482fc325b6c0001bbb7f0","D2","batch4","","833.2000000476837","stim/yes_22_ver_w1.png","f","pattern_response","true","f","pattern_47","833.2000000476837","true","70","","","","","","","","","","","","","","","","","","",""
"","","","","","html-keyboard-response","164","484086","0.0-2.0-7.0-0.32","5b0482fc325b6c0001bbb7f0","D2","batch4","","null","<p class=block-text>Trial 72 out of 78</p>","null","pattern_show_trial_num","","","","","","","","","","","","","","","","","","","","","","","","",""
"","","","","","image-keyboard-response","165","493158","0.0-2.0-7.0-1.32","5b0482fc325b6c0001bbb7f0","D2","batch4","","9064.899999976158","stim/no_70_2.png","j","pattern_response","true","j","pattern_40","9064.899999976158","true","71","","","","","","","","","","","","","","","","","","",""
"","","","","","html-keyboard-response","166","494488","0.0-2.0-7.0-0.33","5b0482fc325b6c0001bbb7f0","D2","batch4","","null","<p class=block-text>Trial 73 out of 78</p>","null","pattern_show_trial_num","","","","","","","","","","","","","","","","","","","","","","","","",""
"","","","","","image-keyboard-response","167","501547","0.0-2.0-7.0-1.33","5b0482fc325b6c0001bbb7f0","D2","batch4","","7052.200000047684","stim/yes_50_dia_w1.png","j","pattern_response","false","f","pattern_71","7052.200000047684","false","71","","","","","","","","","","","","","","","","","","",""
"","","","","","html-keyboard-response","168","502875","0.0-2.0-7.0-0.34","5b0482fc325b6c0001bbb7f0","D2","batch4","","null","<p class=block-text>Trial 74 out of 78</p>","null","pattern_show_trial_num","","","","","","","","","","","","","","","","","","","","","","","","",""
"","","","","","image-keyboard-response","169","505237","0.0-2.0-7.0-1.34","5b0482fc325b6c0001bbb7f0","D2","batch4","","2354.100000023842","stim/yes_31_hor_b1.png","f","pattern_response","true","f","pattern_55","2354.100000023842","true","72","","","","","","","","","","","","","","","","","","",""
"","","","","","html-keyboard-response","170","506558","0.0-2.0-7.0-0.35","5b0482fc325b6c0001bbb7f0","D2","batch4","","null","<p class=block-text>Trial 75 out of 78</p>","null","pattern_show_trial_num","","","","","","","","","","","","","","","","","","","","","","","","",""
"","","","","","image-keyboard-response","171","510671","0.0-2.0-7.0-1.35","5b0482fc325b6c0001bbb7f0","D2","batch4","","4105.299999952316","stim/yes_37_dia_w1.png","f","pattern_response","true","f","pattern_59","4105.299999952316","true","73","","","","","","","","","","","","","","","","","","",""
"","","","","","html-keyboard-response","172","511996","0.0-2.0-7.0-0.36","5b0482fc325b6c0001bbb7f0","D2","batch4","","null","<p class=block-text>Trial 76 out of 78</p>","null","pattern_show_trial_num","","","","","","","","","","","","","","","","","","","","","","","","",""
"","","","","","image-keyboard-response","173","513951","0.0-2.0-7.0-1.36","5b0482fc325b6c0001bbb7f0","D2","batch4","","1947.2000000476837","stim/yes_45_hor_b2_b.png","f","pattern_response","true","f","pattern_67","1947.2000000476837","true","74","","","","","","","","","","","","","","","","","","",""
"","","","","","html-keyboard-response","174","515277","0.0-2.0-7.0-0.37","5b0482fc325b6c0001bbb7f0","D2","batch4","","null","<p class=block-text>Trial 77 out of 78</p>","null","pattern_show_trial_num","","","","","","","","","","","","","","","","","","","","","","","","",""
"","","","","","image-keyboard-response","175","518246","0.0-2.0-7.0-1.37","5b0482fc325b6c0001bbb7f0","D2","batch4","","2962.5999999046326","stim/no_26_1_w.png","j","pattern_response","true","j","pattern_10","2962.5999999046326","true","75","","","","","","","","","","","","","","","","","","",""
"","","","","","html-keyboard-response","176","519575","0.0-2.0-7.0-0.38","5b0482fc325b6c0001bbb7f0","D2","batch4","","null","<p class=block-text>Trial 78 out of 78</p>","null","pattern_show_trial_num","","","","","","","","","","","","","","","","","","","","","","","","",""
"","","","","","image-keyboard-response","177","520919","0.0-2.0-7.0-1.38","5b0482fc325b6c0001bbb7f0","D2","batch4","","1339.7000000476837","stim/yes_29_ver_w1.png","f","pattern_response","true","f","pattern_53","1339.7000000476837","true","76","","","","","","","","","","","","","","","","","","",""
"","","","","","html-button-response","178","525696","0.0-2.0-8.0","5b0482fc325b6c0001bbb7f0","D2","batch4","","4263.600000023842","<p class = block-text>This concludes the 4-in-a-row detection game.Thank you for your responses!<br>
            You responded correctly on 97% of the trials.<br>
            When you are ready, press ""Continue"" button to continue </p>","0","","","","","","","","","","","","","","","","","","","","","","","","","",""
"true","","","","","fullscreen","179","531815","0.0-3.0-0.0","5b0482fc325b6c0001bbb7f0","D2","batch4","","","","","spm_fullscreen","","","","","","","","","","","","","","","","","","","","","","","","",""
"","","","","","html-button-response","180","548857","0.0-3.0-1.0","5b0482fc325b6c0001bbb7f0","D2","batch4","","17037.299999952316","<p class = block-text><b>Instructions</b> <br>This is a widely used intelligence test in research. <br>In this test, a figure with a missing piece will be presented.<br>Below the figure are alternative pieces to complete the figure, only one of which is correct.<br> Different figures might involve different principles for obtaining the missing piece<br>Your job is to select the most logical piece to complete the figure.</p>","0","","","","","","","","","","","","","","","","","","","","","","","","","",""
"","","","","","html-keyboard-response","181","549664","0.0-3.0-2.0-0.0","5b0482fc325b6c0001bbb7f0","D2","batch4","","null","<p class=block-text>Trial 1 out of 60</p>","null","spm_show_trial_num","","","","","","","","","","","","","","","","","","","","","","","","",""
"","","","","","image-button-response","182","556982","0.0-3.0-2.0-1.0","5b0482fc325b6c0001bbb7f0","D2","batch4","","7306.599999904633","img/question_1_1.jpeg","3","spm_respsonse","1","4","mat_01","","","","","","1","7306.599999904633","","","","","","","","","","","","","","",""
"","","","","","html-keyboard-response","183","558045","0.0-3.0-2.0-0.1","5b0482fc325b6c0001bbb7f0","D2","batch4","","null","<p class=block-text>Trial 2 out of 60</p>","null","spm_show_trial_num","","","","","","","","","","","","","","","","","","","","","","","","",""
"","","","","","image-button-response","184","561322","0.0-3.0-2.0-1.1","5b0482fc325b6c0001bbb7f0","D2","batch4","","3271.6999999284744","img/question_1_2.jpeg","4","spm_respsonse","1","5","mat_02","","","","","","1","3271.6999999284744","","","","","","","","","","","","","","",""
"","","","","","html-keyboard-response","185","562395","0.0-3.0-2.0-0.2","5b0482fc325b6c0001bbb7f0","D2","batch4","","null","<p class=block-text>Trial 3 out of 60</p>","null","spm_show_trial_num","","","","","","","","","","","","","","","","","","","","","","","","",""
"","","","","","image-button-response","186","565540","0.0-3.0-2.0-1.2","5b0482fc325b6c0001bbb7f0","D2","batch4","","3137.6999999284744","img/question_1_3.jpeg","0","spm_respsonse","1","1","mat_03","","","","","","1","3137.6999999284744","","","","","","","","","","","","","","",""
"","","","","","html-keyboard-response","187","566623","0.0-3.0-2.0-0.3","5b0482fc325b6c0001bbb7f0","D2","batch4","","null","<p class=block-text>Trial 4 out of 60</p>","null","spm_show_trial_num","","","","","","","","","","","","","","","","","","","","","","","","",""
"","","","","","image-button-response","188","569795","0.0-3.0-2.0-1.3","5b0482fc325b6c0001bbb7f0","D2","batch4","","3162.2999999523163","img/question_1_4.jpeg","1","spm_respsonse","1","2","mat_04","","","","","","1","3162.2999999523163","","","","","","","","","","","","","","",""
"","","","","","html-keyboard-response","189","570871","0.0-3.0-2.0-0.4","5b0482fc325b6c0001bbb7f0","D2","batch4","","null","<p class=block-text>Trial 5 out of 60</p>","null","spm_show_trial_num","","","","","","","","","","","","","","","","","","","","","","","","",""
"","","","","","image-button-response","190","574161","0.0-3.0-2.0-1.4","5b0482fc325b6c0001bbb7f0","D2","batch4","","3285.4000000953674","img/question_1_5.jpeg","5","spm_respsonse","1","6","mat_05","","","","","","1","3285.4000000953674","","","","","","","","","","","","","","",""
"","","","","","html-keyboard-response","191","575237","0.0-3.0-2.0-0.5","5b0482fc325b6c0001bbb7f0","D2","batch4","","null","<p class=block-text>Trial 6 out of 60</p>","null","spm_show_trial_num","","","","","","","","","","","","","","","","","","","","","","","","",""
"","","","","","image-button-response","192","577950","0.0-3.0-2.0-1.5","5b0482fc325b6c0001bbb7f0","D2","batch4","","2704.399999976158","img/question_1_6.jpeg","2","spm_respsonse","1","3","mat_06","","","","","","1","2704.399999976158","","","","","","","","","","","","","","",""
"","","","","","html-keyboard-response","193","579023","0.0-3.0-2.0-0.6","5b0482fc325b6c0001bbb7f0","D2","batch4","","null","<p class=block-text>Trial 7 out of 60</p>","null","spm_show_trial_num","","","","","","","","","","","","","","","","","","","","","","","","",""
"","","","","","image-button-response","194","582491","0.0-3.0-2.0-1.6","5b0482fc325b6c0001bbb7f0","D2","batch4","","3459.100000023842","img/question_1_7.jpeg","5","spm_respsonse","1","6","mat_07","","","","","","1","3459.100000023842","","","","","","","","","","","","","","",""
"","","","","","html-keyboard-response","195","583555","0.0-3.0-2.0-0.7","5b0482fc325b6c0001bbb7f0","D2","batch4","","null","<p class=block-text>Trial 8 out of 60</p>","null","spm_show_trial_num","","","","","","","","","","","","","","","","","","","","","","","","",""
"","","","","","image-button-response","196","589086","0.0-3.0-2.0-1.7","5b0482fc325b6c0001bbb7f0","D2","batch4","","5524.299999952316","img/question_1_8.jpeg","1","spm_respsonse","1","2","mat_08","","","","","","1","5524.299999952316","","","","","","","","","","","","","","",""
"","","","","","html-keyboard-response","197","590159","0.0-3.0-2.0-0.8","5b0482fc325b6c0001bbb7f0","D2","batch4","","null","<p class=block-text>Trial 9 out of 60</p>","null","spm_show_trial_num","","","","","","","","","","","","","","","","","","","","","","","","",""
"","","","","","image-button-response","198","595126","0.0-3.0-2.0-1.8","5b0482fc325b6c0001bbb7f0","D2","batch4","","4958.600000023842","img/question_1_9.jpeg","0","spm_respsonse","1","1","mat_09","","","","","","1","4958.600000023842","","","","","","","","","","","","","","",""
"","","","","","html-keyboard-response","199","596194","0.0-3.0-2.0-0.9","5b0482fc325b6c0001bbb7f0","D2","batch4","","null","<p class=block-text>Trial 10 out of 60</p>","null","spm_show_trial_num","","","","","","","","","","","","","","","","","","","","","","","","",""
"","","","","","image-button-response","200","603441","0.0-3.0-2.0-1.9","5b0482fc325b6c0001bbb7f0","D2","batch4","","7238.600000023842","img/question_1_10.jpeg","2","spm_respsonse","1","3","mat_10","","","","","","1","7238.600000023842","","","","","","","","","","","","","","",""
"","","","","","html-keyboard-response","201","604508","0.0-3.0-2.0-0.10","5b0482fc325b6c0001bbb7f0","D2","batch4","","null","<p class=block-text>Trial 11 out of 60</p>","null","spm_show_trial_num","","","","","","","","","","","","","","","","","","","","","","","","",""
"","","","","","image-button-response","202","610476","0.0-3.0-2.0-1.10","5b0482fc325b6c0001bbb7f0","D2","batch4","","5960","img/question_1_11.jpeg","3","spm_respsonse","1","4","mat_11","","","","","","1","5960","","","","","","","","","","","","","","",""
"","","","","","html-keyboard-response","203","611542","0.0-3.0-2.0-0.11","5b0482fc325b6c0001bbb7f0","D2","batch4","","null","<p class=block-text>Trial 12 out of 60</p>","null","spm_show_trial_num","","","","","","","","","","","","","","","","","","","","","","","","",""
"","","","","","image-button-response","204","625037","0.0-3.0-2.0-1.11","5b0482fc325b6c0001bbb7f0","D2","batch4","","13487","img/question_1_12.jpeg","4","spm_respsonse","1","5","mat_12","","","","","","1","13487","","","","","","","","","","","","","","",""
"","","","","","html-keyboard-response","205","626118","0.0-3.0-2.0-0.12","5b0482fc325b6c0001bbb7f0","D2","batch4","","null","<p class=block-text>Trial 13 out of 60</p>","null","spm_show_trial_num","","","","","","","","","","","","","","","","","","","","","","","","",""
"","","","","","image-button-response","206","629941","0.0-3.0-2.0-1.12","5b0482fc325b6c0001bbb7f0","D2","batch4","","3814.100000023842","img/question_2_1.jpeg","1","spm_respsonse","1","2","mat_13","","","","","","1","3814.100000023842","","","","","","","","","","","","","","",""
"","","","","","html-keyboard-response","207","631018","0.0-3.0-2.0-0.13","5b0482fc325b6c0001bbb7f0","D2","batch4","","null","<p class=block-text>Trial 14 out of 60</p>","null","spm_show_trial_num","","","","","","","","","","","","","","","","","","","","","","","","",""
"","","","","","image-button-response","208","635589","0.0-3.0-2.0-1.13","5b0482fc325b6c0001bbb7f0","D2","batch4","","4563.700000047684","img/question_2_2.jpeg","5","spm_respsonse","1","6","mat_14","","","","","","1","4563.700000047684","","","","","","","","","","","","","","",""
"","","","","","html-keyboard-response","209","636670","0.0-3.0-2.0-0.14","5b0482fc325b6c0001bbb7f0","D2","batch4","","null","<p class=block-text>Trial 15 out of 60</p>","null","spm_show_trial_num","","","","","","","","","","","","","","","","","","","","","","","","",""
"","","","","","image-button-response","210","639573","0.0-3.0-2.0-1.14","5b0482fc325b6c0001bbb7f0","D2","batch4","","2894.899999976158","img/question_2_3.jpeg","0","spm_respsonse","1","1","mat_15","","","","","","1","2894.899999976158","","","","","","","","","","","","","","",""
"","","","","","html-keyboard-response","211","640654","0.0-3.0-2.0-0.15","5b0482fc325b6c0001bbb7f0","D2","batch4","","null","<p class=block-text>Trial 16 out of 60</p>","null","spm_show_trial_num","","","","","","","","","","","","","","","","","","","","","","","","",""
"","","","","","image-button-response","212","644028","0.0-3.0-2.0-1.15","5b0482fc325b6c0001bbb7f0","D2","batch4","","3366.1999999284744","img/question_2_4.jpeg","1","spm_respsonse","1","2","mat_16","","","","","","1","3366.1999999284744","","","","","","","","","","","","","","",""
"","","","","","html-keyboard-response","213","645104","0.0-3.0-2.0-0.16","5b0482fc325b6c0001bbb7f0","D2","batch4","","null","<p class=block-text>Trial 17 out of 60</p>","null","spm_show_trial_num","","","","","","","","","","","","","","","","","","","","","","","","",""
"","","","","","image-button-response","214","649779","0.0-3.0-2.0-1.16","5b0482fc325b6c0001bbb7f0","D2","batch4","","4666.700000047684","img/question_2_5.jpeg","0","spm_respsonse","1","1","mat_17","","","","","","1","4666.700000047684","","","","","","","","","","","","","","",""
"","","","","","html-keyboard-response","215","650855","0.0-3.0-2.0-0.17","5b0482fc325b6c0001bbb7f0","D2","batch4","","null","<p class=block-text>Trial 18 out of 60</p>","null","spm_show_trial_num","","","","","","","","","","","","","","","","","","","","","","","","",""
"","","","","","image-button-response","216","654752","0.0-3.0-2.0-1.17","5b0482fc325b6c0001bbb7f0","D2","batch4","","3889.600000023842","img/question_2_6.jpeg","2","spm_respsonse","1","3","mat_18","","","","","","1","3889.600000023842","","","","","","","","","","","","","","",""
"","","","","","html-keyboard-response","217","655824","0.0-3.0-2.0-0.18","5b0482fc325b6c0001bbb7f0","D2","batch4","","null","<p class=block-text>Trial 19 out of 60</p>","null","spm_show_trial_num","","","","","","","","","","","","","","","","","","","","","","","","",""
"","","","","","image-button-response","218","665395","0.0-3.0-2.0-1.18","5b0482fc325b6c0001bbb7f0","D2","batch4","","9564.199999928474","img/question_2_7.jpeg","4","spm_respsonse","1","5","mat_19","","","","","","1","9564.199999928474","","","","","","","","","","","","","","",""
"","","","","","html-keyboard-response","219","666458","0.0-3.0-2.0-0.19","5b0482fc325b6c0001bbb7f0","D2","batch4","","null","<p class=block-text>Trial 20 out of 60</p>","null","spm_show_trial_num","","","","","","","","","","","","","","","","","","","","","","","","",""
"","","","","","image-button-response","220","670811","0.0-3.0-2.0-1.19","5b0482fc325b6c0001bbb7f0","D2","batch4","","4347.100000023842","img/question_2_8.jpeg","5","spm_respsonse","1","6","mat_20","","","","","","1","4347.100000023842","","","","","","","","","","","","","","",""
"","","","","","html-keyboard-response","221","671868","0.0-3.0-2.0-0.20","5b0482fc325b6c0001bbb7f0","D2","batch4","","null","<p class=block-text>Trial 21 out of 60</p>","null","spm_show_trial_num","","","","","","","","","","","","","","","","","","","","","","","","",""
"","","","","","image-button-response","222","675389","0.0-3.0-2.0-1.20","5b0482fc325b6c0001bbb7f0","D2","batch4","","3512","img/question_2_9.jpeg","3","spm_respsonse","1","4","mat_21","","","","","","1","3512","","","","","","","","","","","","","","",""
"","","","","","html-keyboard-response","223","676462","0.0-3.0-2.0-0.21","5b0482fc325b6c0001bbb7f0","D2","batch4","","null","<p class=block-text>Trial 22 out of 60</p>","null","spm_show_trial_num","","","","","","","","","","","","","","","","","","","","","","","","",""
"","","","","","image-button-response","224","679839","0.0-3.0-2.0-1.21","5b0482fc325b6c0001bbb7f0","D2","batch4","","3368.7000000476837","img/question_2_10.jpeg","2","spm_respsonse","1","3","mat_22","","","","","","1","3368.7000000476837","","","","","","","","","","","","","","",""
"","","","","","html-keyboard-response","225","680913","0.0-3.0-2.0-0.22","5b0482fc325b6c0001bbb7f0","D2","batch4","","null","<p class=block-text>Trial 23 out of 60</p>","null","spm_show_trial_num","","","","","","","","","","","","","","","","","","","","","","","","",""
"","","","","","image-button-response","226","685970","0.0-3.0-2.0-1.22","5b0482fc325b6c0001bbb7f0","D2","batch4","","5048.5","img/question_2_11.jpeg","3","spm_respsonse","1","4","mat_23","","","","","","1","5048.5","","","","","","","","","","","","","","",""
"","","","","","html-keyboard-response","227","687045","0.0-3.0-2.0-0.23","5b0482fc325b6c0001bbb7f0","D2","batch4","","null","<p class=block-text>Trial 24 out of 60</p>","null","spm_show_trial_num","","","","","","","","","","","","","","","","","","","","","","","","",""
"","","","","","image-button-response","228","704241","0.0-3.0-2.0-1.23","5b0482fc325b6c0001bbb7f0","D2","batch4","","17189.699999928474","img/question_2_12.jpeg","4","spm_respsonse","1","5","mat_24","","","","","","1","17189.699999928474","","","","","","","","","","","","","","",""
"","","","","","html-button-response","229","706224","0.0-3.0-3.0","5b0482fc325b6c0001bbb7f0","D2","batch4","","1716.0999999046326","<p class = block-text>Attention check: Please choose 1<br></p>","0","attention_check","true","","","","","","","","","","","","","","","","","","","","","","","",""
"","","","","","html-keyboard-response","230","707029","0.0-3.0-4.0-0.0","5b0482fc325b6c0001bbb7f0","D2","batch4","","null","<p class=block-text>Trial 25 out of 60</p>","null","spm_show_trial_num","","","","","","","","","","","","","","","","","","","","","","","","",""
"","","","","","image-button-response","231","713951","0.0-3.0-4.0-1.0","5b0482fc325b6c0001bbb7f0","D2","batch4","","6913.5","img/question_3_1.jpeg","7","spm_respsonse","1","8","mat_25","","","","","","1","6913.5","","","","","","","","","","","","","","",""
"","","","","","html-keyboard-response","232","715020","0.0-3.0-4.0-0.1","5b0482fc325b6c0001bbb7f0","D2","batch4","","null","<p class=block-text>Trial 26 out of 60</p>","null","spm_show_trial_num","","","","","","","","","","","","","","","","","","","","","","","","",""
"","","","","","image-button-response","233","722206","0.0-3.0-4.0-1.1","5b0482fc325b6c0001bbb7f0","D2","batch4","","7175.100000023842","img/question_3_2.jpeg","1","spm_respsonse","1","2","mat_26","","","","","","1","7175.100000023842","","","","","","","","","","","","","","",""
"","","","","","html-keyboard-response","234","723262","0.0-3.0-4.0-0.2","5b0482fc325b6c0001bbb7f0","D2","batch4","","null","<p class=block-text>Trial 27 out of 60</p>","null","spm_show_trial_num","","","","","","","","","","","","","","","","","","","","","","","","",""
"","","","","","image-button-response","235","730339","0.0-3.0-4.0-1.2","5b0482fc325b6c0001bbb7f0","D2","batch4","","7065.5","img/question_3_3.jpeg","2","spm_respsonse","1","3","mat_27","","","","","","1","7065.5","","","","","","","","","","","","","","",""
"","","","","","html-keyboard-response","236","731408","0.0-3.0-4.0-0.3","5b0482fc325b6c0001bbb7f0","D2","batch4","","null","<p class=block-text>Trial 28 out of 60</p>","null","spm_show_trial_num","","","","","","","","","","","","","","","","","","","","","","","","",""
"","","","","","image-button-response","237","741658","0.0-3.0-4.0-1.3","5b0482fc325b6c0001bbb7f0","D2","batch4","","10241.400000095367","img/question_3_4.jpeg","7","spm_respsonse","1","8","mat_28","","","","","","1","10241.400000095367","","","","","","","","","","","","","","",""
"","","","","","html-keyboard-response","238","742731","0.0-3.0-4.0-0.4","5b0482fc325b6c0001bbb7f0","D2","batch4","","null","<p class=block-text>Trial 29 out of 60</p>","null","spm_show_trial_num","","","","","","","","","","","","","","","","","","","","","","","","",""
"","","","","","image-button-response","239","757026","0.0-3.0-4.0-1.4","5b0482fc325b6c0001bbb7f0","D2","batch4","","14286.100000023842","img/question_3_5.jpeg","6","spm_respsonse","1","7","mat_29","","","","","","1","14286.100000023842","","","","","","","","","","","","","","",""
"","","","","","html-keyboard-response","240","758091","0.0-3.0-4.0-0.5","5b0482fc325b6c0001bbb7f0","D2","batch4","","null","<p class=block-text>Trial 30 out of 60</p>","null","spm_show_trial_num","","","","","","","","","","","","","","","","","","","","","","","","",""
"","","","","","image-button-response","241","763515","0.0-3.0-4.0-1.5","5b0482fc325b6c0001bbb7f0","D2","batch4","","5413.900000095367","img/question_3_6.jpeg","3","spm_respsonse","1","4","mat_30","","","","","","1","5413.900000095367","","","","","","","","","","","","","","",""
"","","","","","html-keyboard-response","242","764582","0.0-3.0-4.0-0.6","5b0482fc325b6c0001bbb7f0","D2","batch4","","null","<p class=block-text>Trial 31 out of 60</p>","null","spm_show_trial_num","","","","","","","","","","","","","","","","","","","","","","","","",""
"","","","","","image-button-response","243","770448","0.0-3.0-4.0-1.6","5b0482fc325b6c0001bbb7f0","D2","batch4","","5857.5","img/question_3_7.jpeg","4","spm_respsonse","1","5","mat_31","","","","","","1","5857.5","","","","","","","","","","","","","","",""
"","","","","","html-keyboard-response","244","771508","0.0-3.0-4.0-0.7","5b0482fc325b6c0001bbb7f0","D2","batch4","","null","<p class=block-text>Trial 32 out of 60</p>","null","spm_show_trial_num","","","","","","","","","","","","","","","","","","","","","","","","",""
"","","","","","image-button-response","245","779711","0.0-3.0-4.0-1.7","5b0482fc325b6c0001bbb7f0","D2","batch4","","8195.400000095367","img/question_3_8.jpeg","0","spm_respsonse","1","1","mat_32","","","","","","1","8195.400000095367","","","","","","","","","","","","","","",""
"","","","","","html-keyboard-response","246","780785","0.0-3.0-4.0-0.8","5b0482fc325b6c0001bbb7f0","D2","batch4","","null","<p class=block-text>Trial 33 out of 60</p>","null","spm_show_trial_num","","","","","","","","","","","","","","","","","","","","","","","","",""
"","","","","","image-button-response","247","789801","0.0-3.0-4.0-1.8","5b0482fc325b6c0001bbb7f0","D2","batch4","","9006.799999952316","img/question_3_9.jpeg","6","spm_respsonse","1","7","mat_33","","","","","","1","9006.799999952316","","","","","","","","","","","","","","",""
"","","","","","html-keyboard-response","248","790872","0.0-3.0-4.0-0.9","5b0482fc325b6c0001bbb7f0","D2","batch4","","null","<p class=block-text>Trial 34 out of 60</p>","null","spm_show_trial_num","","","","","","","","","","","","","","","","","","","","","","","","",""
"","","","","","image-button-response","249","817937","0.0-3.0-4.0-1.9","5b0482fc325b6c0001bbb7f0","D2","batch4","","27056.800000071526","img/question_3_10.jpeg","5","spm_respsonse","1","6","mat_34","","","","","","1","27056.800000071526","","","","","","","","","","","","","","",""
"","","","","","html-keyboard-response","250","819010","0.0-3.0-4.0-0.10","5b0482fc325b6c0001bbb7f0","D2","batch4","","null","<p class=block-text>Trial 35 out of 60</p>","null","spm_show_trial_num","","","","","","","","","","","","","","","","","","","","","","","","",""
"","","","","","image-button-response","251","832176","0.0-3.0-4.0-1.10","5b0482fc325b6c0001bbb7f0","D2","batch4","","13158.400000095367","img/question_3_11.jpeg","0","spm_respsonse","1","1","mat_35","","","","","","1","13158.400000095367","","","","","","","","","","","","","","",""
"","","","","","html-keyboard-response","252","833245","0.0-3.0-4.0-0.11","5b0482fc325b6c0001bbb7f0","D2","batch4","","null","<p class=block-text>Trial 36 out of 60</p>","null","spm_show_trial_num","","","","","","","","","","","","","","","","","","","","","","","","",""
"","","","","","image-button-response","253","848172","0.0-3.0-4.0-1.11","5b0482fc325b6c0001bbb7f0","D2","batch4","","14922.100000023842","img/question_3_12.jpeg","1","spm_respsonse","1","2","mat_36","","","","","","1","14922.100000023842","","","","","","","","","","","","","","",""
"","","","","","html-keyboard-response","254","849249","0.0-3.0-4.0-0.12","5b0482fc325b6c0001bbb7f0","D2","batch4","","null","<p class=block-text>Trial 37 out of 60</p>","null","spm_show_trial_num","","","","","","","","","","","","","","","","","","","","","","","","",""
"","","","","","image-button-response","255","854031","0.0-3.0-4.0-1.12","5b0482fc325b6c0001bbb7f0","D2","batch4","","4774.799999952316","img/question_4_1.jpeg","2","spm_respsonse","1","3","mat_37","","","","","","1","4774.799999952316","","","","","","","","","","","","","","",""
"","","","","","html-keyboard-response","256","855106","0.0-3.0-4.0-0.13","5b0482fc325b6c0001bbb7f0","D2","batch4","","null","<p class=block-text>Trial 38 out of 60</p>","null","spm_show_trial_num","","","","","","","","","","","","","","","","","","","","","","","","",""
"","","","","","image-button-response","257","861984","0.0-3.0-4.0-1.13","5b0482fc325b6c0001bbb7f0","D2","batch4","","6869.799999952316","img/question_4_2.jpeg","3","spm_respsonse","1","4","mat_38","","","","","","1","6869.799999952316","","","","","","","","","","","","","","",""
"","","","","","html-keyboard-response","258","863054","0.0-3.0-4.0-0.14","5b0482fc325b6c0001bbb7f0","D2","batch4","","null","<p class=block-text>Trial 39 out of 60</p>","null","spm_show_trial_num","","","","","","","","","","","","","","","","","","","","","","","","",""
"","","","","","image-button-response","259","869962","0.0-3.0-4.0-1.14","5b0482fc325b6c0001bbb7f0","D2","batch4","","6899.700000047684","img/question_4_3.jpeg","2","spm_respsonse","1","3","mat_39","","","","","","1","6899.700000047684","","","","","","","","","","","","","","",""
"","","","","","html-keyboard-response","260","871043","0.0-3.0-4.0-0.15","5b0482fc325b6c0001bbb7f0","D2","batch4","","null","<p class=block-text>Trial 40 out of 60</p>","null","spm_show_trial_num","","","","","","","","","","","","","","","","","","","","","","","","",""
"","","","","","image-button-response","261","879141","0.0-3.0-4.0-1.15","5b0482fc325b6c0001bbb7f0","D2","batch4","","8091.800000071526","img/question_4_4.jpeg","6","spm_respsonse","1","7","mat_40","","","","","","1","8091.800000071526","","","","","","","","","","","","","","",""
"","","","","","html-keyboard-response","262","880208","0.0-3.0-4.0-0.16","5b0482fc325b6c0001bbb7f0","D2","batch4","","null","<p class=block-text>Trial 41 out of 60</p>","null","spm_show_trial_num","","","","","","","","","","","","","","","","","","","","","","","","",""
"","","","","","image-button-response","263","888240","0.0-3.0-4.0-1.16","5b0482fc325b6c0001bbb7f0","D2","batch4","","8022.299999952316","img/question_4_5.jpeg","7","spm_respsonse","1","8","mat_41","","","","","","1","8022.299999952316","","","","","","","","","","","","","","",""
"","","","","","html-keyboard-response","264","889305","0.0-3.0-4.0-0.17","5b0482fc325b6c0001bbb7f0","D2","batch4","","null","<p class=block-text>Trial 42 out of 60</p>","null","spm_show_trial_num","","","","","","","","","","","","","","","","","","","","","","","","",""
"","","","","","image-button-response","265","895988","0.0-3.0-4.0-1.17","5b0482fc325b6c0001bbb7f0","D2","batch4","","6673","img/question_4_6.jpeg","5","spm_respsonse","1","6","mat_42","","","","","","1","6673","","","","","","","","","","","","","","",""
"","","","","","html-keyboard-response","266","897057","0.0-3.0-4.0-0.18","5b0482fc325b6c0001bbb7f0","D2","batch4","","null","<p class=block-text>Trial 43 out of 60</p>","null","spm_show_trial_num","","","","","","","","","","","","","","","","","","","","","","","","",""
"","","","","","image-button-response","267","914325","0.0-3.0-4.0-1.18","5b0482fc325b6c0001bbb7f0","D2","batch4","","17258.899999976158","img/question_4_7.jpeg","3","spm_respsonse","0","5","mat_43","","","","","","0","17258.899999976158","","","","","","","","","","","","","","",""
"","","","","","html-keyboard-response","268","915399","0.0-3.0-4.0-0.19","5b0482fc325b6c0001bbb7f0","D2","batch4","","null","<p class=block-text>Trial 44 out of 60</p>","null","spm_show_trial_num","","","","","","","","","","","","","","","","","","","","","","","","",""
"","","","","","image-button-response","269","925669","0.0-3.0-4.0-1.19","5b0482fc325b6c0001bbb7f0","D2","batch4","","10262.799999952316","img/question_4_8.jpeg","3","spm_respsonse","1","4","mat_44","","","","","","1","10262.799999952316","","","","","","","","","","","","","","",""
"","","","","","html-keyboard-response","270","926739","0.0-3.0-4.0-0.20","5b0482fc325b6c0001bbb7f0","D2","batch4","","null","<p class=block-text>Trial 45 out of 60</p>","null","spm_show_trial_num","","","","","","","","","","","","","","","","","","","","","","","","",""
"","","","","","image-button-response","271","940107","0.0-3.0-4.0-1.20","5b0482fc325b6c0001bbb7f0","D2","batch4","","13363.199999928474","img/question_4_9.jpeg","0","spm_respsonse","1","1","mat_45","","","","","","1","13363.199999928474","","","","","","","","","","","","","","",""
"","","","","","html-keyboard-response","272","941177","0.0-3.0-4.0-0.21","5b0482fc325b6c0001bbb7f0","D2","batch4","","null","<p class=block-text>Trial 46 out of 60</p>","null","spm_show_trial_num","","","","","","","","","","","","","","","","","","","","","","","","",""
"","","","","","image-button-response","273","959258","0.0-3.0-4.0-1.21","5b0482fc325b6c0001bbb7f0","D2","batch4","","18071.399999976158","img/question_4_10.jpeg","1","spm_respsonse","1","2","mat_46","","","","","","1","18071.399999976158","","","","","","","","","","","","","","",""
"","","","","","html-keyboard-response","274","960325","0.0-3.0-4.0-0.22","5b0482fc325b6c0001bbb7f0","D2","batch4","","null","<p class=block-text>Trial 47 out of 60</p>","null","spm_show_trial_num","","","","","","","","","","","","","","","","","","","","","","","","",""
"","","","","","image-button-response","275","989887","0.0-3.0-4.0-1.22","5b0482fc325b6c0001bbb7f0","D2","batch4","","29553.5","img/question_4_11.jpeg","4","spm_respsonse","1","5","mat_47","","","","","","1","29553.5","","","","","","","","","","","","","","",""
"","","","","","html-keyboard-response","276","990940","0.0-3.0-4.0-0.23","5b0482fc325b6c0001bbb7f0","D2","batch4","","null","<p class=block-text>Trial 48 out of 60</p>","null","spm_show_trial_num","","","","","","","","","","","","","","","","","","","","","","","","",""
"","","","","","image-button-response","277","1018155","0.0-3.0-4.0-1.23","5b0482fc325b6c0001bbb7f0","D2","batch4","","27205.899999976158","img/question_4_12.jpeg","6","spm_respsonse","0","6","mat_48","","","","","","0","27205.899999976158","","","","","","","","","","","","","","",""
"","","","","","html-keyboard-response","278","1019277","0.0-3.0-4.0-0.24","5b0482fc325b6c0001bbb7f0","D2","batch4","","null","<p class=block-text>Trial 49 out of 60</p>","null","spm_show_trial_num","","","","","","","","","","","","","","","","","","","","","","","","",""
"","","","","","image-button-response","279","1028300","0.0-3.0-4.0-1.24","5b0482fc325b6c0001bbb7f0","D2","batch4","","9017.399999976158","img/question_5_1.jpeg","6","spm_respsonse","1","7","mat_49","","","","","","1","9017.399999976158","","","","","","","","","","","","","","",""
"","","","","","html-keyboard-response","280","1029365","0.0-3.0-4.0-0.25","5b0482fc325b6c0001bbb7f0","D2","batch4","","null","<p class=block-text>Trial 50 out of 60</p>","null","spm_show_trial_num","","","","","","","","","","","","","","","","","","","","","","","","",""
"","","","","","image-button-response","281","1039778","0.0-3.0-4.0-1.25","5b0482fc325b6c0001bbb7f0","D2","batch4","","10403.100000023842","img/question_5_2.jpeg","5","spm_respsonse","1","6","mat_50","","","","","","1","10403.100000023842","","","","","","","","","","","","","","",""
"","","","","","html-keyboard-response","282","1040843","0.0-3.0-4.0-0.26","5b0482fc325b6c0001bbb7f0","D2","batch4","","null","<p class=block-text>Trial 51 out of 60</p>","null","spm_show_trial_num","","","","","","","","","","","","","","","","","","","","","","","","",""
"","","","","","image-button-response","283","1050139","0.0-3.0-4.0-1.26","5b0482fc325b6c0001bbb7f0","D2","batch4","","9287.299999952316","img/question_5_3.jpeg","7","spm_respsonse","1","8","mat_51","","","","","","1","9287.299999952316","","","","","","","","","","","","","","",""
"","","","","","html-keyboard-response","284","1051194","0.0-3.0-4.0-0.27","5b0482fc325b6c0001bbb7f0","D2","batch4","","null","<p class=block-text>Trial 52 out of 60</p>","null","spm_show_trial_num","","","","","","","","","","","","","","","","","","","","","","","","",""
"","","","","","image-button-response","285","1061276","0.0-3.0-4.0-1.27","5b0482fc325b6c0001bbb7f0","D2","batch4","","10072.899999976158","img/question_5_4.jpeg","1","spm_respsonse","1","2","mat_52","","","","","","1","10072.899999976158","","","","","","","","","","","","","","",""
"","","","","","html-keyboard-response","286","1062347","0.0-3.0-4.0-0.28","5b0482fc325b6c0001bbb7f0","D2","batch4","","null","<p class=block-text>Trial 53 out of 60</p>","null","spm_show_trial_num","","","","","","","","","","","","","","","","","","","","","","","","",""
"","","","","","image-button-response","287","1079574","0.0-3.0-4.0-1.28","5b0482fc325b6c0001bbb7f0","D2","batch4","","17217.700000047684","img/question_5_5.jpeg","0","spm_respsonse","1","1","mat_53","","","","","","1","17217.700000047684","","","","","","","","","","","","","","",""
"","","","","","html-keyboard-response","288","1080651","0.0-3.0-4.0-0.29","5b0482fc325b6c0001bbb7f0","D2","batch4","","null","<p class=block-text>Trial 54 out of 60</p>","null","spm_show_trial_num","","","","","","","","","","","","","","","","","","","","","","","","",""
"","","","","","image-button-response","289","1092183","0.0-3.0-4.0-1.29","5b0482fc325b6c0001bbb7f0","D2","batch4","","11524.200000047684","img/question_5_6.jpeg","4","spm_respsonse","1","5","mat_54","","","","","","1","11524.200000047684","","","","","","","","","","","","","","",""
"","","","","","html-keyboard-response","290","1093251","0.0-3.0-4.0-0.30","5b0482fc325b6c0001bbb7f0","D2","batch4","","null","<p class=block-text>Trial 55 out of 60</p>","null","spm_show_trial_num","","","","","","","","","","","","","","","","","","","","","","","","",""
"","","","","","image-button-response","291","1117900","0.0-3.0-4.0-1.30","5b0482fc325b6c0001bbb7f0","D2","batch4","","24640.5","img/question_5_7.jpeg","0","spm_respsonse","1","1","mat_55","","","","","","1","24640.5","","","","","","","","","","","","","","",""
"","","","","","html-keyboard-response","292","1118977","0.0-3.0-4.0-0.31","5b0482fc325b6c0001bbb7f0","D2","batch4","","null","<p class=block-text>Trial 56 out of 60</p>","null","spm_show_trial_num","","","","","","","","","","","","","","","","","","","","","","","","",""
"","","","","","image-button-response","293","1135500","0.0-3.0-4.0-1.31","5b0482fc325b6c0001bbb7f0","D2","batch4","","16514.800000071526","img/question_5_8.jpeg","5","spm_respsonse","1","6","mat_56","","","","","","1","16514.800000071526","","","","","","","","","","","","","","",""
"","","","","","html-keyboard-response","294","1136557","0.0-3.0-4.0-0.32","5b0482fc325b6c0001bbb7f0","D2","batch4","","null","<p class=block-text>Trial 57 out of 60</p>","null","spm_show_trial_num","","","","","","","","","","","","","","","","","","","","","","","","",""
"","","","","","image-button-response","295","1172672","0.0-3.0-4.0-1.32","5b0482fc325b6c0001bbb7f0","D2","batch4","","36107.5","img/question_5_9.jpeg","2","spm_respsonse","1","3","mat_57","","","","","","1","36107.5","","","","","","","","","","","","","","",""
"","","","","","html-keyboard-response","296","1173735","0.0-3.0-4.0-0.33","5b0482fc325b6c0001bbb7f0","D2","batch4","","null","<p class=block-text>Trial 58 out of 60</p>","null","spm_show_trial_num","","","","","","","","","","","","","","","","","","","","","","","","",""
"","","","","","image-button-response","297","1193650","0.0-3.0-4.0-1.33","5b0482fc325b6c0001bbb7f0","D2","batch4","","19905.899999976158","img/question_5_10.jpeg","7","spm_respsonse","0","2","mat_58","","","","","","0","19905.899999976158","","","","","","","","","","","","","","",""
"","","","","","html-keyboard-response","298","1194722","0.0-3.0-4.0-0.34","5b0482fc325b6c0001bbb7f0","D2","batch4","","null","<p class=block-text>Trial 59 out of 60</p>","null","spm_show_trial_num","","","","","","","","","","","","","","","","","","","","","","","","",""
"","","","","","image-button-response","299","1202532","0.0-3.0-4.0-1.34","5b0482fc325b6c0001bbb7f0","D2","batch4","","7802.600000023842","img/question_5_11.jpeg","6","spm_respsonse","0","4","mat_59","","","","","","0","7802.600000023842","","","","","","","","","","","","","","",""
"","","","","","html-keyboard-response","300","1203596","0.0-3.0-4.0-0.35","5b0482fc325b6c0001bbb7f0","D2","batch4","","null","<p class=block-text>Trial 60 out of 60</p>","null","spm_show_trial_num","","","","","","","","","","","","","","","","","","","","","","","","",""
"","","","","","image-button-response","301","1212491","0.0-3.0-4.0-1.35","5b0482fc325b6c0001bbb7f0","D2","batch4","","8886.799999952316","img/question_5_12.jpeg","1","spm_respsonse","0","5","mat_60","","","","","","0","8886.799999952316","","","","","","","","","","","","","","",""
"","","","","","html-button-response","302","1214866","0.0-3.0-5.0","5b0482fc325b6c0001bbb7f0","D2","batch4","","2121.600000023842","<p class= block-text>This concludes the Standard Progressive Matrix game. Thank you for your responses!<br> When you are ready, click the button continue</p>","0","spm_goodbye","","","","","","","","","","","","","","","","","","","","","","","","",""
"true","","","","","fullscreen","303","1217272","0.0-4.0-0.0","5b0482fc325b6c0001bbb7f0","D2","batch4","","","","","","","","","","","","","","","","","","","","","","","","","","","","","",""
"","","","","","instructions","304","1255799","0.0-4.0-1.0-0.0-0.0","5b0482fc325b6c0001bbb7f0","D2","batch4","[{""page_index"":0,""viewing_time"":6295.199999928474},{""page_index"":1,""viewing_time"":3771.600000023842},{""page_index"":2,""viewing_time"":3167.3000000715256},{""page_index"":3,""viewing_time"":11880.599999904633},{""page_index"":4,""viewing_time"":4123.900000095367},{""page_index"":5,""viewing_time"":6988.099999904633},{""page_index"":6,""viewing_time"":2297.5}]","38525.199999928474","","","tol-instructions","","","","","","","","","","","","","","","","","","","","","","","","",""
"","","","","","html-button-response","305","1256693","0.0-4.0-1.0-1.0-0.0","5b0482fc325b6c0001bbb7f0","D2","batch4","","891.7000000476837","<p class=block-text> Let's answer a few questions <br>","0","tol_enter_quiz","","","","","","","","","","","","","","","","","","","","","","","","",""
"","","","","","html-button-response","306","1262183","0.0-4.0-1.0-1.0-1.0","5b0482fc325b6c0001bbb7f0","D2","batch4","","5486.899999976158","<p class = block-text>True or False: You can only move the ball on top of a peg. <br></p>","1","tol_quiz","false","","","","","","","","","","","","","","","","","","","","","","","",""
"","","","","","html-button-response","307","1264088","0.0-4.0-1.0-1.0-2.0","5b0482fc325b6c0001bbb7f0","D2","batch4","","1900.7000000476837","<p class = block-text>Incorrect. Remember, you can only move the ball on top of a peg.</p>","0","tol_quiz_feedback","","","","","","","","","","","","","","","","","","","","","","","","",""
"","","","","","html-button-response","308","1267631","0.0-4.0-1.0-1.0-3.0","5b0482fc325b6c0001bbb7f0","D2","batch4","","3541.399999976158","<p class = block-text>True or False: You should try to match your board with the target board with fewest moves possible. <br></p>","0","tol_quiz","true","","","","","","","","","","","","","","","","","","","","","","","",""
"","","","","","html-button-response","309","1268402","0.0-4.0-1.0-1.0-4.0","5b0482fc325b6c0001bbb7f0","D2","batch4","","767.6000000238419","<p class = block-text>Correct! </p>","0","tol_quiz_feedback","","","","","","","","","","","","","","","","","","","","","","","","",""
"","","","","","html-button-response","310","1270683","0.0-4.0-1.0-2.0-0.0","5b0482fc325b6c0001bbb7f0","D2","batch4","","2278.6999999284744","<p class = block-text>You made too many incorrect choices.</p><p class = block-text>You will now repeat the instructions and quiz</p>","0","","","","","","","","","","","","","","","","","","","","","","","","","",""
"","","","","","instructions","311","1284654","0.0-4.0-1.1-0.1-0.1","5b0482fc325b6c0001bbb7f0","D2","batch4","[{""page_index"":0,""viewing_time"":5562.299999952316},{""page_index"":1,""viewing_time"":1425.7000000476837},{""page_index"":2,""viewing_time"":1349.7999999523163},{""page_index"":3,""viewing_time"":1425.2000000476837},{""page_index"":4,""viewing_time"":1011.7999999523163},{""page_index"":5,""viewing_time"":1380},{""page_index"":6,""viewing_time"":1812.2000000476837}]","13967.799999952316","","","tol-instructions","","","","","","","","","","","","","","","","","","","","","","","","",""
"","","","","","html-button-response","312","1285531","0.0-4.0-1.1-1.1-0.1","5b0482fc325b6c0001bbb7f0","D2","batch4","","874.6000000238419","<p class=block-text> Let's answer a few questions <br>","0","tol_enter_quiz","","","","","","","","","","","","","","","","","","","","","","","","",""
"","","","","","html-button-response","313","1286752","0.0-4.0-1.1-1.1-1.1","5b0482fc325b6c0001bbb7f0","D2","batch4","","1218.8999999761581","<p class = block-text>True or False: You can only move the ball on top of a peg. <br></p>","0","tol_quiz","true","","","","","","","","","","","","","","","","","","","","","","","",""
"","","","","","html-button-response","314","1287782","0.0-4.0-1.1-1.1-2.1","5b0482fc325b6c0001bbb7f0","D2","batch4","","1027.3999999761581","<p class = block-text>Correct! You can only move the ball on top of a peg.</p>","0","tol_quiz_feedback","","","","","","","","","","","","","","","","","","","","","","","","",""
"","","","","","html-button-response","315","1290023","0.0-4.0-1.1-1.1-3.1","5b0482fc325b6c0001bbb7f0","D2","batch4","","2238.899999976158","<p class = block-text>True or False: You should try to match your board with the target board with fewest moves possible. <br></p>","0","tol_quiz","true","","","","","","","","","","","","","","","","","","","","","","","",""
"","","","","","html-button-response","316","1290659","0.0-4.0-1.1-1.1-4.1","5b0482fc325b6c0001bbb7f0","D2","batch4","","633.1000000238419","<p class = block-text>Correct! </p>","0","tol_quiz_feedback","","","","","","","","","","","","","","","","","","","","","","","","",""
"","","","","","html-button-response","317","1292549","0.0-4.0-2.0","5b0482fc325b6c0001bbb7f0","D2","batch4","","1887","<p class=block-text> Now that you've understood the game, let's practice a few easier examples before we start!<br> <br>","0","","","","","","","","","","","","","","","","","","","","","","","","","",""
"","","","","","single-stim-button","318","1294942","0.0-4.0-3.0-0.0","5b0482fc325b6c0001bbb7f0","D2","batch4","","2387","","","tol_practice","","","","","","","","","","","tol_peg_2","2387","2387","0","[[1,2,0],[0,0],[0]]","1","[[1,2,0],[0,0],[3]]","practice","2387","","","","","",""
"","","","","","single-stim-button","319","1297276","0.0-4.0-3.0-1.0","5b0482fc325b6c0001bbb7f0","D2","batch4","","2332","","","tol_practice","","","","","","","","","","","tol_peg_3","2332","2332","0","[[1,2,0],[0,0],[3]]","1","[[1,2,0],[0,0],[3]]","practice","2332","","","","","",""
"","","","","","poldrack-single-stim","320","1298286","0.0-4.0-4.0","5b0482fc325b6c0001bbb7f0","D2","batch4","","-1","","","tol_feedback","true","","","","","","","","","","","1000","1000","500","","","","","","-1","none","true","","0",""
"","","","","","single-stim-button","321","1301253","0.0-4.0-5.0-0.0","5b0482fc325b6c0001bbb7f0","D2","batch4","","2964","","","tol_practice","","","","","","","","","","","tol_peg_1","2964","2964","0","[[1,0,0],[3,0],[0]]","2","[[0,0,0],[3,1],[2]]","practice","2964","","","","","",""
"","","","","","single-stim-button","322","1302858","0.0-4.0-5.0-1.0","5b0482fc325b6c0001bbb7f0","D2","batch4","","1603","","","tol_practice","","","","","","","","","","","tol_peg_3","1603","1603","0","[[1,0,0],[3,0],[2]]","2","[[0,0,0],[3,1],[2]]","practice","1603","","","","","",""
"","","","","","single-stim-button","323","1303635","0.0-4.0-5.1-0.1","5b0482fc325b6c0001bbb7f0","D2","batch4","","775","","","tol_practice","","","","","","","","","","","tol_peg_1","775","775","0","[[0,0,0],[3,0],[2]]","3","[[0,0,0],[3,1],[2]]","practice","775","","","","","",""
"","","","","","single-stim-button","324","1304411","0.0-4.0-5.1-1.1","5b0482fc325b6c0001bbb7f0","D2","batch4","","774","","","tol_practice","","","","","","","","","","","tol_peg_2","774","774","0","[[0,0,0],[3,1],[2]]","3","[[0,0,0],[3,1],[2]]","practice","774","","","","","",""
"","","","","","poldrack-single-stim","325","1305423","0.0-4.0-6.0","5b0482fc325b6c0001bbb7f0","D2","batch4","","-1","","","tol_feedback","true","","","","","","","","","","","1000","1000","500","","","","","","-1","none","true","","0",""
"","","","","","single-stim-button","326","1307932","0.0-4.0-7.0-0.0","5b0482fc325b6c0001bbb7f0","D2","batch4","","2507","","","tol_practice","","","","","","","","","","","tol_peg_2","2507","2507","0","[[1,2,0],[0,0],[0]]","4","[[1,0,0],[2,0],[3]]","practice","2507","","","","","",""
"","","","","","single-stim-button","327","1308811","0.0-4.0-7.0-1.0","5b0482fc325b6c0001bbb7f0","D2","batch4","","877","","","tol_practice","","","","","","","","","","","tol_peg_3","877","877","0","[[1,2,0],[0,0],[3]]","4","[[1,0,0],[2,0],[3]]","practice","877","","","","","",""
"","","","","","single-stim-button","328","1309627","0.0-4.0-7.1-0.1","5b0482fc325b6c0001bbb7f0","D2","batch4","","815","","","tol_practice","","","","","","","","","","","tol_peg_1","815","815","0","[[1,0,0],[0,0],[3]]","5","[[1,0,0],[2,0],[3]]","practice","815","","","","","",""
"","","","","","single-stim-button","329","1310291","0.0-4.0-7.1-1.1","5b0482fc325b6c0001bbb7f0","D2","batch4","","662","","","tol_practice","","","","","","","","","","","tol_peg_2","662","662","0","[[1,0,0],[2,0],[3]]","5","[[1,0,0],[2,0],[3]]","practice","662","","","","","",""
"","","","","","poldrack-single-stim","330","1311307","0.0-4.0-8.0","5b0482fc325b6c0001bbb7f0","D2","batch4","","-1","","","tol_feedback","true","","","","","","","","","","","1000","1000","500","","","","","","-1","none","true","","0",""
"","","","","","html-button-response","331","1314808","0.0-4.0-9.0","5b0482fc325b6c0001bbb7f0","D2","batch4","","3498.100000023842","<div class = centerbox><p class = center-block-text>Great job! You are done with practice trials<br>You are about to start official trials.<br> <br> Problem <strong>1</strong> out of 25 problems</p></div>","0","tol_instruction","","","","","","","","","","","","","","","","","","","","","","","","",""
"","","","","","single-stim-button","332","1320244","0.0-4.0-10.0-0.0","5b0482fc325b6c0001bbb7f0","D2","batch4","","4429","","","tol_tohand","","","","","","","","","","","tol_peg_1","4429","4429","0","[[1,0,0],[3,0],[0]]","1","[[1,3,0],[2,0],[0]]","0","0","","","","","","3"
"","","","","","single-stim-button","333","1321342","0.0-4.0-10.0-1.0","5b0482fc325b6c0001bbb7f0","D2","batch4","","1096","","","tol_toboard","","","","","","","","","","","tol_peg_3","1096","1096","0","[[1,0,0],[3,0],[2]]","1","[[1,3,0],[2,0],[0]]","0","0","","","","","","3"
"","","","","","single-stim-button","334","1322108","0.0-4.0-10.1-0.1","5b0482fc325b6c0001bbb7f0","D2","batch4","","765","","","tol_tohand","","","","","","","","","","","tol_peg_2","765","765","0","[[1,0,0],[0,0],[2]]","2","[[1,3,0],[2,0],[0]]","0","0","","","","","","3"
"","","","","","single-stim-button","335","1322987","0.0-4.0-10.1-1.1","5b0482fc325b6c0001bbb7f0","D2","batch4","","877","","","tol_toboard","","","","","","","","","","","tol_peg_1","877","877","0","[[1,3,0],[0,0],[2]]","2","[[1,3,0],[2,0],[0]]","0","0","","","","","","3"
"","","","","","single-stim-button","336","1323636","0.0-4.0-10.2-0.2","5b0482fc325b6c0001bbb7f0","D2","batch4","","647","","","tol_tohand","","","","","","","","","","","tol_peg_3","647","647","0","[[1,3,0],[0,0],[0]]","3","[[1,3,0],[2,0],[0]]","0","0","","","","","","3"
"","","","","","single-stim-button","337","1324459","0.0-4.0-10.2-1.2","5b0482fc325b6c0001bbb7f0","D2","batch4","","821","","","tol_toboard","","","","","","","","","","","tol_peg_2","821","821","0","[[1,3,0],[2,0],[0]]","3","[[1,3,0],[2,0],[0]]","0","0","","","","","","3"
"","","","","","poldrack-single-stim","338","1325477","0.0-4.0-11.0","5b0482fc325b6c0001bbb7f0","D2","batch4","","-1","","","tol_feedback","true","","","","","","","","","","","1000","1000","500","","","","","","-1","none","true","4429","5841",""
"","","","","","html-button-response","339","1326342","0.0-4.0-12.0","5b0482fc325b6c0001bbb7f0","D2","batch4","","861.2999999523163","<div class = centerbox><p class = center-block-text>problem <strong>2</strong> out of 25 problems</p></div>","0","tol_trial_num","","","","","","","","","","","","","","","","","","","","","","","","",""
"","","","","","single-stim-button","340","1334388","0.0-4.0-13.0-0.0","5b0482fc325b6c0001bbb7f0","D2","batch4","","8043","","","tol_tohand","","","","","","","","","","","tol_peg_1","8043","8043","0","[[1,0,0],[3,0],[0]]","1","[[2,1,3],[0,0],[0]]","1","0","","","","","","5"
"","","","","","single-stim-button","341","1335227","0.0-4.0-13.0-1.0","5b0482fc325b6c0001bbb7f0","D2","batch4","","837","","","tol_toboard","","","","","","","","","","","tol_peg_2","837","837","0","[[1,0,0],[3,2],[0]]","1","[[2,1,3],[0,0],[0]]","1","0","","","","","","5"
"","","","","","single-stim-button","342","1335792","0.0-4.0-13.1-0.1","5b0482fc325b6c0001bbb7f0","D2","batch4","","561","","","tol_tohand","","","","","","","","","","","tol_peg_1","561","561","0","[[0,0,0],[3,2],[0]]","2","[[2,1,3],[0,0],[0]]","1","0","","","","","","5"
"","","","","","single-stim-button","343","1336708","0.0-4.0-13.1-1.1","5b0482fc325b6c0001bbb7f0","D2","batch4","","914","","","tol_toboard","","","","","","","","","","","tol_peg_3","914","914","0","[[0,0,0],[3,2],[1]]","2","[[2,1,3],[0,0],[0]]","1","0","","","","","","5"
"","","","","","single-stim-button","344","1337296","0.0-4.0-13.2-0.2","5b0482fc325b6c0001bbb7f0","D2","batch4","","586","","","tol_tohand","","","","","","","","","","","tol_peg_2","586","586","0","[[0,0,0],[3,0],[1]]","3","[[2,1,3],[0,0],[0]]","1","0","","","","","","5"
"","","","","","single-stim-button","345","1337999","0.0-4.0-13.2-1.2","5b0482fc325b6c0001bbb7f0","D2","batch4","","702","","","tol_toboard","","","","","","","","","","","tol_peg_1","702","702","0","[[2,0,0],[3,0],[1]]","3","[[2,1,3],[0,0],[0]]","1","0","","","","","","5"
