"success","timeout","failed_images","failed_audio","failed_video","trial_type","trial_index","time_elapsed","internal_node_id","subject_id","study_id","session_id","view_history","rt","stimulus","response","task","correct","answer","item","fiar_detect_rt","fiar_detect_correct","total_correct_fiar_detect","post_trial_gap","choices","mouse_click","stim_duration","block_duration","timing_post_trial","current_position","tol_num_moves_made","tol_target","tol_problem_id","tol_rt","key_press","possible_responses","tol_correct","preplanning","tol_rt_per_trial","tol_min_moves","spm_correct","spm_rt"
"true","false","[]","[]","[]","preload","0","10976","0.0-0.0","5b184f9768a5ed0001734190","C3","batch3","","","","","","","","","","","","","","","","","","","","","","","","","","","","","",""
"true","","","","","fullscreen","1","60171","0.0-1.0-0.0","5b184f9768a5ed0001734190","C3","batch3","","","","","","","","","","","","","","","","","","","","","","","","","","","","","",""
"true","","","","","fullscreen","2","64930","0.0-2.0-0.0","5b184f9768a5ed0001734190","C3","batch3","","","","","","","","","","","","","","","","","","","","","","","","","","","","","",""
"","","","","","instructions","3","113099","0.0-2.0-1.0-0.0","5b184f9768a5ed0001734190","C3","batch3","[{""page_index"":0,""viewing_time"":19969.299999998882},{""page_index"":1,""viewing_time"":28198.700000001118}]","48168.29999999888","","","","","","","","","","","","","","","","","","","","","","","","","","","",""
"","","","","","html-button-response","4","114192","0.0-2.0-1.0-1.0-0.0","5b184f9768a5ed0001734190","C3","batch3","","1092.5","<p class=block-text> Let's answer a few questions <br>","0","pattern_enter_quiz","","","","","","","","","","","","","","","","","","","","","","","","",""
"","","","","","html-button-response","5","116501","0.0-2.0-1.0-1.0-1.0","5b184f9768a5ed0001734190","C3","batch3","","2308.0999999996275","<p class = block-text>True or False: You will have as much time as you want to make each choice. <br></p>","1","pattern_quiz","true","","","","","","","","","","","","","","","","","","","","","","","",""
"","","","","","html-button-response","6","117441","0.0-2.0-1.0-1.0-2.0","5b184f9768a5ed0001734190","C3","batch3","","939.1999999992549","<p class = block-text>Correct! You should make your choice <strong> as fast as you can</strong>.</p>","0","pattern_quiz_feedback","","","","","","","","","","","","","","","","","","","","","","","","",""
"","","","","","html-button-response","7","119663","0.0-2.0-1.0-1.0-3.0","5b184f9768a5ed0001734190","C3","batch3","","2220.2999999988824","<p class = block-text>True or False: You will look for 4 pieces in black or white color connected in a row either horizontally, vertically or diagonally. <br></p>","0","pattern_quiz","true","","","","","","","","","","","","","","","","","","","","","","","",""
"","","","","","html-button-response","8","120320","0.0-2.0-1.0-1.0-4.0","5b184f9768a5ed0001734190","C3","batch3","","656.5","<p class = block-text>Correct! </p>","0","pattern_quiz_feedback","","","","","","","","","","","","","","","","","","","","","","","","",""
"","","","","","html-button-response","9","122924","0.0-2.0-2.0","5b184f9768a5ed0001734190","C3","batch3","","2602.800000000745","<p class=block-text> Now that you've understood the game, let's do a few practice trials before we start!<br> <br>","0","pattern_enter_practice","","","","","","","","","","","","","","","","","","","","","","","","",""
"","","","","","image-keyboard-response","10","124745","0.0-2.0-3.0-0.0","5b184f9768a5ed0001734190","C3","batch3","","1820.699999999255","stim/prac_no_16_1.png","j","pattern_practice","true","j","","","","","","","","","","","","","","","","","","","","","","",""
"","","","","","html-keyboard-response","11","125767","0.0-2.0-3.0-1.0","5b184f9768a5ed0001734190","C3","batch3","","null","<p style=""font-size:30px;color:green;"">Correct!</p>","null","pattern_feedback","","","","","","","","","","","","","","","","","","","","","","","","",""
"","","","","","image-keyboard-response","12","126880","0.0-2.0-3.0-0.1","5b184f9768a5ed0001734190","C3","batch3","","1112.0999999996275","stim/prac_yes_18_hor_w1.png","f","pattern_practice","true","f","","","","","","","","","","","","","","","","","","","","","","",""
"","","","","","html-keyboard-response","13","127907","0.0-2.0-3.0-1.1","5b184f9768a5ed0001734190","C3","batch3","","null","<p style=""font-size:30px;color:green;"">Correct!</p>","null","pattern_feedback","","","","","","","","","","","","","","","","","","","","","","","","",""
"","","","","","image-keyboard-response","14","128705","0.0-2.0-3.0-0.2","5b184f9768a5ed0001734190","C3","batch3","","796.4000000003725","stim/prac_yes_16_ver_w1.png","f","pattern_practice","true","f","","","","","","","","","","","","","","","","","","","","","","",""
"","","","","","html-keyboard-response","15","129730","0.0-2.0-3.0-1.2","5b184f9768a5ed0001734190","C3","batch3","","null","<p style=""font-size:30px;color:green;"">Correct!</p>","null","pattern_feedback","","","","","","","","","","","","","","","","","","","","","","","","",""
"","","","","","image-keyboard-response","16","130497","0.0-2.0-3.0-0.3","5b184f9768a5ed0001734190","C3","batch3","","765.7999999988824","stim/prac_yes_20_dia_b1.png","f","pattern_practice","true","f","","","","","","","","","","","","","","","","","","","","","","",""
"","","","","","html-keyboard-response","17","131521","0.0-2.0-3.0-1.3","5b184f9768a5ed0001734190","C3","batch3","","null","<p style=""font-size:30px;color:green;"">Correct!</p>","null","pattern_feedback","","","","","","","","","","","","","","","","","","","","","","","","",""
"","","","","","image-keyboard-response","18","132369","0.0-2.0-3.0-0.4","5b184f9768a5ed0001734190","C3","batch3","","846.9000000003725","stim/prac_no_18_1.png","j","pattern_practice","true","j","","","","","","","","","","","","","","","","","","","","","","",""
"","","","","","html-keyboard-response","19","133394","0.0-2.0-3.0-1.4","5b184f9768a5ed0001734190","C3","batch3","","null","<p style=""font-size:30px;color:green;"">Correct!</p>","null","pattern_feedback","","","","","","","","","","","","","","","","","","","","","","","","",""
"","","","","","html-button-response","20","138304","0.0-2.0-4.0","5b184f9768a5ed0001734190","C3","batch3","","4909.5999999996275","<p class=block-text> Good job! You are done with practice trials!<br>
        You responded correctly on 100% of the trials.<br>
        Press the button below to start official trials. Now you won't see any feedback about your response</p>","0","pattern_enter_official_trials","","","","","","","","","","","","","","","","","","","","","","","","",""
"","","","","","html-keyboard-response","21","139116","0.0-2.0-5.0-0.0","5b184f9768a5ed0001734190","C3","batch3","","null","<p class=block-text>Trial 1 out of 78</p>","null","pattern_show_trial_num","","","","","","","","","","","","","","","","","","","","","","","","",""
"","","","","","image-keyboard-response","22","140904","0.0-2.0-5.0-1.0","5b184f9768a5ed0001734190","C3","batch3","","1786.5","stim/yes_44_ver_w1_w.png","f","pattern_response","true","f","pattern_66","1786.5","true","1","","","","","","","","","","","","","","","","","","",""
"","","","","","html-keyboard-response","23","142233","0.0-2.0-5.0-0.1","5b184f9768a5ed0001734190","C3","batch3","","null","<p class=block-text>Trial 2 out of 78</p>","null","pattern_show_trial_num","","","","","","","","","","","","","","","","","","","","","","","","",""
"","","","","","image-keyboard-response","24","143960","0.0-2.0-5.0-1.1","5b184f9768a5ed0001734190","C3","batch3","","1726","stim/no_43_2_b.png","j","pattern_response","true","j","pattern_23","1726","true","2","","","","","","","","","","","","","","","","","","",""
"","","","","","html-keyboard-response","25","145286","0.0-2.0-5.0-0.2","5b184f9768a5ed0001734190","C3","batch3","","null","<p class=block-text>Trial 3 out of 78</p>","null","pattern_show_trial_num","","","","","","","","","","","","","","","","","","","","","","","","",""
"","","","","","image-keyboard-response","26","147608","0.0-2.0-5.0-1.2","5b184f9768a5ed0001734190","C3","batch3","","2321.300000000745","stim/no_25_1_b.png","j","pattern_response","true","j","pattern_09","2321.300000000745","true","3","","","","","","","","","","","","","","","","","","",""
"","","","","","html-keyboard-response","27","148927","0.0-2.0-5.0-0.3","5b184f9768a5ed0001734190","C3","batch3","","null","<p class=block-text>Trial 4 out of 78</p>","null","pattern_show_trial_num","","","","","","","","","","","","","","","","","","","","","","","","",""
"","","","","","image-keyboard-response","28","151184","0.0-2.0-5.0-1.3","5b184f9768a5ed0001734190","C3","batch3","","2255.9000000003725","stim/yes_42_dia_w1_w.png","f","pattern_response","true","f","pattern_64","2255.9000000003725","true","4","","","","","","","","","","","","","","","","","","",""
"","","","","","html-keyboard-response","29","152509","0.0-2.0-5.0-0.4","5b184f9768a5ed0001734190","C3","batch3","","null","<p class=block-text>Trial 5 out of 78</p>","null","pattern_show_trial_num","","","","","","","","","","","","","","","","","","","","","","","","",""
"","","","","","image-keyboard-response","30","153624","0.0-2.0-5.0-1.4","5b184f9768a5ed0001734190","C3","batch3","","1114","stim/no_45_1_w.png","f","pattern_response","false","j","pattern_25","1114","false","4","","","","","","","","","","","","","","","","","","",""
"","","","","","html-keyboard-response","31","154955","0.0-2.0-5.0-0.5","5b184f9768a5ed0001734190","C3","batch3","","null","<p class=block-text>Trial 6 out of 78</p>","null","pattern_show_trial_num","","","","","","","","","","","","","","","","","","","","","","","","",""
"","","","","","image-keyboard-response","32","156744","0.0-2.0-5.0-1.5","5b184f9768a5ed0001734190","C3","batch3","","1788.0999999996275","stim/no_22_1_b.png","j","pattern_response","true","j","pattern_07","1788.0999999996275","true","5","","","","","","","","","","","","","","","","","","",""
"","","","","","html-keyboard-response","33","158073","0.0-2.0-5.0-0.6","5b184f9768a5ed0001734190","C3","batch3","","null","<p class=block-text>Trial 7 out of 78</p>","null","pattern_show_trial_num","","","","","","","","","","","","","","","","","","","","","","","","",""
"","","","","","image-keyboard-response","34","161512","0.0-2.0-5.0-1.6","5b184f9768a5ed0001734190","C3","batch3","","3438.5","stim/no_53_1_b.png","j","pattern_response","true","j","pattern_33","3438.5","true","6","","","","","","","","","","","","","","","","","","",""
"","","","","","html-keyboard-response","35","162836","0.0-2.0-5.0-0.7","5b184f9768a5ed0001734190","C3","batch3","","null","<p class=block-text>Trial 8 out of 78</p>","null","pattern_show_trial_num","","","","","","","","","","","","","","","","","","","","","","","","",""
"","","","","","image-keyboard-response","36","165544","0.0-2.0-5.0-1.7","5b184f9768a5ed0001734190","C3","batch3","","2706.800000000745","stim/no_36_1_b.png","j","pattern_response","true","j","pattern_17","2706.800000000745","true","7","","","","","","","","","","","","","","","","","","",""
"","","","","","html-keyboard-response","37","166865","0.0-2.0-5.0-0.8","5b184f9768a5ed0001734190","C3","batch3","","null","<p class=block-text>Trial 9 out of 78</p>","null","pattern_show_trial_num","","","","","","","","","","","","","","","","","","","","","","","","",""
"","","","","","image-keyboard-response","38","171568","0.0-2.0-5.0-1.8","5b184f9768a5ed0001734190","C3","batch3","","4701.699999999255","stim/no_47_1_b.png","j","pattern_response","true","j","pattern_27","4701.699999999255","true","8","","","","","","","","","","","","","","","","","","",""
"","","","","","html-keyboard-response","39","172883","0.0-2.0-5.0-0.9","5b184f9768a5ed0001734190","C3","batch3","","null","<p class=block-text>Trial 10 out of 78</p>","null","pattern_show_trial_num","","","","","","","","","","","","","","","","","","","","","","","","",""
"","","","","","image-keyboard-response","40","173783","0.0-2.0-5.0-1.9","5b184f9768a5ed0001734190","C3","batch3","","899","stim/yes_30_ver_b1_b.png","f","pattern_response","true","f","pattern_54","899","true","9","","","","","","","","","","","","","","","","","","",""
"","","","","","html-keyboard-response","41","175104","0.0-2.0-5.0-0.10","5b184f9768a5ed0001734190","C3","batch3","","null","<p class=block-text>Trial 11 out of 78</p>","null","pattern_show_trial_num","","","","","","","","","","","","","","","","","","","","","","","","",""
"","","","","","image-keyboard-response","42","177727","0.0-2.0-5.0-1.10","5b184f9768a5ed0001734190","C3","batch3","","2621.9000000003725","stim/yes_51_dia_b1.png","f","pattern_response","true","f","pattern_72","2621.9000000003725","true","10","","","","","","","","","","","","","","","","","","",""
"","","","","","html-keyboard-response","43","179052","0.0-2.0-5.0-0.11","5b184f9768a5ed0001734190","C3","batch3","","null","<p class=block-text>Trial 12 out of 78</p>","null","pattern_show_trial_num","","","","","","","","","","","","","","","","","","","","","","","","",""
"","","","","","image-keyboard-response","44","183679","0.0-2.0-5.0-1.11","5b184f9768a5ed0001734190","C3","batch3","","4625.0999999996275","stim/no_67_1.png","j","pattern_response","true","j","pattern_39","4625.0999999996275","true","11","","","","","","","","","","","","","","","","","","",""
"","","","","","html-keyboard-response","45","185008","0.0-2.0-5.0-0.12","5b184f9768a5ed0001734190","C3","batch3","","null","<p class=block-text>Trial 13 out of 78</p>","null","pattern_show_trial_num","","","","","","","","","","","","","","","","","","","","","","","","",""
"","","","","","image-keyboard-response","46","186222","0.0-2.0-5.0-1.12","5b184f9768a5ed0001734190","C3","batch3","","1213.0999999996275","stim/yes_33_dia_w1_w.png","f","pattern_response","true","f","pattern_56","1213.0999999996275","true","12","","","","","","","","","","","","","","","","","","",""
"","","","","","html-keyboard-response","47","187546","0.0-2.0-5.0-0.13","5b184f9768a5ed0001734190","C3","batch3","","null","<p class=block-text>Trial 14 out of 78</p>","null","pattern_show_trial_num","","","","","","","","","","","","","","","","","","","","","","","","",""
"","","","","","image-keyboard-response","48","189430","0.0-2.0-5.0-1.13","5b184f9768a5ed0001734190","C3","batch3","","1882.9000000003725","stim/yes_70_ver_b1.png","f","pattern_response","true","f","pattern_80","1882.9000000003725","true","13","","","","","","","","","","","","","","","","","","",""
"","","","","","html-keyboard-response","49","190756","0.0-2.0-5.0-0.14","5b184f9768a5ed0001734190","C3","batch3","","null","<p class=block-text>Trial 15 out of 78</p>","null","pattern_show_trial_num","","","","","","","","","","","","","","","","","","","","","","","","",""
"","","","","","image-keyboard-response","50","191862","0.0-2.0-5.0-1.14","5b184f9768a5ed0001734190","C3","batch3","","1105","stim/yes_53_ver_b1_b.png","f","pattern_response","true","f","pattern_74","1105","true","14","","","","","","","","","","","","","","","","","","",""
"","","","","","html-keyboard-response","51","193183","0.0-2.0-5.0-0.15","5b184f9768a5ed0001734190","C3","batch3","","null","<p class=block-text>Trial 16 out of 78</p>","null","pattern_show_trial_num","","","","","","","","","","","","","","","","","","","","","","","","",""
"","","","","","image-keyboard-response","52","196095","0.0-2.0-5.0-1.15","5b184f9768a5ed0001734190","C3","batch3","","2911.2000000011176","stim/no_51_1.png","j","pattern_response","true","j","pattern_31","2911.2000000011176","true","15","","","","","","","","","","","","","","","","","","",""
"","","","","","html-keyboard-response","53","197415","0.0-2.0-5.0-0.16","5b184f9768a5ed0001734190","C3","batch3","","null","<p class=block-text>Trial 17 out of 78</p>","null","pattern_show_trial_num","","","","","","","","","","","","","","","","","","","","","","","","",""
"","","","","","image-keyboard-response","54","199710","0.0-2.0-5.0-1.16","5b184f9768a5ed0001734190","C3","batch3","","2294.2999999988824","stim/no_39_1_w.png","j","pattern_response","true","j","pattern_21","2294.2999999988824","true","16","","","","","","","","","","","","","","","","","","",""
"","","","","","html-keyboard-response","55","201037","0.0-2.0-5.0-0.17","5b184f9768a5ed0001734190","C3","batch3","","null","<p class=block-text>Trial 18 out of 78</p>","null","pattern_show_trial_num","","","","","","","","","","","","","","","","","","","","","","","","",""
"","","","","","image-keyboard-response","56","202862","0.0-2.0-5.0-1.17","5b184f9768a5ed0001734190","C3","batch3","","1823.5999999996275","stim/yes_63_dia_b1.png","f","pattern_response","true","f","pattern_78","1823.5999999996275","true","17","","","","","","","","","","","","","","","","","","",""
"","","","","","html-keyboard-response","57","204183","0.0-2.0-5.0-0.18","5b184f9768a5ed0001734190","C3","batch3","","null","<p class=block-text>Trial 19 out of 78</p>","null","pattern_show_trial_num","","","","","","","","","","","","","","","","","","","","","","","","",""
"","","","","","image-keyboard-response","58","205341","0.0-2.0-5.0-1.18","5b184f9768a5ed0001734190","C3","batch3","","1157.7999999988824","stim/yes_23_ver_b1.png","f","pattern_response","true","f","pattern_48","1157.7999999988824","true","18","","","","","","","","","","","","","","","","","","",""
"","","","","","html-keyboard-response","59","206660","0.0-2.0-5.0-0.19","5b184f9768a5ed0001734190","C3","batch3","","null","<p class=block-text>Trial 20 out of 78</p>","null","pattern_show_trial_num","","","","","","","","","","","","","","","","","","","","","","","","",""
"","","","","","image-keyboard-response","60","207750","0.0-2.0-5.0-1.19","5b184f9768a5ed0001734190","C3","batch3","","1089.800000000745","stim/yes_26_dia_w2_w.png","f","pattern_response","true","f","pattern_50","1089.800000000745","true","19","","","","","","","","","","","","","","","","","","",""
"","","","","","html-keyboard-response","61","209070","0.0-2.0-5.0-0.20","5b184f9768a5ed0001734190","C3","batch3","","null","<p class=block-text>Trial 21 out of 78</p>","null","pattern_show_trial_num","","","","","","","","","","","","","","","","","","","","","","","","",""
"","","","","","image-keyboard-response","62","210301","0.0-2.0-5.0-1.20","5b184f9768a5ed0001734190","C3","batch3","","1230.7999999988824","stim/yes_49_hor_w1_b.png","f","pattern_response","true","f","pattern_70","1230.7999999988824","true","20","","","","","","","","","","","","","","","","","","",""
"","","","","","html-keyboard-response","63","211624","0.0-2.0-5.0-0.21","5b184f9768a5ed0001734190","C3","batch3","","null","<p class=block-text>Trial 22 out of 78</p>","null","pattern_show_trial_num","","","","","","","","","","","","","","","","","","","","","","","","",""
"","","","","","image-keyboard-response","64","212366","0.0-2.0-5.0-1.21","5b184f9768a5ed0001734190","C3","batch3","","740.1999999992549","stim/yes_29_hor_b1_b.png","f","pattern_response","true","f","pattern_52","740.1999999992549","true","21","","","","","","","","","","","","","","","","","","",""
"","","","","","html-keyboard-response","65","213686","0.0-2.0-5.0-0.22","5b184f9768a5ed0001734190","C3","batch3","","null","<p class=block-text>Trial 23 out of 78</p>","null","pattern_show_trial_num","","","","","","","","","","","","","","","","","","","","","","","","",""
"","","","","","image-keyboard-response","66","215053","0.0-2.0-5.0-1.22","5b184f9768a5ed0001734190","C3","batch3","","1366.5999999996275","stim/no_18_1_b.png","j","pattern_response","true","j","pattern_05","1366.5999999996275","true","22","","","","","","","","","","","","","","","","","","",""
"","","","","","html-keyboard-response","67","216372","0.0-2.0-5.0-0.23","5b184f9768a5ed0001734190","C3","batch3","","null","<p class=block-text>Trial 24 out of 78</p>","null","pattern_show_trial_num","","","","","","","","","","","","","","","","","","","","","","","","",""
"","","","","","image-keyboard-response","68","217077","0.0-2.0-5.0-1.23","5b184f9768a5ed0001734190","C3","batch3","","704.7999999988824","stim/yes_39_hor_w1_w.png","f","pattern_response","true","f","pattern_62","704.7999999988824","true","23","","","","","","","","","","","","","","","","","","",""
"","","","","","html-keyboard-response","69","218396","0.0-2.0-5.0-0.24","5b184f9768a5ed0001734190","C3","batch3","","null","<p class=block-text>Trial 25 out of 78</p>","null","pattern_show_trial_num","","","","","","","","","","","","","","","","","","","","","","","","",""
"","","","","","image-keyboard-response","70","219973","0.0-2.0-5.0-1.24","5b184f9768a5ed0001734190","C3","batch3","","1577","stim/no_37_2_w.png","j","pattern_response","true","j","pattern_19","1577","true","24","","","","","","","","","","","","","","","","","","",""
"","","","","","html-keyboard-response","71","221302","0.0-2.0-5.0-0.25","5b184f9768a5ed0001734190","C3","batch3","","null","<p class=block-text>Trial 26 out of 78</p>","null","pattern_show_trial_num","","","","","","","","","","","","","","","","","","","","","","","","",""
"","","","","","image-keyboard-response","72","222261","0.0-2.0-5.0-1.25","5b184f9768a5ed0001734190","C3","batch3","","958.5","stim/yes_37_hor_w1_w.png","f","pattern_response","true","f","pattern_60","958.5","true","25","","","","","","","","","","","","","","","","","","",""
"","","","","","html-keyboard-response","73","223587","0.0-2.0-5.0-0.26","5b184f9768a5ed0001734190","C3","batch3","","null","<p class=block-text>Trial 27 out of 78</p>","null","pattern_show_trial_num","","","","","","","","","","","","","","","","","","","","","","","","",""
"","","","","","image-keyboard-response","74","224349","0.0-2.0-5.0-1.26","5b184f9768a5ed0001734190","C3","batch3","","761.3000000007451","stim/yes_36_ver_w1_w.png","f","pattern_response","true","f","pattern_58","761.3000000007451","true","26","","","","","","","","","","","","","","","","","","",""
"","","","","","html-keyboard-response","75","225680","0.0-2.0-5.0-0.27","5b184f9768a5ed0001734190","C3","batch3","","null","<p class=block-text>Trial 28 out of 78</p>","null","pattern_show_trial_num","","","","","","","","","","","","","","","","","","","","","","","","",""
"","","","","","image-keyboard-response","76","227965","0.0-2.0-5.0-1.27","5b184f9768a5ed0001734190","C3","batch3","","2284.4000000003725","stim/yes_58_dia_w1_w.png","j","pattern_response","false","f","pattern_76","2284.4000000003725","false","26","","","","","","","","","","","","","","","","","","",""
"","","","","","html-keyboard-response","77","229295","0.0-2.0-5.0-0.28","5b184f9768a5ed0001734190","C3","batch3","","null","<p class=block-text>Trial 29 out of 78</p>","null","pattern_show_trial_num","","","","","","","","","","","","","","","","","","","","","","","","",""
"","","","","","image-keyboard-response","78","230093","0.0-2.0-5.0-1.28","5b184f9768a5ed0001734190","C3","batch3","","797.5","stim/yes_17_ver_b1_b.png","f","pattern_response","true","f","pattern_46","797.5","true","27","","","","","","","","","","","","","","","","","","",""
"","","","","","html-keyboard-response","79","231417","0.0-2.0-5.0-0.29","5b184f9768a5ed0001734190","C3","batch3","","null","<p class=block-text>Trial 30 out of 78</p>","null","pattern_show_trial_num","","","","","","","","","","","","","","","","","","","","","","","","",""
"","","","","","image-keyboard-response","80","233845","0.0-2.0-5.0-1.29","5b184f9768a5ed0001734190","C3","batch3","","2426.5999999996275","stim/no_49_2_b.png","j","pattern_response","true","j","pattern_29","2426.5999999996275","true","28","","","","","","","","","","","","","","","","","","",""
"","","","","","html-keyboard-response","81","235160","0.0-2.0-5.0-0.30","5b184f9768a5ed0001734190","C3","batch3","","null","<p class=block-text>Trial 31 out of 78</p>","null","pattern_show_trial_num","","","","","","","","","","","","","","","","","","","","","","","","",""
"","","","","","image-keyboard-response","82","237052","0.0-2.0-5.0-1.30","5b184f9768a5ed0001734190","C3","batch3","","1891.0999999996275","stim/yes_46_ver_b1_b.png","f","pattern_response","true","f","pattern_68","1891.0999999996275","true","29","","","","","","","","","","","","","","","","","","",""
"","","","","","html-keyboard-response","83","238359","0.0-2.0-5.0-0.31","5b184f9768a5ed0001734190","C3","batch3","","null","<p class=block-text>Trial 32 out of 78</p>","null","pattern_show_trial_num","","","","","","","","","","","","","","","","","","","","","","","","",""
"","","","","","image-keyboard-response","84","239189","0.0-2.0-5.0-1.31","5b184f9768a5ed0001734190","C3","batch3","","829","stim/no_12_1.png","j","pattern_response","true","j","pattern_01","829","true","30","","","","","","","","","","","","","","","","","","",""
"","","","","","html-keyboard-response","85","240513","0.0-2.0-5.0-0.32","5b184f9768a5ed0001734190","C3","batch3","","null","<p class=block-text>Trial 33 out of 78</p>","null","pattern_show_trial_num","","","","","","","","","","","","","","","","","","","","","","","","",""
"","","","","","image-keyboard-response","86","241158","0.0-2.0-5.0-1.32","5b184f9768a5ed0001734190","C3","batch3","","644","stim/yes_15_dia_b1u_b.png","f","pattern_response","true","f","pattern_44","644","true","31","","","","","","","","","","","","","","","","","","",""
"","","","","","html-keyboard-response","87","242476","0.0-2.0-5.0-0.33","5b184f9768a5ed0001734190","C3","batch3","","null","<p class=block-text>Trial 34 out of 78</p>","null","pattern_show_trial_num","","","","","","","","","","","","","","","","","","","","","","","","",""
"","","","","","image-keyboard-response","88","243101","0.0-2.0-5.0-1.33","5b184f9768a5ed0001734190","C3","batch3","","624.1000000014901","stim/yes_12_hor_w1_w.png","f","pattern_response","true","f","pattern_42","624.1000000014901","true","32","","","","","","","","","","","","","","","","","","",""
"","","","","","html-keyboard-response","89","244424","0.0-2.0-5.0-0.34","5b184f9768a5ed0001734190","C3","batch3","","null","<p class=block-text>Trial 35 out of 78</p>","null","pattern_show_trial_num","","","","","","","","","","","","","","","","","","","","","","","","",""
"","","","","","image-keyboard-response","90","246765","0.0-2.0-5.0-1.34","5b184f9768a5ed0001734190","C3","batch3","","2339.5999999996275","stim/no_28_2.png","j","pattern_response","true","j","pattern_11","2339.5999999996275","true","33","","","","","","","","","","","","","","","","","","",""
"","","","","","html-keyboard-response","91","248082","0.0-2.0-5.0-0.35","5b184f9768a5ed0001734190","C3","batch3","","null","<p class=block-text>Trial 36 out of 78</p>","null","pattern_show_trial_num","","","","","","","","","","","","","","","","","","","","","","","","",""
"","","","","","image-keyboard-response","92","248996","0.0-2.0-5.0-1.35","5b184f9768a5ed0001734190","C3","batch3","","913.8999999985099","stim/no_15_1_w.png","j","pattern_response","true","j","pattern_03","913.8999999985099","true","34","","","","","","","","","","","","","","","","","","",""
"","","","","","html-keyboard-response","93","250319","0.0-2.0-5.0-0.36","5b184f9768a5ed0001734190","C3","batch3","","null","<p class=block-text>Trial 37 out of 78</p>","null","pattern_show_trial_num","","","","","","","","","","","","","","","","","","","","","","","","",""
"","","","","","image-keyboard-response","94","254469","0.0-2.0-5.0-1.36","5b184f9768a5ed0001734190","C3","batch3","","4149.5","stim/no_58_1_w.png","j","pattern_response","true","j","pattern_35","4149.5","true","35","","","","","","","","","","","","","","","","","","",""
"","","","","","html-keyboard-response","95","255780","0.0-2.0-5.0-0.37","5b184f9768a5ed0001734190","C3","batch3","","null","<p class=block-text>Trial 38 out of 78</p>","null","pattern_show_trial_num","","","","","","","","","","","","","","","","","","","","","","","","",""
"","","","","","image-keyboard-response","96","258620","0.0-2.0-5.0-1.37","5b184f9768a5ed0001734190","C3","batch3","","2838.9000000003725","stim/no_33_1_b.png","j","pattern_response","true","j","pattern_15","2838.9000000003725","true","36","","","","","","","","","","","","","","","","","","",""
"","","","","","html-keyboard-response","97","259936","0.0-2.0-5.0-0.38","5b184f9768a5ed0001734190","C3","batch3","","null","<p class=block-text>Trial 39 out of 78</p>","null","pattern_show_trial_num","","","","","","","","","","","","","","","","","","","","","","","","",""
"","","","","","image-keyboard-response","98","262188","0.0-2.0-5.0-1.38","5b184f9768a5ed0001734190","C3","batch3","","2251.4000000003725","stim/no_30_1_b.png","j","pattern_response","true","j","pattern_13","2251.4000000003725","true","37","","","","","","","","","","","","","","","","","","",""
"","","","","","image-keyboard-response","99","264781","0.0-2.0-6.0","5b184f9768a5ed0001734190","C3","batch3","","2082.0999999996275","stim/empty_board.png","j","attention_check","true","j","","","","","500","[""f"",""j""]","","","","","","","","","","","","","","","","",""
"","","","","","html-keyboard-response","100","265589","0.0-2.0-7.0-0.0","5b184f9768a5ed0001734190","C3","batch3","","null","<p class=block-text>Trial 40 out of 78</p>","null","pattern_show_trial_num","","","","","","","","","","","","","","","","","","","","","","","","",""
"","","","","","image-keyboard-response","101","267988","0.0-2.0-7.0-1.0","5b184f9768a5ed0001734190","C3","batch3","","2398.2000000011176","stim/yes_50_dia_w1.png","f","pattern_response","true","f","pattern_71","2398.2000000011176","true","38","","","","","","","","","","","","","","","","","","",""
"","","","","","html-keyboard-response","102","269301","0.0-2.0-7.0-0.1","5b184f9768a5ed0001734190","C3","batch3","","null","<p class=block-text>Trial 41 out of 78</p>","null","pattern_show_trial_num","","","","","","","","","","","","","","","","","","","","","","","","",""
"","","","","","image-keyboard-response","103","270596","0.0-2.0-7.0-1.1","5b184f9768a5ed0001734190","C3","batch3","","1294.4000000003725","stim/yes_48_dia_w1_w.png","f","pattern_response","true","f","pattern_69","1294.4000000003725","true","39","","","","","","","","","","","","","","","","","","",""
"","","","","","html-keyboard-response","104","271921","0.0-2.0-7.0-0.2","5b184f9768a5ed0001734190","C3","batch3","","null","<p class=block-text>Trial 42 out of 78</p>","null","pattern_show_trial_num","","","","","","","","","","","","","","","","","","","","","","","","",""
"","","","","","image-keyboard-response","105","274853","0.0-2.0-7.0-1.2","5b184f9768a5ed0001734190","C3","batch3","","2930.5","stim/no_48_1_w.png","j","pattern_response","true","j","pattern_28","2930.5","true","40","","","","","","","","","","","","","","","","","","",""
"","","","","","html-keyboard-response","106","276172","0.0-2.0-7.0-0.3","5b184f9768a5ed0001734190","C3","batch3","","null","<p class=block-text>Trial 43 out of 78</p>","null","pattern_show_trial_num","","","","","","","","","","","","","","","","","","","","","","","","",""
"","","","","","image-keyboard-response","107","277868","0.0-2.0-7.0-1.3","5b184f9768a5ed0001734190","C3","batch3","","1694.7000000011176","stim/no_29_1_b.png","j","pattern_response","true","j","pattern_12","1694.7000000011176","true","41","","","","","","","","","","","","","","","","","","",""
"","","","","","html-keyboard-response","108","279193","0.0-2.0-7.0-0.4","5b184f9768a5ed0001734190","C3","batch3","","null","<p class=block-text>Trial 44 out of 78</p>","null","pattern_show_trial_num","","","","","","","","","","","","","","","","","","","","","","","","",""
"","","","","","image-keyboard-response","109","282316","0.0-2.0-7.0-1.4","5b184f9768a5ed0001734190","C3","batch3","","3122.0999999996275","stim/no_36_2_w.png","j","pattern_response","true","j","pattern_18","3122.0999999996275","true","42","","","","","","","","","","","","","","","","","","",""
"","","","","","html-keyboard-response","110","283640","0.0-2.0-7.0-0.5","5b184f9768a5ed0001734190","C3","batch3","","null","<p class=block-text>Trial 45 out of 78</p>","null","pattern_show_trial_num","","","","","","","","","","","","","","","","","","","","","","","","",""
"","","","","","image-keyboard-response","111","284715","0.0-2.0-7.0-1.5","5b184f9768a5ed0001734190","C3","batch3","","1074.5","stim/yes_29_ver_w1.png","f","pattern_response","true","f","pattern_53","1074.5","true","43","","","","","","","","","","","","","","","","","","",""
"","","","","","html-keyboard-response","112","286039","0.0-2.0-7.0-0.6","5b184f9768a5ed0001734190","C3","batch3","","null","<p class=block-text>Trial 46 out of 78</p>","null","pattern_show_trial_num","","","","","","","","","","","","","","","","","","","","","","","","",""
"","","","","","image-keyboard-response","113","286996","0.0-2.0-7.0-1.6","5b184f9768a5ed0001734190","C3","batch3","","956.3000000007451","stim/no_17_1_w.png","f","pattern_response","false","j","pattern_04","956.3000000007451","false","43","","","","","","","","","","","","","","","","","","",""
"","","","","","html-keyboard-response","114","288324","0.0-2.0-7.0-0.7","5b184f9768a5ed0001734190","C3","batch3","","null","<p class=block-text>Trial 47 out of 78</p>","null","pattern_show_trial_num","","","","","","","","","","","","","","","","","","","","","","","","",""
"","","","","","image-keyboard-response","115","289251","0.0-2.0-7.0-1.7","5b184f9768a5ed0001734190","C3","batch3","","926.2000000011176","stim/yes_28_ver_b1.png","f","pattern_response","true","f","pattern_51","926.2000000011176","true","44","","","","","","","","","","","","","","","","","","",""
"","","","","","html-keyboard-response","116","290575","0.0-2.0-7.0-0.8","5b184f9768a5ed0001734190","C3","batch3","","null","<p class=block-text>Trial 48 out of 78</p>","null","pattern_show_trial_num","","","","","","","","","","","","","","","","","","","","","","","","",""
"","","","","","image-keyboard-response","117","291315","0.0-2.0-7.0-1.8","5b184f9768a5ed0001734190","C3","batch3","","739.2000000011176","stim/yes_14_hor_b1_w.png","f","pattern_response","true","f","pattern_43","739.2000000011176","true","45","","","","","","","","","","","","","","","","","","",""
"","","","","","html-keyboard-response","118","292634","0.0-2.0-7.0-0.9","5b184f9768a5ed0001734190","C3","batch3","","null","<p class=block-text>Trial 49 out of 78</p>","null","pattern_show_trial_num","","","","","","","","","","","","","","","","","","","","","","","","",""
"","","","","","image-keyboard-response","119","294739","0.0-2.0-7.0-1.9","5b184f9768a5ed0001734190","C3","batch3","","2104.4000000003725","stim/no_42_1_w.png","f","pattern_response","false","j","pattern_22","2104.4000000003725","false","45","","","","","","","","","","","","","","","","","","",""
"","","","","","html-keyboard-response","120","296054","0.0-2.0-7.0-0.10","5b184f9768a5ed0001734190","C3","batch3","","null","<p class=block-text>Trial 50 out of 78</p>","null","pattern_show_trial_num","","","","","","","","","","","","","","","","","","","","","","","","",""
"","","","","","image-keyboard-response","121","297244","0.0-2.0-7.0-1.10","5b184f9768a5ed0001734190","C3","batch3","","1189.5","stim/no_26_1_w.png","j","pattern_response","true","j","pattern_10","1189.5","true","46","","","","","","","","","","","","","","","","","","",""
"","","","","","html-keyboard-response","122","298563","0.0-2.0-7.0-0.11","5b184f9768a5ed0001734190","C3","batch3","","null","<p class=block-text>Trial 51 out of 78</p>","null","pattern_show_trial_num","","","","","","","","","","","","","","","","","","","","","","","","",""
"","","","","","image-keyboard-response","123","300587","0.0-2.0-7.0-1.11","5b184f9768a5ed0001734190","C3","batch3","","2023.2000000011176","stim/yes_35_dia_b1.png","f","pattern_response","true","f","pattern_57","2023.2000000011176","true","47","","","","","","","","","","","","","","","","","","",""
"","","","","","html-keyboard-response","124","301914","0.0-2.0-7.0-0.12","5b184f9768a5ed0001734190","C3","batch3","","null","<p class=block-text>Trial 52 out of 78</p>","null","pattern_show_trial_num","","","","","","","","","","","","","","","","","","","","","","","","",""
"","","","","","image-keyboard-response","125","304515","0.0-2.0-7.0-1.12","5b184f9768a5ed0001734190","C3","batch3","","2599.5999999996275","stim/no_46_1_b.png","j","pattern_response","true","j","pattern_26","2599.5999999996275","true","48","","","","","","","","","","","","","","","","","","",""
"","","","","","html-keyboard-response","126","305828","0.0-2.0-7.0-0.13","5b184f9768a5ed0001734190","C3","batch3","","null","<p class=block-text>Trial 53 out of 78</p>","null","pattern_show_trial_num","","","","","","","","","","","","","","","","","","","","","","","","",""
"","","","","","image-keyboard-response","127","308643","0.0-2.0-7.0-1.13","5b184f9768a5ed0001734190","C3","batch3","","2813.39999999851","stim/yes_60_ver_b1_b.png","f","pattern_response","true","f","pattern_77","2813.39999999851","true","49","","","","","","","","","","","","","","","","","","",""
"","","","","","html-keyboard-response","128","309967","0.0-2.0-7.0-0.14","5b184f9768a5ed0001734190","C3","batch3","","null","<p class=block-text>Trial 54 out of 78</p>","null","pattern_show_trial_num","","","","","","","","","","","","","","","","","","","","","","","","",""
"","","","","","image-keyboard-response","129","313338","0.0-2.0-7.0-1.14","5b184f9768a5ed0001734190","C3","batch3","","3370.2999999988824","stim/no_62_1_w.png","j","pattern_response","true","j","pattern_36","3370.2999999988824","true","50","","","","","","","","","","","","","","","","","","",""
"","","","","","html-keyboard-response","130","314664","0.0-2.0-7.0-0.15","5b184f9768a5ed0001734190","C3","batch3","","null","<p class=block-text>Trial 55 out of 78</p>","null","pattern_show_trial_num","","","","","","","","","","","","","","","","","","","","","","","","",""
"","","","","","image-keyboard-response","131","316634","0.0-2.0-7.0-1.15","5b184f9768a5ed0001734190","C3","batch3","","1969","stim/no_38_1_b.png","j","pattern_response","true","j","pattern_20","1969","true","51","","","","","","","","","","","","","","","","","","",""
"","","","","","html-keyboard-response","132","317943","0.0-2.0-7.0-0.16","5b184f9768a5ed0001734190","C3","batch3","","null","<p class=block-text>Trial 56 out of 78</p>","null","pattern_show_trial_num","","","","","","","","","","","","","","","","","","","","","","","","",""
"","","","","","image-keyboard-response","133","319682","0.0-2.0-7.0-1.16","5b184f9768a5ed0001734190","C3","batch3","","1738.300000000745","stim/yes_31_hor_b1.png","f","pattern_response","true","f","pattern_55","1738.300000000745","true","52","","","","","","","","","","","","","","","","","","",""
"","","","","","html-keyboard-response","134","321005","0.0-2.0-7.0-0.17","5b184f9768a5ed0001734190","C3","batch3","","null","<p class=block-text>Trial 57 out of 78</p>","null","pattern_show_trial_num","","","","","","","","","","","","","","","","","","","","","","","","",""
"","","","","","image-keyboard-response","135","323474","0.0-2.0-7.0-1.17","5b184f9768a5ed0001734190","C3","batch3","","2468.39999999851","stim/no_32_1_w.png","j","pattern_response","true","j","pattern_14","2468.39999999851","true","53","","","","","","","","","","","","","","","","","","",""
"","","","","","html-keyboard-response","136","324792","0.0-2.0-7.0-0.18","5b184f9768a5ed0001734190","C3","batch3","","null","<p class=block-text>Trial 58 out of 78</p>","null","pattern_show_trial_num","","","","","","","","","","","","","","","","","","","","","","","","",""
"","","","","","image-keyboard-response","137","328490","0.0-2.0-7.0-1.18","5b184f9768a5ed0001734190","C3","batch3","","3697","stim/no_70_2.png","j","pattern_response","true","j","pattern_40","3697","true","54","","","","","","","","","","","","","","","","","","",""
"","","","","","html-keyboard-response","138","329815","0.0-2.0-7.0-0.19","5b184f9768a5ed0001734190","C3","batch3","","null","<p class=block-text>Trial 59 out of 78</p>","null","pattern_show_trial_num","","","","","","","","","","","","","","","","","","","","","","","","",""
"","","","","","image-keyboard-response","139","331034","0.0-2.0-7.0-1.19","5b184f9768a5ed0001734190","C3","batch3","","1218.4000000003725","stim/no_13_2_b.png","j","pattern_response","true","j","pattern_02","1218.4000000003725","true","55","","","","","","","","","","","","","","","","","","",""
"","","","","","html-keyboard-response","140","332357","0.0-2.0-7.0-0.20","5b184f9768a5ed0001734190","C3","batch3","","null","<p class=block-text>Trial 60 out of 78</p>","null","pattern_show_trial_num","","","","","","","","","","","","","","","","","","","","","","","","",""
"","","","","","image-keyboard-response","141","335674","0.0-2.0-7.0-1.20","5b184f9768a5ed0001734190","C3","batch3","","3316","stim/no_44_1.png","j","pattern_response","true","j","pattern_24","3316","true","56","","","","","","","","","","","","","","","","","","",""
"","","","","","html-keyboard-response","142","336993","0.0-2.0-7.0-0.21","5b184f9768a5ed0001734190","C3","batch3","","null","<p class=block-text>Trial 61 out of 78</p>","null","pattern_show_trial_num","","","","","","","","","","","","","","","","","","","","","","","","",""
"","","","","","image-keyboard-response","143","337889","0.0-2.0-7.0-1.21","5b184f9768a5ed0001734190","C3","batch3","","895.4000000003725","stim/yes_22_ver_w1.png","f","pattern_response","true","f","pattern_47","895.4000000003725","true","57","","","","","","","","","","","","","","","","","","",""
"","","","","","html-keyboard-response","144","339215","0.0-2.0-7.0-0.22","5b184f9768a5ed0001734190","C3","batch3","","null","<p class=block-text>Trial 62 out of 78</p>","null","pattern_show_trial_num","","","","","","","","","","","","","","","","","","","","","","","","",""
"","","","","","image-keyboard-response","145","340033","0.0-2.0-7.0-1.22","5b184f9768a5ed0001734190","C3","batch3","","817.6999999992549","stim/yes_45_hor_b2_b.png","f","pattern_response","true","f","pattern_67","817.6999999992549","true","58","","","","","","","","","","","","","","","","","","",""
"","","","","","html-keyboard-response","146","341350","0.0-2.0-7.0-0.23","5b184f9768a5ed0001734190","C3","batch3","","null","<p class=block-text>Trial 63 out of 78</p>","null","pattern_show_trial_num","","","","","","","","","","","","","","","","","","","","","","","","",""
"","","","","","image-keyboard-response","147","344594","0.0-2.0-7.0-1.23","5b184f9768a5ed0001734190","C3","batch3","","3242.7000000011176","stim/yes_43_ver_w1_w.png","j","pattern_response","false","f","pattern_65","3242.7000000011176","false","58","","","","","","","","","","","","","","","","","","",""
"","","","","","html-keyboard-response","148","345918","0.0-2.0-7.0-0.24","5b184f9768a5ed0001734190","C3","batch3","","null","<p class=block-text>Trial 64 out of 78</p>","null","pattern_show_trial_num","","","","","","","","","","","","","","","","","","","","","","","","",""
"","","","","","image-keyboard-response","149","348385","0.0-2.0-7.0-1.24","5b184f9768a5ed0001734190","C3","batch3","","2466.4000000003725","stim/yes_40_dia_b1_b.png","j","pattern_response","false","f","pattern_63","2466.4000000003725","false","58","","","","","","","","","","","","","","","","","","",""
"","","","","","html-keyboard-response","150","349708","0.0-2.0-7.0-0.25","5b184f9768a5ed0001734190","C3","batch3","","null","<p class=block-text>Trial 65 out of 78</p>","null","pattern_show_trial_num","","","","","","","","","","","","","","","","","","","","","","","","",""
"","","","","","image-keyboard-response","151","350881","0.0-2.0-7.0-1.25","5b184f9768a5ed0001734190","C3","batch3","","1172.0999999996275","stim/yes_52_ver_w1.png","f","pattern_response","true","f","pattern_73","1172.0999999996275","true","59","","","","","","","","","","","","","","","","","","",""
"","","","","","html-keyboard-response","152","352202","0.0-2.0-7.0-0.26","5b184f9768a5ed0001734190","C3","batch3","","null","<p class=block-text>Trial 66 out of 78</p>","null","pattern_show_trial_num","","","","","","","","","","","","","","","","","","","","","","","","",""
"","","","","","image-keyboard-response","153","357330","0.0-2.0-7.0-1.26","5b184f9768a5ed0001734190","C3","batch3","","5126.5999999996275","stim/no_65_1_b.png","j","pattern_response","true","j","pattern_38","5126.5999999996275","true","60","","","","","","","","","","","","","","","","","","",""
"","","","","","html-keyboard-response","154","358647","0.0-2.0-7.0-0.27","5b184f9768a5ed0001734190","C3","batch3","","null","<p class=block-text>Trial 67 out of 78</p>","null","pattern_show_trial_num","","","","","","","","","","","","","","","","","","","","","","","","",""
"","","","","","image-keyboard-response","155","359585","0.0-2.0-7.0-1.27","5b184f9768a5ed0001734190","C3","batch3","","936.1999999992549","stim/yes_17_dia_w1.png","f","pattern_response","true","f","pattern_45","936.1999999992549","true","61","","","","","","","","","","","","","","","","","","",""
"","","","","","html-keyboard-response","156","360888","0.0-2.0-7.0-0.28","5b184f9768a5ed0001734190","C3","batch3","","null","<p class=block-text>Trial 68 out of 78</p>","null","pattern_show_trial_num","","","","","","","","","","","","","","","","","","","","","","","","",""
"","","","","","image-keyboard-response","157","363593","0.0-2.0-7.0-1.28","5b184f9768a5ed0001734190","C3","batch3","","2704","stim/yes_37_dia_w1.png","j","pattern_response","false","f","pattern_59","2704","false","61","","","","","","","","","","","","","","","","","","",""
"","","","","","html-keyboard-response","158","364918","0.0-2.0-7.0-0.29","5b184f9768a5ed0001734190","C3","batch3","","null","<p class=block-text>Trial 69 out of 78</p>","null","pattern_show_trial_num","","","","","","","","","","","","","","","","","","","","","","","","",""
"","","","","","image-keyboard-response","159","365848","0.0-2.0-7.0-1.29","5b184f9768a5ed0001734190","C3","batch3","","929.3000000007451","stim/yes_25_hor_b1_b.png","f","pattern_response","true","f","pattern_49","929.3000000007451","true","62","","","","","","","","","","","","","","","","","","",""
"","","","","","html-keyboard-response","160","367156","0.0-2.0-7.0-0.30","5b184f9768a5ed0001734190","C3","batch3","","null","<p class=block-text>Trial 70 out of 78</p>","null","pattern_show_trial_num","","","","","","","","","","","","","","","","","","","","","","","","",""
"","","","","","image-keyboard-response","161","368017","0.0-2.0-7.0-1.30","5b184f9768a5ed0001734190","C3","batch3","","860.1999999992549","stim/yes_38_hor_b1_b.png","f","pattern_response","true","f","pattern_61","860.1999999992549","true","63","","","","","","","","","","","","","","","","","","",""
"","","","","","html-keyboard-response","162","369333","0.0-2.0-7.0-0.31","5b184f9768a5ed0001734190","C3","batch3","","null","<p class=block-text>Trial 71 out of 78</p>","null","pattern_show_trial_num","","","","","","","","","","","","","","","","","","","","","","","","",""
"","","","","","image-keyboard-response","163","370368","0.0-2.0-7.0-1.31","5b184f9768a5ed0001734190","C3","batch3","","1034.4000000003725","stim/yes_55_hor_w1_w.png","f","pattern_response","true","f","pattern_75","1034.4000000003725","true","64","","","","","","","","","","","","","","","","","","",""
"","","","","","html-keyboard-response","164","371699","0.0-2.0-7.0-0.32","5b184f9768a5ed0001734190","C3","batch3","","null","<p class=block-text>Trial 72 out of 78</p>","null","pattern_show_trial_num","","","","","","","","","","","","","","","","","","","","","","","","",""
"","","","","","image-keyboard-response","165","373937","0.0-2.0-7.0-1.32","5b184f9768a5ed0001734190","C3","batch3","","2236.9000000003725","stim/yes_67_hor_b1.png","f","pattern_response","true","f","pattern_79","2236.9000000003725","true","65","","","","","","","","","","","","","","","","","","",""
"","","","","","html-keyboard-response","166","375248","0.0-2.0-7.0-0.33","5b184f9768a5ed0001734190","C3","batch3","","null","<p class=block-text>Trial 73 out of 78</p>","null","pattern_show_trial_num","","","","","","","","","","","","","","","","","","","","","","","","",""
"","","","","","image-keyboard-response","167","376720","0.0-2.0-7.0-1.33","5b184f9768a5ed0001734190","C3","batch3","","1471.2000000011176","stim/no_23_1.png","j","pattern_response","true","j","pattern_08","1471.2000000011176","true","66","","","","","","","","","","","","","","","","","","",""
"","","","","","html-keyboard-response","168","378049","0.0-2.0-7.0-0.34","5b184f9768a5ed0001734190","C3","batch3","","null","<p class=block-text>Trial 74 out of 78</p>","null","pattern_show_trial_num","","","","","","","","","","","","","","","","","","","","","","","","",""
"","","","","","image-keyboard-response","169","379697","0.0-2.0-7.0-1.34","5b184f9768a5ed0001734190","C3","batch3","","1647.199999999255","stim/no_34_1_b.png","j","pattern_response","true","j","pattern_16","1647.199999999255","true","67","","","","","","","","","","","","","","","","","","",""
"","","","","","html-keyboard-response","170","381009","0.0-2.0-7.0-0.35","5b184f9768a5ed0001734190","C3","batch3","","null","<p class=block-text>Trial 75 out of 78</p>","null","pattern_show_trial_num","","","","","","","","","","","","","","","","","","","","","","","","",""
"","","","","","image-keyboard-response","171","383488","0.0-2.0-7.0-1.35","5b184f9768a5ed0001734190","C3","batch3","","2477.699999999255","stim/no_50_1.png","j","pattern_response","true","j","pattern_30","2477.699999999255","true","68","","","","","","","","","","","","","","","","","","",""
"","","","","","html-keyboard-response","172","384800","0.0-2.0-7.0-0.36","5b184f9768a5ed0001734190","C3","batch3","","null","<p class=block-text>Trial 76 out of 78</p>","null","pattern_show_trial_num","","","","","","","","","","","","","","","","","","","","","","","","",""
"","","","","","image-keyboard-response","173","387656","0.0-2.0-7.0-1.36","5b184f9768a5ed0001734190","C3","batch3","","2854.60000000149","stim/no_55_1_w.png","j","pattern_response","true","j","pattern_34","2854.60000000149","true","69","","","","","","","","","","","","","","","","","","",""
"","","","","","html-keyboard-response","174","388973","0.0-2.0-7.0-0.37","5b184f9768a5ed0001734190","C3","batch3","","null","<p class=block-text>Trial 77 out of 78</p>","null","pattern_show_trial_num","","","","","","","","","","","","","","","","","","","","","","","","",""
"","","","","","image-keyboard-response","175","390416","0.0-2.0-7.0-1.37","5b184f9768a5ed0001734190","C3","batch3","","1442.5","stim/no_20_1_w.png","j","pattern_response","true","j","pattern_06","1442.5","true","70","","","","","","","","","","","","","","","","","","",""
"","","","","","html-keyboard-response","176","391724","0.0-2.0-7.0-0.38","5b184f9768a5ed0001734190","C3","batch3","","null","<p class=block-text>Trial 78 out of 78</p>","null","pattern_show_trial_num","","","","","","","","","","","","","","","","","","","","","","","","",""
"","","","","","image-keyboard-response","177","394783","0.0-2.0-7.0-1.38","5b184f9768a5ed0001734190","C3","batch3","","3058.9000000003725","stim/no_52_1.png","j","pattern_response","true","j","pattern_32","3058.9000000003725","true","71","","","","","","","","","","","","","","","","","","",""
"","","","","","html-button-response","178","401702","0.0-2.0-8.0","5b184f9768a5ed0001734190","C3","batch3","","6411.300000000745","<p class = block-text>This concludes the 4-in-a-row detection game.Thank you for your responses!<br>
            You responded correctly on 91% of the trials.<br>
            When you are ready, press ""Continue"" button to continue </p>","0","","","","","","","","","","","","","","","","","","","","","","","","","",""
"true","","","","","fullscreen","179","404801","0.0-3.0-0.0","5b184f9768a5ed0001734190","C3","batch3","","","","","","","","","","","","","","","","","","","","","","","","","","","","","",""
"","","","","","instructions","180","471338","0.0-3.0-1.0-0.0-0.0","5b184f9768a5ed0001734190","C3","batch3","[{""page_index"":0,""viewing_time"":11818.800000000745},{""page_index"":1,""viewing_time"":6817.4000000003725},{""page_index"":2,""viewing_time"":7438.0999999996275},{""page_index"":3,""viewing_time"":13029.900000000373},{""page_index"":4,""viewing_time"":8785.599999999627},{""page_index"":5,""viewing_time"":13370},{""page_index"":6,""viewing_time"":5276.699999999255}]","66536.70000000112","","","tol-instructions","","","","","","","","","","","","","","","","","","","","","","","","",""
"","","","","","html-button-response","181","472400","0.0-3.0-1.0-1.0-0.0","5b184f9768a5ed0001734190","C3","batch3","","1061.300000000745","<p class=block-text> Let's answer a few questions <br>","0","tol_enter_quiz","","","","","","","","","","","","","","","","","","","","","","","","",""
"","","","","","html-button-response","182","476797","0.0-3.0-1.0-1.0-1.0","5b184f9768a5ed0001734190","C3","batch3","","4397","<p class = block-text>True or False: You can only move the ball on top of a peg. <br></p>","1","tol_quiz","false","","","","","","","","","","","","","","","","","","","","","","","",""
"","","","","","html-button-response","183","478067","0.0-3.0-1.0-1.0-2.0","5b184f9768a5ed0001734190","C3","batch3","","1268.9000000003725","<p class = block-text>Incorrect. Remember, you can only move the ball on top of a peg.</p>","0","tol_quiz_feedback","","","","","","","","","","","","","","","","","","","","","","","","",""
"","","","","","html-button-response","184","480325","0.0-3.0-1.0-1.0-3.0","5b184f9768a5ed0001734190","C3","batch3","","2257","<p class = block-text>True or False: You should try to match your board with the target board with fewest moves possible. <br></p>","0","tol_quiz","true","","","","","","","","","","","","","","","","","","","","","","","",""
"","","","","","html-button-response","185","480979","0.0-3.0-1.0-1.0-4.0","5b184f9768a5ed0001734190","C3","batch3","","653.5999999996275","<p class = block-text>Correct! </p>","0","tol_quiz_feedback","","","","","","","","","","","","","","","","","","","","","","","","",""
"","","","","","html-button-response","186","483265","0.0-3.0-1.0-2.0-0.0","5b184f9768a5ed0001734190","C3","batch3","","2284.9000000003725","<p class = block-text>You made too many incorrect choices.</p><p class = block-text>You will now repeat the instructions and quiz</p>","0","","","","","","","","","","","","","","","","","","","","","","","","","",""
"","","","","","instructions","187","489928","0.0-3.0-1.1-0.1-0.1","5b184f9768a5ed0001734190","C3","batch3","[{""page_index"":0,""viewing_time"":1249.5},{""page_index"":1,""viewing_time"":550.6000000014901},{""page_index"":2,""viewing_time"":383.09999999962747},{""page_index"":3,""viewing_time"":1393.199999999255},{""page_index"":4,""viewing_time"":717.0999999996275},{""page_index"":5,""viewing_time"":418.40000000037253},{""page_index"":6,""viewing_time"":1950.5999999996275}]","6662.5","","","tol-instructions","","","","","","","","","","","","","","","","","","","","","","","","",""
"","","","","","html-button-response","188","490603","0.0-3.0-1.1-1.1-0.1","5b184f9768a5ed0001734190","C3","batch3","","674.3000000007451","<p class=block-text> Let's answer a few questions <br>","0","tol_enter_quiz","","","","","","","","","","","","","","","","","","","","","","","","",""
"","","","","","html-button-response","189","493377","0.0-3.0-1.1-1.1-1.1","5b184f9768a5ed0001734190","C3","batch3","","2773.7000000011176","<p class = block-text>True or False: You can only move the ball on top of a peg. <br></p>","0","tol_quiz","true","","","","","","","","","","","","","","","","","","","","","","","",""
"","","","","","html-button-response","190","494160","0.0-3.0-1.1-1.1-2.1","5b184f9768a5ed0001734190","C3","batch3","","782.3000000007451","<p class = block-text>Correct! You can only move the ball on top of a peg.</p>","0","tol_quiz_feedback","","","","","","","","","","","","","","","","","","","","","","","","",""
"","","","","","html-button-response","191","495808","0.0-3.0-1.1-1.1-3.1","5b184f9768a5ed0001734190","C3","batch3","","1647.0999999996275","<p class = block-text>True or False: You should try to match your board with the target board with fewest moves possible. <br></p>","0","tol_quiz","true","","","","","","","","","","","","","","","","","","","","","","","",""
"","","","","","html-button-response","192","496663","0.0-3.0-1.1-1.1-4.1","5b184f9768a5ed0001734190","C3","batch3","","854.7000000011176","<p class = block-text>Correct! </p>","0","tol_quiz_feedback","","","","","","","","","","","","","","","","","","","","","","","","",""
"","","","","","html-button-response","193","499119","0.0-3.0-2.0","5b184f9768a5ed0001734190","C3","batch3","","2454.9000000003725","<p class=block-text> Now that you've understood the game, let's practice a few easier examples before we start!<br> <br>","0","","","","","","","","","","","","","","","","","","","","","","","","","",""
"","","","","","single-stim-button","194","501410","0.0-3.0-3.0-0.0","5b184f9768a5ed0001734190","C3","batch3","","2291","","","tol_practice","","","","","","","","","tol_peg_2","2291","2291","0","[[1,2,0],[0,0],[0]]","1","[[1,2,0],[0,0],[3]]","practice","2291","","","","","","","",""
"","","","","","single-stim-button","195","503369","0.0-3.0-3.0-1.0","5b184f9768a5ed0001734190","C3","batch3","","1957","","","tol_practice","","","","","","","","","tol_peg_3","1957","1957","0","[[1,2,0],[0,0],[3]]","1","[[1,2,0],[0,0],[3]]","practice","1957","","","","","","","",""
"","","","","","poldrack-single-stim","196","504382","0.0-3.0-4.0","5b184f9768a5ed0001734190","C3","batch3","","-1","","","tol_feedback","true","","","","","","","","","1000","1000","500","","","","","","-1","none","true","","0","","",""
"","","","","","single-stim-button","197","512310","0.0-3.0-5.0-0.0","5b184f9768a5ed0001734190","C3","batch3","","7928","","","tol_practice","","","","","","","","","tol_peg_1","7928","7928","0","[[1,0,0],[3,0],[0]]","2","[[0,0,0],[3,1],[2]]","practice","7928","","","","","","","",""
"","","","","","single-stim-button","198","513829","0.0-3.0-5.0-1.0","5b184f9768a5ed0001734190","C3","batch3","","1519","","","tol_practice","","","","","","","","","tol_peg_3","1519","1519","0","[[1,0,0],[3,0],[2]]","2","[[0,0,0],[3,1],[2]]","practice","1519","","","","","","","",""
"","","","","","single-stim-button","199","514651","0.0-3.0-5.1-0.1","5b184f9768a5ed0001734190","C3","batch3","","822","","","tol_practice","","","","","","","","","tol_peg_1","822","822","0","[[0,0,0],[3,0],[2]]","3","[[0,0,0],[3,1],[2]]","practice","822","","","","","","","",""
"","","","","","single-stim-button","200","515299","0.0-3.0-5.1-1.1","5b184f9768a5ed0001734190","C3","batch3","","648","","","tol_practice","","","","","","","","","tol_peg_2","648","648","0","[[0,0,0],[3,1],[2]]","3","[[0,0,0],[3,1],[2]]","practice","648","","","","","","","",""
"","","","","","poldrack-single-stim","201","516310","0.0-3.0-6.0","5b184f9768a5ed0001734190","C3","batch3","","-1","","","tol_feedback","true","","","","","","","","","1000","1000","500","","","","","","-1","none","true","","0","","",""
"","","","","","single-stim-button","202","521619","0.0-3.0-7.0-0.0","5b184f9768a5ed0001734190","C3","batch3","","5309","","","tol_practice","","","","","","","","","tol_peg_2","5309","5309","0","[[1,2,0],[0,0],[0]]","4","[[1,0,0],[2,0],[3]]","practice","5309","","","","","","","",""
"","","","","","single-stim-button","203","522412","0.0-3.0-7.0-1.0","5b184f9768a5ed0001734190","C3","batch3","","792","","","tol_practice","","","","","","","","","tol_peg_3","792","792","0","[[1,2,0],[0,0],[3]]","4","[[1,0,0],[2,0],[3]]","practice","792","","","","","","","",""
"","","","","","single-stim-button","204","523272","0.0-3.0-7.1-0.1","5b184f9768a5ed0001734190","C3","batch3","","860","","","tol_practice","","","","","","","","","tol_peg_1","860","860","0","[[1,0,0],[0,0],[3]]","5","[[1,0,0],[2,0],[3]]","practice","860","","","","","","","",""
"","","","","","single-stim-button","205","523879","0.0-3.0-7.1-1.1","5b184f9768a5ed0001734190","C3","batch3","","606","","","tol_practice","","","","","","","","","tol_peg_2","606","606","0","[[1,0,0],[2,0],[3]]","5","[[1,0,0],[2,0],[3]]","practice","606","","","","","","","",""
"","","","","","poldrack-single-stim","206","524880","0.0-3.0-8.0","5b184f9768a5ed0001734190","C3","batch3","","-1","","","tol_feedback","true","","","","","","","","","1000","1000","500","","","","","","-1","none","true","","0","","",""
"","","","","","html-button-response","207","527757","0.0-3.0-9.0","5b184f9768a5ed0001734190","C3","batch3","","2876.5999999996275","<div class = centerbox><p class = center-block-text>Great job! You are done with practice trials<br>You are about to start official trials.<br> <br> Problem <strong>1</strong> out of 25 problems</p></div>","0","tol_instruction","","","","","","","","","","","","","","","","","","","","","","","","",""
"","","","","","single-stim-button","208","538468","0.0-3.0-10.0-0.0","5b184f9768a5ed0001734190","C3","batch3","","9700","","","tol_tohand","","","","","","","","","tol_peg_1","9700","9700","0","[[1,0,0],[3,0],[0]]","1","[[1,3,0],[2,0],[0]]","0","0","","","","","","3","",""
"","","","","","single-stim-button","209","540521","0.0-3.0-10.0-1.0","5b184f9768a5ed0001734190","C3","batch3","","2052","","","tol_toboard","","","","","","","","","tol_peg_3","2052","2052","0","[[1,0,0],[3,0],[2]]","1","[[1,3,0],[2,0],[0]]","0","0","","","","","","3","",""
"","","","","","single-stim-button","210","541166","0.0-3.0-10.1-0.1","5b184f9768a5ed0001734190","C3","batch3","","643","","","tol_tohand","","","","","","","","","tol_peg_2","643","643","0","[[1,0,0],[0,0],[2]]","2","[[1,3,0],[2,0],[0]]","0","0","","","","","","3","",""
"","","","","","single-stim-button","211","541913","0.0-3.0-10.1-1.1","5b184f9768a5ed0001734190","C3","batch3","","747","","","tol_toboard","","","","","","","","","tol_peg_1","747","747","0","[[1,3,0],[0,0],[2]]","2","[[1,3,0],[2,0],[0]]","0","0","","","","","","3","",""
"","","","","","single-stim-button","212","542526","0.0-3.0-10.2-0.2","5b184f9768a5ed0001734190","C3","batch3","","612","","","tol_tohand","","","","","","","","","tol_peg_3","612","612","0","[[1,3,0],[0,0],[0]]","3","[[1,3,0],[2,0],[0]]","0","0","","","","","","3","",""
"","","","","","single-stim-button","213","543026","0.0-3.0-10.2-1.2","5b184f9768a5ed0001734190","C3","batch3","","500","","","tol_toboard","","","","","","","","","tol_peg_2","500","500","0","[[1,3,0],[2,0],[0]]","3","[[1,3,0],[2,0],[0]]","0","0","","","","","","3","",""
"","","","","","poldrack-single-stim","214","544030","0.0-3.0-11.0","5b184f9768a5ed0001734190","C3","batch3","","-1","","","tol_feedback","true","","","","","","","","","1000","1000","500","","","","","","-1","none","true","9700","10955","","",""
"","","","","","html-button-response","215","545242","0.0-3.0-12.0","5b184f9768a5ed0001734190","C3","batch3","","1211.199999999255","<div class = centerbox><p class = center-block-text>problem <strong>2</strong> out of 25 problems</p></div>","0","tol_trial_num","","","","","","","","","","","","","","","","","","","","","","","","",""
"","","","","","single-stim-button","216","552335","0.0-3.0-13.0-0.0","5b184f9768a5ed0001734190","C3","batch3","","7092","","","tol_tohand","","","","","","","","","tol_peg_1","7092","7092","0","[[1,0,0],[3,0],[0]]","1","[[2,1,3],[0,0],[0]]","1","0","","","","","","5","",""
"","","","","","single-stim-button","217","554109","0.0-3.0-13.0-1.0","5b184f9768a5ed0001734190","C3","batch3","","1774","","","tol_toboard","","","","","","","","","tol_peg_3","1774","1774","0","[[1,0,0],[3,0],[2]]","1","[[2,1,3],[0,0],[0]]","1","0","","","","","","5","",""
"","","","","","single-stim-button","218","555189","0.0-3.0-13.1-0.1","5b184f9768a5ed0001734190","C3","batch3","","1079","","","tol_tohand","","","","","","","","","tol_peg_1","1079","1079","0","[[0,0,0],[3,0],[2]]","2","[[2,1,3],[0,0],[0]]","1","0","","","","","","5","",""
"","","","","","single-stim-button","219","557195","0.0-3.0-13.1-1.1","5b184f9768a5ed0001734190","C3","batch3","","2005","","","tol_toboard","","","","","","","","","tol_peg_2","2005","2005","0","[[0,0,0],[3,1],[2]]","2","[[2,1,3],[0,0],[0]]","1","0","","","","","","5","",""
"","","","","","single-stim-button","220","558026","0.0-3.0-13.2-0.2","5b184f9768a5ed0001734190","C3","batch3","","831","","","tol_tohand","","","","","","","","","tol_peg_3","831","831","0","[[0,0,0],[3,1],[0]]","3","[[2,1,3],[0,0],[0]]","1","0","","","","","","5","",""
"","","","","","single-stim-button","221","559425","0.0-3.0-13.2-1.2","5b184f9768a5ed0001734190","C3","batch3","","1398","","","tol_toboard","","","","","","","","","tol_peg_1","1398","1398","0","[[2,0,0],[3,1],[0]]","3","[[2,1,3],[0,0],[0]]","1","0","","","","","","5","",""
"","","","","","single-stim-button","222","560220","0.0-3.0-13.3-0.3","5b184f9768a5ed0001734190","C3","batch3","","795","","","tol_tohand","","","","","","","","","tol_peg_2","795","795","0","[[2,0,0],[3,0],[0]]","4","[[2,1,3],[0,0],[0]]","1","0","","","","","","5","",""
"","","","","","single-stim-button","223","561061","0.0-3.0-13.3-1.3","5b184f9768a5ed0001734190","C3","batch3","","841","","","tol_toboard","","","","","","","","","tol_peg_1","841","841","0","[[2,1,0],[3,0],[0]]","4","[[2,1,3],[0,0],[0]]","1","0","","","","","","5","",""
"","","","","","single-stim-button","224","561550","0.0-3.0-13.4-0.4","5b184f9768a5ed0001734190","C3","batch3","","489","","","tol_tohand","","","","","","","","","tol_peg_2","489","489","0","[[2,1,0],[0,0],[0]]","5","[[2,1,3],[0,0],[0]]","1","0","","","","","","5","",""
"","","","","","single-stim-button","225","562012","0.0-3.0-13.4-1.4","5b184f9768a5ed0001734190","C3","batch3","","462","","","tol_toboard","","","","","","","","","tol_peg_1","462","462","0","[[2,1,3],[0,0],[0]]","5","[[2,1,3],[0,0],[0]]","1","0","","","","","","5","",""
"","","","","","poldrack-single-stim","226","563013","0.0-3.0-14.0","5b184f9768a5ed0001734190","C3","batch3","","-1","","","tol_feedback","true","","","","","","","","","1000","1000","500","","","","","","-1","none","true","7092","10286","","",""
"","","","","","html-button-response","227","564074","0.0-3.0-15.0","5b184f9768a5ed0001734190","C3","batch3","","1060.199999999255","<div class = centerbox><p class = center-block-text>problem <strong>3</strong> out of 25 problems</p></div>","0","tol_trial_num","","","","","","","","","","","","","","","","","","","","","","","","",""
"","","","","","single-stim-button","228","569541","0.0-3.0-16.0-0.0","5b184f9768a5ed0001734190","C3","batch3","","5466","","","tol_tohand","","","","","","","","","tol_peg_1","5466","5466","0","[[2,0,0],[0,0],[1]]","1","[[1,2,0],[3,0],[0]]","2","0","","","","","","4","",""
"","","","","","single-stim-button","229","573082","0.0-3.0-16.0-1.0","5b184f9768a5ed0001734190","C3","batch3","","3541","","","tol_toboard","","","","","","","","","tol_peg_2","3541","3541","0","[[2,0,0],[3,0],[1]]","1","[[1,2,0],[3,0],[0]]","2","0","","","","","","4","",""
"","","","","","single-stim-button","230","575373","0.0-3.0-16.1-0.1","5b184f9768a5ed0001734190","C3","batch3","","2291","","","tol_tohand","","","","","","","","","tol_peg_1","2291","2291","0","[[0,0,0],[3,0],[1]]","2","[[1,2,0],[3,0],[0]]","2","0","","","","","","4","",""
"","","","","","single-stim-button","231","576343","0.0-3.0-16.1-1.1","5b184f9768a5ed0001734190","C3","batch3","","969","","","tol_toboard","","","","","","","","","tol_peg_2","969","969","0","[[0,0,0],[3,2],[1]]","2","[[1,2,0],[3,0],[0]]","2","0","","","","","","4","",""
"","","","","","single-stim-button","232","576742","0.0-3.0-16.2-0.2","5b184f9768a5ed0001734190","C3","batch3","","398","","","tol_tohand","","","","","","","","","tol_peg_3","398","398","0","[[0,0,0],[3,2],[0]]","3","[[1,2,0],[3,0],[0]]","2","0","","","","","","4","",""
"","","","","","single-stim-button","233","577836","0.0-3.0-16.2-1.2","5b184f9768a5ed0001734190","C3","batch3","","1094","","","tol_toboard","","","","","","","","","tol_peg_1","1094","1094","0","[[1,0,0],[3,2],[0]]","3","[[1,2,0],[3,0],[0]]","2","0","","","","","","4","",""
"","","","","","single-stim-button","234","578666","0.0-3.0-16.3-0.3","5b184f9768a5ed0001734190","C3","batch3","","829","","","tol_tohand","","","","","","","","","tol_peg_2","829","829","0","[[1,0,0],[3,0],[0]]","4","[[1,2,0],[3,0],[0]]","2","0","","","","","","4","",""
"","","","","","single-stim-button","235","579271","0.0-3.0-16.3-1.3","5b184f9768a5ed0001734190","C3","batch3","","605","","","tol_toboard","","","","","","","","","tol_peg_1","605","605","0","[[1,2,0],[3,0],[0]]","4","[[1,2,0],[3,0],[0]]","2","0","","","","","","4","",""
"","","","","","poldrack-single-stim","236","580272","0.0-3.0-17.0","5b184f9768a5ed0001734190","C3","batch3","","-1","","","tol_feedback","true","","","","","","","","","1000","1000","500","","","","","","-1","none","true","5466","8984","","",""
"","","","","","html-button-response","237","581328","0.0-3.0-18.0","5b184f9768a5ed0001734190","C3","batch3","","1055.199999999255","<div class = centerbox><p class = center-block-text>problem <strong>4</strong> out of 25 problems</p></div>","0","tol_trial_num","","","","","","","","","","","","","","","","","","","","","","","","",""
"","","","","","single-stim-button","238","586737","0.0-3.0-19.0-0.0","5b184f9768a5ed0001734190","C3","batch3","","5409","","","tol_tohand","","","","","","","","","tol_peg_2","5409","5409","0","[[3,0,0],[2,0],[0]]","1","[[3,0,0],[1,0],[2]]","3","0","","","","","","3","",""
"","","","","","single-stim-button","239","587475","0.0-3.0-19.0-1.0","5b184f9768a5ed0001734190","C3","batch3","","737","","","tol_toboard","","","","","","","","","tol_peg_1","737","737","0","[[3,1,0],[2,0],[0]]","1","[[3,0,0],[1,0],[2]]","3","0","","","","","","3","",""
"","","","","","single-stim-button","240","588057","0.0-3.0-19.1-0.1","5b184f9768a5ed0001734190","C3","batch3","","581","","","tol_tohand","","","","","","","","","tol_peg_2","581","581","0","[[3,1,0],[0,0],[0]]","2","[[3,0,0],[1,0],[2]]","3","0","","","","","","3","",""
"","","","","","single-stim-button","241","588586","0.0-3.0-19.1-1.1","5b184f9768a5ed0001734190","C3","batch3","","529","","","tol_toboard","","","","","","","","","tol_peg_3","529","529","0","[[3,1,0],[0,0],[2]]","2","[[3,0,0],[1,0],[2]]","3","0","","","","","","3","",""
"","","","","","single-stim-button","242","589369","0.0-3.0-19.2-0.2","5b184f9768a5ed0001734190","C3","batch3","","783","","","tol_tohand","","","","","","","","","tol_peg_1","783","783","0","[[3,0,0],[0,0],[2]]","3","[[3,0,0],[1,0],[2]]","3","0","","","","","","3","",""
"","","","","","single-stim-button","243","589729","0.0-3.0-19.2-1.2","5b184f9768a5ed0001734190","C3","batch3","","360","","","tol_toboard","","","","","","","","","tol_peg_2","360","360","0","[[3,0,0],[1,0],[2]]","3","[[3,0,0],[1,0],[2]]","3","0","","","","","","3","",""
"","","","","","poldrack-single-stim","244","590738","0.0-3.0-20.0","5b184f9768a5ed0001734190","C3","batch3","","-1","","","tol_feedback","true","","","","","","","","","1000","1000","500","","","","","","-1","none","true","5409","6773","","",""
"","","","","","html-button-response","245","591944","0.0-3.0-21.0","5b184f9768a5ed0001734190","C3","batch3","","1206.4000000003725","<div class = centerbox><p class = center-block-text>problem <strong>5</strong> out of 25 problems</p></div>","0","tol_trial_num","","","","","","","","","","","","","","","","","","","","","","","","",""
"","","","","","single-stim-button","246","602676","0.0-3.0-22.0-0.0","5b184f9768a5ed0001734190","C3","batch3","","10731","","","tol_tohand","","","","","","","","","tol_peg_3","10731","10731","0","[[1,0,0],[2,0],[0]]","1","[[0,0,0],[1,2],[3]]","4","0","","","","","","7","",""
"","","","","","single-stim-button","247","603423","0.0-3.0-22.0-1.0","5b184f9768a5ed0001734190","C3","batch3","","746","","","tol_toboard","","","","","","","","","tol_peg_1","746","746","0","[[1,3,0],[2,0],[0]]","1","[[0,0,0],[1,2],[3]]","4","0","","","","","","7","",""
"","","","","","single-stim-button","248","604111","0.0-3.0-22.1-0.1","5b184f9768a5ed0001734190","C3","batch3","","688","","","tol_tohand","","","","","","","","","tol_peg_2","688","688","0","[[1,3,0],[0,0],[0]]","2","[[0,0,0],[1,2],[3]]","4","0","","","","","","7","",""
"","","","","","single-stim-button","249","605756","0.0-3.0-22.1-1.1","5b184f9768a5ed0001734190","C3","batch3","","1645","","","tol_toboard","","","","","","","","","tol_peg_3","1645","1645","0","[[1,3,0],[0,0],[2]]","2","[[0,0,0],[1,2],[3]]","4","0","","","","","","7","",""
"","","","","","single-stim-button","250","607254","0.0-3.0-22.2-0.2","5b184f9768a5ed0001734190","C3","batch3","","1497","","","tol_tohand","","","","","","","","","tol_peg_1","1497","1497","0","[[1,0,0],[0,0],[2]]","3","[[0,0,0],[1,2],[3]]","4","0","","","","","","7","",""
"","","","","","single-stim-button","251","608826","0.0-3.0-22.2-1.2","5b184f9768a5ed0001734190","C3","batch3","","1572","","","tol_toboard","","","","","","","","","tol_peg_2","1572","1572","0","[[1,0,0],[3,0],[2]]","3","[[0,0,0],[1,2],[3]]","4","0","","","","","","7","",""
"","","","","","single-stim-button","252","610570","0.0-3.0-22.3-0.3","5b184f9768a5ed0001734190","C3","batch3","","1743","","","tol_tohand","","","","","","","","","tol_peg_3","1743","1743","0","[[1,0,0],[3,0],[0]]","4","[[0,0,0],[1,2],[3]]","4","0","","","","","","7","",""
"","","","","","single-stim-button","253","611108","0.0-3.0-22.3-1.3","5b184f9768a5ed0001734190","C3","batch3","","536","","","tol_toboard","","","","","","","","","tol_peg_1","536","536","0","[[1,2,0],[3,0],[0]]","4","[[0,0,0],[1,2],[3]]","4","0","","","","","","7","",""
"","","","","","single-stim-button","254","614257","0.0-3.0-22.4-0.4","5b184f9768a5ed0001734190","C3","batch3","","3148","","","tol_tohand","","","","","","","","","tol_peg_2","3148","3148","0","[[1,2,0],[0,0],[0]]","5","[[0,0,0],[1,2],[3]]","4","0","","","","","","7","",""
"","","","","","single-stim-button","255","615067","0.0-3.0-22.4-1.4","5b184f9768a5ed0001734190","C3","batch3","","810","","","tol_toboard","","","","","","","","","tol_peg_3","810","810","0","[[1,2,0],[0,0],[3]]","5","[[0,0,0],[1,2],[3]]","4","0","","","","","","7","",""
"","","","","","single-stim-button","256","615766","0.0-3.0-22.5-0.5","5b184f9768a5ed0001734190","C3","batch3","","699","","","tol_tohand","","","","","","","","","tol_peg_1","699","699","0","[[1,0,0],[0,0],[3]]","6","[[0,0,0],[1,2],[3]]","4","0","","","","","","7","",""
"","","","","","single-stim-button","257","618656","0.0-3.0-22.5-1.5","5b184f9768a5ed0001734190","C3","batch3","","2890","","","tol_toboard","","","","","","","","","tol_peg_2","2890","2890","0","[[1,0,0],[2,0],[3]]","6","[[0,0,0],[1,2],[3]]","4","0","","","","","","7","",""
"","","","","","single-stim-button","258","619341","0.0-3.0-22.6-0.6","5b184f9768a5ed0001734190","C3","batch3","","685","","","tol_tohand","","","","","","","","","tol_peg_1","685","685","0","[[0,0,0],[2,0],[3]]","7","[[0,0,0],[1,2],[3]]","4","0","","","","","","7","",""
"","","","","","single-stim-button","259","620532","0.0-3.0-22.6-1.6","5b184f9768a5ed0001734190","C3","batch3","","1191","","","tol_toboard","","","","","","","","","tol_peg_2","1191","1191","0","[[0,0,0],[2,1],[3]]","7","[[0,0,0],[1,2],[3]]","4","0","","","","","","7","",""
"","","","","","single-stim-button","260","621039","0.0-3.0-22.7-0.7","5b184f9768a5ed0001734190","C3","batch3","","507","","","tol_tohand","","","","","","","","","tol_peg_3","507","507","0","[[0,0,0],[2,1],[0]]","8","[[0,0,0],[1,2],[3]]","4","0","","","","","","7","",""
"","","","","","single-stim-button","261","622204","0.0-3.0-22.7-1.7","5b184f9768a5ed0001734190","C3","batch3","","1164","","","tol_toboard","","","","","","","","","tol_peg_1","1164","1164","0","[[3,0,0],[2,1],[0]]","8","[[0,0,0],[1,2],[3]]","4","0","","","","","","7","",""
"","","","","","single-stim-button","262","623156","0.0-3.0-22.8-0.8","5b184f9768a5ed0001734190","C3","batch3","","952","","","tol_tohand","","","","","","","","","tol_peg_2","952","952","0","[[3,0,0],[2,0],[0]]","9","[[0,0,0],[1,2],[3]]","4","0","","","","","","7","",""
"","","","","","single-stim-button","263","623573","0.0-3.0-22.8-1.8","5b184f9768a5ed0001734190","C3","batch3","","417","","","tol_toboard","","","","","","","","","tol_peg_3","417","417","0","[[3,0,0],[2,0],[1]]","9","[[0,0,0],[1,2],[3]]","4","0","","","","","","7","",""
"","","","","","single-stim-button","264","624858","0.0-3.0-22.9-0.9","5b184f9768a5ed0001734190","C3","batch3","","1285","","","tol_tohand","","","","","","","","","tol_peg_2","1285","1285","0","[[3,0,0],[0,0],[1]]","10","[[0,0,0],[1,2],[3]]","4","0","","","","","","7","",""
"","","","","","single-stim-button","265","625371","0.0-3.0-22.9-1.9","5b184f9768a5ed0001734190","C3","batch3","","513","","","tol_toboard","","","","","","","","","tol_peg_1","513","513","0","[[3,2,0],[0,0],[1]]","10","[[0,0,0],[1,2],[3]]","4","0","","","","","","7","",""
"","","","","","single-stim-button","266","626604","0.0-3.0-22.10-0.10","5b184f9768a5ed0001734190","C3","batch3","","1233","","","tol_tohand","","","","","","","","","tol_peg_3","1233","1233","0","[[3,2,0],[0,0],[0]]","11","[[0,0,0],[1,2],[3]]","4","0","","","","","","7","",""
"","","","","","single-stim-button","267","627301","0.0-3.0-22.10-1.10","5b184f9768a5ed0001734190","C3","batch3","","697","","","tol_toboard","","","","","","","","","tol_peg_2","697","697","0","[[3,2,0],[1,0],[0]]","11","[[0,0,0],[1,2],[3]]","4","0","","","","","","7","",""
"","","","","","single-stim-button","268","627886","0.0-3.0-22.11-0.11","5b184f9768a5ed0001734190","C3","batch3","","584","","","tol_tohand","","","","","","","","","tol_peg_1","584","584","0","[[3,0,0],[1,0],[0]]","12","[[0,0,0],[1,2],[3]]","4","0","","","","","","7","",""
"","","","","","single-stim-button","269","628385","0.0-3.0-22.11-1.11","5b184f9768a5ed0001734190","C3","batch3","","497","","","tol_toboard","","","","","","","","","tol_peg_2","497","497","0","[[3,0,0],[1,2],[0]]","12","[[0,0,0],[1,2],[3]]","4","0","","","","","","7","",""
"","","","","","single-stim-button","270","628805","0.0-3.0-22.12-0.12","5b184f9768a5ed0001734190","C3","batch3","","419","","","tol_tohand","","","","","","","","","tol_peg_1","419","419","0","[[0,0,0],[1,2],[0]]","13","[[0,0,0],[1,2],[3]]","4","0","","","","","","7","",""
"","","","","","single-stim-button","271","629276","0.0-3.0-22.12-1.12","5b184f9768a5ed0001734190","C3","batch3","","470","","","tol_toboard","","","","","","","","","tol_peg_3","470","470","0","[[0,0,0],[1,2],[3]]","13","[[0,0,0],[1,2],[3]]","4","0","","","","","","7","",""
"","","","","","poldrack-single-stim","272","630277","0.0-3.0-23.0","5b184f9768a5ed0001734190","C3","batch3","","-1","","","tol_feedback","true","","","","","","","","","1000","1000","500","","","","","","-1","none","true","10731","24171","","",""
"","","","","","html-button-response","273","631147","0.0-3.0-24.0","5b184f9768a5ed0001734190","C3","batch3","","869.8000000007451","<div class = centerbox><p class = center-block-text>problem <strong>6</strong> out of 25 problems</p></div>","0","tol_trial_num","","","","","","","","","","","","","","","","","","","","","","","","",""
"","","","","","single-stim-button","274","647075","0.0-3.0-25.0-0.0","5b184f9768a5ed0001734190","C3","batch3","","15927","","","tol_tohand","","","","","","","","","tol_peg_3","15927","15927","0","[[0,0,0],[1,2],[0]]","1","[[1,0,0],[2,3],[0]]","5","0","","","","","","6","",""
"","","","","","single-stim-button","275","649365","0.0-3.0-25.0-1.0","5b184f9768a5ed0001734190","C3","batch3","","2289","","","tol_toboard","","","","","","","","","tol_peg_1","2289","2289","0","[[3,0,0],[1,2],[0]]","1","[[1,0,0],[2,3],[0]]","5","0","","","","","","6","",""
"","","","","","single-stim-button","276","650682","0.0-3.0-25.1-0.1","5b184f9768a5ed0001734190","C3","batch3","","1317","","","tol_tohand","","","","","","","","","tol_peg_2","1317","1317","0","[[3,0,0],[1,0],[0]]","2","[[1,0,0],[2,3],[0]]","5","0","","","","","","6","",""
"","","","","","single-stim-button","277","651982","0.0-3.0-25.1-1.1","5b184f9768a5ed0001734190","C3","batch3","","1299","","","tol_toboard","","","","","","","","","tol_peg_3","1299","1299","0","[[3,0,0],[1,0],[2]]","2","[[1,0,0],[2,3],[0]]","5","0","","","","","","6","",""
"","","","","","single-stim-button","278","657796","0.0-3.0-25.2-0.2","5b184f9768a5ed0001734190","C3","batch3","","5814","","","tol_tohand","","","","","","","","","tol_peg_2","5814","5814","0","[[3,0,0],[0,0],[2]]","3","[[1,0,0],[2,3],[0]]","5","0","","","","","","6","",""
"","","","","","single-stim-button","279","658399","0.0-3.0-25.2-1.2","5b184f9768a5ed0001734190","C3","batch3","","603","","","tol_toboard","","","","","","","","","tol_peg_1","603","603","0","[[3,1,0],[0,0],[2]]","3","[[1,0,0],[2,3],[0]]","5","0","","","","","","6","",""
"","","","","","single-stim-button","280","660050","0.0-3.0-25.3-0.3","5b184f9768a5ed0001734190","C3","batch3","","1650","","","tol_tohand","","","","","","","","","tol_peg_3","1650","1650","0","[[3,1,0],[0,0],[0]]","4","[[1,0,0],[2,3],[0]]","5","0","","","","","","6","",""
"","","","","","single-stim-button","281","662099","0.0-3.0-25.3-1.3","5b184f9768a5ed0001734190","C3","batch3","","2049","","","tol_toboard","","","","","","","","","tol_peg_2","2049","2049","0","[[3,1,0],[2,0],[0]]","4","[[1,0,0],[2,3],[0]]","5","0","","","","","","6","",""
"","","","","","single-stim-button","282","662820","0.0-3.0-25.4-0.4","5b184f9768a5ed0001734190","C3","batch3","","721","","","tol_tohand","","","","","","","","","tol_peg_1","721","721","0","[[3,0,0],[2,0],[0]]","5","[[1,0,0],[2,3],[0]]","5","0","","","","","","6","",""
"","","","","","single-stim-button","283","663490","0.0-3.0-25.4-1.4","5b184f9768a5ed0001734190","C3","batch3","","670","","","tol_toboard","","","","","","","","","tol_peg_3","670","670","0","[[3,0,0],[2,0],[1]]","5","[[1,0,0],[2,3],[0]]","5","0","","","","","","6","",""
"","","","","","single-stim-button","284","664132","0.0-3.0-25.5-0.5","5b184f9768a5ed0001734190","C3","batch3","","642","","","tol_tohand","","","","","","","","","tol_peg_1","642","642","0","[[0,0,0],[2,0],[1]]","6","[[1,0,0],[2,3],[0]]","5","0","","","","","","6","",""
"","","","","","single-stim-button","285","664807","0.0-3.0-25.5-1.5","5b184f9768a5ed0001734190","C3","batch3","","675","","","tol_toboard","","","","","","","","","tol_peg_2","675","675","0","[[0,0,0],[2,3],[1]]","6","[[1,0,0],[2,3],[0]]","5","0","","","","","","6","",""
"","","","","","single-stim-button","286","665293","0.0-3.0-25.6-0.6","5b184f9768a5ed0001734190","C3","batch3","","486","","","tol_tohand","","","","","","","","","tol_peg_3","486","486","0","[[0,0,0],[2,3],[0]]","7","[[1,0,0],[2,3],[0]]","5","0","","","","","","6","",""
"","","","","","single-stim-button","287","665912","0.0-3.0-25.6-1.6","5b184f9768a5ed0001734190","C3","batch3","","618","","","tol_toboard","","","","","","","","","tol_peg_1","618","618","0","[[1,0,0],[2,3],[0]]","7","[[1,0,0],[2,3],[0]]","5","0","","","","","","6","",""
"","","","","","poldrack-single-stim","288","666913","0.0-3.0-26.0","5b184f9768a5ed0001734190","C3","batch3","","-1","","","tol_feedback","true","","","","","","","","","1000","1000","500","","","","","","-1","none","true","15927","26557","","",""
"","","","","","html-button-response","289","668546","0.0-3.0-27.0","5b184f9768a5ed0001734190","C3","batch3","","1632.1000000014901","<div class = centerbox><p class = center-block-text>problem <strong>7</strong> out of 25 problems</p></div>","0","tol_trial_num","","","","","","","","","","","","","","","","","","","","","","","","",""
"","","","","","single-stim-button","290","673772","0.0-3.0-28.0-0.0","5b184f9768a5ed0001734190","C3","batch3","","5225","","","tol_tohand","","","","","","","","","tol_peg_1","5225","5225","0","[[2,0,0],[0,0],[3]]","1","[[1,2,0],[3,0],[0]]","6","0","","","","","","5","",""
"","","","","","single-stim-button","291","678881","0.0-3.0-28.0-1.0","5b184f9768a5ed0001734190","C3","batch3","","5108","","","tol_toboard","","","","","","","","","tol_peg_1","5108","5108","0","[[2,1,0],[0,0],[3]]","1","[[1,2,0],[3,0],[0]]","6","0","","","","","","5","",""
"","","","","","single-stim-button","292","680807","0.0-3.0-28.1-0.1","5b184f9768a5ed0001734190","C3","batch3","","1925","","","tol_tohand","","","","","","","","","tol_peg_3","1925","1925","0","[[2,1,0],[0,0],[0]]","2","[[1,2,0],[3,0],[0]]","6","0","","","","","","5","",""
"","","","","","single-stim-button","293","682440","0.0-3.0-28.1-1.1","5b184f9768a5ed0001734190","C3","batch3","","1633","","","tol_toboard","","","","","","","","","tol_peg_2","1633","1633","0","[[2,1,0],[3,0],[0]]","2","[[1,2,0],[3,0],[0]]","6","0","","","","","","5","",""
"","","","","","single-stim-button","294","683435","0.0-3.0-28.2-0.2","5b184f9768a5ed0001734190","C3","batch3","","995","","","tol_tohand","","","","","","","","","tol_peg_1","995","995","0","[[2,0,0],[3,0],[0]]","3","[[1,2,0],[3,0],[0]]","6","0","","","","","","5","",""
"","","","","","single-stim-button","295","686321","0.0-3.0-28.2-1.2","5b184f9768a5ed0001734190","C3","batch3","","2885","","","tol_toboard","","","","","","","","","tol_peg_3","2885","2885","0","[[2,0,0],[3,0],[1]]","3","[[1,2,0],[3,0],[0]]","6","0","","","","","","5","",""
"","","","","","single-stim-button","296","686984","0.0-3.0-28.3-0.3","5b184f9768a5ed0001734190","C3","batch3","","663","","","tol_tohand","","","","","","","","","tol_peg_1","663","663","0","[[0,0,0],[3,0],[1]]","4","[[1,2,0],[3,0],[0]]","6","0","","","","","","5","",""
"","","","","","single-stim-button","297","687445","0.0-3.0-28.3-1.3","5b184f9768a5ed0001734190","C3","batch3","","461","","","tol_toboard","","","","","","","","","tol_peg_2","461","461","0","[[0,0,0],[3,2],[1]]","4","[[1,2,0],[3,0],[0]]","6","0","","","","","","5","",""
"","","","","","single-stim-button","298","687938","0.0-3.0-28.4-0.4","5b184f9768a5ed0001734190","C3","batch3","","493","","","tol_tohand","","","","","","","","","tol_peg_3","493","493","0","[[0,0,0],[3,2],[0]]","5","[[1,2,0],[3,0],[0]]","6","0","","","","","","5","",""
"","","","","","single-stim-button","299","688467","0.0-3.0-28.4-1.4","5b184f9768a5ed0001734190","C3","batch3","","528","","","tol_toboard","","","","","","","","","tol_peg_1","528","528","0","[[1,0,0],[3,2],[0]]","5","[[1,2,0],[3,0],[0]]","6","0","","","","","","5","",""
"","","","","","single-stim-button","300","688920","0.0-3.0-28.5-0.5","5b184f9768a5ed0001734190","C3","batch3","","452","","","tol_tohand","","","","","","","","","tol_peg_2","452","452","0","[[1,0,0],[3,0],[0]]","6","[[1,2,0],[3,0],[0]]","6","0","","","","","","5","",""
"","","","","","single-stim-button","301","689420","0.0-3.0-28.5-1.5","5b184f9768a5ed0001734190","C3","batch3","","500","","","tol_toboard","","","","","","","","","tol_peg_1","500","500","0","[[1,2,0],[3,0],[0]]","6","[[1,2,0],[3,0],[0]]","6","0","","","","","","5","",""
"","","","","","poldrack-single-stim","302","690424","0.0-3.0-29.0","5b184f9768a5ed0001734190","C3","batch3","","-1","","","tol_feedback","true","","","","","","","","","1000","1000","500","","","","","","-1","none","true","5225","9753","","",""
"","","","","","html-button-response","303","691254","0.0-3.0-30.0","5b184f9768a5ed0001734190","C3","batch3","","829.5999999996275","<div class = centerbox><p class = center-block-text>problem <strong>8</strong> out of 25 problems</p></div>","0","tol_trial_num","","","","","","","","","","","","","","","","","","","","","","","","",""
"","","","","","single-stim-button","304","697863","0.0-3.0-31.0-0.0","5b184f9768a5ed0001734190","C3","batch3","","6608","","","tol_tohand","","","","","","","","","tol_peg_3","6608","6608","0","[[0,0,0],[2,3],[0]]","1","[[1,2,0],[3,0],[0]]","7","0","","","","","","4","",""
"","","","","","single-stim-button","305","699399","0.0-3.0-31.0-1.0","5b184f9768a5ed0001734190","C3","batch3","","1536","","","tol_toboard","","","","","","","","","tol_peg_1","1536","1536","0","[[1,0,0],[2,3],[0]]","1","[[1,2,0],[3,0],[0]]","7","0","","","","","","4","",""
"","","","","","single-stim-button","306","700606","0.0-3.0-31.1-0.1","5b184f9768a5ed0001734190","C3","batch3","","1207","","","tol_tohand","","","","","","","","","tol_peg_2","1207","1207","0","[[1,0,0],[2,0],[0]]","2","[[1,2,0],[3,0],[0]]","7","0","","","","","","4","",""
"","","","","","single-stim-button","307","701390","0.0-3.0-31.1-1.1","5b184f9768a5ed0001734190","C3","batch3","","783","","","tol_toboard","","","","","","","","","tol_peg_3","783","783","0","[[1,0,0],[2,0],[3]]","2","[[1,2,0],[3,0],[0]]","7","0","","","","","","4","",""
"","","","","","single-stim-button","308","701810","0.0-3.0-31.2-0.2","5b184f9768a5ed0001734190","C3","batch3","","420","","","tol_tohand","","","","","","","","","tol_peg_2","420","420","0","[[1,0,0],[0,0],[3]]","3","[[1,2,0],[3,0],[0]]","7","0","","","","","","4","",""
"","","","","","single-stim-button","309","702287","0.0-3.0-31.2-1.2","5b184f9768a5ed0001734190","C3","batch3","","477","","","tol_toboard","","","","","","","","","tol_peg_1","477","477","0","[[1,2,0],[0,0],[3]]","3","[[1,2,0],[3,0],[0]]","7","0","","","","","","4","",""
"","","","","","single-stim-button","310","704270","0.0-3.0-31.3-0.3","5b184f9768a5ed0001734190","C3","batch3","","1983","","","tol_tohand","","","","","","","","","tol_peg_3","1983","1983","0","[[1,2,0],[0,0],[0]]","4","[[1,2,0],[3,0],[0]]","7","0","","","","","","4","",""
"","","","","","single-stim-button","311","704724","0.0-3.0-31.3-1.3","5b184f9768a5ed0001734190","C3","batch3","","453","","","tol_toboard","","","","","","","","","tol_peg_2","453","453","0","[[1,2,0],[3,0],[0]]","4","[[1,2,0],[3,0],[0]]","7","0","","","","","","4","",""
"","","","","","poldrack-single-stim","312","705725","0.0-3.0-32.0","5b184f9768a5ed0001734190","C3","batch3","","-1","","","tol_feedback","true","","","","","","","","","1000","1000","500","","","","","","-1","none","true","6608","10218","","",""
"","","","","","html-button-response","313","706672","0.0-3.0-33.0","5b184f9768a5ed0001734190","C3","batch3","","946.0999999996275","<div class = centerbox><p class = center-block-text>problem <strong>9</strong> out of 25 problems</p></div>","0","tol_trial_num","","","","","","","","","","","","","","","","","","","","","","","","",""
"","","","","","single-stim-button","314","716688","0.0-3.0-34.0-0.0","5b184f9768a5ed0001734190","C3","batch3","","10016","","","tol_tohand","","","","","","","","","tol_peg_1","10016","10016","0","[[3,0,0],[0,0],[1]]","1","[[2,1,0],[3,0],[0]]","8","0","","","","","","6","",""
"","","","","","single-stim-button","315","717292","0.0-3.0-34.0-1.0","5b184f9768a5ed0001734190","C3","batch3","","603","","","tol_toboard","","","","","","","","","tol_peg_2","603","603","0","[[3,0,0],[2,0],[1]]","1","[[2,1,0],[3,0],[0]]","8","0","","","","","","6","",""
"","","","","","single-stim-button","316","718162","0.0-3.0-34.1-0.1","5b184f9768a5ed0001734190","C3","batch3","","870","","","tol_tohand","","","","","","","","","tol_peg_1","870","870","0","[[0,0,0],[2,0],[1]]","2","[[2,1,0],[3,0],[0]]","8","0","","","","","","6","",""
"","","","","","single-stim-button","317","723991","0.0-3.0-34.1-1.1","5b184f9768a5ed0001734190","C3","batch3","","5827","","","tol_toboard","","","","","","","","","tol_peg_1","5827","5827","0","[[3,0,0],[2,0],[1]]","2","[[2,1,0],[3,0],[0]]","8","0","","","","","","6","",""
"","","","","","single-stim-button","318","725184","0.0-3.0-34.2-0.2","5b184f9768a5ed0001734190","C3","batch3","","1193","","","tol_tohand","","","","","","","","","tol_peg_3","1193","1193","0","[[3,0,0],[2,0],[0]]","3","[[2,1,0],[3,0],[0]]","8","0","","","","","","6","",""
"","","","","","single-stim-button","319","725673","0.0-3.0-34.2-1.2","5b184f9768a5ed0001734190","C3","batch3","","489","","","tol_toboard","","","","","","","","","tol_peg_2","489","489","0","[[3,0,0],[2,1],[0]]","3","[[2,1,0],[3,0],[0]]","8","0","","","","","","6","",""
"","","","","","single-stim-button","320","726093","0.0-3.0-34.3-0.3","5b184f9768a5ed0001734190","C3","batch3","","420","","","tol_tohand","","","","","","","","","tol_peg_1","420","420","0","[[0,0,0],[2,1],[0]]","4","[[2,1,0],[3,0],[0]]","8","0","","","","","","6","",""
"","","","","","single-stim-button","321","726669","0.0-3.0-34.3-1.3","5b184f9768a5ed0001734190","C3","batch3","","575","","","tol_toboard","","","","","","","","","tol_peg_3","575","575","0","[[0,0,0],[2,1],[3]]","4","[[2,1,0],[3,0],[0]]","8","0","","","","","","6","",""
"","","","","","single-stim-button","322","727291","0.0-3.0-34.4-0.4","5b184f9768a5ed0001734190","C3","batch3","","622","","","tol_tohand","","","","","","","","","tol_peg_2","622","622","0","[[0,0,0],[2,0],[3]]","5","[[2,1,0],[3,0],[0]]","8","0","","","","","","6","",""
"","","","","","single-stim-button","323","730438","0.0-3.0-34.4-1.4","5b184f9768a5ed0001734190","C3","batch3","","3147","","","tol_toboard","","","","","","","","","tol_peg_1","3147","3147","0","[[1,0,0],[2,0],[3]]","5","[[2,1,0],[3,0],[0]]","8","0","","","","","","6","",""
"","","","","","single-stim-button","324","734262","0.0-3.0-34.5-0.5","5b184f9768a5ed0001734190","C3","batch3","","3823","","","tol_tohand","","","","","","","","","tol_peg_2","3823","3823","0","[[1,0,0],[0,0],[3]]","6","[[2,1,0],[3,0],[0]]","8","0","","","","","","6","",""
"","","","","","single-stim-button","325","735061","0.0-3.0-34.5-1.5","5b184f9768a5ed0001734190","C3","batch3","","798","","","tol_toboard","","","","","","","","","tol_peg_1","798","798","0","[[1,2,0],[0,0],[3]]","6","[[2,1,0],[3,0],[0]]","8","0","","","","","","6","",""
"","","","","","single-stim-button","326","735984","0.0-3.0-34.6-0.6","5b184f9768a5ed0001734190","C3","batch3","","923","","","tol_tohand","","","","","","","","","tol_peg_3","923","923","0","[[1,2,0],[0,0],[0]]","7","[[2,1,0],[3,0],[0]]","8","0","","","","","","6","",""
"","","","","","single-stim-button","327","736606","0.0-3.0-34.6-1.6","5b184f9768a5ed0001734190","C3","batch3","","620","","","tol_toboard","","","","","","","","","tol_peg_2","620","620","0","[[1,2,0],[3,0],[0]]","7","[[2,1,0],[3,0],[0]]","8","0","","","","","","6","",""
"","","","","","single-stim-button","328","737088","0.0-3.0-34.7-0.7","5b184f9768a5ed0001734190","C3","batch3","","482","","","tol_tohand","","","","","","","","","tol_peg_1","482","482","0","[[1,0,0],[3,0],[0]]","8","[[2,1,0],[3,0],[0]]","8","0","","","","","","6","",""
"","","","","","single-stim-button","329","737567","0.0-3.0-34.7-1.7","5b184f9768a5ed0001734190","C3","batch3","","478","","","tol_toboard","","","","","","","","","tol_peg_3","478","478","0","[[1,0,0],[3,0],[2]]","8","[[2,1,0],[3,0],[0]]","8","0","","","","","","6","",""
"","","","","","single-stim-button","330","738818","0.0-3.0-34.8-0.8","5b184f9768a5ed0001734190","C3","batch3","","1250","","","tol_tohand","","","","","","","","","tol_peg_1","1250","1250","0","[[0,0,0],[3,0],[2]]","9","[[2,1,0],[3,0],[0]]","8","0","","","","","","6","",""
"","","","","","single-stim-button","331","739268","0.0-3.0-34.8-1.8","5b184f9768a5ed0001734190","C3","batch3","","450","","","tol_toboard","","","","","","","","","tol_peg_2","450","450","0","[[0,0,0],[3,1],[2]]","9","[[2,1,0],[3,0],[0]]","8","0","","","","","","6","",""
"","","","","","single-stim-button","332","739715","0.0-3.0-34.9-0.9","5b184f9768a5ed0001734190","C3","batch3","","446","","","tol_tohand","","","","","","","","","tol_peg_3","446","446","0","[[0,0,0],[3,1],[0]]","10","[[2,1,0],[3,0],[0]]","8","0","","","","","","6","",""
"","","","","","single-stim-button","333","740376","0.0-3.0-34.9-1.9","5b184f9768a5ed0001734190","C3","batch3","","661","","","tol_toboard","","","","","","","","","tol_peg_1","661","661","0","[[2,0,0],[3,1],[0]]","10","[[2,1,0],[3,0],[0]]","8","0","","","","","","6","",""
"","","","","","single-stim-button","334","741723","0.0-3.0-34.10-0.10","5b184f9768a5ed0001734190","C3","batch3","","1346","","","tol_tohand","","","","","","","","","tol_peg_2","1346","1346","0","[[2,0,0],[3,0],[0]]","11","[[2,1,0],[3,0],[0]]","8","0","","","","","","6","",""
"","","","","","single-stim-button","335","742097","0.0-3.0-34.10-1.10","5b184f9768a5ed0001734190","C3","batch3","","374","","","tol_toboard","","","","","","","","","tol_peg_1","374","374","0","[[2,1,0],[3,0],[0]]","11","[[2,1,0],[3,0],[0]]","8","0","","","","","","6","",""
"","","","","","poldrack-single-stim","336","743106","0.0-3.0-35.0","5b184f9768a5ed0001734190","C3","batch3","","-1","","","tol_feedback","true","","","","","","","","","1000","1000","500","","","","","","-1","none","true","10016","21391","","",""
"","","","","","html-button-response","337","744068","0.0-3.0-36.0","5b184f9768a5ed0001734190","C3","batch3","","961.8000000007451","<div class = centerbox><p class = center-block-text>problem <strong>10</strong> out of 25 problems</p></div>","0","tol_trial_num","","","","","","","","","","","","","","","","","","","","","","","","",""
"","","","","","single-stim-button","338","748334","0.0-3.0-37.0-0.0","5b184f9768a5ed0001734190","C3","batch3","","4264","","","tol_tohand","","","","","","","","","tol_peg_2","4264","4264","0","[[3,0,0],[0,0],[2]]","1","[[3,0,0],[2,1],[0]]","9","0","","","","","","3","",""
"","","","","","single-stim-button","339","748937","0.0-3.0-37.0-1.0","5b184f9768a5ed0001734190","C3","batch3","","602","","","tol_toboard","","","","","","","","","tol_peg_1","602","602","0","[[3,1,0],[0,0],[2]]","1","[[3,0,0],[2,1],[0]]","9","0","","","","","","3","",""
"","","","","","single-stim-button","340","749761","0.0-3.0-37.1-0.1","5b184f9768a5ed0001734190","C3","batch3","","824","","","tol_tohand","","","","","","","","","tol_peg_3","824","824","0","[[3,1,0],[0,0],[0]]","2","[[3,0,0],[2,1],[0]]","9","0","","","","","","3","",""
"","","","","","single-stim-button","341","750269","0.0-3.0-37.1-1.1","5b184f9768a5ed0001734190","C3","batch3","","507","","","tol_toboard","","","","","","","","","tol_peg_2","507","507","0","[[3,1,0],[2,0],[0]]","2","[[3,0,0],[2,1],[0]]","9","0","","","","","","3","",""
"","","","","","single-stim-button","342","750815","0.0-3.0-37.2-0.2","5b184f9768a5ed0001734190","C3","batch3","","545","","","tol_tohand","","","","","","","","","tol_peg_1","545","545","0","[[3,0,0],[2,0],[0]]","3","[[3,0,0],[2,1],[0]]","9","0","","","","","","3","",""
"","","","","","single-stim-button","343","751232","0.0-3.0-37.2-1.2","5b184f9768a5ed0001734190","C3","batch3","","417","","","tol_toboard","","","","","","","","","tol_peg_2","417","417","0","[[3,0,0],[2,1],[0]]","3","[[3,0,0],[2,1],[0]]","9","0","","","","","","3","",""
"","","","","","poldrack-single-stim","344","752234","0.0-3.0-38.0","5b184f9768a5ed0001734190","C3","batch3","","-1","","","tol_feedback","true","","","","","","","","","1000","1000","500","","","","","","-1","none","true","4264","5633","","",""
"","","","","","html-button-response","345","753018","0.0-3.0-39.0","5b184f9768a5ed0001734190","C3","batch3","","784","<div class = centerbox><p class = center-block-text>problem <strong>11</strong> out of 25 problems</p></div>","0","tol_trial_num","","","","","","","","","","","","","","","","","","","","","","","","",""
"","","","","","single-stim-button","346","760022","0.0-3.0-40.0-0.0","5b184f9768a5ed0001734190","C3","batch3","","7003","","","tol_tohand","","","","","","","","","tol_peg_2","7003","7003","0","[[1,2,0],[0,0],[0]]","1","[[2,0,0],[1,3],[0]]","10","0","","","","","","6","",""
