"success","timeout","failed_images","failed_audio","failed_video","trial_type","trial_index","time_elapsed","internal_node_id","subject_id","study_id","session_id","task","rt","stimulus","response","item","answer","correct","spm_correct","spm_rt","view_history","mouse_click","stim_duration","block_duration","timing_post_trial","current_position","tol_num_moves_made","tol_target","tol_problem_id","tol_rt","key_press","possible_responses","tol_correct","preplanning","tol_rt_per_trial","tol_min_moves","fiar_detect_rt","fiar_detect_correct","total_correct_fiar_detect","post_trial_gap","choices"
"true","false","[]","[]","[]","preload","0","2143","0.0-0.0","5b1962c551d4eb0001bf968b","A3","batch1","","","","","","","","","","","","","","","","","","","","","","","","","","","","","",""
"true","","","","","fullscreen","1","9961","0.0-1.0-0.0","5b1962c551d4eb0001bf968b","A3","batch1","","","","","","","","","","","","","","","","","","","","","","","","","","","","","",""
"true","","","","","fullscreen","2","13469","0.0-2.0-0.0","5b1962c551d4eb0001bf968b","A3","batch1","spm_fullscreen","","","","","","","","","","","","","","","","","","","","","","","","","","","","",""
"","","","","","html-button-response","3","23583","0.0-2.0-1.0","5b1962c551d4eb0001bf968b","A3","batch1","","10111.69999999553","<p class = block-text><b>Instructions</b> <br>This is a widely used intelligence test in research. <br>In this test, a figure with a missing piece will be presented.<br>Below the figure are alternative pieces to complete the figure, only one of which is correct.<br> Different figures might involve different principles for obtaining the missing piece<br>Your job is to select the most logical piece to complete the figure.</p>","0","","","","","","","","","","","","","","","","","","","","","","","","","",""
"","","","","","html-keyboard-response","4","24386","0.0-2.0-2.0-0.0","5b1962c551d4eb0001bf968b","A3","batch1","spm_show_trial_num","null","<p class=block-text>Trial 1 out of 60</p>","null","","","","","","","","","","","","","","","","","","","","","","","","","",""
"","","","","","image-button-response","5","31427","0.0-2.0-2.0-1.0","5b1962c551d4eb0001bf968b","A3","batch1","spm_respsonse","7027.70000000298","img/question_1_1.jpeg","3","mat_01","4","1","1","7027.70000000298","","","","","","","","","","","","","","","","","","","","",""
"","","","","","html-keyboard-response","6","32480","0.0-2.0-2.0-0.1","5b1962c551d4eb0001bf968b","A3","batch1","spm_show_trial_num","null","<p class=block-text>Trial 2 out of 60</p>","null","","","","","","","","","","","","","","","","","","","","","","","","","",""
"","","","","","image-button-response","7","35188","0.0-2.0-2.0-1.1","5b1962c551d4eb0001bf968b","A3","batch1","spm_respsonse","2705.1999999955297","img/question_1_2.jpeg","4","mat_02","5","1","1","2705.1999999955297","","","","","","","","","","","","","","","","","","","","",""
"","","","","","html-keyboard-response","8","36247","0.0-2.0-2.0-0.2","5b1962c551d4eb0001bf968b","A3","batch1","spm_show_trial_num","null","<p class=block-text>Trial 3 out of 60</p>","null","","","","","","","","","","","","","","","","","","","","","","","","","",""
"","","","","","image-button-response","9","39135","0.0-2.0-2.0-1.2","5b1962c551d4eb0001bf968b","A3","batch1","spm_respsonse","2884.5","img/question_1_3.jpeg","0","mat_03","1","1","1","2884.5","","","","","","","","","","","","","","","","","","","","",""
"","","","","","html-keyboard-response","10","40193","0.0-2.0-2.0-0.3","5b1962c551d4eb0001bf968b","A3","batch1","spm_show_trial_num","null","<p class=block-text>Trial 4 out of 60</p>","null","","","","","","","","","","","","","","","","","","","","","","","","","",""
"","","","","","image-button-response","11","44409","0.0-2.0-2.0-1.3","5b1962c551d4eb0001bf968b","A3","batch1","spm_respsonse","4212.79999999702","img/question_1_4.jpeg","1","mat_04","2","1","1","4212.79999999702","","","","","","","","","","","","","","","","","","","","",""
"","","","","","html-keyboard-response","12","45466","0.0-2.0-2.0-0.4","5b1962c551d4eb0001bf968b","A3","batch1","spm_show_trial_num","null","<p class=block-text>Trial 5 out of 60</p>","null","","","","","","","","","","","","","","","","","","","","","","","","","",""
"","","","","","image-button-response","13","49976","0.0-2.0-2.0-1.4","5b1962c551d4eb0001bf968b","A3","batch1","spm_respsonse","4507.10000000149","img/question_1_5.jpeg","5","mat_05","6","1","1","4507.10000000149","","","","","","","","","","","","","","","","","","","","",""
"","","","","","html-keyboard-response","14","51031","0.0-2.0-2.0-0.5","5b1962c551d4eb0001bf968b","A3","batch1","spm_show_trial_num","null","<p class=block-text>Trial 6 out of 60</p>","null","","","","","","","","","","","","","","","","","","","","","","","","","",""
"","","","","","image-button-response","15","55957","0.0-2.0-2.0-1.5","5b1962c551d4eb0001bf968b","A3","batch1","spm_respsonse","4923.0999999940395","img/question_1_6.jpeg","2","mat_06","3","1","1","4923.0999999940395","","","","","","","","","","","","","","","","","","","","",""
"","","","","","html-keyboard-response","16","57015","0.0-2.0-2.0-0.6","5b1962c551d4eb0001bf968b","A3","batch1","spm_show_trial_num","null","<p class=block-text>Trial 7 out of 60</p>","null","","","","","","","","","","","","","","","","","","","","","","","","","",""
"","","","","","image-button-response","17","60895","0.0-2.0-2.0-1.6","5b1962c551d4eb0001bf968b","A3","batch1","spm_respsonse","3877.2999999970198","img/question_1_7.jpeg","5","mat_07","6","1","1","3877.2999999970198","","","","","","","","","","","","","","","","","","","","",""
"","","","","","html-keyboard-response","18","61954","0.0-2.0-2.0-0.7","5b1962c551d4eb0001bf968b","A3","batch1","spm_show_trial_num","null","<p class=block-text>Trial 8 out of 60</p>","null","","","","","","","","","","","","","","","","","","","","","","","","","",""
"","","","","","image-button-response","19","66935","0.0-2.0-2.0-1.7","5b1962c551d4eb0001bf968b","A3","batch1","spm_respsonse","4978.19999999553","img/question_1_8.jpeg","1","mat_08","2","1","1","4978.19999999553","","","","","","","","","","","","","","","","","","","","",""
"","","","","","html-keyboard-response","20","67988","0.0-2.0-2.0-0.8","5b1962c551d4eb0001bf968b","A3","batch1","spm_show_trial_num","null","<p class=block-text>Trial 9 out of 60</p>","null","","","","","","","","","","","","","","","","","","","","","","","","","",""
"","","","","","image-button-response","21","71696","0.0-2.0-2.0-1.8","5b1962c551d4eb0001bf968b","A3","batch1","spm_respsonse","3705.39999999851","img/question_1_9.jpeg","0","mat_09","1","1","1","3705.39999999851","","","","","","","","","","","","","","","","","","","","",""
"","","","","","html-keyboard-response","22","72748","0.0-2.0-2.0-0.9","5b1962c551d4eb0001bf968b","A3","batch1","spm_show_trial_num","null","<p class=block-text>Trial 10 out of 60</p>","null","","","","","","","","","","","","","","","","","","","","","","","","","",""
"","","","","","image-button-response","23","78053","0.0-2.0-2.0-1.9","5b1962c551d4eb0001bf968b","A3","batch1","spm_respsonse","5301.30000000447","img/question_1_10.jpeg","2","mat_10","3","1","1","5301.30000000447","","","","","","","","","","","","","","","","","","","","",""
"","","","","","html-keyboard-response","24","79107","0.0-2.0-2.0-0.10","5b1962c551d4eb0001bf968b","A3","batch1","spm_show_trial_num","null","<p class=block-text>Trial 11 out of 60</p>","null","","","","","","","","","","","","","","","","","","","","","","","","","",""
"","","","","","image-button-response","25","89847","0.0-2.0-2.0-1.10","5b1962c551d4eb0001bf968b","A3","batch1","spm_respsonse","10737.60000000149","img/question_1_11.jpeg","3","mat_11","4","1","1","10737.60000000149","","","","","","","","","","","","","","","","","","","","",""
"","","","","","html-keyboard-response","26","90909","0.0-2.0-2.0-0.11","5b1962c551d4eb0001bf968b","A3","batch1","spm_show_trial_num","null","<p class=block-text>Trial 12 out of 60</p>","null","","","","","","","","","","","","","","","","","","","","","","","","","",""
"","","","","","image-button-response","27","100266","0.0-2.0-2.0-1.11","5b1962c551d4eb0001bf968b","A3","batch1","spm_respsonse","9353.80000000447","img/question_1_12.jpeg","4","mat_12","5","1","1","9353.80000000447","","","","","","","","","","","","","","","","","","","","",""
"","","","","","html-keyboard-response","28","101320","0.0-2.0-2.0-0.12","5b1962c551d4eb0001bf968b","A3","batch1","spm_show_trial_num","null","<p class=block-text>Trial 13 out of 60</p>","null","","","","","","","","","","","","","","","","","","","","","","","","","",""
"","","","","","image-button-response","29","105972","0.0-2.0-2.0-1.12","5b1962c551d4eb0001bf968b","A3","batch1","spm_respsonse","4649.5","img/question_2_1.jpeg","1","mat_13","2","1","1","4649.5","","","","","","","","","","","","","","","","","","","","",""
"","","","","","html-keyboard-response","30","107027","0.0-2.0-2.0-0.13","5b1962c551d4eb0001bf968b","A3","batch1","spm_show_trial_num","null","<p class=block-text>Trial 14 out of 60</p>","null","","","","","","","","","","","","","","","","","","","","","","","","","",""
"","","","","","image-button-response","31","114789","0.0-2.0-2.0-1.13","5b1962c551d4eb0001bf968b","A3","batch1","spm_respsonse","7759.10000000149","img/question_2_2.jpeg","5","mat_14","6","1","1","7759.10000000149","","","","","","","","","","","","","","","","","","","","",""
"","","","","","html-keyboard-response","32","115846","0.0-2.0-2.0-0.14","5b1962c551d4eb0001bf968b","A3","batch1","spm_show_trial_num","null","<p class=block-text>Trial 15 out of 60</p>","null","","","","","","","","","","","","","","","","","","","","","","","","","",""
"","","","","","image-button-response","33","120697","0.0-2.0-2.0-1.14","5b1962c551d4eb0001bf968b","A3","batch1","spm_respsonse","4848.30000000447","img/question_2_3.jpeg","0","mat_15","1","1","1","4848.30000000447","","","","","","","","","","","","","","","","","","","","",""
"","","","","","html-keyboard-response","34","121753","0.0-2.0-2.0-0.15","5b1962c551d4eb0001bf968b","A3","batch1","spm_show_trial_num","null","<p class=block-text>Trial 16 out of 60</p>","null","","","","","","","","","","","","","","","","","","","","","","","","","",""
"","","","","","image-button-response","35","125347","0.0-2.0-2.0-1.15","5b1962c551d4eb0001bf968b","A3","batch1","spm_respsonse","3591.2999999970198","img/question_2_4.jpeg","1","mat_16","2","1","1","3591.2999999970198","","","","","","","","","","","","","","","","","","","","",""
"","","","","","html-keyboard-response","36","126401","0.0-2.0-2.0-0.16","5b1962c551d4eb0001bf968b","A3","batch1","spm_show_trial_num","null","<p class=block-text>Trial 17 out of 60</p>","null","","","","","","","","","","","","","","","","","","","","","","","","","",""
"","","","","","image-button-response","37","130251","0.0-2.0-2.0-1.16","5b1962c551d4eb0001bf968b","A3","batch1","spm_respsonse","3848.3000000044703","img/question_2_5.jpeg","0","mat_17","1","1","1","3848.3000000044703","","","","","","","","","","","","","","","","","","","","",""
"","","","","","html-keyboard-response","38","131310","0.0-2.0-2.0-0.17","5b1962c551d4eb0001bf968b","A3","batch1","spm_show_trial_num","null","<p class=block-text>Trial 18 out of 60</p>","null","","","","","","","","","","","","","","","","","","","","","","","","","",""
"","","","","","image-button-response","39","135606","0.0-2.0-2.0-1.17","5b1962c551d4eb0001bf968b","A3","batch1","spm_respsonse","4293.5","img/question_2_6.jpeg","2","mat_18","3","1","1","4293.5","","","","","","","","","","","","","","","","","","","","",""
"","","","","","html-keyboard-response","40","136662","0.0-2.0-2.0-0.18","5b1962c551d4eb0001bf968b","A3","batch1","spm_show_trial_num","null","<p class=block-text>Trial 19 out of 60</p>","null","","","","","","","","","","","","","","","","","","","","","","","","","",""
"","","","","","image-button-response","41","141426","0.0-2.0-2.0-1.18","5b1962c551d4eb0001bf968b","A3","batch1","spm_respsonse","4760.70000000298","img/question_2_7.jpeg","4","mat_19","5","1","1","4760.70000000298","","","","","","","","","","","","","","","","","","","","",""
"","","","","","html-keyboard-response","42","142483","0.0-2.0-2.0-0.19","5b1962c551d4eb0001bf968b","A3","batch1","spm_show_trial_num","null","<p class=block-text>Trial 20 out of 60</p>","null","","","","","","","","","","","","","","","","","","","","","","","","","",""
"","","","","","image-button-response","43","147802","0.0-2.0-2.0-1.19","5b1962c551d4eb0001bf968b","A3","batch1","spm_respsonse","5316.5","img/question_2_8.jpeg","5","mat_20","6","1","1","5316.5","","","","","","","","","","","","","","","","","","","","",""
"","","","","","html-keyboard-response","44","148860","0.0-2.0-2.0-0.20","5b1962c551d4eb0001bf968b","A3","batch1","spm_show_trial_num","null","<p class=block-text>Trial 21 out of 60</p>","null","","","","","","","","","","","","","","","","","","","","","","","","","",""
"","","","","","image-button-response","45","152838","0.0-2.0-2.0-1.20","5b1962c551d4eb0001bf968b","A3","batch1","spm_respsonse","3975","img/question_2_9.jpeg","3","mat_21","4","1","1","3975","","","","","","","","","","","","","","","","","","","","",""
"","","","","","html-keyboard-response","46","153896","0.0-2.0-2.0-0.21","5b1962c551d4eb0001bf968b","A3","batch1","spm_show_trial_num","null","<p class=block-text>Trial 22 out of 60</p>","null","","","","","","","","","","","","","","","","","","","","","","","","","",""
"","","","","","image-button-response","47","159017","0.0-2.0-2.0-1.21","5b1962c551d4eb0001bf968b","A3","batch1","spm_respsonse","5118.89999999851","img/question_2_10.jpeg","2","mat_22","3","1","1","5118.89999999851","","","","","","","","","","","","","","","","","","","","",""
"","","","","","html-keyboard-response","48","160068","0.0-2.0-2.0-0.22","5b1962c551d4eb0001bf968b","A3","batch1","spm_show_trial_num","null","<p class=block-text>Trial 23 out of 60</p>","null","","","","","","","","","","","","","","","","","","","","","","","","","",""
"","","","","","image-button-response","49","164280","0.0-2.0-2.0-1.22","5b1962c551d4eb0001bf968b","A3","batch1","spm_respsonse","4209.29999999702","img/question_2_11.jpeg","3","mat_23","4","1","1","4209.29999999702","","","","","","","","","","","","","","","","","","","","",""
"","","","","","html-keyboard-response","50","165337","0.0-2.0-2.0-0.23","5b1962c551d4eb0001bf968b","A3","batch1","spm_show_trial_num","null","<p class=block-text>Trial 24 out of 60</p>","null","","","","","","","","","","","","","","","","","","","","","","","","","",""
"","","","","","image-button-response","51","170922","0.0-2.0-2.0-1.23","5b1962c551d4eb0001bf968b","A3","batch1","spm_respsonse","5582.5","img/question_2_12.jpeg","4","mat_24","5","1","1","5582.5","","","","","","","","","","","","","","","","","","","","",""
"","","","","","html-button-response","52","173026","0.0-2.0-3.0","5b1962c551d4eb0001bf968b","A3","batch1","attention_check","1851.1000000014901","<p class = block-text>Attention check: Please choose 1<br></p>","0","","","true","","","","","","","","","","","","","","","","","","","","","","",""
"","","","","","html-keyboard-response","53","173830","0.0-2.0-4.0-0.0","5b1962c551d4eb0001bf968b","A3","batch1","spm_show_trial_num","null","<p class=block-text>Trial 25 out of 60</p>","null","","","","","","","","","","","","","","","","","","","","","","","","","",""
"","","","","","image-button-response","54","179729","0.0-2.0-4.0-1.0","5b1962c551d4eb0001bf968b","A3","batch1","spm_respsonse","5896.19999999553","img/question_3_1.jpeg","7","mat_25","8","1","1","5896.19999999553","","","","","","","","","","","","","","","","","","","","",""
"","","","","","html-keyboard-response","55","180785","0.0-2.0-4.0-0.1","5b1962c551d4eb0001bf968b","A3","batch1","spm_show_trial_num","null","<p class=block-text>Trial 26 out of 60</p>","null","","","","","","","","","","","","","","","","","","","","","","","","","",""
"","","","","","image-button-response","56","188183","0.0-2.0-4.0-1.1","5b1962c551d4eb0001bf968b","A3","batch1","spm_respsonse","7394.19999999553","img/question_3_2.jpeg","1","mat_26","2","1","1","7394.19999999553","","","","","","","","","","","","","","","","","","","","",""
"","","","","","html-keyboard-response","57","189239","0.0-2.0-4.0-0.2","5b1962c551d4eb0001bf968b","A3","batch1","spm_show_trial_num","null","<p class=block-text>Trial 27 out of 60</p>","null","","","","","","","","","","","","","","","","","","","","","","","","","",""
"","","","","","image-button-response","58","194101","0.0-2.0-4.0-1.2","5b1962c551d4eb0001bf968b","A3","batch1","spm_respsonse","4859.4000000059605","img/question_3_3.jpeg","2","mat_27","3","1","1","4859.4000000059605","","","","","","","","","","","","","","","","","","","","",""
"","","","","","html-keyboard-response","59","195156","0.0-2.0-4.0-0.3","5b1962c551d4eb0001bf968b","A3","batch1","spm_show_trial_num","null","<p class=block-text>Trial 28 out of 60</p>","null","","","","","","","","","","","","","","","","","","","","","","","","","",""
"","","","","","image-button-response","60","201622","0.0-2.0-4.0-1.3","5b1962c551d4eb0001bf968b","A3","batch1","spm_respsonse","6463.10000000149","img/question_3_4.jpeg","7","mat_28","8","1","1","6463.10000000149","","","","","","","","","","","","","","","","","","","","",""
"","","","","","html-keyboard-response","61","202673","0.0-2.0-4.0-0.4","5b1962c551d4eb0001bf968b","A3","batch1","spm_show_trial_num","null","<p class=block-text>Trial 29 out of 60</p>","null","","","","","","","","","","","","","","","","","","","","","","","","","",""
"","","","","","image-button-response","62","211866","0.0-2.0-4.0-1.4","5b1962c551d4eb0001bf968b","A3","batch1","spm_respsonse","9189.20000000298","img/question_3_5.jpeg","6","mat_29","7","1","1","9189.20000000298","","","","","","","","","","","","","","","","","","","","",""
"","","","","","html-keyboard-response","63","212925","0.0-2.0-4.0-0.5","5b1962c551d4eb0001bf968b","A3","batch1","spm_show_trial_num","null","<p class=block-text>Trial 30 out of 60</p>","null","","","","","","","","","","","","","","","","","","","","","","","","","",""
"","","","","","image-button-response","64","224185","0.0-2.0-4.0-1.5","5b1962c551d4eb0001bf968b","A3","batch1","spm_respsonse","11256.39999999851","img/question_3_6.jpeg","3","mat_30","4","1","1","11256.39999999851","","","","","","","","","","","","","","","","","","","","",""
"","","","","","html-keyboard-response","65","225246","0.0-2.0-4.0-0.6","5b1962c551d4eb0001bf968b","A3","batch1","spm_show_trial_num","null","<p class=block-text>Trial 31 out of 60</p>","null","","","","","","","","","","","","","","","","","","","","","","","","","",""
"","","","","","image-button-response","66","230650","0.0-2.0-4.0-1.6","5b1962c551d4eb0001bf968b","A3","batch1","spm_respsonse","5400.80000000447","img/question_3_7.jpeg","4","mat_31","5","1","1","5400.80000000447","","","","","","","","","","","","","","","","","","","","",""
"","","","","","html-keyboard-response","67","231701","0.0-2.0-4.0-0.7","5b1962c551d4eb0001bf968b","A3","batch1","spm_show_trial_num","null","<p class=block-text>Trial 32 out of 60</p>","null","","","","","","","","","","","","","","","","","","","","","","","","","",""
"","","","","","image-button-response","68","237146","0.0-2.0-4.0-1.7","5b1962c551d4eb0001bf968b","A3","batch1","spm_respsonse","5442.69999999553","img/question_3_8.jpeg","0","mat_32","1","1","1","5442.69999999553","","","","","","","","","","","","","","","","","","","","",""
"","","","","","html-keyboard-response","69","238203","0.0-2.0-4.0-0.8","5b1962c551d4eb0001bf968b","A3","batch1","spm_show_trial_num","null","<p class=block-text>Trial 33 out of 60</p>","null","","","","","","","","","","","","","","","","","","","","","","","","","",""
"","","","","","image-button-response","70","245687","0.0-2.0-4.0-1.8","5b1962c551d4eb0001bf968b","A3","batch1","spm_respsonse","7480.80000000447","img/question_3_9.jpeg","6","mat_33","7","1","1","7480.80000000447","","","","","","","","","","","","","","","","","","","","",""
"","","","","","html-keyboard-response","71","246739","0.0-2.0-4.0-0.9","5b1962c551d4eb0001bf968b","A3","batch1","spm_show_trial_num","null","<p class=block-text>Trial 34 out of 60</p>","null","","","","","","","","","","","","","","","","","","","","","","","","","",""
"","","","","","image-button-response","72","275047","0.0-2.0-4.0-1.9","5b1962c551d4eb0001bf968b","A3","batch1","spm_respsonse","28304.19999999553","img/question_3_10.jpeg","5","mat_34","6","1","1","28304.19999999553","","","","","","","","","","","","","","","","","","","","",""
"","","","","","html-keyboard-response","73","276104","0.0-2.0-4.0-0.10","5b1962c551d4eb0001bf968b","A3","batch1","spm_show_trial_num","null","<p class=block-text>Trial 35 out of 60</p>","null","","","","","","","","","","","","","","","","","","","","","","","","","",""
"","","","","","image-button-response","74","295786","0.0-2.0-4.0-1.10","5b1962c551d4eb0001bf968b","A3","batch1","spm_respsonse","19678.80000000447","img/question_3_11.jpeg","0","mat_35","1","1","1","19678.80000000447","","","","","","","","","","","","","","","","","","","","",""
"","","","","","html-keyboard-response","75","296844","0.0-2.0-4.0-0.11","5b1962c551d4eb0001bf968b","A3","batch1","spm_show_trial_num","null","<p class=block-text>Trial 36 out of 60</p>","null","","","","","","","","","","","","","","","","","","","","","","","","","",""
"","","","","","image-button-response","76","314733","0.0-2.0-4.0-1.11","5b1962c551d4eb0001bf968b","A3","batch1","spm_respsonse","17885.60000000149","img/question_3_12.jpeg","1","mat_36","2","1","1","17885.60000000149","","","","","","","","","","","","","","","","","","","","",""
"","","","","","html-keyboard-response","77","315792","0.0-2.0-4.0-0.12","5b1962c551d4eb0001bf968b","A3","batch1","spm_show_trial_num","null","<p class=block-text>Trial 37 out of 60</p>","null","","","","","","","","","","","","","","","","","","","","","","","","","",""
"","","","","","image-button-response","78","321729","0.0-2.0-4.0-1.12","5b1962c551d4eb0001bf968b","A3","batch1","spm_respsonse","5933.89999999851","img/question_4_1.jpeg","2","mat_37","3","1","1","5933.89999999851","","","","","","","","","","","","","","","","","","","","",""
"","","","","","html-keyboard-response","79","322785","0.0-2.0-4.0-0.13","5b1962c551d4eb0001bf968b","A3","batch1","spm_show_trial_num","null","<p class=block-text>Trial 38 out of 60</p>","null","","","","","","","","","","","","","","","","","","","","","","","","","",""
"","","","","","image-button-response","80","328707","0.0-2.0-4.0-1.13","5b1962c551d4eb0001bf968b","A3","batch1","spm_respsonse","5919.39999999851","img/question_4_2.jpeg","3","mat_38","4","1","1","5919.39999999851","","","","","","","","","","","","","","","","","","","","",""
"","","","","","html-keyboard-response","81","329761","0.0-2.0-4.0-0.14","5b1962c551d4eb0001bf968b","A3","batch1","spm_show_trial_num","null","<p class=block-text>Trial 39 out of 60</p>","null","","","","","","","","","","","","","","","","","","","","","","","","","",""
"","","","","","image-button-response","82","336584","0.0-2.0-4.0-1.14","5b1962c551d4eb0001bf968b","A3","batch1","spm_respsonse","6820.29999999702","img/question_4_3.jpeg","2","mat_39","3","1","1","6820.29999999702","","","","","","","","","","","","","","","","","","","","",""
"","","","","","html-keyboard-response","83","337643","0.0-2.0-4.0-0.15","5b1962c551d4eb0001bf968b","A3","batch1","spm_show_trial_num","null","<p class=block-text>Trial 40 out of 60</p>","null","","","","","","","","","","","","","","","","","","","","","","","","","",""
"","","","","","image-button-response","84","344268","0.0-2.0-4.0-1.15","5b1962c551d4eb0001bf968b","A3","batch1","spm_respsonse","6622.79999999702","img/question_4_4.jpeg","6","mat_40","7","1","1","6622.79999999702","","","","","","","","","","","","","","","","","","","","",""
"","","","","","html-keyboard-response","85","345326","0.0-2.0-4.0-0.16","5b1962c551d4eb0001bf968b","A3","batch1","spm_show_trial_num","null","<p class=block-text>Trial 41 out of 60</p>","null","","","","","","","","","","","","","","","","","","","","","","","","","",""
"","","","","","image-button-response","86","352205","0.0-2.0-4.0-1.16","5b1962c551d4eb0001bf968b","A3","batch1","spm_respsonse","6876.60000000149","img/question_4_5.jpeg","7","mat_41","8","1","1","6876.60000000149","","","","","","","","","","","","","","","","","","","","",""
"","","","","","html-keyboard-response","87","353258","0.0-2.0-4.0-0.17","5b1962c551d4eb0001bf968b","A3","batch1","spm_show_trial_num","null","<p class=block-text>Trial 42 out of 60</p>","null","","","","","","","","","","","","","","","","","","","","","","","","","",""
"","","","","","image-button-response","88","362737","0.0-2.0-4.0-1.17","5b1962c551d4eb0001bf968b","A3","batch1","spm_respsonse","9475.60000000149","img/question_4_6.jpeg","5","mat_42","6","1","1","9475.60000000149","","","","","","","","","","","","","","","","","","","","",""
"","","","","","html-keyboard-response","89","363792","0.0-2.0-4.0-0.18","5b1962c551d4eb0001bf968b","A3","batch1","spm_show_trial_num","null","<p class=block-text>Trial 43 out of 60</p>","null","","","","","","","","","","","","","","","","","","","","","","","","","",""
"","","","","","image-button-response","90","374390","0.0-2.0-4.0-1.18","5b1962c551d4eb0001bf968b","A3","batch1","spm_respsonse","10595.20000000298","img/question_4_7.jpeg","4","mat_43","5","1","1","10595.20000000298","","","","","","","","","","","","","","","","","","","","",""
"","","","","","html-keyboard-response","91","375452","0.0-2.0-4.0-0.19","5b1962c551d4eb0001bf968b","A3","batch1","spm_show_trial_num","null","<p class=block-text>Trial 44 out of 60</p>","null","","","","","","","","","","","","","","","","","","","","","","","","","",""
"","","","","","image-button-response","92","384622","0.0-2.0-4.0-1.19","5b1962c551d4eb0001bf968b","A3","batch1","spm_respsonse","9167","img/question_4_8.jpeg","3","mat_44","4","1","1","9167","","","","","","","","","","","","","","","","","","","","",""
"","","","","","html-keyboard-response","93","385683","0.0-2.0-4.0-0.20","5b1962c551d4eb0001bf968b","A3","batch1","spm_show_trial_num","null","<p class=block-text>Trial 45 out of 60</p>","null","","","","","","","","","","","","","","","","","","","","","","","","","",""
"","","","","","image-button-response","94","396966","0.0-2.0-4.0-1.20","5b1962c551d4eb0001bf968b","A3","batch1","spm_respsonse","11279.5","img/question_4_9.jpeg","1","mat_45","1","0","0","11279.5","","","","","","","","","","","","","","","","","","","","",""
"","","","","","html-keyboard-response","95","398022","0.0-2.0-4.0-0.21","5b1962c551d4eb0001bf968b","A3","batch1","spm_show_trial_num","null","<p class=block-text>Trial 46 out of 60</p>","null","","","","","","","","","","","","","","","","","","","","","","","","","",""
"","","","","","image-button-response","96","410471","0.0-2.0-4.0-1.21","5b1962c551d4eb0001bf968b","A3","batch1","spm_respsonse","12445.59999999404","img/question_4_10.jpeg","1","mat_46","2","1","1","12445.59999999404","","","","","","","","","","","","","","","","","","","","",""
"","","","","","html-keyboard-response","97","411526","0.0-2.0-4.0-0.22","5b1962c551d4eb0001bf968b","A3","batch1","spm_show_trial_num","null","<p class=block-text>Trial 47 out of 60</p>","null","","","","","","","","","","","","","","","","","","","","","","","","","",""
"","","","","","image-button-response","98","428731","0.0-2.0-4.0-1.22","5b1962c551d4eb0001bf968b","A3","batch1","spm_respsonse","17201.70000000298","img/question_4_11.jpeg","4","mat_47","5","1","1","17201.70000000298","","","","","","","","","","","","","","","","","","","","",""
"","","","","","html-keyboard-response","99","429788","0.0-2.0-4.0-0.23","5b1962c551d4eb0001bf968b","A3","batch1","spm_show_trial_num","null","<p class=block-text>Trial 48 out of 60</p>","null","","","","","","","","","","","","","","","","","","","","","","","","","",""
"","","","","","image-button-response","100","468411","0.0-2.0-4.0-1.23","5b1962c551d4eb0001bf968b","A3","batch1","spm_respsonse","38617.89999999851","img/question_4_12.jpeg","5","mat_48","6","1","1","38617.89999999851","","","","","","","","","","","","","","","","","","","","",""
"","","","","","html-keyboard-response","101","469472","0.0-2.0-4.0-0.24","5b1962c551d4eb0001bf968b","A3","batch1","spm_show_trial_num","null","<p class=block-text>Trial 49 out of 60</p>","null","","","","","","","","","","","","","","","","","","","","","","","","","",""
"","","","","","image-button-response","102","481528","0.0-2.0-4.0-1.24","5b1962c551d4eb0001bf968b","A3","batch1","spm_respsonse","12052.29999999702","img/question_5_1.jpeg","6","mat_49","7","1","1","12052.29999999702","","","","","","","","","","","","","","","","","","","","",""
"","","","","","html-keyboard-response","103","482585","0.0-2.0-4.0-0.25","5b1962c551d4eb0001bf968b","A3","batch1","spm_show_trial_num","null","<p class=block-text>Trial 50 out of 60</p>","null","","","","","","","","","","","","","","","","","","","","","","","","","",""
"","","","","","image-button-response","104","492416","0.0-2.0-4.0-1.25","5b1962c551d4eb0001bf968b","A3","batch1","spm_respsonse","9828.5","img/question_5_2.jpeg","5","mat_50","6","1","1","9828.5","","","","","","","","","","","","","","","","","","","","",""
"","","","","","html-keyboard-response","105","493474","0.0-2.0-4.0-0.26","5b1962c551d4eb0001bf968b","A3","batch1","spm_show_trial_num","null","<p class=block-text>Trial 51 out of 60</p>","null","","","","","","","","","","","","","","","","","","","","","","","","","",""
"","","","","","image-button-response","106","507841","0.0-2.0-4.0-1.26","5b1962c551d4eb0001bf968b","A3","batch1","spm_respsonse","14362.60000000149","img/question_5_3.jpeg","7","mat_51","8","1","1","14362.60000000149","","","","","","","","","","","","","","","","","","","","",""
"","","","","","html-keyboard-response","107","508902","0.0-2.0-4.0-0.27","5b1962c551d4eb0001bf968b","A3","batch1","spm_show_trial_num","null","<p class=block-text>Trial 52 out of 60</p>","null","","","","","","","","","","","","","","","","","","","","","","","","","",""
"","","","","","image-button-response","108","530761","0.0-2.0-4.0-1.27","5b1962c551d4eb0001bf968b","A3","batch1","spm_respsonse","21855.90000000596","img/question_5_4.jpeg","1","mat_52","2","1","1","21855.90000000596","","","","","","","","","","","","","","","","","","","","",""
"","","","","","html-keyboard-response","109","531814","0.0-2.0-4.0-0.28","5b1962c551d4eb0001bf968b","A3","batch1","spm_show_trial_num","null","<p class=block-text>Trial 53 out of 60</p>","null","","","","","","","","","","","","","","","","","","","","","","","","","",""
"","","","","","image-button-response","110","544584","0.0-2.0-4.0-1.28","5b1962c551d4eb0001bf968b","A3","batch1","spm_respsonse","12767.20000000298","img/question_5_5.jpeg","0","mat_53","1","1","1","12767.20000000298","","","","","","","","","","","","","","","","","","","","",""
"","","","","","html-keyboard-response","111","545636","0.0-2.0-4.0-0.29","5b1962c551d4eb0001bf968b","A3","batch1","spm_show_trial_num","null","<p class=block-text>Trial 54 out of 60</p>","null","","","","","","","","","","","","","","","","","","","","","","","","","",""
"","","","","","image-button-response","112","572814","0.0-2.0-4.0-1.29","5b1962c551d4eb0001bf968b","A3","batch1","spm_respsonse","27174.10000000149","img/question_5_6.jpeg","4","mat_54","5","1","1","27174.10000000149","","","","","","","","","","","","","","","","","","","","",""
"","","","","","html-keyboard-response","113","573870","0.0-2.0-4.0-0.30","5b1962c551d4eb0001bf968b","A3","batch1","spm_show_trial_num","null","<p class=block-text>Trial 55 out of 60</p>","null","","","","","","","","","","","","","","","","","","","","","","","","","",""
"","","","","","image-button-response","114","601524","0.0-2.0-4.0-1.30","5b1962c551d4eb0001bf968b","A3","batch1","spm_respsonse","27650.20000000298","img/question_5_7.jpeg","0","mat_55","1","1","1","27650.20000000298","","","","","","","","","","","","","","","","","","","","",""
"","","","","","html-keyboard-response","115","602578","0.0-2.0-4.0-0.31","5b1962c551d4eb0001bf968b","A3","batch1","spm_show_trial_num","null","<p class=block-text>Trial 56 out of 60</p>","null","","","","","","","","","","","","","","","","","","","","","","","","","",""
"","","","","","image-button-response","116","636008","0.0-2.0-4.0-1.31","5b1962c551d4eb0001bf968b","A3","batch1","spm_respsonse","33425.70000000298","img/question_5_8.jpeg","5","mat_56","6","1","1","33425.70000000298","","","","","","","","","","","","","","","","","","","","",""
"","","","","","html-keyboard-response","117","637064","0.0-2.0-4.0-0.32","5b1962c551d4eb0001bf968b","A3","batch1","spm_show_trial_num","null","<p class=block-text>Trial 57 out of 60</p>","null","","","","","","","","","","","","","","","","","","","","","","","","","",""
"","","","","","image-button-response","118","656053","0.0-2.0-4.0-1.32","5b1962c551d4eb0001bf968b","A3","batch1","spm_respsonse","18985.89999999851","img/question_5_9.jpeg","2","mat_57","3","1","1","18985.89999999851","","","","","","","","","","","","","","","","","","","","",""
"","","","","","html-keyboard-response","119","657114","0.0-2.0-4.0-0.33","5b1962c551d4eb0001bf968b","A3","batch1","spm_show_trial_num","null","<p class=block-text>Trial 58 out of 60</p>","null","","","","","","","","","","","","","","","","","","","","","","","","","",""
"","","","","","image-button-response","120","697715","0.0-2.0-4.0-1.33","5b1962c551d4eb0001bf968b","A3","batch1","spm_respsonse","40596.39999999851","img/question_5_10.jpeg","1","mat_58","2","1","1","40596.39999999851","","","","","","","","","","","","","","","","","","","","",""
"","","","","","html-keyboard-response","121","698771","0.0-2.0-4.0-0.34","5b1962c551d4eb0001bf968b","A3","batch1","spm_show_trial_num","null","<p class=block-text>Trial 59 out of 60</p>","null","","","","","","","","","","","","","","","","","","","","","","","","","",""
"","","","","","image-button-response","122","719519","0.0-2.0-4.0-1.34","5b1962c551d4eb0001bf968b","A3","batch1","spm_respsonse","20743.79999999702","img/question_5_11.jpeg","3","mat_59","4","1","1","20743.79999999702","","","","","","","","","","","","","","","","","","","","",""
"","","","","","html-keyboard-response","123","720575","0.0-2.0-4.0-0.35","5b1962c551d4eb0001bf968b","A3","batch1","spm_show_trial_num","null","<p class=block-text>Trial 60 out of 60</p>","null","","","","","","","","","","","","","","","","","","","","","","","","","",""
"","","","","","image-button-response","124","738940","0.0-2.0-4.0-1.35","5b1962c551d4eb0001bf968b","A3","batch1","spm_respsonse","18362.30000000447","img/question_5_12.jpeg","4","mat_60","5","1","1","18362.30000000447","","","","","","","","","","","","","","","","","","","","",""
"","","","","","html-button-response","125","741261","0.0-2.0-5.0","5b1962c551d4eb0001bf968b","A3","batch1","spm_goodbye","2063.7999999970198","<p class= block-text>This concludes the Standard Progressive Matrix game. Thank you for your responses!<br> When you are ready, click the button continue</p>","0","","","","","","","","","","","","","","","","","","","","","","","","","",""
"true","","","","","fullscreen","126","744179","0.0-3.0-0.0","5b1962c551d4eb0001bf968b","A3","batch1","","","","","","","","","","","","","","","","","","","","","","","","","","","","","",""
"","","","","","instructions","127","778720","0.0-3.0-1.0-0.0-0.0","5b1962c551d4eb0001bf968b","A3","batch1","tol-instructions","34539.29999999702","","","","","","","","[{""page_index"":0,""viewing_time"":6201.89999999851},{""page_index"":1,""viewing_time"":4071.7999999970198},{""page_index"":2,""viewing_time"":5077},{""page_index"":3,""viewing_time"":5853.5},{""page_index"":4,""viewing_time"":2621.8000000044703},{""page_index"":5,""viewing_time"":8400.29999999702},{""page_index"":6,""viewing_time"":2312.5}]","","","","","","","","","","","","","","","","","","","",""
"","","","","","html-button-response","128","779720","0.0-3.0-1.0-1.0-0.0","5b1962c551d4eb0001bf968b","A3","batch1","tol_enter_quiz","998.3999999985099","<p class=block-text> Let's answer a few questions <br>","0","","","","","","","","","","","","","","","","","","","","","","","","","",""
"","","","","","html-button-response","129","782372","0.0-3.0-1.0-1.0-1.0","5b1962c551d4eb0001bf968b","A3","batch1","tol_quiz","2650.10000000149","<p class = block-text>True or False: You can only move the ball on top of a peg. <br></p>","0","","","true","","","","","","","","","","","","","","","","","","","","","","",""
"","","","","","html-button-response","130","783233","0.0-3.0-1.0-1.0-2.0","5b1962c551d4eb0001bf968b","A3","batch1","tol_quiz_feedback","859.8999999985099","<p class = block-text>Correct! You can only move the ball on top of a peg.</p>","0","","","","","","","","","","","","","","","","","","","","","","","","","",""
"","","","","","html-button-response","131","785551","0.0-3.0-1.0-1.0-3.0","5b1962c551d4eb0001bf968b","A3","batch1","tol_quiz","2316.3000000044703","<p class = block-text>True or False: You should try to match your board with the target board with fewest moves possible. <br></p>","0","","","true","","","","","","","","","","","","","","","","","","","","","","",""
"","","","","","html-button-response","132","786285","0.0-3.0-1.0-1.0-4.0","5b1962c551d4eb0001bf968b","A3","batch1","tol_quiz_feedback","732.6000000014901","<p class = block-text>Correct! </p>","0","","","","","","","","","","","","","","","","","","","","","","","","","",""
"","","","","","html-button-response","133","787926","0.0-3.0-2.0","5b1962c551d4eb0001bf968b","A3","batch1","","1638.8999999985099","<p class=block-text> Now that you've understood the game, let's practice a few easier examples before we start!<br> <br>","0","","","","","","","","","","","","","","","","","","","","","","","","","",""
"","","","","","single-stim-button","134","789722","0.0-3.0-3.0-0.0","5b1962c551d4eb0001bf968b","A3","batch1","tol_practice","1794","","","","","","","","","tol_peg_2","1794","1794","0","[[1,2,0],[0,0],[0]]","1","[[1,2,0],[0,0],[3]]","practice","1794","","","","","","","","","","",""
"","","","","","single-stim-button","135","790838","0.0-3.0-3.0-1.0","5b1962c551d4eb0001bf968b","A3","batch1","tol_practice","1115","","","","","","","","","tol_peg_3","1115","1115","0","[[1,2,0],[0,0],[3]]","1","[[1,2,0],[0,0],[3]]","practice","1115","","","","","","","","","","",""
"","","","","","poldrack-single-stim","136","791843","0.0-3.0-4.0","5b1962c551d4eb0001bf968b","A3","batch1","tol_feedback","-1","","","","","true","","","","","1000","1000","500","","","","","","-1","none","true","","0","","","","","",""
"","","","","","single-stim-button","137","795442","0.0-3.0-5.0-0.0","5b1962c551d4eb0001bf968b","A3","batch1","tol_practice","3599","","","","","","","","","tol_peg_1","3599","3599","0","[[1,0,0],[3,0],[0]]","2","[[0,0,0],[3,1],[2]]","practice","3599","","","","","","","","","","",""
"","","","","","single-stim-button","138","797077","0.0-3.0-5.0-1.0","5b1962c551d4eb0001bf968b","A3","batch1","tol_practice","1633","","","","","","","","","tol_peg_3","1633","1633","0","[[1,0,0],[3,0],[2]]","2","[[0,0,0],[3,1],[2]]","practice","1633","","","","","","","","","","",""
"","","","","","single-stim-button","139","797939","0.0-3.0-5.1-0.1","5b1962c551d4eb0001bf968b","A3","batch1","tol_practice","861","","","","","","","","","tol_peg_1","861","861","0","[[0,0,0],[3,0],[2]]","3","[[0,0,0],[3,1],[2]]","practice","861","","","","","","","","","","",""
"","","","","","single-stim-button","140","798848","0.0-3.0-5.1-1.1","5b1962c551d4eb0001bf968b","A3","batch1","tol_practice","909","","","","","","","","","tol_peg_2","909","909","0","[[0,0,0],[3,1],[2]]","3","[[0,0,0],[3,1],[2]]","practice","909","","","","","","","","","","",""
"","","","","","poldrack-single-stim","141","799850","0.0-3.0-6.0","5b1962c551d4eb0001bf968b","A3","batch1","tol_feedback","-1","","","","","true","","","","","1000","1000","500","","","","","","-1","none","true","","0","","","","","",""
"","","","","","single-stim-button","142","802657","0.0-3.0-7.0-0.0","5b1962c551d4eb0001bf968b","A3","batch1","tol_practice","2805","","","","","","","","","tol_peg_2","2805","2805","0","[[1,2,0],[0,0],[0]]","4","[[1,0,0],[2,0],[3]]","practice","2805","","","","","","","","","","",""
"","","","","","single-stim-button","143","803365","0.0-3.0-7.0-1.0","5b1962c551d4eb0001bf968b","A3","batch1","tol_practice","708","","","","","","","","","tol_peg_3","708","708","0","[[1,2,0],[0,0],[3]]","4","[[1,0,0],[2,0],[3]]","practice","708","","","","","","","","","","",""
"","","","","","single-stim-button","144","804195","0.0-3.0-7.1-0.1","5b1962c551d4eb0001bf968b","A3","batch1","tol_practice","829","","","","","","","","","tol_peg_1","829","829","0","[[1,0,0],[0,0],[3]]","5","[[1,0,0],[2,0],[3]]","practice","829","","","","","","","","","","",""
"","","","","","single-stim-button","145","804943","0.0-3.0-7.1-1.1","5b1962c551d4eb0001bf968b","A3","batch1","tol_practice","746","","","","","","","","","tol_peg_2","746","746","0","[[1,0,0],[2,0],[3]]","5","[[1,0,0],[2,0],[3]]","practice","746","","","","","","","","","","",""
"","","","","","poldrack-single-stim","146","805946","0.0-3.0-8.0","5b1962c551d4eb0001bf968b","A3","batch1","tol_feedback","-1","","","","","true","","","","","1000","1000","500","","","","","","-1","none","true","","0","","","","","",""
"","","","","","html-button-response","147","808797","0.0-3.0-9.0","5b1962c551d4eb0001bf968b","A3","batch1","tol_instruction","2850.10000000149","<div class = centerbox><p class = center-block-text>Great job! You are done with practice trials<br>You are about to start official trials.<br> <br> Problem <strong>1</strong> out of 25 problems</p></div>","0","","","","","","","","","","","","","","","","","","","","","","","","","",""
"","","","","","single-stim-button","148","814950","0.0-3.0-10.0-0.0","5b1962c551d4eb0001bf968b","A3","batch1","tol_tohand","5151","","","","","","","","","tol_peg_1","5151","5151","0","[[1,0,0],[3,0],[0]]","1","[[1,3,0],[2,0],[0]]","0","0","","","","","","3","","","","",""
"","","","","","single-stim-button","149","817155","0.0-3.0-10.0-1.0","5b1962c551d4eb0001bf968b","A3","batch1","tol_toboard","2204","","","","","","","","","tol_peg_3","2204","2204","0","[[1,0,0],[3,0],[2]]","1","[[1,3,0],[2,0],[0]]","0","0","","","","","","3","","","","",""
"","","","","","single-stim-button","150","817879","0.0-3.0-10.1-0.1","5b1962c551d4eb0001bf968b","A3","batch1","tol_tohand","723","","","","","","","","","tol_peg_2","723","723","0","[[1,0,0],[0,0],[2]]","2","[[1,3,0],[2,0],[0]]","0","0","","","","","","3","","","","",""
"","","","","","single-stim-button","151","818523","0.0-3.0-10.1-1.1","5b1962c551d4eb0001bf968b","A3","batch1","tol_toboard","643","","","","","","","","","tol_peg_1","643","643","0","[[1,3,0],[0,0],[2]]","2","[[1,3,0],[2,0],[0]]","0","0","","","","","","3","","","","",""
"","","","","","single-stim-button","152","819263","0.0-3.0-10.2-0.2","5b1962c551d4eb0001bf968b","A3","batch1","tol_tohand","739","","","","","","","","","tol_peg_3","739","739","0","[[1,3,0],[0,0],[0]]","3","[[1,3,0],[2,0],[0]]","0","0","","","","","","3","","","","",""
"","","","","","single-stim-button","153","819920","0.0-3.0-10.2-1.2","5b1962c551d4eb0001bf968b","A3","batch1","tol_toboard","656","","","","","","","","","tol_peg_2","656","656","0","[[1,3,0],[2,0],[0]]","3","[[1,3,0],[2,0],[0]]","0","0","","","","","","3","","","","",""
"","","","","","poldrack-single-stim","154","820922","0.0-3.0-11.0","5b1962c551d4eb0001bf968b","A3","batch1","tol_feedback","-1","","","","","true","","","","","1000","1000","500","","","","","","-1","none","true","5151","6613","","","","","",""
"","","","","","html-button-response","155","822482","0.0-3.0-12.0","5b1962c551d4eb0001bf968b","A3","batch1","tol_trial_num","1558.3000000044703","<div class = centerbox><p class = center-block-text>problem <strong>2</strong> out of 25 problems</p></div>","0","","","","","","","","","","","","","","","","","","","","","","","","","",""
"","","","","","single-stim-button","156","832982","0.0-3.0-13.0-0.0","5b1962c551d4eb0001bf968b","A3","batch1","tol_tohand","10499","","","","","","","","","tol_peg_1","10499","10499","0","[[1,0,0],[3,0],[0]]","1","[[2,1,3],[0,0],[0]]","1","0","","","","","","5","","","","",""
"","","","","","single-stim-button","157","833970","0.0-3.0-13.0-1.0","5b1962c551d4eb0001bf968b","A3","batch1","tol_toboard","987","","","","","","","","","tol_peg_3","987","987","0","[[1,0,0],[3,0],[2]]","1","[[2,1,3],[0,0],[0]]","1","0","","","","","","5","","","","",""
"","","","","","single-stim-button","158","834926","0.0-3.0-13.1-0.1","5b1962c551d4eb0001bf968b","A3","batch1","tol_tohand","955","","","","","","","","","tol_peg_1","955","955","0","[[0,0,0],[3,0],[2]]","2","[[2,1,3],[0,0],[0]]","1","0","","","","","","5","","","","",""
"","","","","","single-stim-button","159","835788","0.0-3.0-13.1-1.1","5b1962c551d4eb0001bf968b","A3","batch1","tol_toboard","861","","","","","","","","","tol_peg_2","861","861","0","[[0,0,0],[3,1],[2]]","2","[[2,1,3],[0,0],[0]]","1","0","","","","","","5","","","","",""
"","","","","","single-stim-button","160","836465","0.0-3.0-13.2-0.2","5b1962c551d4eb0001bf968b","A3","batch1","tol_tohand","675","","","","","","","","","tol_peg_3","675","675","0","[[0,0,0],[3,1],[0]]","3","[[2,1,3],[0,0],[0]]","1","0","","","","","","5","","","","",""
"","","","","","single-stim-button","161","837494","0.0-3.0-13.2-1.2","5b1962c551d4eb0001bf968b","A3","batch1","tol_toboard","1029","","","","","","","","","tol_peg_1","1029","1029","0","[[2,0,0],[3,1],[0]]","3","[[2,1,3],[0,0],[0]]","1","0","","","","","","5","","","","",""
"","","","","","single-stim-button","162","838283","0.0-3.0-13.3-0.3","5b1962c551d4eb0001bf968b","A3","batch1","tol_tohand","787","","","","","","","","","tol_peg_2","787","787","0","[[2,0,0],[3,0],[0]]","4","[[2,1,3],[0,0],[0]]","1","0","","","","","","5","","","","",""
"","","","","","single-stim-button","163","839046","0.0-3.0-13.3-1.3","5b1962c551d4eb0001bf968b","A3","batch1","tol_toboard","763","","","","","","","","","tol_peg_1","763","763","0","[[2,1,0],[3,0],[0]]","4","[[2,1,3],[0,0],[0]]","1","0","","","","","","5","","","","",""
"","","","","","single-stim-button","164","839810","0.0-3.0-13.4-0.4","5b1962c551d4eb0001bf968b","A3","batch1","tol_tohand","763","","","","","","","","","tol_peg_2","763","763","0","[[2,1,0],[0,0],[0]]","5","[[2,1,3],[0,0],[0]]","1","0","","","","","","5","","","","",""
"","","","","","single-stim-button","165","840542","0.0-3.0-13.4-1.4","5b1962c551d4eb0001bf968b","A3","batch1","tol_toboard","731","","","","","","","","","tol_peg_1","731","731","0","[[2,1,3],[0,0],[0]]","5","[[2,1,3],[0,0],[0]]","1","0","","","","","","5","","","","",""
"","","","","","poldrack-single-stim","166","841545","0.0-3.0-14.0","5b1962c551d4eb0001bf968b","A3","batch1","tol_feedback","-1","","","","","true","","","","","1000","1000","500","","","","","","-1","none","true","10499","13679","","","","","",""
"","","","","","html-button-response","167","842528","0.0-3.0-15.0","5b1962c551d4eb0001bf968b","A3","batch1","tol_trial_num","981.6999999955297","<div class = centerbox><p class = center-block-text>problem <strong>3</strong> out of 25 problems</p></div>","0","","","","","","","","","","","","","","","","","","","","","","","","","",""
"","","","","","single-stim-button","168","849512","0.0-3.0-16.0-0.0","5b1962c551d4eb0001bf968b","A3","batch1","tol_tohand","6983","","","","","","","","","tol_peg_1","6983","6983","0","[[2,0,0],[0,0],[1]]","1","[[1,2,0],[3,0],[0]]","2","0","","","","","","4","","","","",""
"","","","","","single-stim-button","169","850336","0.0-3.0-16.0-1.0","5b1962c551d4eb0001bf968b","A3","batch1","tol_toboard","822","","","","","","","","","tol_peg_2","822","822","0","[[2,0,0],[3,0],[1]]","1","[[1,2,0],[3,0],[0]]","2","0","","","","","","4","","","","",""
"","","","","","single-stim-button","170","854668","0.0-3.0-16.1-0.1","5b1962c551d4eb0001bf968b","A3","batch1","tol_tohand","4332","","","","","","","","","tol_peg_1","4332","4332","0","[[0,0,0],[3,0],[1]]","2","[[1,2,0],[3,0],[0]]","2","0","","","","","","4","","","","",""
"","","","","","single-stim-button","171","855318","0.0-3.0-16.1-1.1","5b1962c551d4eb0001bf968b","A3","batch1","tol_toboard","649","","","","","","","","","tol_peg_2","649","649","0","[[0,0,0],[3,2],[1]]","2","[[1,2,0],[3,0],[0]]","2","0","","","","","","4","","","","",""
"","","","","","single-stim-button","172","855978","0.0-3.0-16.2-0.2","5b1962c551d4eb0001bf968b","A3","batch1","tol_tohand","658","","","","","","","","","tol_peg_3","658","658","0","[[0,0,0],[3,2],[0]]","3","[[1,2,0],[3,0],[0]]","2","0","","","","","","4","","","","",""
"","","","","","single-stim-button","173","856822","0.0-3.0-16.2-1.2","5b1962c551d4eb0001bf968b","A3","batch1","tol_toboard","843","","","","","","","","","tol_peg_1","843","843","0","[[1,0,0],[3,2],[0]]","3","[[1,2,0],[3,0],[0]]","2","0","","","","","","4","","","","",""
"","","","","","single-stim-button","174","857482","0.0-3.0-16.3-0.3","5b1962c551d4eb0001bf968b","A3","batch1","tol_tohand","659","","","","","","","","","tol_peg_2","659","659","0","[[1,0,0],[3,0],[0]]","4","[[1,2,0],[3,0],[0]]","2","0","","","","","","4","","","","",""
"","","","","","single-stim-button","175","858334","0.0-3.0-16.3-1.3","5b1962c551d4eb0001bf968b","A3","batch1","tol_toboard","852","","","","","","","","","tol_peg_1","852","852","0","[[1,2,0],[3,0],[0]]","4","[[1,2,0],[3,0],[0]]","2","0","","","","","","4","","","","",""
"","","","","","poldrack-single-stim","176","859337","0.0-3.0-17.0","5b1962c551d4eb0001bf968b","A3","batch1","tol_feedback","-1","","","","","true","","","","","1000","1000","500","","","","","","-1","none","true","6983","12632","","","","","",""
"","","","","","html-button-response","177","860130","0.0-3.0-18.0","5b1962c551d4eb0001bf968b","A3","batch1","tol_trial_num","790.8999999985099","<div class = centerbox><p class = center-block-text>problem <strong>4</strong> out of 25 problems</p></div>","0","","","","","","","","","","","","","","","","","","","","","","","","","",""
"","","","","","single-stim-button","178","864932","0.0-3.0-19.0-0.0","5b1962c551d4eb0001bf968b","A3","batch1","tol_tohand","4801","","","","","","","","","tol_peg_2","4801","4801","0","[[3,0,0],[2,0],[0]]","1","[[3,0,0],[1,0],[2]]","3","0","","","","","","3","","","","",""
"","","","","","single-stim-button","179","865716","0.0-3.0-19.0-1.0","5b1962c551d4eb0001bf968b","A3","batch1","tol_toboard","784","","","","","","","","","tol_peg_1","784","784","0","[[3,1,0],[2,0],[0]]","1","[[3,0,0],[1,0],[2]]","3","0","","","","","","3","","","","",""
"","","","","","single-stim-button","180","866335","0.0-3.0-19.1-0.1","5b1962c551d4eb0001bf968b","A3","batch1","tol_tohand","617","","","","","","","","","tol_peg_2","617","617","0","[[3,1,0],[0,0],[0]]","2","[[3,0,0],[1,0],[2]]","3","0","","","","","","3","","","","",""
"","","","","","single-stim-button","181","867091","0.0-3.0-19.1-1.1","5b1962c551d4eb0001bf968b","A3","batch1","tol_toboard","755","","","","","","","","","tol_peg_3","755","755","0","[[3,1,0],[0,0],[2]]","2","[[3,0,0],[1,0],[2]]","3","0","","","","","","3","","","","",""
"","","","","","single-stim-button","182","868127","0.0-3.0-19.2-0.2","5b1962c551d4eb0001bf968b","A3","batch1","tol_tohand","1036","","","","","","","","","tol_peg_1","1036","1036","0","[[3,0,0],[0,0],[2]]","3","[[3,0,0],[1,0],[2]]","3","0","","","","","","3","","","","",""
"","","","","","single-stim-button","183","868876","0.0-3.0-19.2-1.2","5b1962c551d4eb0001bf968b","A3","batch1","tol_toboard","748","","","","","","","","","tol_peg_2","748","748","0","[[3,0,0],[1,0],[2]]","3","[[3,0,0],[1,0],[2]]","3","0","","","","","","3","","","","",""
"","","","","","poldrack-single-stim","184","869880","0.0-3.0-20.0","5b1962c551d4eb0001bf968b","A3","batch1","tol_feedback","-1","","","","","true","","","","","1000","1000","500","","","","","","-1","none","true","4801","6454","","","","","",""
"","","","","","html-button-response","185","870896","0.0-3.0-21.0","5b1962c551d4eb0001bf968b","A3","batch1","tol_trial_num","1015.2999999970198","<div class = centerbox><p class = center-block-text>problem <strong>5</strong> out of 25 problems</p></div>","0","","","","","","","","","","","","","","","","","","","","","","","","","",""
"","","","","","single-stim-button","186","889859","0.0-3.0-22.0-0.0","5b1962c551d4eb0001bf968b","A3","batch1","tol_tohand","18962","","","","","","","","","tol_peg_1","18962","18962","0","[[0,0,0],[2,0],[3]]","1","[[0,0,0],[1,2],[3]]","4","0","","","","","","7","","","","",""
"","","","","","single-stim-button","187","890895","0.0-3.0-22.0-1.0","5b1962c551d4eb0001bf968b","A3","batch1","tol_toboard","1035","","","","","","","","","tol_peg_2","1035","1035","0","[[0,0,0],[2,1],[3]]","1","[[0,0,0],[1,2],[3]]","4","0","","","","","","7","","","","",""
"","","","","","single-stim-button","188","891441","0.0-3.0-22.1-0.1","5b1962c551d4eb0001bf968b","A3","batch1","tol_tohand","545","","","","","","","","","tol_peg_3","545","545","0","[[0,0,0],[2,1],[0]]","2","[[0,0,0],[1,2],[3]]","4","0","","","","","","7","","","","",""
"","","","","","single-stim-button","189","892246","0.0-3.0-22.1-1.1","5b1962c551d4eb0001bf968b","A3","batch1","tol_toboard","803","","","","","","","","","tol_peg_1","803","803","0","[[3,0,0],[2,1],[0]]","2","[[0,0,0],[1,2],[3]]","4","0","","","","","","7","","","","",""
"","","","","","single-stim-button","190","892872","0.0-3.0-22.2-0.2","5b1962c551d4eb0001bf968b","A3","batch1","tol_tohand","625","","","","","","","","","tol_peg_2","625","625","0","[[3,0,0],[2,0],[0]]","3","[[0,0,0],[1,2],[3]]","4","0","","","","","","7","","","","",""
"","","","","","single-stim-button","191","893553","0.0-3.0-22.2-1.2","5b1962c551d4eb0001bf968b","A3","batch1","tol_toboard","680","","","","","","","","","tol_peg_3","680","680","0","[[3,0,0],[2,0],[1]]","3","[[0,0,0],[1,2],[3]]","4","0","","","","","","7","","","","",""
"","","","","","single-stim-button","192","894166","0.0-3.0-22.3-0.3","5b1962c551d4eb0001bf968b","A3","batch1","tol_tohand","612","","","","","","","","","tol_peg_2","612","612","0","[[3,0,0],[0,0],[1]]","4","[[0,0,0],[1,2],[3]]","4","0","","","","","","7","","","","",""
"","","","","","single-stim-button","193","895106","0.0-3.0-22.3-1.3","5b1962c551d4eb0001bf968b","A3","batch1","tol_toboard","939","","","","","","","","","tol_peg_1","939","939","0","[[3,2,0],[0,0],[1]]","4","[[0,0,0],[1,2],[3]]","4","0","","","","","","7","","","","",""
"","","","","","single-stim-button","194","895884","0.0-3.0-22.4-0.4","5b1962c551d4eb0001bf968b","A3","batch1","tol_tohand","777","","","","","","","","","tol_peg_3","777","777","0","[[3,2,0],[0,0],[0]]","5","[[0,0,0],[1,2],[3]]","4","0","","","","","","7","","","","",""
"","","","","","single-stim-button","195","896520","0.0-3.0-22.4-1.4","5b1962c551d4eb0001bf968b","A3","batch1","tol_toboard","636","","","","","","","","","tol_peg_2","636","636","0","[[3,2,0],[1,0],[0]]","5","[[0,0,0],[1,2],[3]]","4","0","","","","","","7","","","","",""
"","","","","","single-stim-button","196","897218","0.0-3.0-22.5-0.5","5b1962c551d4eb0001bf968b","A3","batch1","tol_tohand","696","","","","","","","","","tol_peg_1","696","696","0","[[3,0,0],[1,0],[0]]","6","[[0,0,0],[1,2],[3]]","4","0","","","","","","7","","","","",""
"","","","","","single-stim-button","197","897997","0.0-3.0-22.5-1.5","5b1962c551d4eb0001bf968b","A3","batch1","tol_toboard","779","","","","","","","","","tol_peg_2","779","779","0","[[3,0,0],[1,2],[0]]","6","[[0,0,0],[1,2],[3]]","4","0","","","","","","7","","","","",""
"","","","","","single-stim-button","198","898704","0.0-3.0-22.6-0.6","5b1962c551d4eb0001bf968b","A3","batch1","tol_tohand","705","","","","","","","","","tol_peg_1","705","705","0","[[0,0,0],[1,2],[0]]","7","[[0,0,0],[1,2],[3]]","4","0","","","","","","7","","","","",""
"","","","","","single-stim-button","199","899556","0.0-3.0-22.6-1.6","5b1962c551d4eb0001bf968b","A3","batch1","tol_toboard","851","","","","","","","","","tol_peg_3","851","851","0","[[0,0,0],[1,2],[3]]","7","[[0,0,0],[1,2],[3]]","4","0","","","","","","7","","","","",""
"","","","","","poldrack-single-stim","200","900558","0.0-3.0-23.0","5b1962c551d4eb0001bf968b","A3","batch1","tol_feedback","-1","","","","","true","","","","","1000","1000","500","","","","","","-1","none","true","18962","22922","","","","","",""
"","","","","","html-button-response","201","901501","0.0-3.0-24.0","5b1962c551d4eb0001bf968b","A3","batch1","tol_trial_num","941.6999999955297","<div class = centerbox><p class = center-block-text>problem <strong>6</strong> out of 25 problems</p></div>","0","","","","","","","","","","","","","","","","","","","","","","","","","",""
"","","","","","single-stim-button","202","918197","0.0-3.0-25.0-0.0","5b1962c551d4eb0001bf968b","A3","batch1","tol_tohand","16694","","","","","","","","","tol_peg_3","16694","16694","0","[[0,0,0],[1,2],[0]]","1","[[1,0,0],[2,3],[0]]","5","0","","","","","","6","","","","",""
"","","","","","single-stim-button","203","919225","0.0-3.0-25.0-1.0","5b1962c551d4eb0001bf968b","A3","batch1","tol_toboard","1027","","","","","","","","","tol_peg_1","1027","1027","0","[[3,0,0],[1,2],[0]]","1","[[1,0,0],[2,3],[0]]","5","0","","","","","","6","","","","",""
"","","","","","single-stim-button","204","920268","0.0-3.0-25.1-0.1","5b1962c551d4eb0001bf968b","A3","batch1","tol_tohand","1042","","","","","","","","","tol_peg_2","1042","1042","0","[[3,0,0],[1,0],[0]]","2","[[1,0,0],[2,3],[0]]","5","0","","","","","","6","","","","",""
"","","","","","single-stim-button","205","921023","0.0-3.0-25.1-1.1","5b1962c551d4eb0001bf968b","A3","batch1","tol_toboard","754","","","","","","","","","tol_peg_3","754","754","0","[[3,0,0],[1,0],[2]]","2","[[1,0,0],[2,3],[0]]","5","0","","","","","","6","","","","",""
"","","","","","single-stim-button","206","921841","0.0-3.0-25.2-0.2","5b1962c551d4eb0001bf968b","A3","batch1","tol_tohand","818","","","","","","","","","tol_peg_2","818","818","0","[[3,0,0],[0,0],[2]]","3","[[1,0,0],[2,3],[0]]","5","0","","","","","","6","","","","",""
"","","","","","single-stim-button","207","922661","0.0-3.0-25.2-1.2","5b1962c551d4eb0001bf968b","A3","batch1","tol_toboard","819","","","","","","","","","tol_peg_1","819","819","0","[[3,1,0],[0,0],[2]]","3","[[1,0,0],[2,3],[0]]","5","0","","","","","","6","","","","",""
"","","","","","single-stim-button","208","923273","0.0-3.0-25.3-0.3","5b1962c551d4eb0001bf968b","A3","batch1","tol_tohand","611","","","","","","","","","tol_peg_3","611","611","0","[[3,1,0],[0,0],[0]]","4","[[1,0,0],[2,3],[0]]","5","0","","","","","","6","","","","",""
"","","","","","single-stim-button","209","923963","0.0-3.0-25.3-1.3","5b1962c551d4eb0001bf968b","A3","batch1","tol_toboard","688","","","","","","","","","tol_peg_2","688","688","0","[[3,1,0],[2,0],[0]]","4","[[1,0,0],[2,3],[0]]","5","0","","","","","","6","","","","",""
"","","","","","single-stim-button","210","924557","0.0-3.0-25.4-0.4","5b1962c551d4eb0001bf968b","A3","batch1","tol_tohand","594","","","","","","","","","tol_peg_1","594","594","0","[[3,0,0],[2,0],[0]]","5","[[1,0,0],[2,3],[0]]","5","0","","","","","","6","","","","",""
"","","","","","single-stim-button","211","925353","0.0-3.0-25.4-1.4","5b1962c551d4eb0001bf968b","A3","batch1","tol_toboard","795","","","","","","","","","tol_peg_3","795","795","0","[[3,0,0],[2,0],[1]]","5","[[1,0,0],[2,3],[0]]","5","0","","","","","","6","","","","",""
"","","","","","single-stim-button","212","926018","0.0-3.0-25.5-0.5","5b1962c551d4eb0001bf968b","A3","batch1","tol_tohand","663","","","","","","","","","tol_peg_1","663","663","0","[[0,0,0],[2,0],[1]]","6","[[1,0,0],[2,3],[0]]","5","0","","","","","","6","","","","",""
"","","","","","single-stim-button","213","926821","0.0-3.0-25.5-1.5","5b1962c551d4eb0001bf968b","A3","batch1","tol_toboard","802","","","","","","","","","tol_peg_2","802","802","0","[[0,0,0],[2,3],[1]]","6","[[1,0,0],[2,3],[0]]","5","0","","","","","","6","","","","",""
"","","","","","single-stim-button","214","927382","0.0-3.0-25.6-0.6","5b1962c551d4eb0001bf968b","A3","batch1","tol_tohand","559","","","","","","","","","tol_peg_3","559","559","0","[[0,0,0],[2,3],[0]]","7","[[1,0,0],[2,3],[0]]","5","0","","","","","","6","","","","",""
"","","","","","single-stim-button","215","928073","0.0-3.0-25.6-1.6","5b1962c551d4eb0001bf968b","A3","batch1","tol_toboard","691","","","","","","","","","tol_peg_1","691","691","0","[[1,0,0],[2,3],[0]]","7","[[1,0,0],[2,3],[0]]","5","0","","","","","","6","","","","",""
"","","","","","poldrack-single-stim","216","929075","0.0-3.0-26.0","5b1962c551d4eb0001bf968b","A3","batch1","tol_feedback","-1","","","","","true","","","","","1000","1000","500","","","","","","-1","none","true","16694","20981","","","","","",""
"","","","","","html-button-response","217","930026","0.0-3.0-27.0","5b1962c551d4eb0001bf968b","A3","batch1","tol_trial_num","949.1000000014901","<div class = centerbox><p class = center-block-text>problem <strong>7</strong> out of 25 problems</p></div>","0","","","","","","","","","","","","","","","","","","","","","","","","","",""
"","","","","","single-stim-button","218","942407","0.0-3.0-28.0-0.0","5b1962c551d4eb0001bf968b","A3","batch1","tol_tohand","12380","","","","","","","","","tol_peg_3","12380","12380","0","[[2,1,0],[0,0],[0]]","1","[[1,2,0],[3,0],[0]]","6","0","","","","","","5","","","","",""
"","","","","","single-stim-button","219","943245","0.0-3.0-28.0-1.0","5b1962c551d4eb0001bf968b","A3","batch1","tol_toboard","837","","","","","","","","","tol_peg_2","837","837","0","[[2,1,0],[3,0],[0]]","1","[[1,2,0],[3,0],[0]]","6","0","","","","","","5","","","","",""
"","","","","","single-stim-button","220","944265","0.0-3.0-28.1-0.1","5b1962c551d4eb0001bf968b","A3","batch1","tol_tohand","1019","","","","","","","","","tol_peg_1","1019","1019","0","[[2,0,0],[3,0],[0]]","2","[[1,2,0],[3,0],[0]]","6","0","","","","","","5","","","","",""
"","","","","","single-stim-button","221","945351","0.0-3.0-28.1-1.1","5b1962c551d4eb0001bf968b","A3","batch1","tol_toboard","1085","","","","","","","","","tol_peg_3","1085","1085","0","[[2,0,0],[3,0],[1]]","2","[[1,2,0],[3,0],[0]]","6","0","","","","","","5","","","","",""
"","","","","","single-stim-button","222","945971","0.0-3.0-28.2-0.2","5b1962c551d4eb0001bf968b","A3","batch1","tol_tohand","619","","","","","","","","","tol_peg_1","619","619","0","[[0,0,0],[3,0],[1]]","3","[[1,2,0],[3,0],[0]]","6","0","","","","","","5","","","","",""
"","","","","","single-stim-button","223","946767","0.0-3.0-28.2-1.2","5b1962c551d4eb0001bf968b","A3","batch1","tol_toboard","795","","","","","","","","","tol_peg_2","795","795","0","[[0,0,0],[3,2],[1]]","3","[[1,2,0],[3,0],[0]]","6","0","","","","","","5","","","","",""
"","","","","","single-stim-button","224","947523","0.0-3.0-28.3-0.3","5b1962c551d4eb0001bf968b","A3","batch1","tol_tohand","755","","","","","","","","","tol_peg_3","755","755","0","[[0,0,0],[3,2],[0]]","4","[[1,2,0],[3,0],[0]]","6","0","","","","","","5","","","","",""
"","","","","","single-stim-button","225","948241","0.0-3.0-28.3-1.3","5b1962c551d4eb0001bf968b","A3","batch1","tol_toboard","717","","","","","","","","","tol_peg_1","717","717","0","[[1,0,0],[3,2],[0]]","4","[[1,2,0],[3,0],[0]]","6","0","","","","","","5","","","","",""
"","","","","","single-stim-button","226","948922","0.0-3.0-28.4-0.4","5b1962c551d4eb0001bf968b","A3","batch1","tol_tohand","680","","","","","","","","","tol_peg_2","680","680","0","[[1,0,0],[3,0],[0]]","5","[[1,2,0],[3,0],[0]]","6","0","","","","","","5","","","","",""
"","","","","","single-stim-button","227","949665","0.0-3.0-28.4-1.4","5b1962c551d4eb0001bf968b","A3","batch1","tol_toboard","741","","","","","","","","","tol_peg_1","741","741","0","[[1,2,0],[3,0],[0]]","5","[[1,2,0],[3,0],[0]]","6","0","","","","","","5","","","","",""
"","","","","","poldrack-single-stim","228","950666","0.0-3.0-29.0","5b1962c551d4eb0001bf968b","A3","batch1","tol_feedback","-1","","","","","true","","","","","1000","1000","500","","","","","","-1","none","true","12380","15453","","","","","",""
"","","","","","html-button-response","229","951837","0.0-3.0-30.0","5b1962c551d4eb0001bf968b","A3","batch1","tol_trial_num","1169.2999999970198","<div class = centerbox><p class = center-block-text>problem <strong>8</strong> out of 25 problems</p></div>","0","","","","","","","","","","","","","","","","","","","","","","","","","",""
"","","","","","single-stim-button","230","956607","0.0-3.0-31.0-0.0","5b1962c551d4eb0001bf968b","A3","batch1","tol_tohand","4769","","","","","","","","","tol_peg_3","4769","4769","0","[[0,0,0],[2,3],[0]]","1","[[1,2,0],[3,0],[0]]","7","0","","","","","","4","","","","",""
"","","","","","single-stim-button","231","957467","0.0-3.0-31.0-1.0","5b1962c551d4eb0001bf968b","A3","batch1","tol_toboard","859","","","","","","","","","tol_peg_1","859","859","0","[[1,0,0],[2,3],[0]]","1","[[1,2,0],[3,0],[0]]","7","0","","","","","","4","","","","",""
"","","","","","single-stim-button","232","958120","0.0-3.0-31.1-0.1","5b1962c551d4eb0001bf968b","A3","batch1","tol_tohand","651","","","","","","","","","tol_peg_2","651","651","0","[[1,0,0],[2,0],[0]]","2","[[1,2,0],[3,0],[0]]","7","0","","","","","","4","","","","",""
"","","","","","single-stim-button","233","958971","0.0-3.0-31.1-1.1","5b1962c551d4eb0001bf968b","A3","batch1","tol_toboard","850","","","","","","","","","tol_peg_3","850","850","0","[[1,0,0],[2,0],[3]]","2","[[1,2,0],[3,0],[0]]","7","0","","","","","","4","","","","",""
"","","","","","single-stim-button","234","959542","0.0-3.0-31.2-0.2","5b1962c551d4eb0001bf968b","A3","batch1","tol_tohand","571","","","","","","","","","tol_peg_2","571","571","0","[[1,0,0],[0,0],[3]]","3","[[1,2,0],[3,0],[0]]","7","0","","","","","","4","","","","",""
"","","","","","single-stim-button","235","960143","0.0-3.0-31.2-1.2","5b1962c551d4eb0001bf968b","A3","batch1","tol_toboard","600","","","","","","","","","tol_peg_1","600","600","0","[[1,2,0],[0,0],[3]]","3","[[1,2,0],[3,0],[0]]","7","0","","","","","","4","","","","",""
"","","","","","single-stim-button","236","960876","0.0-3.0-31.3-0.3","5b1962c551d4eb0001bf968b","A3","batch1","tol_tohand","732","","","","","","","","","tol_peg_3","732","732","0","[[1,2,0],[0,0],[0]]","4","[[1,2,0],[3,0],[0]]","7","0","","","","","","4","","","","",""
"","","","","","single-stim-button","237","961512","0.0-3.0-31.3-1.3","5b1962c551d4eb0001bf968b","A3","batch1","tol_toboard","635","","","","","","","","","tol_peg_2","635","635","0","[[1,2,0],[3,0],[0]]","4","[[1,2,0],[3,0],[0]]","7","0","","","","","","4","","","","",""
"","","","","","poldrack-single-stim","238","962514","0.0-3.0-32.0","5b1962c551d4eb0001bf968b","A3","batch1","tol_feedback","-1","","","","","true","","","","","1000","1000","500","","","","","","-1","none","true","4769","6723","","","","","",""
"","","","","","html-button-response","239","963383","0.0-3.0-33.0","5b1962c551d4eb0001bf968b","A3","batch1","tol_trial_num","867.8000000044703","<div class = centerbox><p class = center-block-text>problem <strong>9</strong> out of 25 problems</p></div>","0","","","","","","","","","","","","","","","","","","","","","","","","","",""
"","","","","","single-stim-button","240","982690","0.0-3.0-34.0-0.0","5b1962c551d4eb0001bf968b","A3","batch1","tol_tohand","19306","","","","","","","","","tol_peg_3","19306","19306","0","[[3,2,0],[0,0],[0]]","1","[[2,1,0],[3,0],[0]]","8","0","","","","","","6","","","","",""
"","","","","","single-stim-button","241","983487","0.0-3.0-34.0-1.0","5b1962c551d4eb0001bf968b","A3","batch1","tol_toboard","795","","","","","","","","","tol_peg_2","795","795","0","[[3,2,0],[1,0],[0]]","1","[[2,1,0],[3,0],[0]]","8","0","","","","","","6","","","","",""
"","","","","","single-stim-button","242","984145","0.0-3.0-34.1-0.1","5b1962c551d4eb0001bf968b","A3","batch1","tol_tohand","656","","","","","","","","","tol_peg_1","656","656","0","[[3,0,0],[1,0],[0]]","2","[[2,1,0],[3,0],[0]]","8","0","","","","","","6","","","","",""
"","","","","","single-stim-button","243","984941","0.0-3.0-34.1-1.1","5b1962c551d4eb0001bf968b","A3","batch1","tol_toboard","796","","","","","","","","","tol_peg_3","796","796","0","[[3,0,0],[1,0],[2]]","2","[[2,1,0],[3,0],[0]]","8","0","","","","","","6","","","","",""
"","","","","","single-stim-button","244","985615","0.0-3.0-34.2-0.2","5b1962c551d4eb0001bf968b","A3","batch1","tol_tohand","673","","","","","","","","","tol_peg_1","673","673","0","[[0,0,0],[1,0],[2]]","3","[[2,1,0],[3,0],[0]]","8","0","","","","","","6","","","","",""
"","","","","","single-stim-button","245","986413","0.0-3.0-34.2-1.2","5b1962c551d4eb0001bf968b","A3","batch1","tol_toboard","797","","","","","","","","","tol_peg_2","797","797","0","[[0,0,0],[1,3],[2]]","3","[[2,1,0],[3,0],[0]]","8","0","","","","","","6","","","","",""
"","","","","","single-stim-button","246","987031","0.0-3.0-34.3-0.3","5b1962c551d4eb0001bf968b","A3","batch1","tol_tohand","617","","","","","","","","","tol_peg_3","617","617","0","[[0,0,0],[1,3],[0]]","4","[[2,1,0],[3,0],[0]]","8","0","","","","","","6","","","","",""
"","","","","","single-stim-button","247","987966","0.0-3.0-34.3-1.3","5b1962c551d4eb0001bf968b","A3","batch1","tol_toboard","933","","","","","","","","","tol_peg_1","933","933","0","[[2,0,0],[1,3],[0]]","4","[[2,1,0],[3,0],[0]]","8","0","","","","","","6","","","","",""
"","","","","","single-stim-button","248","988609","0.0-3.0-34.4-0.4","5b1962c551d4eb0001bf968b","A3","batch1","tol_tohand","643","","","","","","","","","tol_peg_2","643","643","0","[[2,0,0],[1,0],[0]]","5","[[2,1,0],[3,0],[0]]","8","0","","","","","","6","","","","",""
"","","","","","single-stim-button","249","989204","0.0-3.0-34.4-1.4","5b1962c551d4eb0001bf968b","A3","batch1","tol_toboard","594","","","","","","","","","tol_peg_3","594","594","0","[[2,0,0],[1,0],[3]]","5","[[2,1,0],[3,0],[0]]","8","0","","","","","","6","","","","",""
"","","","","","single-stim-button","250","989807","0.0-3.0-34.5-0.5","5b1962c551d4eb0001bf968b","A3","batch1","tol_tohand","603","","","","","","","","","tol_peg_2","603","603","0","[[2,0,0],[0,0],[3]]","6","[[2,1,0],[3,0],[0]]","8","0","","","","","","6","","","","",""
"","","","","","single-stim-button","251","990491","0.0-3.0-34.5-1.5","5b1962c551d4eb0001bf968b","A3","batch1","tol_toboard","683","","","","","","","","","tol_peg_1","683","683","0","[[2,1,0],[0,0],[3]]","6","[[2,1,0],[3,0],[0]]","8","0","","","","","","6","","","","",""
"","","","","","single-stim-button","252","991167","0.0-3.0-34.6-0.6","5b1962c551d4eb0001bf968b","A3","batch1","tol_tohand","675","","","","","","","","","tol_peg_3","675","675","0","[[2,1,0],[0,0],[0]]","7","[[2,1,0],[3,0],[0]]","8","0","","","","","","6","","","","",""
"","","","","","single-stim-button","253","991801","0.0-3.0-34.6-1.6","5b1962c551d4eb0001bf968b","A3","batch1","tol_toboard","634","","","","","","","","","tol_peg_2","634","634","0","[[2,1,0],[3,0],[0]]","7","[[2,1,0],[3,0],[0]]","8","0","","","","","","6","","","","",""
"","","","","","poldrack-single-stim","254","992803","0.0-3.0-35.0","5b1962c551d4eb0001bf968b","A3","batch1","tol_feedback","-1","","","","","true","","","","","1000","1000","500","","","","","","-1","none","true","19306","23173","","","","","",""
"","","","","","html-button-response","255","993915","0.0-3.0-36.0","5b1962c551d4eb0001bf968b","A3","batch1","tol_trial_num","1110.5","<div class = centerbox><p class = center-block-text>problem <strong>10</strong> out of 25 problems</p></div>","0","","","","","","","","","","","","","","","","","","","","","","","","","",""
"","","","","","single-stim-button","256","997558","0.0-3.0-37.0-0.0","5b1962c551d4eb0001bf968b","A3","batch1","tol_tohand","3642","","","","","","","","","tol_peg_2","3642","3642","0","[[3,0,0],[0,0],[2]]","1","[[3,0,0],[2,1],[0]]","9","0","","","","","","3","","","","",""
"","","","","","single-stim-button","257","998210","0.0-3.0-37.0-1.0","5b1962c551d4eb0001bf968b","A3","batch1","tol_toboard","650","","","","","","","","","tol_peg_1","650","650","0","[[3,1,0],[0,0],[2]]","1","[[3,0,0],[2,1],[0]]","9","0","","","","","","3","","","","",""
"","","","","","single-stim-button","258","998852","0.0-3.0-37.1-0.1","5b1962c551d4eb0001bf968b","A3","batch1","tol_tohand","642","","","","","","","","","tol_peg_3","642","642","0","[[3,1,0],[0,0],[0]]","2","[[3,0,0],[2,1],[0]]","9","0","","","","","","3","","","","",""
"","","","","","single-stim-button","259","999762","0.0-3.0-37.1-1.1","5b1962c551d4eb0001bf968b","A3","batch1","tol_toboard","908","","","","","","","","","tol_peg_2","908","908","0","[[3,1,0],[2,0],[0]]","2","[[3,0,0],[2,1],[0]]","9","0","","","","","","3","","","","",""
"","","","","","single-stim-button","260","1000372","0.0-3.0-37.2-0.2","5b1962c551d4eb0001bf968b","A3","batch1","tol_tohand","609","","","","","","","","","tol_peg_1","609","609","0","[[3,0,0],[2,0],[0]]","3","[[3,0,0],[2,1],[0]]","9","0","","","","","","3","","","","",""
"","","","","","single-stim-button","261","1001111","0.0-3.0-37.2-1.2","5b1962c551d4eb0001bf968b","A3","batch1","tol_toboard","739","","","","","","","","","tol_peg_2","739","739","0","[[3,0,0],[2,1],[0]]","3","[[3,0,0],[2,1],[0]]","9","0","","","","","","3","","","","",""
"","","","","","poldrack-single-stim","262","1002115","0.0-3.0-38.0","5b1962c551d4eb0001bf968b","A3","batch1","tol_feedback","-1","","","","","true","","","","","1000","1000","500","","","","","","-1","none","true","3642","4893","","","","","",""
"","","","","","html-button-response","263","1003041","0.0-3.0-39.0","5b1962c551d4eb0001bf968b","A3","batch1","tol_trial_num","924.3999999985099","<div class = centerbox><p class = center-block-text>problem <strong>11</strong> out of 25 problems</p></div>","0","","","","","","","","","","","","","","","","","","","","","","","","","",""
"","","","","","single-stim-button","264","1010980","0.0-3.0-40.0-0.0","5b1962c551d4eb0001bf968b","A3","batch1","tol_tohand","7939","","","","","","","","","tol_peg_1","7939","7939","0","[[1,0,0],[3,0],[0]]","1","[[2,0,0],[1,3],[0]]","10","0","","","","","","6","","","","",""
"","","","","","single-stim-button","265","1011573","0.0-3.0-40.0-1.0","5b1962c551d4eb0001bf968b","A3","batch1","tol_toboard","591","","","","","","","","","tol_peg_2","591","591","0","[[1,0,0],[3,2],[0]]","1","[[2,0,0],[1,3],[0]]","10","0","","","","","","6","","","","",""
"","","","","","single-stim-button","266","1012331","0.0-3.0-40.1-0.1","5b1962c551d4eb0001bf968b","A3","batch1","tol_tohand","757","","","","","","","","","tol_peg_1","757","757","0","[[0,0,0],[3,2],[0]]","2","[[2,0,0],[1,3],[0]]","10","0","","","","","","6","","","","",""
"","","","","","single-stim-button","267","1013389","0.0-3.0-40.1-1.1","5b1962c551d4eb0001bf968b","A3","batch1","tol_toboard","1057","","","","","","","","","tol_peg_3","1057","1057","0","[[0,0,0],[3,2],[1]]","2","[[2,0,0],[1,3],[0]]","10","0","","","","","","6","","","","",""
"","","","","","single-stim-button","268","1014168","0.0-3.0-40.2-0.2","5b1962c551d4eb0001bf968b","A3","batch1","tol_tohand","779","","","","","","","","","tol_peg_2","779","779","0","[[0,0,0],[3,0],[1]]","3","[[2,0,0],[1,3],[0]]","10","0","","","","","","6","","","","",""
"","","","","","single-stim-button","269","1014987","0.0-3.0-40.2-1.2","5b1962c551d4eb0001bf968b","A3","batch1","tol_toboard","817","","","","","","","","","tol_peg_1","817","817","0","[[2,0,0],[3,0],[1]]","3","[[2,0,0],[1,3],[0]]","10","0","","","","","","6","","","","",""
"","","","","","single-stim-button","270","1015596","0.0-3.0-40.3-0.3","5b1962c551d4eb0001bf968b","A3","batch1","tol_tohand","609","","","","","","","","","tol_peg_2","609","609","0","[[2,0,0],[0,0],[1]]","4","[[2,0,0],[1,3],[0]]","10","0","","","","","","6","","","","",""
"","","","","","single-stim-button","271","1016215","0.0-3.0-40.3-1.3","5b1962c551d4eb0001bf968b","A3","batch1","tol_toboard","617","","","","","","","","","tol_peg_1","617","617","0","[[2,3,0],[0,0],[1]]","4","[[2,0,0],[1,3],[0]]","10","0","","","","","","6","","","","",""
"","","","","","single-stim-button","272","1016967","0.0-3.0-40.4-0.4","5b1962c551d4eb0001bf968b","A3","batch1","tol_tohand","751","","","","","","","","","tol_peg_3","751","751","0","[[2,3,0],[0,0],[0]]","5","[[2,0,0],[1,3],[0]]","10","0","","","","","","6","","","","",""
"","","","","","single-stim-button","273","1017794","0.0-3.0-40.4-1.4","5b1962c551d4eb0001bf968b","A3","batch1","tol_toboard","827","","","","","","","","","tol_peg_2","827","827","0","[[2,3,0],[1,0],[0]]","5","[[2,0,0],[1,3],[0]]","10","0","","","","","","6","","","","",""
"","","","","","single-stim-button","274","1018397","0.0-3.0-40.5-0.5","5b1962c551d4eb0001bf968b","A3","batch1","tol_tohand","601","","","","","","","","","tol_peg_1","601","601","0","[[2,0,0],[1,0],[0]]","6","[[2,0,0],[1,3],[0]]","10","0","","","","","","6","","","","",""
"","","","","","single-stim-button","275","1019431","0.0-3.0-40.5-1.5","5b1962c551d4eb0001bf968b","A3","batch1","tol_toboard","1034","","","","","","","","","tol_peg_2","1034","1034","0","[[2,0,0],[1,3],[0]]","6","[[2,0,0],[1,3],[0]]","10","0","","","","","","6","","","","",""
"","","","","","poldrack-single-stim","276","1020434","0.0-3.0-41.0","5b1962c551d4eb0001bf968b","A3","batch1","tol_feedback","-1","","","","","true","","","","","1000","1000","500","","","","","","-1","none","true","7939","11436","","","","","",""
"","","","","","html-button-response","277","1021280","0.0-3.0-42.0","5b1962c551d4eb0001bf968b","A3","batch1","tol_trial_num","844.7999999970198","<div class = centerbox><p class = center-block-text>problem <strong>12</strong> out of 25 problems</p></div>","0","","","","","","","","","","","","","","","","","","","","","","","","","",""
"","","","","","single-stim-button","278","1036196","0.0-3.0-43.0-0.0","5b1962c551d4eb0001bf968b","A3","batch1","tol_tohand","14915","","","","","","","","","tol_peg_1","14915","14915","0","[[1,0,0],[3,0],[0]]","1","[[2,3,0],[0,0],[1]]","11","0","","","","","","4","","","","",""
"","","","","","single-stim-button","279","1037174","0.0-3.0-43.0-1.0","5b1962c551d4eb0001bf968b","A3","batch1","tol_toboard","977","","","","","","","","","tol_peg_2","977","977","0","[[1,0,0],[3,2],[0]]","1","[[2,3,0],[0,0],[1]]","11","0","","","","","","4","","","","",""
"","","","","","single-stim-button","280","1037794","0.0-3.0-43.1-0.1","5b1962c551d4eb0001bf968b","A3","batch1","tol_tohand","619","","","","","","","","","tol_peg_1","619","619","0","[[0,0,0],[3,2],[0]]","2","[[2,3,0],[0,0],[1]]","11","0","","","","","","4","","","","",""
"","","","","","single-stim-button","281","1038750","0.0-3.0-43.1-1.1","5b1962c551d4eb0001bf968b","A3","batch1","tol_toboard","956","","","","","","","","","tol_peg_3","956","956","0","[[0,0,0],[3,2],[1]]","2","[[2,3,0],[0,0],[1]]","11","0","","","","","","4","","","","",""
"","","","","","single-stim-button","282","1039394","0.0-3.0-43.2-0.2","5b1962c551d4eb0001bf968b","A3","batch1","tol_tohand","642","","","","","","","","","tol_peg_2","642","642","0","[[0,0,0],[3,0],[1]]","3","[[2,3,0],[0,0],[1]]","11","0","","","","","","4","","","","",""
"","","","","","single-stim-button","283","1040012","0.0-3.0-43.2-1.2","5b1962c551d4eb0001bf968b","A3","batch1","tol_toboard","617","","","","","","","","","tol_peg_1","617","617","0","[[2,0,0],[3,0],[1]]","3","[[2,3,0],[0,0],[1]]","11","0","","","","","","4","","","","",""
"","","","","","single-stim-button","284","1040581","0.0-3.0-43.3-0.3","5b1962c551d4eb0001bf968b","A3","batch1","tol_tohand","569","","","","","","","","","tol_peg_2","569","569","0","[[2,0,0],[0,0],[1]]","4","[[2,3,0],[0,0],[1]]","11","0","","","","","","4","","","","",""
"","","","","","single-stim-button","285","1041232","0.0-3.0-43.3-1.3","5b1962c551d4eb0001bf968b","A3","batch1","tol_toboard","650","","","","","","","","","tol_peg_1","650","650","0","[[2,3,0],[0,0],[1]]","4","[[2,3,0],[0,0],[1]]","11","0","","","","","","4","","","","",""
"","","","","","poldrack-single-stim","286","1042235","0.0-3.0-44.0","5b1962c551d4eb0001bf968b","A3","batch1","tol_feedback","-1","","","","","true","","","","","1000","1000","500","","","","","","-1","none","true","14915","16745","","","","","",""
"","","","","","html-button-response","287","1043122","0.0-3.0-45.0","5b1962c551d4eb0001bf968b","A3","batch1","tol_trial_num","885.7999999970198","<div class = centerbox><p class = center-block-text>problem <strong>13</strong> out of 25 problems</p></div>","0","","","","","","","","","","","","","","","","","","","","","","","","","",""
"","","","","","single-stim-button","288","1057191","0.0-3.0-46.0-0.0","5b1962c551d4eb0001bf968b","A3","batch1","tol_tohand","14067","","","","","","","","","tol_peg_1","14067","14067","0","[[1,0,0],[3,0],[0]]","1","[[0,0,0],[2,3],[1]]","12","0","","","","","","4","","","","",""
"","","","","","single-stim-button","289","1059595","0.0-3.0-46.0-1.0","5b1962c551d4eb0001bf968b","A3","batch1","tol_toboard","2403","","","","","","","","","tol_peg_3","2403","2403","0","[[1,0,0],[3,0],[2]]","1","[[0,0,0],[2,3],[1]]","12","0","","","","","","4","","","","",""
"","","","","","single-stim-button","290","1060236","0.0-3.0-46.1-0.1","5b1962c551d4eb0001bf968b","A3","batch1","tol_tohand","640","","","","","","","","","tol_peg_2","640","640","0","[[1,0,0],[0,0],[2]]","2","[[0,0,0],[2,3],[1]]","12","0","","","","","","4","","","","",""
"","","","","","single-stim-button","291","1060808","0.0-3.0-46.1-1.1","5b1962c551d4eb0001bf968b","A3","batch1","tol_toboard","571","","","","","","","","","tol_peg_1","571","571","0","[[1,3,0],[0,0],[2]]","2","[[0,0,0],[2,3],[1]]","12","0","","","","","","4","","","","",""
"","","","","","single-stim-button","292","1061379","0.0-3.0-46.2-0.2","5b1962c551d4eb0001bf968b","A3","batch1","tol_tohand","571","","","","","","","","","tol_peg_3","571","571","0","[[1,3,0],[0,0],[0]]","3","[[0,0,0],[2,3],[1]]","12","0","","","","","","4","","","","",""
"","","","","","single-stim-button","293","1061998","0.0-3.0-46.2-1.2","5b1962c551d4eb0001bf968b","A3","batch1","tol_toboard","618","","","","","","","","","tol_peg_2","618","618","0","[[1,3,0],[2,0],[0]]","3","[[0,0,0],[2,3],[1]]","12","0","","","","","","4","","","","",""
"","","","","","single-stim-button","294","1062593","0.0-3.0-46.3-0.3","5b1962c551d4eb0001bf968b","A3","batch1","tol_tohand","593","","","","","","","","","tol_peg_1","593","593","0","[[1,0,0],[2,0],[0]]","4","[[0,0,0],[2,3],[1]]","12","0","","","","","","4","","","","",""
"","","","","","single-stim-button","295","1063260","0.0-3.0-46.3-1.3","5b1962c551d4eb0001bf968b","A3","batch1","tol_toboard","667","","","","","","","","","tol_peg_2","667","667","0","[[1,0,0],[2,3],[0]]","4","[[0,0,0],[2,3],[1]]","12","0","","","","","","4","","","","",""
"","","","","","single-stim-button","296","1063871","0.0-3.0-46.4-0.4","5b1962c551d4eb0001bf968b","A3","batch1","tol_tohand","610","","","","","","","","","tol_peg_1","610","610","0","[[0,0,0],[2,3],[0]]","5","[[0,0,0],[2,3],[1]]","12","0","","","","","","4","","","","",""
"","","","","","single-stim-button","297","1064723","0.0-3.0-46.4-1.4","5b1962c551d4eb0001bf968b","A3","batch1","tol_toboard","850","","","","","","","","","tol_peg_3","850","850","0","[[0,0,0],[2,3],[1]]","5","[[0,0,0],[2,3],[1]]","12","0","","","","","","4","","","","",""
"","","","","","poldrack-single-stim","298","1065725","0.0-3.0-47.0","5b1962c551d4eb0001bf968b","A3","batch1","tol_feedback","-1","","","","","true","","","","","1000","1000","500","","","","","","-1","none","true","14067","16481","","","","","",""
"","","","","","html-button-response","299","1068549","0.0-3.0-48.0","5b1962c551d4eb0001bf968b","A3","batch1","attention_check","2822.5","<p class = block-text>How many balls are in your board<br></p>","1","","","true","","","","","","","","","","","","","","","","","","","","","","",""
"","","","","","html-button-response","300","1069690","0.0-3.0-49.0","5b1962c551d4eb0001bf968b","A3","batch1","tol_trial_num","1139.2000000029802","<div class = centerbox><p class = center-block-text>problem <strong>14</strong> out of 25 problems</p></div>","0","","","","","","","","","","","","","","","","","","","","","","","","","",""
"","","","","","single-stim-button","301","1073540","0.0-3.0-50.0-0.0","5b1962c551d4eb0001bf968b","A3","batch1","tol_tohand","3848","","","","","","","","","tol_peg_1","3848","3848","0","[[2,0,0],[3,0],[0]]","1","[[1,2,0],[3,0],[0]]","13","0","","","","","","4","","","","",""
"","","","","","single-stim-button","302","1074722","0.0-3.0-50.0-1.0","5b1962c551d4eb0001bf968b","A3","batch1","tol_toboard","1181","","","","","","","","","tol_peg_3","1181","1181","0","[[2,0,0],[3,0],[1]]","1","[[1,2,0],[3,0],[0]]","13","0","","","","","","4","","","","",""
"","","","","","single-stim-button","303","1075468","0.0-3.0-50.1-0.1","5b1962c551d4eb0001bf968b","A3","batch1","tol_tohand","744","","","","","","","","","tol_peg_1","744","744","0","[[0,0,0],[3,0],[1]]","2","[[1,2,0],[3,0],[0]]","13","0","","","","","","4","","","","",""
"","","","","","single-stim-button","304","1076296","0.0-3.0-50.1-1.1","5b1962c551d4eb0001bf968b","A3","batch1","tol_toboard","827","","","","","","","","","tol_peg_2","827","827","0","[[0,0,0],[3,2],[1]]","2","[[1,2,0],[3,0],[0]]","13","0","","","","","","4","","","","",""
"","","","","","single-stim-button","305","1076938","0.0-3.0-50.2-0.2","5b1962c551d4eb0001bf968b","A3","batch1","tol_tohand","642","","","","","","","","","tol_peg_3","642","642","0","[[0,0,0],[3,2],[0]]","3","[[1,2,0],[3,0],[0]]","13","0","","","","","","4","","","","",""
"","","","","","single-stim-button","306","1077982","0.0-3.0-50.2-1.2","5b1962c551d4eb0001bf968b","A3","batch1","tol_toboard","1043","","","","","","","","","tol_peg_1","1043","1043","0","[[1,0,0],[3,2],[0]]","3","[[1,2,0],[3,0],[0]]","13","0","","","","","","4","","","","",""
"","","","","","single-stim-button","307","1078553","0.0-3.0-50.3-0.3","5b1962c551d4eb0001bf968b","A3","batch1","tol_tohand","571","","","","","","","","","tol_peg_2","571","571","0","[[1,0,0],[3,0],[0]]","4","[[1,2,0],[3,0],[0]]","13","0","","","","","","4","","","","",""
"","","","","","single-stim-button","308","1079172","0.0-3.0-50.3-1.3","5b1962c551d4eb0001bf968b","A3","batch1","tol_toboard","617","","","","","","","","","tol_peg_1","617","617","0","[[1,2,0],[3,0],[0]]","4","[[1,2,0],[3,0],[0]]","13","0","","","","","","4","","","","",""
"","","","","","poldrack-single-stim","309","1080173","0.0-3.0-51.0","5b1962c551d4eb0001bf968b","A3","batch1","tol_feedback","-1","","","","","true","","","","","1000","1000","500","","","","","","-1","none","true","3848","5805","","","","","",""
"","","","","","html-button-response","310","1080897","0.0-3.0-52.0","5b1962c551d4eb0001bf968b","A3","batch1","tol_trial_num","722.7000000029802","<div class = centerbox><p class = center-block-text>problem <strong>15</strong> out of 25 problems</p></div>","0","","","","","","","","","","","","","","","","","","","","","","","","","",""
"","","","","","single-stim-button","311","1083751","0.0-3.0-53.0-0.0","5b1962c551d4eb0001bf968b","A3","batch1","tol_tohand","2853","","","","","","","","","tol_peg_1","2853","2853","0","[[1,0,0],[3,0],[0]]","1","[[2,0,0],[3,0],[1]]","14","0","","","","","","3","","","","",""
"","","","","","single-stim-button","312","1084538","0.0-3.0-53.0-1.0","5b1962c551d4eb0001bf968b","A3","batch1","tol_toboard","786","","","","","","","","","tol_peg_2","786","786","0","[[1,0,0],[3,2],[0]]","1","[[2,0,0],[3,0],[1]]","14","0","","","","","","3","","","","",""
"","","","","","single-stim-button","313","1085198","0.0-3.0-53.1-0.1","5b1962c551d4eb0001bf968b","A3","batch1","tol_tohand","659","","","","","","","","","tol_peg_1","659","659","0","[[0,0,0],[3,2],[0]]","2","[[2,0,0],[3,0],[1]]","14","0","","","","","","3","","","","",""
"","","","","","single-stim-button","314","1085898","0.0-3.0-53.1-1.1","5b1962c551d4eb0001bf968b","A3","batch1","tol_toboard","698","","","","","","","","","tol_peg_3","698","698","0","[[0,0,0],[3,2],[1]]","2","[[2,0,0],[3,0],[1]]","14","0","","","","","","3","","","","",""
"","","","","","single-stim-button","315","1086532","0.0-3.0-53.2-0.2","5b1962c551d4eb0001bf968b","A3","batch1","tol_tohand","634","","","","","","","","","tol_peg_2","634","634","0","[[0,0,0],[3,0],[1]]","3","[[2,0,0],[3,0],[1]]","14","0","","","","","","3","","","","",""
"","","","","","single-stim-button","316","1087256","0.0-3.0-53.2-1.2","5b1962c551d4eb0001bf968b","A3","batch1","tol_toboard","724","","","","","","","","","tol_peg_1","724","724","0","[[2,0,0],[3,0],[1]]","3","[[2,0,0],[3,0],[1]]","14","0","","","","","","3","","","","",""
"","","","","","poldrack-single-stim","317","1088258","0.0-3.0-54.0","5b1962c551d4eb0001bf968b","A3","batch1","tol_feedback","-1","","","","","true","","","","","1000","1000","500","","","","","","-1","none","true","2853","4146","","","","","",""
"","","","","","html-button-response","318","1088984","0.0-3.0-55.0","5b1962c551d4eb0001bf968b","A3","batch1","tol_trial_num","724.3999999985099","<div class = centerbox><p class = center-block-text>problem <strong>16</strong> out of 25 problems</p></div>","0","","","","","","","","","","","","","","","","","","","","","","","","","",""
"","","","","","single-stim-button","319","1107665","0.0-3.0-56.0-0.0","5b1962c551d4eb0001bf968b","A3","batch1","tol_tohand","18681","","","","","","","","","tol_peg_2","18681","18681","0","[[0,0,0],[2,0],[1]]","1","[[2,3,0],[1,0],[0]]","15","0","","","","","","7","","","","",""
"","","","","","single-stim-button","320","1108478","0.0-3.0-56.0-1.0","5b1962c551d4eb0001bf968b","A3","batch1","tol_toboard","811","","","","","","","","","tol_peg_1","811","811","0","[[3,0,0],[2,0],[1]]","1","[[2,3,0],[1,0],[0]]","15","0","","","","","","7","","","","",""
"","","","","","single-stim-button","321","1109290","0.0-3.0-56.1-0.1","5b1962c551d4eb0001bf968b","A3","batch1","tol_tohand","810","","","","","","","","","tol_peg_2","810","810","0","[[3,0,0],[0,0],[1]]","2","[[2,3,0],[1,0],[0]]","15","0","","","","","","7","","","","",""
"","","","","","single-stim-button","322","1110110","0.0-3.0-56.1-1.1","5b1962c551d4eb0001bf968b","A3","batch1","tol_toboard","820","","","","","","","","","tol_peg_1","820","820","0","[[3,2,0],[0,0],[1]]","2","[[2,3,0],[1,0],[0]]","15","0","","","","","","7","","","","",""
"","","","","","single-stim-button","323","1111004","0.0-3.0-56.2-0.2","5b1962c551d4eb0001bf968b","A3","batch1","tol_tohand","892","","","","","","","","","tol_peg_3","892","892","0","[[3,2,0],[0,0],[0]]","3","[[2,3,0],[1,0],[0]]","15","0","","","","","","7","","","","",""
"","","","","","single-stim-button","324","1111638","0.0-3.0-56.2-1.2","5b1962c551d4eb0001bf968b","A3","batch1","tol_toboard","633","","","","","","","","","tol_peg_2","633","633","0","[[3,2,0],[1,0],[0]]","3","[[2,3,0],[1,0],[0]]","15","0","","","","","","7","","","","",""
"","","","","","single-stim-button","325","1112354","0.0-3.0-56.3-0.3","5b1962c551d4eb0001bf968b","A3","batch1","tol_tohand","715","","","","","","","","","tol_peg_1","715","715","0","[[3,0,0],[1,0],[0]]","4","[[2,3,0],[1,0],[0]]","15","0","","","","","","7","","","","",""
"","","","","","single-stim-button","326","1113840","0.0-3.0-56.3-1.3","5b1962c551d4eb0001bf968b","A3","batch1","tol_toboard","1485","","","","","","","","","tol_peg_3","1485","1485","0","[[3,0,0],[1,0],[2]]","4","[[2,3,0],[1,0],[0]]","15","0","","","","","","7","","","","",""
"","","","","","single-stim-button","327","1114490","0.0-3.0-56.4-0.4","5b1962c551d4eb0001bf968b","A3","batch1","tol_tohand","648","","","","","","","","","tol_peg_1","648","648","0","[[0,0,0],[1,0],[2]]","5","[[2,3,0],[1,0],[0]]","15","0","","","","","","7","","","","",""
"","","","","","single-stim-button","328","1115148","0.0-3.0-56.4-1.4","5b1962c551d4eb0001bf968b","A3","batch1","tol_toboard","657","","","","","","","","","tol_peg_2","657","657","0","[[0,0,0],[1,3],[2]]","5","[[2,3,0],[1,0],[0]]","15","0","","","","","","7","","","","",""
"","","","","","single-stim-button","329","1116112","0.0-3.0-56.5-0.5","5b1962c551d4eb0001bf968b","A3","batch1","tol_tohand","964","","","","","","","","","tol_peg_3","964","964","0","[[0,0,0],[1,3],[0]]","6","[[2,3,0],[1,0],[0]]","15","0","","","","","","7","","","","",""
"","","","","","single-stim-button","330","1116876","0.0-3.0-56.5-1.5","5b1962c551d4eb0001bf968b","A3","batch1","tol_toboard","762","","","","","","","","","tol_peg_1","762","762","0","[[2,0,0],[1,3],[0]]","6","[[2,3,0],[1,0],[0]]","15","0","","","","","","7","","","","",""
"","","","","","single-stim-button","331","1117568","0.0-3.0-56.6-0.6","5b1962c551d4eb0001bf968b","A3","batch1","tol_tohand","690","","","","","","","","","tol_peg_2","690","690","0","[[2,0,0],[1,0],[0]]","7","[[2,3,0],[1,0],[0]]","15","0","","","","","","7","","","","",""
"","","","","","single-stim-button","332","1118426","0.0-3.0-56.6-1.6","5b1962c551d4eb0001bf968b","A3","batch1","tol_toboard","857","","","","","","","","","tol_peg_1","857","857","0","[[2,3,0],[1,0],[0]]","7","[[2,3,0],[1,0],[0]]","15","0","","","","","","7","","","","",""
"","","","","","poldrack-single-stim","333","1119429","0.0-3.0-57.0","5b1962c551d4eb0001bf968b","A3","batch1","tol_feedback","-1","","","","","true","","","","","1000","1000","500","","","","","","-1","none","true","18681","23400","","","","","",""
"","","","","","html-button-response","334","1120025","0.0-3.0-58.0","5b1962c551d4eb0001bf968b","A3","batch1","tol_trial_num","594.2000000029802","<div class = centerbox><p class = center-block-text>problem <strong>17</strong> out of 25 problems</p></div>","0","","","","","","","","","","","","","","","","","","","","","","","","","",""
"","","","","","single-stim-button","335","1128329","0.0-3.0-59.0-0.0","5b1962c551d4eb0001bf968b","A3","batch1","tol_tohand","8302","","","","","","","","","tol_peg_2","8302","8302","0","[[1,2,0],[0,0],[0]]","1","[[3,1,0],[2,0],[0]]","16","0","","","","","","5","","","","",""
"","","","","","single-stim-button","336","1129228","0.0-3.0-59.0-1.0","5b1962c551d4eb0001bf968b","A3","batch1","tol_toboard","899","","","","","","","","","tol_peg_3","899","899","0","[[1,2,0],[0,0],[3]]","1","[[3,1,0],[2,0],[0]]","16","0","","","","","","5","","","","",""
"","","","","","single-stim-button","337","1129918","0.0-3.0-59.1-0.1","5b1962c551d4eb0001bf968b","A3","batch1","tol_tohand","689","","","","","","","","","tol_peg_1","689","689","0","[[1,0,0],[0,0],[3]]","2","[[3,1,0],[2,0],[0]]","16","0","","","","","","5","","","","",""
"","","","","","single-stim-button","338","1130996","0.0-3.0-59.1-1.1","5b1962c551d4eb0001bf968b","A3","batch1","tol_toboard","1077","","","","","","","","","tol_peg_2","1077","1077","0","[[1,0,0],[2,0],[3]]","2","[[3,1,0],[2,0],[0]]","16","0","","","","","","5","","","","",""
"","","","","","single-stim-button","339","1131638","0.0-3.0-59.2-0.2","5b1962c551d4eb0001bf968b","A3","batch1","tol_tohand","641","","","","","","","","","tol_peg_1","641","641","0","[[0,0,0],[2,0],[3]]","3","[[3,1,0],[2,0],[0]]","16","0","","","","","","5","","","","",""
"","","","","","single-stim-button","340","1132371","0.0-3.0-59.2-1.2","5b1962c551d4eb0001bf968b","A3","batch1","tol_toboard","731","","","","","","","","","tol_peg_2","731","731","0","[[0,0,0],[2,1],[3]]","3","[[3,1,0],[2,0],[0]]","16","0","","","","","","5","","","","",""
"","","","","","single-stim-button","341","1132900","0.0-3.0-59.3-0.3","5b1962c551d4eb0001bf968b","A3","batch1","tol_tohand","529","","","","","","","","","tol_peg_3","529","529","0","[[0,0,0],[2,1],[0]]","4","[[3,1,0],[2,0],[0]]","16","0","","","","","","5","","","","",""
"","","","","","single-stim-button","342","1133646","0.0-3.0-59.3-1.3","5b1962c551d4eb0001bf968b","A3","batch1","tol_toboard","744","","","","","","","","","tol_peg_1","744","744","0","[[3,0,0],[2,1],[0]]","4","[[3,1,0],[2,0],[0]]","16","0","","","","","","5","","","","",""
"","","","","","single-stim-button","343","1134219","0.0-3.0-59.4-0.4","5b1962c551d4eb0001bf968b","A3","batch1","tol_tohand","572","","","","","","","","","tol_peg_2","572","572","0","[[3,0,0],[2,0],[0]]","5","[[3,1,0],[2,0],[0]]","16","0","","","","","","5","","","","",""
"","","","","","single-stim-button","344","1135093","0.0-3.0-59.4-1.4","5b1962c551d4eb0001bf968b","A3","batch1","tol_toboard","874","","","","","","","","","tol_peg_1","874","874","0","[[3,1,0],[2,0],[0]]","5","[[3,1,0],[2,0],[0]]","16","0","","","","","","5","","","","",""
"","","","","","poldrack-single-stim","345","1136096","0.0-3.0-60.0","5b1962c551d4eb0001bf968b","A3","batch1","tol_feedback","-1","","","","","true","","","","","1000","1000","500","","","","","","-1","none","true","8302","10733","","","","","",""
"","","","","","html-button-response","346","1136983","0.0-3.0-61.0","5b1962c551d4eb0001bf968b","A3","batch1","tol_trial_num","885.2000000029802","<div class = centerbox><p class = center-block-text>problem <strong>18</strong> out of 25 problems</p></div>","0","","","","","","","","","","","","","","","","","","","","","","","","","",""
"","","","","","single-stim-button","347","1141481","0.0-3.0-62.0-0.0","5b1962c551d4eb0001bf968b","A3","batch1","tol_tohand","4498","","","","","","","","","tol_peg_1","4498","4498","0","[[1,0,0],[3,0],[0]]","1","[[3,0,0],[2,0],[1]]","17","0","","","","","","5","","","","",""
"","","","","","single-stim-button","348","1155836","0.0-3.0-62.0-1.0","5b1962c551d4eb0001bf968b","A3","batch1","tol_toboard","14353","","","","","","","","","tol_peg_3","14353","14353","0","[[1,0,0],[3,0],[2]]","1","[[3,0,0],[2,0],[1]]","17","0","","","","","","5","","","","",""
"","","","","","single-stim-button","349","1158630","0.0-3.0-62.1-0.1","5b1962c551d4eb0001bf968b","A3","batch1","tol_tohand","2792","","","","","","","","","tol_peg_2","2792","2792","0","[[1,0,0],[0,0],[2]]","2","[[3,0,0],[2,0],[1]]","17","0","","","","","","5","","","","",""
"","","","","","single-stim-button","350","1159298","0.0-3.0-62.1-1.1","5b1962c551d4eb0001bf968b","A3","batch1","tol_toboard","668","","","","","","","","","tol_peg_1","668","668","0","[[1,3,0],[0,0],[2]]","2","[[3,0,0],[2,0],[1]]","17","0","","","","","","5","","","","",""
"","","","","","single-stim-button","351","1159948","0.0-3.0-62.2-0.2","5b1962c551d4eb0001bf968b","A3","batch1","tol_tohand","649","","","","","","","","","tol_peg_3","649","649","0","[[1,3,0],[0,0],[0]]","3","[[3,0,0],[2,0],[1]]","17","0","","","","","","5","","","","",""
"","","","","","single-stim-button","352","1160676","0.0-3.0-62.2-1.2","5b1962c551d4eb0001bf968b","A3","batch1","tol_toboard","727","","","","","","","","","tol_peg_2","727","727","0","[[1,3,0],[2,0],[0]]","3","[[3,0,0],[2,0],[1]]","17","0","","","","","","5","","","","",""
"","","","","","single-stim-button","353","1161406","0.0-3.0-62.3-0.3","5b1962c551d4eb0001bf968b","A3","batch1","tol_tohand","729","","","","","","","","","tol_peg_1","729","729","0","[[1,0,0],[2,0],[0]]","4","[[3,0,0],[2,0],[1]]","17","0","","","","","","5","","","","",""
"","","","","","single-stim-button","354","1162224","0.0-3.0-62.3-1.3","5b1962c551d4eb0001bf968b","A3","batch1","tol_toboard","816","","","","","","","","","tol_peg_2","816","816","0","[[1,0,0],[2,3],[0]]","4","[[3,0,0],[2,0],[1]]","17","0","","","","","","5","","","","",""
