"success","timeout","failed_images","failed_audio","failed_video","trial_type","trial_index","time_elapsed","internal_node_id","subject_id","study_id","session_id","view_history","rt","task","stimulus","response","correct","mouse_click","stim_duration","block_duration","timing_post_trial","current_position","tol_num_moves_made","tol_target","tol_problem_id","tol_rt","key_press","possible_responses","tol_correct","preplanning","tol_rt_per_trial","tol_min_moves","item","answer","spm_correct","spm_rt","fiar_detect_rt","fiar_detect_correct","total_correct_fiar_detect","post_trial_gap","choices"
"true","false","[]","[]","[]","preload","0","1396","0.0-0.0","5b208c7888ee7400012b63f4","B2","batch2","","","","","","","","","","","","","","","","","","","","","","","","","","","","","",""
"true","","","","","fullscreen","1","3466","0.0-1.0-0.0","5b208c7888ee7400012b63f4","B2","batch2","","","","","","","","","","","","","","","","","","","","","","","","","","","","","",""
"true","","","","","fullscreen","2","6412","0.0-2.0-0.0","5b208c7888ee7400012b63f4","B2","batch2","","","","","","","","","","","","","","","","","","","","","","","","","","","","","",""
"","","","","","instructions","3","31863","0.0-2.0-1.0-0.0-0.0","5b208c7888ee7400012b63f4","B2","batch2","[{""page_index"":0,""viewing_time"":12920.699999988079},{""page_index"":1,""viewing_time"":3853.300000011921},{""page_index"":2,""viewing_time"":1684.5},{""page_index"":3,""viewing_time"":3252.600000023842},{""page_index"":4,""viewing_time"":1551.199999988079},{""page_index"":5,""viewing_time"":1253.3999999761581},{""page_index"":6,""viewing_time"":932.6999999880791}]","25448.80000001192","tol-instructions","","","","","","","","","","","","","","","","","","","","","","","","","","",""
"","","","","","html-button-response","4","32684","0.0-2.0-1.0-1.0-0.0","5b208c7888ee7400012b63f4","B2","batch2","","818.6999999880791","tol_enter_quiz","<p class=block-text> Let's answer a few questions <br>","0","","","","","","","","","","","","","","","","","","","","","","","","",""
"","","","","","html-button-response","5","35616","0.0-2.0-1.0-1.0-1.0","5b208c7888ee7400012b63f4","B2","batch2","","2929.899999976158","tol_quiz","<p class = block-text>True or False: You can only move the ball on top of a peg. <br></p>","0","true","","","","","","","","","","","","","","","","","","","","","","","",""
"","","","","","html-button-response","6","36550","0.0-2.0-1.0-1.0-2.0","5b208c7888ee7400012b63f4","B2","batch2","","931.9000000357628","tol_quiz_feedback","<p class = block-text>Correct! You can only move the ball on top of a peg.</p>","0","","","","","","","","","","","","","","","","","","","","","","","","",""
"","","","","","html-button-response","7","39354","0.0-2.0-1.0-1.0-3.0","5b208c7888ee7400012b63f4","B2","batch2","","2800.899999976158","tol_quiz","<p class = block-text>True or False: You should try to match your board with the target board with fewest moves possible. <br></p>","0","true","","","","","","","","","","","","","","","","","","","","","","","",""
"","","","","","html-button-response","8","39971","0.0-2.0-1.0-1.0-4.0","5b208c7888ee7400012b63f4","B2","batch2","","614.1999999880791","tol_quiz_feedback","<p class = block-text>Correct! </p>","0","","","","","","","","","","","","","","","","","","","","","","","","",""
"","","","","","html-button-response","9","41256","0.0-2.0-2.0","5b208c7888ee7400012b63f4","B2","batch2","","1283.199999988079","","<p class=block-text> Now that you've understood the game, let's practice a few easier examples before we start!<br> <br>","0","","","","","","","","","","","","","","","","","","","","","","","","",""
"","","","","","single-stim-button","10","44256","0.0-2.0-3.0-0.0","5b208c7888ee7400012b63f4","B2","batch2","","2996","tol_practice","","","","tol_peg_2","2996","2996","0","[[1,2,0],[0,0],[0]]","1","[[1,2,0],[0,0],[3]]","practice","2996","","","","","","","","","","","","","","",""
"","","","","","single-stim-button","11","45289","0.0-2.0-3.0-1.0","5b208c7888ee7400012b63f4","B2","batch2","","1033","tol_practice","","","","tol_peg_3","1033","1033","0","[[1,2,0],[0,0],[3]]","1","[[1,2,0],[0,0],[3]]","practice","1033","","","","","","","","","","","","","","",""
"","","","","","poldrack-single-stim","12","46299","0.0-2.0-4.0","5b208c7888ee7400012b63f4","B2","batch2","","-1","tol_feedback","","","true","","1000","1000","500","","","","","","-1","none","true","","0","","","","","","","","","",""
"","","","","","single-stim-button","13","49162","0.0-2.0-5.0-0.0","5b208c7888ee7400012b63f4","B2","batch2","","2860","tol_practice","","","","tol_peg_1","2860","2860","0","[[1,0,0],[3,0],[0]]","2","[[0,0,0],[3,1],[2]]","practice","2860","","","","","","","","","","","","","","",""
"","","","","","single-stim-button","14","50279","0.0-2.0-5.0-1.0","5b208c7888ee7400012b63f4","B2","batch2","","1117","tol_practice","","","","tol_peg_3","1117","1117","0","[[1,0,0],[3,0],[2]]","2","[[0,0,0],[3,1],[2]]","practice","1117","","","","","","","","","","","","","","",""
"","","","","","single-stim-button","15","50996","0.0-2.0-5.1-0.1","5b208c7888ee7400012b63f4","B2","batch2","","716","tol_practice","","","","tol_peg_1","716","716","0","[[0,0,0],[3,0],[2]]","3","[[0,0,0],[3,1],[2]]","practice","716","","","","","","","","","","","","","","",""
"","","","","","single-stim-button","16","51780","0.0-2.0-5.1-1.1","5b208c7888ee7400012b63f4","B2","batch2","","783","tol_practice","","","","tol_peg_2","783","783","0","[[0,0,0],[3,1],[2]]","3","[[0,0,0],[3,1],[2]]","practice","783","","","","","","","","","","","","","","",""
"","","","","","poldrack-single-stim","17","52787","0.0-2.0-6.0","5b208c7888ee7400012b63f4","B2","batch2","","-1","tol_feedback","","","true","","1000","1000","500","","","","","","-1","none","true","","0","","","","","","","","","",""
"","","","","","single-stim-button","18","55268","0.0-2.0-7.0-0.0","5b208c7888ee7400012b63f4","B2","batch2","","2478","tol_practice","","","","tol_peg_2","2478","2478","0","[[1,2,0],[0,0],[0]]","4","[[1,0,0],[2,0],[3]]","practice","2478","","","","","","","","","","","","","","",""
"","","","","","single-stim-button","19","56486","0.0-2.0-7.0-1.0","5b208c7888ee7400012b63f4","B2","batch2","","1217","tol_practice","","","","tol_peg_3","1217","1217","0","[[1,2,0],[0,0],[3]]","4","[[1,0,0],[2,0],[3]]","practice","1217","","","","","","","","","","","","","","",""
"","","","","","single-stim-button","20","57119","0.0-2.0-7.1-0.1","5b208c7888ee7400012b63f4","B2","batch2","","632","tol_practice","","","","tol_peg_1","632","632","0","[[1,0,0],[0,0],[3]]","5","[[1,0,0],[2,0],[3]]","practice","632","","","","","","","","","","","","","","",""
"","","","","","single-stim-button","21","57952","0.0-2.0-7.1-1.1","5b208c7888ee7400012b63f4","B2","batch2","","831","tol_practice","","","","tol_peg_2","831","831","0","[[1,0,0],[2,0],[3]]","5","[[1,0,0],[2,0],[3]]","practice","831","","","","","","","","","","","","","","",""
"","","","","","poldrack-single-stim","22","58963","0.0-2.0-8.0","5b208c7888ee7400012b63f4","B2","batch2","","-1","tol_feedback","","","true","","1000","1000","500","","","","","","-1","none","true","","0","","","","","","","","","",""
"","","","","","html-button-response","23","61222","0.0-2.0-9.0","5b208c7888ee7400012b63f4","B2","batch2","","2256.399999976158","tol_instruction","<div class = centerbox><p class = center-block-text>Great job! You are done with practice trials<br>You are about to start official trials.<br> <br> Problem <strong>1</strong> out of 25 problems</p></div>","0","","","","","","","","","","","","","","","","","","","","","","","","",""
"","","","","","single-stim-button","24","66526","0.0-2.0-10.0-0.0","5b208c7888ee7400012b63f4","B2","batch2","","4294","tol_tohand","","","","tol_peg_2","4294","4294","0","[[1,2,0],[0,0],[0]]","1","[[1,3,0],[2,0],[0]]","0","0","","","","","","3","","","","","","","","",""
"","","","","","single-stim-button","25","67365","0.0-2.0-10.0-1.0","5b208c7888ee7400012b63f4","B2","batch2","","838","tol_toboard","","","","tol_peg_3","838","838","0","[[1,2,0],[0,0],[3]]","1","[[1,3,0],[2,0],[0]]","0","0","","","","","","3","","","","","","","","",""
"","","","","","single-stim-button","26","67943","0.0-2.0-10.1-0.1","5b208c7888ee7400012b63f4","B2","batch2","","576","tol_tohand","","","","tol_peg_1","576","576","0","[[1,0,0],[0,0],[3]]","2","[[1,3,0],[2,0],[0]]","0","0","","","","","","3","","","","","","","","",""
"","","","","","single-stim-button","27","68495","0.0-2.0-10.1-1.1","5b208c7888ee7400012b63f4","B2","batch2","","551","tol_toboard","","","","tol_peg_2","551","551","0","[[1,0,0],[2,0],[3]]","2","[[1,3,0],[2,0],[0]]","0","0","","","","","","3","","","","","","","","",""
"","","","","","single-stim-button","28","69045","0.0-2.0-10.2-0.2","5b208c7888ee7400012b63f4","B2","batch2","","548","tol_tohand","","","","tol_peg_3","548","548","0","[[1,0,0],[2,0],[0]]","3","[[1,3,0],[2,0],[0]]","0","0","","","","","","3","","","","","","","","",""
"","","","","","single-stim-button","29","69878","0.0-2.0-10.2-1.2","5b208c7888ee7400012b63f4","B2","batch2","","832","tol_toboard","","","","tol_peg_1","832","832","0","[[1,3,0],[2,0],[0]]","3","[[1,3,0],[2,0],[0]]","0","0","","","","","","3","","","","","","","","",""
"","","","","","poldrack-single-stim","30","70883","0.0-2.0-11.0","5b208c7888ee7400012b63f4","B2","batch2","","-1","tol_feedback","","","true","","1000","1000","500","","","","","","-1","none","true","4294","5418","","","","","","","","","",""
"","","","","","html-button-response","31","71847","0.0-2.0-12.0","5b208c7888ee7400012b63f4","B2","batch2","","960.3000000119209","tol_trial_num","<div class = centerbox><p class = center-block-text>problem <strong>2</strong> out of 25 problems</p></div>","0","","","","","","","","","","","","","","","","","","","","","","","","",""
"","","","","","single-stim-button","32","80734","0.0-2.0-13.0-0.0","5b208c7888ee7400012b63f4","B2","batch2","","8886","tol_tohand","","","","tol_peg_1","8886","8886","0","[[1,0,0],[3,0],[0]]","1","[[2,1,3],[0,0],[0]]","1","0","","","","","","5","","","","","","","","",""
"","","","","","single-stim-button","33","82339","0.0-2.0-13.0-1.0","5b208c7888ee7400012b63f4","B2","batch2","","1602","tol_toboard","","","","tol_peg_3","1602","1602","0","[[1,0,0],[3,0],[2]]","1","[[2,1,3],[0,0],[0]]","1","0","","","","","","5","","","","","","","","",""
"","","","","","single-stim-button","34","82939","0.0-2.0-13.1-0.1","5b208c7888ee7400012b63f4","B2","batch2","","600","tol_tohand","","","","tol_peg_1","600","600","0","[[0,0,0],[3,0],[2]]","2","[[2,1,3],[0,0],[0]]","1","0","","","","","","5","","","","","","","","",""
"","","","","","single-stim-button","35","83558","0.0-2.0-13.1-1.1","5b208c7888ee7400012b63f4","B2","batch2","","617","tol_toboard","","","","tol_peg_2","617","617","0","[[0,0,0],[3,1],[2]]","2","[[2,1,3],[0,0],[0]]","1","0","","","","","","5","","","","","","","","",""
"","","","","","single-stim-button","36","84074","0.0-2.0-13.2-0.2","5b208c7888ee7400012b63f4","B2","batch2","","515","tol_tohand","","","","tol_peg_3","515","515","0","[[0,0,0],[3,1],[0]]","3","[[2,1,3],[0,0],[0]]","1","0","","","","","","5","","","","","","","","",""
"","","","","","single-stim-button","37","85126","0.0-2.0-13.2-1.2","5b208c7888ee7400012b63f4","B2","batch2","","1050","tol_toboard","","","","tol_peg_1","1050","1050","0","[[2,0,0],[3,1],[0]]","3","[[2,1,3],[0,0],[0]]","1","0","","","","","","5","","","","","","","","",""
"","","","","","single-stim-button","38","85690","0.0-2.0-13.3-0.3","5b208c7888ee7400012b63f4","B2","batch2","","564","tol_tohand","","","","tol_peg_2","564","564","0","[[2,0,0],[3,0],[0]]","4","[[2,1,3],[0,0],[0]]","1","0","","","","","","5","","","","","","","","",""
"","","","","","single-stim-button","39","86300","0.0-2.0-13.3-1.3","5b208c7888ee7400012b63f4","B2","batch2","","608","tol_toboard","","","","tol_peg_1","608","608","0","[[2,1,0],[3,0],[0]]","4","[[2,1,3],[0,0],[0]]","1","0","","","","","","5","","","","","","","","",""
"","","","","","single-stim-button","40","86811","0.0-2.0-13.4-0.4","5b208c7888ee7400012b63f4","B2","batch2","","509","tol_tohand","","","","tol_peg_2","509","509","0","[[2,1,0],[0,0],[0]]","5","[[2,1,3],[0,0],[0]]","1","0","","","","","","5","","","","","","","","",""
"","","","","","single-stim-button","41","87393","0.0-2.0-13.4-1.4","5b208c7888ee7400012b63f4","B2","batch2","","581","tol_toboard","","","","tol_peg_1","581","581","0","[[2,1,3],[0,0],[0]]","5","[[2,1,3],[0,0],[0]]","1","0","","","","","","5","","","","","","","","",""
"","","","","","poldrack-single-stim","42","88408","0.0-2.0-14.0","5b208c7888ee7400012b63f4","B2","batch2","","-1","tol_feedback","","","true","","1000","1000","500","","","","","","-1","none","true","8886","11074","","","","","","","","","",""
"","","","","","html-button-response","43","89210","0.0-2.0-15.0","5b208c7888ee7400012b63f4","B2","batch2","","800.6999999880791","tol_trial_num","<div class = centerbox><p class = center-block-text>problem <strong>3</strong> out of 25 problems</p></div>","0","","","","","","","","","","","","","","","","","","","","","","","","",""
"","","","","","single-stim-button","44","95199","0.0-2.0-16.0-0.0","5b208c7888ee7400012b63f4","B2","batch2","","5988","tol_tohand","","","","tol_peg_1","5988","5988","0","[[2,0,0],[0,0],[1]]","1","[[1,2,0],[3,0],[0]]","2","0","","","","","","4","","","","","","","","",""
"","","","","","single-stim-button","45","95783","0.0-2.0-16.0-1.0","5b208c7888ee7400012b63f4","B2","batch2","","582","tol_toboard","","","","tol_peg_2","582","582","0","[[2,0,0],[3,0],[1]]","1","[[1,2,0],[3,0],[0]]","2","0","","","","","","4","","","","","","","","",""
"","","","","","single-stim-button","46","96437","0.0-2.0-16.1-0.1","5b208c7888ee7400012b63f4","B2","batch2","","653","tol_tohand","","","","tol_peg_1","653","653","0","[[0,0,0],[3,0],[1]]","2","[[1,2,0],[3,0],[0]]","2","0","","","","","","4","","","","","","","","",""
"","","","","","single-stim-button","47","97118","0.0-2.0-16.1-1.1","5b208c7888ee7400012b63f4","B2","batch2","","679","tol_toboard","","","","tol_peg_2","679","679","0","[[0,0,0],[3,2],[1]]","2","[[1,2,0],[3,0],[0]]","2","0","","","","","","4","","","","","","","","",""
"","","","","","single-stim-button","48","97918","0.0-2.0-16.2-0.2","5b208c7888ee7400012b63f4","B2","batch2","","798","tol_tohand","","","","tol_peg_3","798","798","0","[[0,0,0],[3,2],[0]]","3","[[1,2,0],[3,0],[0]]","2","0","","","","","","4","","","","","","","","",""
"","","","","","single-stim-button","49","98633","0.0-2.0-16.2-1.2","5b208c7888ee7400012b63f4","B2","batch2","","715","tol_toboard","","","","tol_peg_1","715","715","0","[[1,0,0],[3,2],[0]]","3","[[1,2,0],[3,0],[0]]","2","0","","","","","","4","","","","","","","","",""
"","","","","","single-stim-button","50","99092","0.0-2.0-16.3-0.3","5b208c7888ee7400012b63f4","B2","batch2","","457","tol_tohand","","","","tol_peg_2","457","457","0","[[1,0,0],[3,0],[0]]","4","[[1,2,0],[3,0],[0]]","2","0","","","","","","4","","","","","","","","",""
"","","","","","single-stim-button","51","99553","0.0-2.0-16.3-1.3","5b208c7888ee7400012b63f4","B2","batch2","","460","tol_toboard","","","","tol_peg_1","460","460","0","[[1,2,0],[3,0],[0]]","4","[[1,2,0],[3,0],[0]]","2","0","","","","","","4","","","","","","","","",""
"","","","","","poldrack-single-stim","52","100563","0.0-2.0-17.0","5b208c7888ee7400012b63f4","B2","batch2","","-1","tol_feedback","","","true","","1000","1000","500","","","","","","-1","none","true","5988","7896","","","","","","","","","",""
"","","","","","html-button-response","53","102171","0.0-2.0-18.0","5b208c7888ee7400012b63f4","B2","batch2","","1605.4000000357628","tol_trial_num","<div class = centerbox><p class = center-block-text>problem <strong>4</strong> out of 25 problems</p></div>","0","","","","","","","","","","","","","","","","","","","","","","","","",""
"","","","","","single-stim-button","54","105460","0.0-2.0-19.0-0.0","5b208c7888ee7400012b63f4","B2","batch2","","3287","tol_tohand","","","","tol_peg_2","3287","3287","0","[[3,0,0],[2,0],[0]]","1","[[3,0,0],[1,0],[2]]","3","0","","","","","","3","","","","","","","","",""
"","","","","","single-stim-button","55","106323","0.0-2.0-19.0-1.0","5b208c7888ee7400012b63f4","B2","batch2","","863","tol_toboard","","","","tol_peg_1","863","863","0","[[3,1,0],[2,0],[0]]","1","[[3,0,0],[1,0],[2]]","3","0","","","","","","3","","","","","","","","",""
"","","","","","single-stim-button","56","106845","0.0-2.0-19.1-0.1","5b208c7888ee7400012b63f4","B2","batch2","","521","tol_tohand","","","","tol_peg_2","521","521","0","[[3,1,0],[0,0],[0]]","2","[[3,0,0],[1,0],[2]]","3","0","","","","","","3","","","","","","","","",""
"","","","","","single-stim-button","57","107581","0.0-2.0-19.1-1.1","5b208c7888ee7400012b63f4","B2","batch2","","735","tol_toboard","","","","tol_peg_3","735","735","0","[[3,1,0],[0,0],[2]]","2","[[3,0,0],[1,0],[2]]","3","0","","","","","","3","","","","","","","","",""
"","","","","","single-stim-button","58","108178","0.0-2.0-19.2-0.2","5b208c7888ee7400012b63f4","B2","batch2","","595","tol_tohand","","","","tol_peg_1","595","595","0","[[3,0,0],[0,0],[2]]","3","[[3,0,0],[1,0],[2]]","3","0","","","","","","3","","","","","","","","",""
"","","","","","single-stim-button","59","108998","0.0-2.0-19.2-1.2","5b208c7888ee7400012b63f4","B2","batch2","","820","tol_toboard","","","","tol_peg_2","820","820","0","[[3,0,0],[1,0],[2]]","3","[[3,0,0],[1,0],[2]]","3","0","","","","","","3","","","","","","","","",""
"","","","","","poldrack-single-stim","60","110005","0.0-2.0-20.0","5b208c7888ee7400012b63f4","B2","batch2","","-1","tol_feedback","","","true","","1000","1000","500","","","","","","-1","none","true","3287","4403","","","","","","","","","",""
"","","","","","html-button-response","61","110777","0.0-2.0-21.0","5b208c7888ee7400012b63f4","B2","batch2","","769.1000000238419","tol_trial_num","<div class = centerbox><p class = center-block-text>problem <strong>5</strong> out of 25 problems</p></div>","0","","","","","","","","","","","","","","","","","","","","","","","","",""
"","","","","","single-stim-button","62","140505","0.0-2.0-22.0-0.0","5b208c7888ee7400012b63f4","B2","batch2","","29726","tol_tohand","","","","tol_peg_3","29726","29726","0","[[1,0,0],[2,0],[0]]","1","[[0,0,0],[1,2],[3]]","4","0","","","","","","7","","","","","","","","",""
"","","","","","single-stim-button","63","141042","0.0-2.0-22.0-1.0","5b208c7888ee7400012b63f4","B2","batch2","","536","tol_toboard","","","","tol_peg_2","536","536","0","[[1,0,0],[2,3],[0]]","1","[[0,0,0],[1,2],[3]]","4","0","","","","","","7","","","","","","","","",""
"","","","","","single-stim-button","64","141571","0.0-2.0-22.1-0.1","5b208c7888ee7400012b63f4","B2","batch2","","529","tol_tohand","","","","tol_peg_1","529","529","0","[[0,0,0],[2,3],[0]]","2","[[0,0,0],[1,2],[3]]","4","0","","","","","","7","","","","","","","","",""
"","","","","","single-stim-button","65","142656","0.0-2.0-22.1-1.1","5b208c7888ee7400012b63f4","B2","batch2","","1083","tol_toboard","","","","tol_peg_3","1083","1083","0","[[0,0,0],[2,3],[1]]","2","[[0,0,0],[1,2],[3]]","4","0","","","","","","7","","","","","","","","",""
"","","","","","single-stim-button","66","144372","0.0-2.0-22.2-0.2","5b208c7888ee7400012b63f4","B2","batch2","","1715","tol_tohand","","","","tol_peg_2","1715","1715","0","[[0,0,0],[2,0],[1]]","3","[[0,0,0],[1,2],[3]]","4","0","","","","","","7","","","","","","","","",""
"","","","","","single-stim-button","67","144959","0.0-2.0-22.2-1.2","5b208c7888ee7400012b63f4","B2","batch2","","585","tol_toboard","","","","tol_peg_1","585","585","0","[[3,0,0],[2,0],[1]]","3","[[0,0,0],[1,2],[3]]","4","0","","","","","","7","","","","","","","","",""
"","","","","","single-stim-button","68","145513","0.0-2.0-22.3-0.3","5b208c7888ee7400012b63f4","B2","batch2","","553","tol_tohand","","","","tol_peg_2","553","553","0","[[3,0,0],[0,0],[1]]","4","[[0,0,0],[1,2],[3]]","4","0","","","","","","7","","","","","","","","",""
"","","","","","single-stim-button","69","145957","0.0-2.0-22.3-1.3","5b208c7888ee7400012b63f4","B2","batch2","","444","tol_toboard","","","","tol_peg_1","444","444","0","[[3,2,0],[0,0],[1]]","4","[[0,0,0],[1,2],[3]]","4","0","","","","","","7","","","","","","","","",""
"","","","","","single-stim-button","70","146800","0.0-2.0-22.4-0.4","5b208c7888ee7400012b63f4","B2","batch2","","841","tol_tohand","","","","tol_peg_3","841","841","0","[[3,2,0],[0,0],[0]]","5","[[0,0,0],[1,2],[3]]","4","0","","","","","","7","","","","","","","","",""
"","","","","","single-stim-button","71","147343","0.0-2.0-22.4-1.4","5b208c7888ee7400012b63f4","B2","batch2","","542","tol_toboard","","","","tol_peg_2","542","542","0","[[3,2,0],[1,0],[0]]","5","[[0,0,0],[1,2],[3]]","4","0","","","","","","7","","","","","","","","",""
"","","","","","single-stim-button","72","147879","0.0-2.0-22.5-0.5","5b208c7888ee7400012b63f4","B2","batch2","","535","tol_tohand","","","","tol_peg_1","535","535","0","[[3,0,0],[1,0],[0]]","6","[[0,0,0],[1,2],[3]]","4","0","","","","","","7","","","","","","","","",""
"","","","","","single-stim-button","73","148629","0.0-2.0-22.5-1.5","5b208c7888ee7400012b63f4","B2","batch2","","750","tol_toboard","","","","tol_peg_2","750","750","0","[[3,0,0],[1,2],[0]]","6","[[0,0,0],[1,2],[3]]","4","0","","","","","","7","","","","","","","","",""
"","","","","","single-stim-button","74","149146","0.0-2.0-22.6-0.6","5b208c7888ee7400012b63f4","B2","batch2","","515","tol_tohand","","","","tol_peg_1","515","515","0","[[0,0,0],[1,2],[0]]","7","[[0,0,0],[1,2],[3]]","4","0","","","","","","7","","","","","","","","",""
"","","","","","single-stim-button","75","149908","0.0-2.0-22.6-1.6","5b208c7888ee7400012b63f4","B2","batch2","","762","tol_toboard","","","","tol_peg_3","762","762","0","[[0,0,0],[1,2],[3]]","7","[[0,0,0],[1,2],[3]]","4","0","","","","","","7","","","","","","","","",""
"","","","","","poldrack-single-stim","76","150912","0.0-2.0-23.0","5b208c7888ee7400012b63f4","B2","batch2","","-1","tol_feedback","","","true","","1000","1000","500","","","","","","-1","none","true","29726","34414","","","","","","","","","",""
"","","","","","html-button-response","77","152413","0.0-2.0-24.0","5b208c7888ee7400012b63f4","B2","batch2","","1497.6000000238419","tol_trial_num","<div class = centerbox><p class = center-block-text>problem <strong>6</strong> out of 25 problems</p></div>","0","","","","","","","","","","","","","","","","","","","","","","","","",""
"","","","","","single-stim-button","78","169024","0.0-2.0-25.0-0.0","5b208c7888ee7400012b63f4","B2","batch2","","16610","tol_tohand","","","","tol_peg_3","16610","16610","0","[[0,0,0],[1,2],[0]]","1","[[1,0,0],[2,3],[0]]","5","0","","","","","","6","","","","","","","","",""
"","","","","","single-stim-button","79","170728","0.0-2.0-25.0-1.0","5b208c7888ee7400012b63f4","B2","batch2","","1703","tol_toboard","","","","tol_peg_1","1703","1703","0","[[3,0,0],[1,2],[0]]","1","[[1,0,0],[2,3],[0]]","5","0","","","","","","6","","","","","","","","",""
"","","","","","single-stim-button","80","171496","0.0-2.0-25.1-0.1","5b208c7888ee7400012b63f4","B2","batch2","","766","tol_tohand","","","","tol_peg_2","766","766","0","[[3,0,0],[1,0],[0]]","2","[[1,0,0],[2,3],[0]]","5","0","","","","","","6","","","","","","","","",""
"","","","","","single-stim-button","81","172214","0.0-2.0-25.1-1.1","5b208c7888ee7400012b63f4","B2","batch2","","717","tol_toboard","","","","tol_peg_3","717","717","0","[[3,0,0],[1,0],[2]]","2","[[1,0,0],[2,3],[0]]","5","0","","","","","","6","","","","","","","","",""
"","","","","","single-stim-button","82","176102","0.0-2.0-25.2-0.2","5b208c7888ee7400012b63f4","B2","batch2","","3888","tol_tohand","","","","tol_peg_2","3888","3888","0","[[3,0,0],[0,0],[2]]","3","[[1,0,0],[2,3],[0]]","5","0","","","","","","6","","","","","","","","",""
"","","","","","single-stim-button","83","176832","0.0-2.0-25.2-1.2","5b208c7888ee7400012b63f4","B2","batch2","","730","tol_toboard","","","","tol_peg_1","730","730","0","[[3,1,0],[0,0],[2]]","3","[[1,0,0],[2,3],[0]]","5","0","","","","","","6","","","","","","","","",""
"","","","","","single-stim-button","84","177378","0.0-2.0-25.3-0.3","5b208c7888ee7400012b63f4","B2","batch2","","545","tol_tohand","","","","tol_peg_3","545","545","0","[[3,1,0],[0,0],[0]]","4","[[1,0,0],[2,3],[0]]","5","0","","","","","","6","","","","","","","","",""
"","","","","","single-stim-button","85","177906","0.0-2.0-25.3-1.3","5b208c7888ee7400012b63f4","B2","batch2","","528","tol_toboard","","","","tol_peg_2","528","528","0","[[3,1,0],[2,0],[0]]","4","[[1,0,0],[2,3],[0]]","5","0","","","","","","6","","","","","","","","",""
"","","","","","single-stim-button","86","178654","0.0-2.0-25.4-0.4","5b208c7888ee7400012b63f4","B2","batch2","","746","tol_tohand","","","","tol_peg_1","746","746","0","[[3,0,0],[2,0],[0]]","5","[[1,0,0],[2,3],[0]]","5","0","","","","","","6","","","","","","","","",""
"","","","","","single-stim-button","87","179785","0.0-2.0-25.4-1.4","5b208c7888ee7400012b63f4","B2","batch2","","1131","tol_toboard","","","","tol_peg_3","1131","1131","0","[[3,0,0],[2,0],[1]]","5","[[1,0,0],[2,3],[0]]","5","0","","","","","","6","","","","","","","","",""
"","","","","","single-stim-button","88","180384","0.0-2.0-25.5-0.5","5b208c7888ee7400012b63f4","B2","batch2","","598","tol_tohand","","","","tol_peg_1","598","598","0","[[0,0,0],[2,0],[1]]","6","[[1,0,0],[2,3],[0]]","5","0","","","","","","6","","","","","","","","",""
"","","","","","single-stim-button","89","181007","0.0-2.0-25.5-1.5","5b208c7888ee7400012b63f4","B2","batch2","","621","tol_toboard","","","","tol_peg_2","621","621","0","[[0,0,0],[2,3],[1]]","6","[[1,0,0],[2,3],[0]]","5","0","","","","","","6","","","","","","","","",""
"","","","","","single-stim-button","90","181539","0.0-2.0-25.6-0.6","5b208c7888ee7400012b63f4","B2","batch2","","530","tol_tohand","","","","tol_peg_3","530","530","0","[[0,0,0],[2,3],[0]]","7","[[1,0,0],[2,3],[0]]","5","0","","","","","","6","","","","","","","","",""
"","","","","","single-stim-button","91","182073","0.0-2.0-25.6-1.6","5b208c7888ee7400012b63f4","B2","batch2","","534","tol_toboard","","","","tol_peg_1","534","534","0","[[1,0,0],[2,3],[0]]","7","[[1,0,0],[2,3],[0]]","5","0","","","","","","6","","","","","","","","",""
"","","","","","poldrack-single-stim","92","183083","0.0-2.0-26.0","5b208c7888ee7400012b63f4","B2","batch2","","-1","tol_feedback","","","true","","1000","1000","500","","","","","","-1","none","true","16610","23683","","","","","","","","","",""
"","","","","","html-button-response","93","184021","0.0-2.0-27.0","5b208c7888ee7400012b63f4","B2","batch2","","935.5999999642372","tol_trial_num","<div class = centerbox><p class = center-block-text>problem <strong>7</strong> out of 25 problems</p></div>","0","","","","","","","","","","","","","","","","","","","","","","","","",""
"","","","","","single-stim-button","94","190311","0.0-2.0-28.0-0.0","5b208c7888ee7400012b63f4","B2","batch2","","6288","tol_tohand","","","","tol_peg_3","6288","6288","0","[[2,1,0],[0,0],[0]]","1","[[1,2,0],[3,0],[0]]","6","0","","","","","","5","","","","","","","","",""
"","","","","","single-stim-button","95","191078","0.0-2.0-28.0-1.0","5b208c7888ee7400012b63f4","B2","batch2","","765","tol_toboard","","","","tol_peg_2","765","765","0","[[2,1,0],[3,0],[0]]","1","[[1,2,0],[3,0],[0]]","6","0","","","","","","5","","","","","","","","",""
"","","","","","single-stim-button","96","191662","0.0-2.0-28.1-0.1","5b208c7888ee7400012b63f4","B2","batch2","","583","tol_tohand","","","","tol_peg_1","583","583","0","[[2,0,0],[3,0],[0]]","2","[[1,2,0],[3,0],[0]]","6","0","","","","","","5","","","","","","","","",""
"","","","","","single-stim-button","97","192246","0.0-2.0-28.1-1.1","5b208c7888ee7400012b63f4","B2","batch2","","583","tol_toboard","","","","tol_peg_2","583","583","0","[[2,0,0],[3,1],[0]]","2","[[1,2,0],[3,0],[0]]","6","0","","","","","","5","","","","","","","","",""
"","","","","","single-stim-button","98","193397","0.0-2.0-28.2-0.2","5b208c7888ee7400012b63f4","B2","batch2","","1149","tol_tohand","","","","tol_peg_1","1149","1149","0","[[0,0,0],[3,1],[0]]","3","[[1,2,0],[3,0],[0]]","6","0","","","","","","5","","","","","","","","",""
"","","","","","single-stim-button","99","194230","0.0-2.0-28.2-1.2","5b208c7888ee7400012b63f4","B2","batch2","","831","tol_toboard","","","","tol_peg_3","831","831","0","[[0,0,0],[3,1],[2]]","3","[[1,2,0],[3,0],[0]]","6","0","","","","","","5","","","","","","","","",""
"","","","","","single-stim-button","100","194697","0.0-2.0-28.3-0.3","5b208c7888ee7400012b63f4","B2","batch2","","465","tol_tohand","","","","tol_peg_2","465","465","0","[[0,0,0],[3,0],[2]]","4","[[1,2,0],[3,0],[0]]","6","0","","","","","","5","","","","","","","","",""
"","","","","","single-stim-button","101","195115","0.0-2.0-28.3-1.3","5b208c7888ee7400012b63f4","B2","batch2","","417","tol_toboard","","","","tol_peg_1","417","417","0","[[1,0,0],[3,0],[2]]","4","[[1,2,0],[3,0],[0]]","6","0","","","","","","5","","","","","","","","",""
"","","","","","single-stim-button","102","195750","0.0-2.0-28.4-0.4","5b208c7888ee7400012b63f4","B2","batch2","","634","tol_tohand","","","","tol_peg_3","634","634","0","[[1,0,0],[3,0],[0]]","5","[[1,2,0],[3,0],[0]]","6","0","","","","","","5","","","","","","","","",""
"","","","","","single-stim-button","103","196355","0.0-2.0-28.4-1.4","5b208c7888ee7400012b63f4","B2","batch2","","604","tol_toboard","","","","tol_peg_1","604","604","0","[[1,2,0],[3,0],[0]]","5","[[1,2,0],[3,0],[0]]","6","0","","","","","","5","","","","","","","","",""
"","","","","","poldrack-single-stim","104","197367","0.0-2.0-29.0","5b208c7888ee7400012b63f4","B2","batch2","","-1","tol_feedback","","","true","","1000","1000","500","","","","","","-1","none","true","6288","9119","","","","","","","","","",""
"","","","","","html-button-response","105","198349","0.0-2.0-30.0","5b208c7888ee7400012b63f4","B2","batch2","","980.1000000238419","tol_trial_num","<div class = centerbox><p class = center-block-text>problem <strong>8</strong> out of 25 problems</p></div>","0","","","","","","","","","","","","","","","","","","","","","","","","",""
"","","","","","single-stim-button","106","203605","0.0-2.0-31.0-0.0","5b208c7888ee7400012b63f4","B2","batch2","","5255","tol_tohand","","","","tol_peg_3","5255","5255","0","[[0,0,0],[2,3],[0]]","1","[[1,2,0],[3,0],[0]]","7","0","","","","","","4","","","","","","","","",""
"","","","","","single-stim-button","107","204456","0.0-2.0-31.0-1.0","5b208c7888ee7400012b63f4","B2","batch2","","850","tol_toboard","","","","tol_peg_1","850","850","0","[[1,0,0],[2,3],[0]]","1","[[1,2,0],[3,0],[0]]","7","0","","","","","","4","","","","","","","","",""
"","","","","","single-stim-button","108","204891","0.0-2.0-31.1-0.1","5b208c7888ee7400012b63f4","B2","batch2","","433","tol_tohand","","","","tol_peg_2","433","433","0","[[1,0,0],[2,0],[0]]","2","[[1,2,0],[3,0],[0]]","7","0","","","","","","4","","","","","","","","",""
"","","","","","single-stim-button","109","205757","0.0-2.0-31.1-1.1","5b208c7888ee7400012b63f4","B2","batch2","","865","tol_toboard","","","","tol_peg_3","865","865","0","[[1,0,0],[2,0],[3]]","2","[[1,2,0],[3,0],[0]]","7","0","","","","","","4","","","","","","","","",""
"","","","","","single-stim-button","110","206190","0.0-2.0-31.2-0.2","5b208c7888ee7400012b63f4","B2","batch2","","433","tol_tohand","","","","tol_peg_2","433","433","0","[[1,0,0],[0,0],[3]]","3","[[1,2,0],[3,0],[0]]","7","0","","","","","","4","","","","","","","","",""
"","","","","","single-stim-button","111","206961","0.0-2.0-31.2-1.2","5b208c7888ee7400012b63f4","B2","batch2","","770","tol_toboard","","","","tol_peg_1","770","770","0","[[1,2,0],[0,0],[3]]","3","[[1,2,0],[3,0],[0]]","7","0","","","","","","4","","","","","","","","",""
"","","","","","single-stim-button","112","207510","0.0-2.0-31.3-0.3","5b208c7888ee7400012b63f4","B2","batch2","","549","tol_tohand","","","","tol_peg_3","549","549","0","[[1,2,0],[0,0],[0]]","4","[[1,2,0],[3,0],[0]]","7","0","","","","","","4","","","","","","","","",""
"","","","","","single-stim-button","113","208092","0.0-2.0-31.3-1.3","5b208c7888ee7400012b63f4","B2","batch2","","582","tol_toboard","","","","tol_peg_2","582","582","0","[[1,2,0],[3,0],[0]]","4","[[1,2,0],[3,0],[0]]","7","0","","","","","","4","","","","","","","","",""
"","","","","","poldrack-single-stim","114","209098","0.0-2.0-32.0","5b208c7888ee7400012b63f4","B2","batch2","","-1","tol_feedback","","","true","","1000","1000","500","","","","","","-1","none","true","5255","6670","","","","","","","","","",""
"","","","","","html-button-response","115","209960","0.0-2.0-33.0","5b208c7888ee7400012b63f4","B2","batch2","","859.6000000238419","tol_trial_num","<div class = centerbox><p class = center-block-text>problem <strong>9</strong> out of 25 problems</p></div>","0","","","","","","","","","","","","","","","","","","","","","","","","",""
"","","","","","single-stim-button","116","219718","0.0-2.0-34.0-0.0","5b208c7888ee7400012b63f4","B2","batch2","","9755","tol_tohand","","","","tol_peg_3","9755","9755","0","[[3,2,0],[0,0],[0]]","1","[[2,1,0],[3,0],[0]]","8","0","","","","","","6","","","","","","","","",""
"","","","","","single-stim-button","117","220836","0.0-2.0-34.0-1.0","5b208c7888ee7400012b63f4","B2","batch2","","1116","tol_toboard","","","","tol_peg_2","1116","1116","0","[[3,2,0],[1,0],[0]]","1","[[2,1,0],[3,0],[0]]","8","0","","","","","","6","","","","","","","","",""
"","","","","","single-stim-button","118","221339","0.0-2.0-34.1-0.1","5b208c7888ee7400012b63f4","B2","batch2","","503","tol_tohand","","","","tol_peg_1","503","503","0","[[3,0,0],[1,0],[0]]","2","[[2,1,0],[3,0],[0]]","8","0","","","","","","6","","","","","","","","",""
"","","","","","single-stim-button","119","226775","0.0-2.0-34.1-1.1","5b208c7888ee7400012b63f4","B2","batch2","","5434","tol_toboard","","","","tol_peg_3","5434","5434","0","[[3,0,0],[1,0],[2]]","2","[[2,1,0],[3,0],[0]]","8","0","","","","","","6","","","","","","","","",""
"","","","","","single-stim-button","120","231197","0.0-2.0-34.2-0.2","5b208c7888ee7400012b63f4","B2","batch2","","4421","tol_tohand","","","","tol_peg_1","4421","4421","0","[[0,0,0],[1,0],[2]]","3","[[2,1,0],[3,0],[0]]","8","0","","","","","","6","","","","","","","","",""
"","","","","","single-stim-button","121","231744","0.0-2.0-34.2-1.2","5b208c7888ee7400012b63f4","B2","batch2","","546","tol_toboard","","","","tol_peg_2","546","546","0","[[0,0,0],[1,3],[2]]","3","[[2,1,0],[3,0],[0]]","8","0","","","","","","6","","","","","","","","",""
"","","","","","single-stim-button","122","232401","0.0-2.0-34.3-0.3","5b208c7888ee7400012b63f4","B2","batch2","","656","tol_tohand","","","","tol_peg_3","656","656","0","[[0,0,0],[1,3],[0]]","4","[[2,1,0],[3,0],[0]]","8","0","","","","","","6","","","","","","","","",""
"","","","","","single-stim-button","123","233080","0.0-2.0-34.3-1.3","5b208c7888ee7400012b63f4","B2","batch2","","677","tol_toboard","","","","tol_peg_1","677","677","0","[[2,0,0],[1,3],[0]]","4","[[2,1,0],[3,0],[0]]","8","0","","","","","","6","","","","","","","","",""
"","","","","","single-stim-button","124","234115","0.0-2.0-34.4-0.4","5b208c7888ee7400012b63f4","B2","batch2","","1033","tol_tohand","","","","tol_peg_2","1033","1033","0","[[2,0,0],[1,0],[0]]","5","[[2,1,0],[3,0],[0]]","8","0","","","","","","6","","","","","","","","",""
"","","","","","single-stim-button","125","234832","0.0-2.0-34.4-1.4","5b208c7888ee7400012b63f4","B2","batch2","","717","tol_toboard","","","","tol_peg_3","717","717","0","[[2,0,0],[1,0],[3]]","5","[[2,1,0],[3,0],[0]]","8","0","","","","","","6","","","","","","","","",""
"","","","","","single-stim-button","126","235349","0.0-2.0-34.5-0.5","5b208c7888ee7400012b63f4","B2","batch2","","515","tol_tohand","","","","tol_peg_2","515","515","0","[[2,0,0],[0,0],[3]]","6","[[2,1,0],[3,0],[0]]","8","0","","","","","","6","","","","","","","","",""
"","","","","","single-stim-button","127","235800","0.0-2.0-34.5-1.5","5b208c7888ee7400012b63f4","B2","batch2","","450","tol_toboard","","","","tol_peg_1","450","450","0","[[2,1,0],[0,0],[3]]","6","[[2,1,0],[3,0],[0]]","8","0","","","","","","6","","","","","","","","",""
"","","","","","single-stim-button","128","236370","0.0-2.0-34.6-0.6","5b208c7888ee7400012b63f4","B2","batch2","","568","tol_tohand","","","","tol_peg_3","568","568","0","[[2,1,0],[0,0],[0]]","7","[[2,1,0],[3,0],[0]]","8","0","","","","","","6","","","","","","","","",""
"","","","","","single-stim-button","129","236936","0.0-2.0-34.6-1.6","5b208c7888ee7400012b63f4","B2","batch2","","565","tol_toboard","","","","tol_peg_2","565","565","0","[[2,1,0],[3,0],[0]]","7","[[2,1,0],[3,0],[0]]","8","0","","","","","","6","","","","","","","","",""
"","","","","","poldrack-single-stim","130","237945","0.0-2.0-35.0","5b208c7888ee7400012b63f4","B2","batch2","","-1","tol_feedback","","","true","","1000","1000","500","","","","","","-1","none","true","9755","17451","","","","","","","","","",""
"","","","","","html-button-response","131","238834","0.0-2.0-36.0","5b208c7888ee7400012b63f4","B2","batch2","","886.8999999761581","tol_trial_num","<div class = centerbox><p class = center-block-text>problem <strong>10</strong> out of 25 problems</p></div>","0","","","","","","","","","","","","","","","","","","","","","","","","",""
"","","","","","single-stim-button","132","242772","0.0-2.0-37.0-0.0","5b208c7888ee7400012b63f4","B2","batch2","","3936","tol_tohand","","","","tol_peg_2","3936","3936","0","[[3,0,0],[0,0],[2]]","1","[[3,0,0],[2,1],[0]]","9","0","","","","","","3","","","","","","","","",""
"","","","","","single-stim-button","133","243356","0.0-2.0-37.0-1.0","5b208c7888ee7400012b63f4","B2","batch2","","584","tol_toboard","","","","tol_peg_1","584","584","0","[[3,1,0],[0,0],[2]]","1","[[3,0,0],[2,1],[0]]","9","0","","","","","","3","","","","","","","","",""
"","","","","","single-stim-button","134","244073","0.0-2.0-37.1-0.1","5b208c7888ee7400012b63f4","B2","batch2","","715","tol_tohand","","","","tol_peg_3","715","715","0","[[3,1,0],[0,0],[0]]","2","[[3,0,0],[2,1],[0]]","9","0","","","","","","3","","","","","","","","",""
"","","","","","single-stim-button","135","244689","0.0-2.0-37.1-1.1","5b208c7888ee7400012b63f4","B2","batch2","","614","tol_toboard","","","","tol_peg_2","614","614","0","[[3,1,0],[2,0],[0]]","2","[[3,0,0],[2,1],[0]]","9","0","","","","","","3","","","","","","","","",""
"","","","","","single-stim-button","136","245357","0.0-2.0-37.2-0.2","5b208c7888ee7400012b63f4","B2","batch2","","666","tol_tohand","","","","tol_peg_1","666","666","0","[[3,0,0],[2,0],[0]]","3","[[3,0,0],[2,1],[0]]","9","0","","","","","","3","","","","","","","","",""
"","","","","","single-stim-button","137","246141","0.0-2.0-37.2-1.2","5b208c7888ee7400012b63f4","B2","batch2","","784","tol_toboard","","","","tol_peg_2","784","784","0","[[3,0,0],[2,1],[0]]","3","[[3,0,0],[2,1],[0]]","9","0","","","","","","3","","","","","","","","",""
"","","","","","poldrack-single-stim","138","247145","0.0-2.0-38.0","5b208c7888ee7400012b63f4","B2","batch2","","-1","tol_feedback","","","true","","1000","1000","500","","","","","","-1","none","true","3936","5317","","","","","","","","","",""
"","","","","","html-button-response","139","247991","0.0-2.0-39.0","5b208c7888ee7400012b63f4","B2","batch2","","843.6999999880791","tol_trial_num","<div class = centerbox><p class = center-block-text>problem <strong>11</strong> out of 25 problems</p></div>","0","","","","","","","","","","","","","","","","","","","","","","","","",""
"","","","","","single-stim-button","140","253042","0.0-2.0-40.0-0.0","5b208c7888ee7400012b63f4","B2","batch2","","5050","tol_tohand","","","","tol_peg_2","5050","5050","0","[[1,2,0],[0,0],[0]]","1","[[2,0,0],[1,3],[0]]","10","0","","","","","","6","","","","","","","","",""
"","","","","","single-stim-button","141","254414","0.0-2.0-40.0-1.0","5b208c7888ee7400012b63f4","B2","batch2","","1372","tol_toboard","","","","tol_peg_3","1372","1372","0","[[1,2,0],[0,0],[3]]","1","[[2,0,0],[1,3],[0]]","10","0","","","","","","6","","","","","","","","",""
"","","","","","single-stim-button","142","255648","0.0-2.0-40.1-0.1","5b208c7888ee7400012b63f4","B2","batch2","","1232","tol_tohand","","","","tol_peg_1","1232","1232","0","[[1,0,0],[0,0],[3]]","2","[[2,0,0],[1,3],[0]]","10","0","","","","","","6","","","","","","","","",""
"","","","","","single-stim-button","143","265424","0.0-2.0-40.1-1.1","5b208c7888ee7400012b63f4","B2","batch2","","9775","tol_toboard","","","","tol_peg_2","9775","9775","0","[[1,0,0],[2,0],[3]]","2","[[2,0,0],[1,3],[0]]","10","0","","","","","","6","","","","","","","","",""
"","","","","","single-stim-button","144","266041","0.0-2.0-40.2-0.2","5b208c7888ee7400012b63f4","B2","batch2","","617","tol_tohand","","","","tol_peg_1","617","617","0","[[0,0,0],[2,0],[3]]","3","[[2,0,0],[1,3],[0]]","10","0","","","","","","6","","","","","","","","",""
"","","","","","single-stim-button","145","266641","0.0-2.0-40.2-1.2","5b208c7888ee7400012b63f4","B2","batch2","","598","tol_toboard","","","","tol_peg_2","598","598","0","[[0,0,0],[2,1],[3]]","3","[[2,0,0],[1,3],[0]]","10","0","","","","","","6","","","","","","","","",""
"","","","","","single-stim-button","146","268125","0.0-2.0-40.3-0.3","5b208c7888ee7400012b63f4","B2","batch2","","1482","tol_tohand","","","","tol_peg_3","1482","1482","0","[[0,0,0],[2,1],[0]]","4","[[2,0,0],[1,3],[0]]","10","0","","","","","","6","","","","","","","","",""
"","","","","","single-stim-button","147","269943","0.0-2.0-40.3-1.3","5b208c7888ee7400012b63f4","B2","batch2","","1817","tol_toboard","","","","tol_peg_1","1817","1817","0","[[3,0,0],[2,1],[0]]","4","[[2,0,0],[1,3],[0]]","10","0","","","","","","6","","","","","","","","",""
"","","","","","single-stim-button","148","272465","0.0-2.0-40.4-0.4","5b208c7888ee7400012b63f4","B2","batch2","","2521","tol_tohand","","","","tol_peg_2","2521","2521","0","[[3,0,0],[2,0],[0]]","5","[[2,0,0],[1,3],[0]]","10","0","","","","","","6","","","","","","","","",""
"","","","","","single-stim-button","149","273101","0.0-2.0-40.4-1.4","5b208c7888ee7400012b63f4","B2","batch2","","636","tol_toboard","","","","tol_peg_3","636","636","0","[[3,0,0],[2,0],[1]]","5","[[2,0,0],[1,3],[0]]","10","0","","","","","","6","","","","","","","","",""
"","","","","","single-stim-button","150","273485","0.0-2.0-40.5-0.5","5b208c7888ee7400012b63f4","B2","batch2","","383","tol_tohand","","","","tol_peg_2","383","383","0","[[3,0,0],[0,0],[1]]","6","[[2,0,0],[1,3],[0]]","10","0","","","","","","6","","","","","","","","",""
"","","","","","single-stim-button","151","274097","0.0-2.0-40.5-1.5","5b208c7888ee7400012b63f4","B2","batch2","","610","tol_toboard","","","","tol_peg_1","610","610","0","[[3,2,0],[0,0],[1]]","6","[[2,0,0],[1,3],[0]]","10","0","","","","","","6","","","","","","","","",""
"","","","","","single-stim-button","152","274734","0.0-2.0-40.6-0.6","5b208c7888ee7400012b63f4","B2","batch2","","635","tol_tohand","","","","tol_peg_3","635","635","0","[[3,2,0],[0,0],[0]]","7","[[2,0,0],[1,3],[0]]","10","0","","","","","","6","","","","","","","","",""
"","","","","","single-stim-button","153","275481","0.0-2.0-40.6-1.6","5b208c7888ee7400012b63f4","B2","batch2","","746","tol_toboard","","","","tol_peg_2","746","746","0","[[3,2,0],[1,0],[0]]","7","[[2,0,0],[1,3],[0]]","10","0","","","","","","6","","","","","","","","",""
"","","","","","single-stim-button","154","276367","0.0-2.0-40.7-0.7","5b208c7888ee7400012b63f4","B2","batch2","","885","tol_tohand","","","","tol_peg_1","885","885","0","[[3,0,0],[1,0],[0]]","8","[[2,0,0],[1,3],[0]]","10","0","","","","","","6","","","","","","","","",""
"","","","","","single-stim-button","155","276984","0.0-2.0-40.7-1.7","5b208c7888ee7400012b63f4","B2","batch2","","617","tol_toboard","","","","tol_peg_3","617","617","0","[[3,0,0],[1,0],[2]]","8","[[2,0,0],[1,3],[0]]","10","0","","","","","","6","","","","","","","","",""
"","","","","","single-stim-button","156","277833","0.0-2.0-40.8-0.8","5b208c7888ee7400012b63f4","B2","batch2","","847","tol_tohand","","","","tol_peg_1","847","847","0","[[0,0,0],[1,0],[2]]","9","[[2,0,0],[1,3],[0]]","10","0","","","","","","6","","","","","","","","",""
"","","","","","single-stim-button","157","278469","0.0-2.0-40.8-1.8","5b208c7888ee7400012b63f4","B2","batch2","","634","tol_toboard","","","","tol_peg_2","634","634","0","[[0,0,0],[1,3],[2]]","9","[[2,0,0],[1,3],[0]]","10","0","","","","","","6","","","","","","","","",""
"","","","","","single-stim-button","158","279250","0.0-2.0-40.9-0.9","5b208c7888ee7400012b63f4","B2","batch2","","781","tol_tohand","","","","tol_peg_3","781","781","0","[[0,0,0],[1,3],[0]]","10","[[2,0,0],[1,3],[0]]","10","0","","","","","","6","","","","","","","","",""
"","","","","","single-stim-button","159","280036","0.0-2.0-40.9-1.9","5b208c7888ee7400012b63f4","B2","batch2","","785","tol_toboard","","","","tol_peg_1","785","785","0","[[2,0,0],[1,3],[0]]","10","[[2,0,0],[1,3],[0]]","10","0","","","","","","6","","","","","","","","",""
"","","","","","poldrack-single-stim","160","281042","0.0-2.0-41.0","5b208c7888ee7400012b63f4","B2","batch2","","-1","tol_feedback","","","true","","1000","1000","500","","","","","","-1","none","true","5050","14433","","","","","","","","","",""
"","","","","","html-button-response","161","281785","0.0-2.0-42.0","5b208c7888ee7400012b63f4","B2","batch2","","740.8999999761581","tol_trial_num","<div class = centerbox><p class = center-block-text>problem <strong>12</strong> out of 25 problems</p></div>","0","","","","","","","","","","","","","","","","","","","","","","","","",""
"","","","","","single-stim-button","162","284856","0.0-2.0-43.0-0.0","5b208c7888ee7400012b63f4","B2","batch2","","3069","tol_tohand","","","","tol_peg_1","3069","3069","0","[[1,0,0],[3,0],[0]]","1","[[2,3,0],[0,0],[1]]","11","0","","","","","","4","","","","","","","","",""
"","","","","","single-stim-button","163","285556","0.0-2.0-43.0-1.0","5b208c7888ee7400012b63f4","B2","batch2","","700","tol_toboard","","","","tol_peg_2","700","700","0","[[1,0,0],[3,2],[0]]","1","[[2,3,0],[0,0],[1]]","11","0","","","","","","4","","","","","","","","",""
"","","","","","single-stim-button","164","286041","0.0-2.0-43.1-0.1","5b208c7888ee7400012b63f4","B2","batch2","","483","tol_tohand","","","","tol_peg_1","483","483","0","[[0,0,0],[3,2],[0]]","2","[[2,3,0],[0,0],[1]]","11","0","","","","","","4","","","","","","","","",""
"","","","","","single-stim-button","165","286926","0.0-2.0-43.1-1.1","5b208c7888ee7400012b63f4","B2","batch2","","884","tol_toboard","","","","tol_peg_3","884","884","0","[[0,0,0],[3,2],[1]]","2","[[2,3,0],[0,0],[1]]","11","0","","","","","","4","","","","","","","","",""
"","","","","","single-stim-button","166","289493","0.0-2.0-43.2-0.2","5b208c7888ee7400012b63f4","B2","batch2","","2565","tol_tohand","","","","tol_peg_2","2565","2565","0","[[0,0,0],[3,0],[1]]","3","[[2,3,0],[0,0],[1]]","11","0","","","","","","4","","","","","","","","",""
"","","","","","single-stim-button","167","290180","0.0-2.0-43.2-1.2","5b208c7888ee7400012b63f4","B2","batch2","","687","tol_toboard","","","","tol_peg_1","687","687","0","[[2,0,0],[3,0],[1]]","3","[[2,3,0],[0,0],[1]]","11","0","","","","","","4","","","","","","","","",""
"","","","","","single-stim-button","168","290761","0.0-2.0-43.3-0.3","5b208c7888ee7400012b63f4","B2","batch2","","579","tol_tohand","","","","tol_peg_2","579","579","0","[[2,0,0],[0,0],[1]]","4","[[2,3,0],[0,0],[1]]","11","0","","","","","","4","","","","","","","","",""
"","","","","","single-stim-button","169","291562","0.0-2.0-43.3-1.3","5b208c7888ee7400012b63f4","B2","batch2","","800","tol_toboard","","","","tol_peg_1","800","800","0","[[2,3,0],[0,0],[1]]","4","[[2,3,0],[0,0],[1]]","11","0","","","","","","4","","","","","","","","",""
"","","","","","poldrack-single-stim","170","292571","0.0-2.0-44.0","5b208c7888ee7400012b63f4","B2","batch2","","-1","tol_feedback","","","true","","1000","1000","500","","","","","","-1","none","true","3069","6696","","","","","","","","","",""
"","","","","","html-button-response","171","293279","0.0-2.0-45.0","5b208c7888ee7400012b63f4","B2","batch2","","706.1999999880791","tol_trial_num","<div class = centerbox><p class = center-block-text>problem <strong>13</strong> out of 25 problems</p></div>","0","","","","","","","","","","","","","","","","","","","","","","","","",""
"","","","","","single-stim-button","172","296635","0.0-2.0-46.0-0.0","5b208c7888ee7400012b63f4","B2","batch2","","3354","tol_tohand","","","","tol_peg_1","3354","3354","0","[[1,0,0],[3,0],[0]]","1","[[0,0,0],[2,3],[1]]","12","0","","","","","","4","","","","","","","","",""
"","","","","","single-stim-button","173","297318","0.0-2.0-46.0-1.0","5b208c7888ee7400012b63f4","B2","batch2","","682","tol_toboard","","","","tol_peg_2","682","682","0","[[1,0,0],[3,2],[0]]","1","[[0,0,0],[2,3],[1]]","12","0","","","","","","4","","","","","","","","",""
"","","","","","single-stim-button","174","297854","0.0-2.0-46.1-0.1","5b208c7888ee7400012b63f4","B2","batch2","","534","tol_tohand","","","","tol_peg_1","534","534","0","[[0,0,0],[3,2],[0]]","2","[[0,0,0],[2,3],[1]]","12","0","","","","","","4","","","","","","","","",""
"","","","","","single-stim-button","175","298817","0.0-2.0-46.1-1.1","5b208c7888ee7400012b63f4","B2","batch2","","961","tol_toboard","","","","tol_peg_3","961","961","0","[[0,0,0],[3,2],[1]]","2","[[0,0,0],[2,3],[1]]","12","0","","","","","","4","","","","","","","","",""
"","","","","","single-stim-button","176","302354","0.0-2.0-46.2-0.2","5b208c7888ee7400012b63f4","B2","batch2","","3536","tol_tohand","","","","tol_peg_3","3536","3536","0","[[0,0,0],[3,2],[0]]","3","[[0,0,0],[2,3],[1]]","12","0","","","","","","4","","","","","","","","",""
"","","","","","single-stim-button","177","303189","0.0-2.0-46.2-1.2","5b208c7888ee7400012b63f4","B2","batch2","","834","tol_toboard","","","","tol_peg_1","834","834","0","[[1,0,0],[3,2],[0]]","3","[[0,0,0],[2,3],[1]]","12","0","","","","","","4","","","","","","","","",""
"","","","","","single-stim-button","178","303743","0.0-2.0-46.3-0.3","5b208c7888ee7400012b63f4","B2","batch2","","552","tol_tohand","","","","tol_peg_2","552","552","0","[[1,0,0],[3,0],[0]]","4","[[0,0,0],[2,3],[1]]","12","0","","","","","","4","","","","","","","","",""
"","","","","","single-stim-button","179","304240","0.0-2.0-46.3-1.3","5b208c7888ee7400012b63f4","B2","batch2","","497","tol_toboard","","","","tol_peg_1","497","497","0","[[1,2,0],[3,0],[0]]","4","[[0,0,0],[2,3],[1]]","12","0","","","","","","4","","","","","","","","",""
"","","","","","single-stim-button","180","305056","0.0-2.0-46.4-0.4","5b208c7888ee7400012b63f4","B2","batch2","","815","tol_tohand","","","","tol_peg_2","815","815","0","[[1,2,0],[0,0],[0]]","5","[[0,0,0],[2,3],[1]]","12","0","","","","","","4","","","","","","","","",""
"","","","","","single-stim-button","181","305690","0.0-2.0-46.4-1.4","5b208c7888ee7400012b63f4","B2","batch2","","632","tol_toboard","","","","tol_peg_3","632","632","0","[[1,2,0],[0,0],[3]]","5","[[0,0,0],[2,3],[1]]","12","0","","","","","","4","","","","","","","","",""
"","","","","","single-stim-button","182","306274","0.0-2.0-46.5-0.5","5b208c7888ee7400012b63f4","B2","batch2","","584","tol_tohand","","","","tol_peg_1","584","584","0","[[1,0,0],[0,0],[3]]","6","[[0,0,0],[2,3],[1]]","12","0","","","","","","4","","","","","","","","",""
"","","","","","single-stim-button","183","306895","0.0-2.0-46.5-1.5","5b208c7888ee7400012b63f4","B2","batch2","","620","tol_toboard","","","","tol_peg_2","620","620","0","[[1,0,0],[2,0],[3]]","6","[[0,0,0],[2,3],[1]]","12","0","","","","","","4","","","","","","","","",""
"","","","","","single-stim-button","184","307359","0.0-2.0-46.6-0.6","5b208c7888ee7400012b63f4","B2","batch2","","462","tol_tohand","","","","tol_peg_3","462","462","0","[[1,0,0],[2,0],[0]]","7","[[0,0,0],[2,3],[1]]","12","0","","","","","","4","","","","","","","","",""
"","","","","","single-stim-button","185","308058","0.0-2.0-46.6-1.6","5b208c7888ee7400012b63f4","B2","batch2","","698","tol_toboard","","","","tol_peg_2","698","698","0","[[1,0,0],[2,3],[0]]","7","[[0,0,0],[2,3],[1]]","12","0","","","","","","4","","","","","","","","",""
"","","","","","single-stim-button","186","308594","0.0-2.0-46.7-0.7","5b208c7888ee7400012b63f4","B2","batch2","","534","tol_tohand","","","","tol_peg_1","534","534","0","[[0,0,0],[2,3],[0]]","8","[[0,0,0],[2,3],[1]]","12","0","","","","","","4","","","","","","","","",""
"","","","","","single-stim-button","187","309494","0.0-2.0-46.7-1.7","5b208c7888ee7400012b63f4","B2","batch2","","898","tol_toboard","","","","tol_peg_3","898","898","0","[[0,0,0],[2,3],[1]]","8","[[0,0,0],[2,3],[1]]","12","0","","","","","","4","","","","","","","","",""
"","","","","","poldrack-single-stim","188","310501","0.0-2.0-47.0","5b208c7888ee7400012b63f4","B2","batch2","","-1","tol_feedback","","","true","","1000","1000","500","","","","","","-1","none","true","3354","10371","","","","","","","","","",""
"","","","","","html-button-response","189","312512","0.0-2.0-48.0","5b208c7888ee7400012b63f4","B2","batch2","","2009.199999988079","attention_check","<p class = block-text>How many balls are in your board<br></p>","1","true","","","","","","","","","","","","","","","","","","","","","","","",""
"","","","","","html-button-response","190","313230","0.0-2.0-49.0","5b208c7888ee7400012b63f4","B2","batch2","","715.3000000119209","tol_trial_num","<div class = centerbox><p class = center-block-text>problem <strong>14</strong> out of 25 problems</p></div>","0","","","","","","","","","","","","","","","","","","","","","","","","",""
"","","","","","single-stim-button","191","317646","0.0-2.0-50.0-0.0","5b208c7888ee7400012b63f4","B2","batch2","","4415","tol_tohand","","","","tol_peg_1","4415","4415","0","[[2,0,0],[3,0],[0]]","1","[[1,2,0],[3,0],[0]]","13","0","","","","","","4","","","","","","","","",""
"","","","","","single-stim-button","192","318484","0.0-2.0-50.0-1.0","5b208c7888ee7400012b63f4","B2","batch2","","836","tol_toboard","","","","tol_peg_3","836","836","0","[[2,0,0],[3,0],[1]]","1","[[1,2,0],[3,0],[0]]","13","0","","","","","","4","","","","","","","","",""
"","","","","","single-stim-button","193","319037","0.0-2.0-50.1-0.1","5b208c7888ee7400012b63f4","B2","batch2","","553","tol_tohand","","","","tol_peg_1","553","553","0","[[0,0,0],[3,0],[1]]","2","[[1,2,0],[3,0],[0]]","13","0","","","","","","4","","","","","","","","",""
"","","","","","single-stim-button","194","319817","0.0-2.0-50.1-1.1","5b208c7888ee7400012b63f4","B2","batch2","","779","tol_toboard","","","","tol_peg_2","779","779","0","[[0,0,0],[3,2],[1]]","2","[[1,2,0],[3,0],[0]]","13","0","","","","","","4","","","","","","","","",""
"","","","","","single-stim-button","195","320343","0.0-2.0-50.2-0.2","5b208c7888ee7400012b63f4","B2","batch2","","525","tol_tohand","","","","tol_peg_3","525","525","0","[[0,0,0],[3,2],[0]]","3","[[1,2,0],[3,0],[0]]","13","0","","","","","","4","","","","","","","","",""
"","","","","","single-stim-button","196","320953","0.0-2.0-50.2-1.2","5b208c7888ee7400012b63f4","B2","batch2","","608","tol_toboard","","","","tol_peg_1","608","608","0","[[1,0,0],[3,2],[0]]","3","[[1,2,0],[3,0],[0]]","13","0","","","","","","4","","","","","","","","",""
"","","","","","single-stim-button","197","321375","0.0-2.0-50.3-0.3","5b208c7888ee7400012b63f4","B2","batch2","","421","tol_tohand","","","","tol_peg_2","421","421","0","[[1,0,0],[3,0],[0]]","4","[[1,2,0],[3,0],[0]]","13","0","","","","","","4","","","","","","","","",""
"","","","","","single-stim-button","198","322053","0.0-2.0-50.3-1.3","5b208c7888ee7400012b63f4","B2","batch2","","676","tol_toboard","","","","tol_peg_1","676","676","0","[[1,2,0],[3,0],[0]]","4","[[1,2,0],[3,0],[0]]","13","0","","","","","","4","","","","","","","","",""
"","","","","","poldrack-single-stim","199","323063","0.0-2.0-51.0","5b208c7888ee7400012b63f4","B2","batch2","","-1","tol_feedback","","","true","","1000","1000","500","","","","","","-1","none","true","4415","5914","","","","","","","","","",""
"","","","","","html-button-response","200","323855","0.0-2.0-52.0","5b208c7888ee7400012b63f4","B2","batch2","","789.3999999761581","tol_trial_num","<div class = centerbox><p class = center-block-text>problem <strong>15</strong> out of 25 problems</p></div>","0","","","","","","","","","","","","","","","","","","","","","","","","",""
"","","","","","single-stim-button","201","326423","0.0-2.0-53.0-0.0","5b208c7888ee7400012b63f4","B2","batch2","","2566","tol_tohand","","","","tol_peg_1","2566","2566","0","[[1,0,0],[3,0],[0]]","1","[[2,0,0],[3,0],[1]]","14","0","","","","","","3","","","","","","","","",""
"","","","","","single-stim-button","202","327048","0.0-2.0-53.0-1.0","5b208c7888ee7400012b63f4","B2","batch2","","625","tol_toboard","","","","tol_peg_2","625","625","0","[[1,0,0],[3,2],[0]]","1","[[2,0,0],[3,0],[1]]","14","0","","","","","","3","","","","","","","","",""
"","","","","","single-stim-button","203","327562","0.0-2.0-53.1-0.1","5b208c7888ee7400012b63f4","B2","batch2","","513","tol_tohand","","","","tol_peg_1","513","513","0","[[0,0,0],[3,2],[0]]","2","[[2,0,0],[3,0],[1]]","14","0","","","","","","3","","","","","","","","",""
"","","","","","single-stim-button","204","328160","0.0-2.0-53.1-1.1","5b208c7888ee7400012b63f4","B2","batch2","","596","tol_toboard","","","","tol_peg_3","596","596","0","[[0,0,0],[3,2],[1]]","2","[[2,0,0],[3,0],[1]]","14","0","","","","","","3","","","","","","","","",""
"","","","","","single-stim-button","205","328593","0.0-2.0-53.2-0.2","5b208c7888ee7400012b63f4","B2","batch2","","432","tol_tohand","","","","tol_peg_2","432","432","0","[[0,0,0],[3,0],[1]]","3","[[2,0,0],[3,0],[1]]","14","0","","","","","","3","","","","","","","","",""
"","","","","","single-stim-button","206","329061","0.0-2.0-53.2-1.2","5b208c7888ee7400012b63f4","B2","batch2","","467","tol_toboard","","","","tol_peg_1","467","467","0","[[2,0,0],[3,0],[1]]","3","[[2,0,0],[3,0],[1]]","14","0","","","","","","3","","","","","","","","",""
"","","","","","poldrack-single-stim","207","330071","0.0-2.0-54.0","5b208c7888ee7400012b63f4","B2","batch2","","-1","tol_feedback","","","true","","1000","1000","500","","","","","","-1","none","true","2566","3511","","","","","","","","","",""
"","","","","","html-button-response","208","330810","0.0-2.0-55.0","5b208c7888ee7400012b63f4","B2","batch2","","736.5999999642372","tol_trial_num","<div class = centerbox><p class = center-block-text>problem <strong>16</strong> out of 25 problems</p></div>","0","","","","","","","","","","","","","","","","","","","","","","","","",""
"","","","","","single-stim-button","209","338034","0.0-2.0-56.0-0.0","5b208c7888ee7400012b63f4","B2","batch2","","7223","tol_tohand","","","","tol_peg_3","7223","7223","0","[[0,0,0],[2,3],[0]]","1","[[2,3,0],[1,0],[0]]","15","0","","","","","","7","","","","","","","","",""
"","","","","","single-stim-button","210","338633","0.0-2.0-56.0-1.0","5b208c7888ee7400012b63f4","B2","batch2","","598","tol_toboard","","","","tol_peg_1","598","598","0","[[1,0,0],[2,3],[0]]","1","[[2,3,0],[1,0],[0]]","15","0","","","","","","7","","","","","","","","",""
"","","","","","single-stim-button","211","339167","0.0-2.0-56.1-0.1","5b208c7888ee7400012b63f4","B2","batch2","","533","tol_tohand","","","","tol_peg_2","533","533","0","[[1,0,0],[2,0],[0]]","2","[[2,3,0],[1,0],[0]]","15","0","","","","","","7","","","","","","","","",""
"","","","","","single-stim-button","212","341186","0.0-2.0-56.1-1.1","5b208c7888ee7400012b63f4","B2","batch2","","2018","tol_toboard","","","","tol_peg_3","2018","2018","0","[[1,0,0],[2,0],[3]]","2","[[2,3,0],[1,0],[0]]","15","0","","","","","","7","","","","","","","","",""
"","","","","","single-stim-button","213","341706","0.0-2.0-56.2-0.2","5b208c7888ee7400012b63f4","B2","batch2","","519","tol_tohand","","","","tol_peg_1","519","519","0","[[0,0,0],[2,0],[3]]","3","[[2,3,0],[1,0],[0]]","15","0","","","","","","7","","","","","","","","",""
"","","","","","single-stim-button","214","344055","0.0-2.0-56.2-1.2","5b208c7888ee7400012b63f4","B2","batch2","","2348","tol_toboard","","","","tol_peg_1","2348","2348","0","[[1,0,0],[2,0],[3]]","3","[[2,3,0],[1,0],[0]]","15","0","","","","","","7","","","","","","","","",""
"","","","","","single-stim-button","215","347007","0.0-2.0-56.3-0.3","5b208c7888ee7400012b63f4","B2","batch2","","2951","tol_tohand","","","","tol_peg_2","2951","2951","0","[[1,0,0],[0,0],[3]]","4","[[2,3,0],[1,0],[0]]","15","0","","","","","","7","","","","","","","","",""
"","","","","","single-stim-button","216","348476","0.0-2.0-56.3-1.3","5b208c7888ee7400012b63f4","B2","batch2","","1467","tol_toboard","","","","tol_peg_1","1467","1467","0","[[1,2,0],[0,0],[3]]","4","[[2,3,0],[1,0],[0]]","15","0","","","","","","7","","","","","","","","",""
"","","","","","single-stim-button","217","348989","0.0-2.0-56.4-0.4","5b208c7888ee7400012b63f4","B2","batch2","","512","tol_tohand","","","","tol_peg_3","512","512","0","[[1,2,0],[0,0],[0]]","5","[[2,3,0],[1,0],[0]]","15","0","","","","","","7","","","","","","","","",""
"","","","","","single-stim-button","218","349580","0.0-2.0-56.4-1.4","5b208c7888ee7400012b63f4","B2","batch2","","590","tol_toboard","","","","tol_peg_2","590","590","0","[[1,2,0],[3,0],[0]]","5","[[2,3,0],[1,0],[0]]","15","0","","","","","","7","","","","","","","","",""
"","","","","","single-stim-button","219","349995","0.0-2.0-56.5-0.5","5b208c7888ee7400012b63f4","B2","batch2","","413","tol_tohand","","","","tol_peg_1","413","413","0","[[1,0,0],[3,0],[0]]","6","[[2,3,0],[1,0],[0]]","15","0","","","","","","7","","","","","","","","",""
"","","","","","single-stim-button","220","350578","0.0-2.0-56.5-1.5","5b208c7888ee7400012b63f4","B2","batch2","","582","tol_toboard","","","","tol_peg_3","582","582","0","[[1,0,0],[3,0],[2]]","6","[[2,3,0],[1,0],[0]]","15","0","","","","","","7","","","","","","","","",""
"","","","","","single-stim-button","221","356567","0.0-2.0-56.6-0.6","5b208c7888ee7400012b63f4","B2","batch2","","5988","tol_tohand","","","","tol_peg_3","5988","5988","0","[[1,0,0],[3,0],[0]]","7","[[2,3,0],[1,0],[0]]","15","0","","","","","","7","","","","","","","","",""
"","","","","","single-stim-button","222","357149","0.0-2.0-56.6-1.6","5b208c7888ee7400012b63f4","B2","batch2","","580","tol_toboard","","","","tol_peg_2","580","580","0","[[1,0,0],[3,2],[0]]","7","[[2,3,0],[1,0],[0]]","15","0","","","","","","7","","","","","","","","",""
"","","","","","single-stim-button","223","357656","0.0-2.0-56.7-0.7","5b208c7888ee7400012b63f4","B2","batch2","","506","tol_tohand","","","","tol_peg_1","506","506","0","[[0,0,0],[3,2],[0]]","8","[[2,3,0],[1,0],[0]]","15","0","","","","","","7","","","","","","","","",""
"","","","","","single-stim-button","224","358350","0.0-2.0-56.7-1.7","5b208c7888ee7400012b63f4","B2","batch2","","692","tol_toboard","","","","tol_peg_3","692","692","0","[[0,0,0],[3,2],[1]]","8","[[2,3,0],[1,0],[0]]","15","0","","","","","","7","","","","","","","","",""
"","","","","","single-stim-button","225","358800","0.0-2.0-56.8-0.8","5b208c7888ee7400012b63f4","B2","batch2","","449","tol_tohand","","","","tol_peg_2","449","449","0","[[0,0,0],[3,0],[1]]","9","[[2,3,0],[1,0],[0]]","15","0","","","","","","7","","","","","","","","",""
"","","","","","single-stim-button","226","359383","0.0-2.0-56.8-1.8","5b208c7888ee7400012b63f4","B2","batch2","","583","tol_toboard","","","","tol_peg_1","583","583","0","[[2,0,0],[3,0],[1]]","9","[[2,3,0],[1,0],[0]]","15","0","","","","","","7","","","","","","","","",""
"","","","","","single-stim-button","227","359903","0.0-2.0-56.9-0.9","5b208c7888ee7400012b63f4","B2","batch2","","518","tol_tohand","","","","tol_peg_2","518","518","0","[[2,0,0],[0,0],[1]]","10","[[2,3,0],[1,0],[0]]","15","0","","","","","","7","","","","","","","","",""
"","","","","","single-stim-button","228","360688","0.0-2.0-56.9-1.9","5b208c7888ee7400012b63f4","B2","batch2","","784","tol_toboard","","","","tol_peg_1","784","784","0","[[2,3,0],[0,0],[1]]","10","[[2,3,0],[1,0],[0]]","15","0","","","","","","7","","","","","","","","",""
"","","","","","single-stim-button","229","361237","0.0-2.0-56.10-0.10","5b208c7888ee7400012b63f4","B2","batch2","","548","tol_tohand","","","","tol_peg_3","548","548","0","[[2,3,0],[0,0],[0]]","11","[[2,3,0],[1,0],[0]]","15","0","","","","","","7","","","","","","","","",""
"","","","","","single-stim-button","230","361836","0.0-2.0-56.10-1.10","5b208c7888ee7400012b63f4","B2","batch2","","598","tol_toboard","","","","tol_peg_2","598","598","0","[[2,3,0],[1,0],[0]]","11","[[2,3,0],[1,0],[0]]","15","0","","","","","","7","","","","","","","","",""
"","","","","","poldrack-single-stim","231","362844","0.0-2.0-57.0","5b208c7888ee7400012b63f4","B2","batch2","","-1","tol_feedback","","","true","","1000","1000","500","","","","","","-1","none","true","7223","20160","","","","","","","","","",""
"","","","","","html-button-response","232","363504","0.0-2.0-58.0","5b208c7888ee7400012b63f4","B2","batch2","","657.8000000119209","tol_trial_num","<div class = centerbox><p class = center-block-text>problem <strong>17</strong> out of 25 problems</p></div>","0","","","","","","","","","","","","","","","","","","","","","","","","",""
"","","","","","single-stim-button","233","371463","0.0-2.0-59.0-0.0","5b208c7888ee7400012b63f4","B2","batch2","","7957","tol_tohand","","","","tol_peg_2","7957","7957","0","[[1,2,0],[0,0],[0]]","1","[[3,1,0],[2,0],[0]]","16","0","","","","","","5","","","","","","","","",""
"","","","","","single-stim-button","234","372063","0.0-2.0-59.0-1.0","5b208c7888ee7400012b63f4","B2","batch2","","600","tol_toboard","","","","tol_peg_3","600","600","0","[[1,2,0],[0,0],[3]]","1","[[3,1,0],[2,0],[0]]","16","0","","","","","","5","","","","","","","","",""
"","","","","","single-stim-button","235","372596","0.0-2.0-59.1-0.1","5b208c7888ee7400012b63f4","B2","batch2","","532","tol_tohand","","","","tol_peg_1","532","532","0","[[1,0,0],[0,0],[3]]","2","[[3,1,0],[2,0],[0]]","16","0","","","","","","5","","","","","","","","",""
"","","","","","single-stim-button","236","373296","0.0-2.0-59.1-1.1","5b208c7888ee7400012b63f4","B2","batch2","","698","tol_toboard","","","","tol_peg_2","698","698","0","[[1,0,0],[2,0],[3]]","2","[[3,1,0],[2,0],[0]]","16","0","","","","","","5","","","","","","","","",""
"","","","","","single-stim-button","237","373785","0.0-2.0-59.2-0.2","5b208c7888ee7400012b63f4","B2","batch2","","489","tol_tohand","","","","tol_peg_1","489","489","0","[[0,0,0],[2,0],[3]]","3","[[3,1,0],[2,0],[0]]","16","0","","","","","","5","","","","","","","","",""
"","","","","","single-stim-button","238","375031","0.0-2.0-59.2-1.2","5b208c7888ee7400012b63f4","B2","batch2","","1244","tol_toboard","","","","tol_peg_2","1244","1244","0","[[0,0,0],[2,1],[3]]","3","[[3,1,0],[2,0],[0]]","16","0","","","","","","5","","","","","","","","",""
"","","","","","single-stim-button","239","375549","0.0-2.0-59.3-0.3","5b208c7888ee7400012b63f4","B2","batch2","","518","tol_tohand","","","","tol_peg_3","518","518","0","[[0,0,0],[2,1],[0]]","4","[[3,1,0],[2,0],[0]]","16","0","","","","","","5","","","","","","","","",""
"","","","","","single-stim-button","240","376231","0.0-2.0-59.3-1.3","5b208c7888ee7400012b63f4","B2","batch2","","681","tol_toboard","","","","tol_peg_1","681","681","0","[[3,0,0],[2,1],[0]]","4","[[3,1,0],[2,0],[0]]","16","0","","","","","","5","","","","","","","","",""
"","","","","","single-stim-button","241","376798","0.0-2.0-59.4-0.4","5b208c7888ee7400012b63f4","B2","batch2","","565","tol_tohand","","","","tol_peg_2","565","565","0","[[3,0,0],[2,0],[0]]","5","[[3,1,0],[2,0],[0]]","16","0","","","","","","5","","","","","","","","",""
"","","","","","single-stim-button","242","377549","0.0-2.0-59.4-1.4","5b208c7888ee7400012b63f4","B2","batch2","","749","tol_toboard","","","","tol_peg_1","749","749","0","[[3,1,0],[2,0],[0]]","5","[[3,1,0],[2,0],[0]]","16","0","","","","","","5","","","","","","","","",""
"","","","","","poldrack-single-stim","243","378556","0.0-2.0-60.0","5b208c7888ee7400012b63f4","B2","batch2","","-1","tol_feedback","","","true","","1000","1000","500","","","","","","-1","none","true","7957","10061","","","","","","","","","",""
"","","","","","html-button-response","244","379367","0.0-2.0-61.0","5b208c7888ee7400012b63f4","B2","batch2","","808.1999999880791","tol_trial_num","<div class = centerbox><p class = center-block-text>problem <strong>18</strong> out of 25 problems</p></div>","0","","","","","","","","","","","","","","","","","","","","","","","","",""
"","","","","","single-stim-button","245","383068","0.0-2.0-62.0-0.0","5b208c7888ee7400012b63f4","B2","batch2","","3700","tol_tohand","","","","tol_peg_1","3700","3700","0","[[1,0,0],[3,0],[0]]","1","[[3,0,0],[2,0],[1]]","17","0","","","","","","5","","","","","","","","",""
"","","","","","single-stim-button","246","383753","0.0-2.0-62.0-1.0","5b208c7888ee7400012b63f4","B2","batch2","","683","tol_toboard","","","","tol_peg_2","683","683","0","[[1,0,0],[3,2],[0]]","1","[[3,0,0],[2,0],[1]]","17","0","","","","","","5","","","","","","","","",""
"","","","","","single-stim-button","247","384156","0.0-2.0-62.1-0.1","5b208c7888ee7400012b63f4","B2","batch2","","401","tol_tohand","","","","tol_peg_1","401","401","0","[[0,0,0],[3,2],[0]]","2","[[3,0,0],[2,0],[1]]","17","0","","","","","","5","","","","","","","","",""
"","","","","","single-stim-button","248","385189","0.0-2.0-62.1-1.1","5b208c7888ee7400012b63f4","B2","batch2","","1032","tol_toboard","","","","tol_peg_3","1032","1032","0","[[0,0,0],[3,2],[1]]","2","[[3,0,0],[2,0],[1]]","17","0","","","","","","5","","","","","","","","",""
"","","","","","single-stim-button","249","387775","0.0-2.0-62.2-0.2","5b208c7888ee7400012b63f4","B2","batch2","","2584","tol_tohand","","","","tol_peg_3","2584","2584","0","[[0,0,0],[3,2],[0]]","3","[[3,0,0],[2,0],[1]]","17","0","","","","","","5","","","","","","","","",""
"","","","","","single-stim-button","250","388421","0.0-2.0-62.2-1.2","5b208c7888ee7400012b63f4","B2","batch2","","644","tol_toboard","","","","tol_peg_1","644","644","0","[[1,0,0],[3,2],[0]]","3","[[3,0,0],[2,0],[1]]","17","0","","","","","","5","","","","","","","","",""
"","","","","","single-stim-button","251","388842","0.0-2.0-62.3-0.3","5b208c7888ee7400012b63f4","B2","batch2","","420","tol_tohand","","","","tol_peg_2","420","420","0","[[1,0,0],[3,0],[0]]","4","[[3,0,0],[2,0],[1]]","17","0","","","","","","5","","","","","","","","",""
"","","","","","single-stim-button","252","389459","0.0-2.0-62.3-1.3","5b208c7888ee7400012b63f4","B2","batch2","","616","tol_toboard","","","","tol_peg_3","616","616","0","[[1,0,0],[3,0],[2]]","4","[[3,0,0],[2,0],[1]]","17","0","","","","","","5","","","","","","","","",""
"","","","","","single-stim-button","253","390118","0.0-2.0-62.4-0.4","5b208c7888ee7400012b63f4","B2","batch2","","657","tol_tohand","","","","tol_peg_1","657","657","0","[[0,0,0],[3,0],[2]]","5","[[3,0,0],[2,0],[1]]","17","0","","","","","","5","","","","","","","","",""
"","","","","","single-stim-button","254","396098","0.0-2.0-62.4-1.4","5b208c7888ee7400012b63f4","B2","batch2","","5979","tol_toboard","","","","tol_peg_1","5979","5979","0","[[1,0,0],[3,0],[2]]","5","[[3,0,0],[2,0],[1]]","17","0","","","","","","5","","","","","","","","",""
"","","","","","single-stim-button","255","396682","0.0-2.0-62.5-0.5","5b208c7888ee7400012b63f4","B2","batch2","","582","tol_tohand","","","","tol_peg_2","582","582","0","[[1,0,0],[0,0],[2]]","6","[[3,0,0],[2,0],[1]]","17","0","","","","","","5","","","","","","","","",""
"","","","","","single-stim-button","256","397100","0.0-2.0-62.5-1.5","5b208c7888ee7400012b63f4","B2","batch2","","416","tol_toboard","","","","tol_peg_1","416","416","0","[[1,3,0],[0,0],[2]]","6","[[3,0,0],[2,0],[1]]","17","0","","","","","","5","","","","","","","","",""
"","","","","","single-stim-button","257","397716","0.0-2.0-62.6-0.6","5b208c7888ee7400012b63f4","B2","batch2","","614","tol_tohand","","","","tol_peg_3","614","614","0","[[1,3,0],[0,0],[0]]","7","[[3,0,0],[2,0],[1]]","17","0","","","","","","5","","","","","","","","",""
"","","","","","single-stim-button","258","398286","0.0-2.0-62.6-1.6","5b208c7888ee7400012b63f4","B2","batch2","","569","tol_toboard","","","","tol_peg_2","569","569","0","[[1,3,0],[2,0],[0]]","7","[[3,0,0],[2,0],[1]]","17","0","","","","","","5","","","","","","","","",""
"","","","","","single-stim-button","259","398716","0.0-2.0-62.7-0.7","5b208c7888ee7400012b63f4","B2","batch2","","429","tol_tohand","","","","tol_peg_1","429","429","0","[[1,0,0],[2,0],[0]]","8","[[3,0,0],[2,0],[1]]","17","0","","","","","","5","","","","","","","","",""
"","","","","","single-stim-button","260","399616","0.0-2.0-62.7-1.7","5b208c7888ee7400012b63f4","B2","batch2","","899","tol_toboard","","","","tol_peg_3","899","899","0","[[1,0,0],[2,0],[3]]","8","[[3,0,0],[2,0],[1]]","17","0","","","","","","5","","","","","","","","",""
"","","","","","single-stim-button","261","400075","0.0-2.0-62.8-0.8","5b208c7888ee7400012b63f4","B2","batch2","","458","tol_tohand","","","","tol_peg_1","458","458","0","[[0,0,0],[2,0],[3]]","9","[[3,0,0],[2,0],[1]]","17","0","","","","","","5","","","","","","","","",""
"","","","","","single-stim-button","262","400887","0.0-2.0-62.8-1.8","5b208c7888ee7400012b63f4","B2","batch2","","810","tol_toboard","","","","tol_peg_2","810","810","0","[[0,0,0],[2,1],[3]]","9","[[3,0,0],[2,0],[1]]","17","0","","","","","","5","","","","","","","","",""
"","","","","","single-stim-button","263","401583","0.0-2.0-62.9-0.9","5b208c7888ee7400012b63f4","B2","batch2","","696","tol_tohand","","","","tol_peg_3","696","696","0","[[0,0,0],[2,1],[0]]","10","[[3,0,0],[2,0],[1]]","17","0","","","","","","5","","","","","","","","",""
"","","","","","single-stim-button","264","402467","0.0-2.0-62.9-1.9","5b208c7888ee7400012b63f4","B2","batch2","","884","tol_toboard","","","","tol_peg_1","884","884","0","[[3,0,0],[2,1],[0]]","10","[[3,0,0],[2,0],[1]]","17","0","","","","","","5","","","","","","","","",""
"","","","","","single-stim-button","265","403555","0.0-2.0-62.10-0.10","5b208c7888ee7400012b63f4","B2","batch2","","1084","tol_tohand","","","","tol_peg_2","1084","1084","0","[[3,0,0],[2,0],[0]]","11","[[3,0,0],[2,0],[1]]","17","0","","","","","","5","","","","","","","","",""
"","","","","","single-stim-button","266","404324","0.0-2.0-62.10-1.10","5b208c7888ee7400012b63f4","B2","batch2","","767","tol_toboard","","","","tol_peg_3","767","767","0","[[3,0,0],[2,0],[1]]","11","[[3,0,0],[2,0],[1]]","17","0","","","","","","5","","","","","","","","",""
"","","","","","poldrack-single-stim","267","405335","0.0-2.0-63.0","5b208c7888ee7400012b63f4","B2","batch2","","-1","tol_feedback","","","true","","1000","1000","500","","","","","","-1","none","true","3700","11625","","","","","","","","","",""
"","","","","","html-button-response","268","406255","0.0-2.0-64.0","5b208c7888ee7400012b63f4","B2","batch2","","918.8000000119209","tol_trial_num","<div class = centerbox><p class = center-block-text>problem <strong>19</strong> out of 25 problems</p></div>","0","","","","","","","","","","","","","","","","","","","","","","","","",""
"","","","","","single-stim-button","269","415248","0.0-2.0-65.0-0.0","5b208c7888ee7400012b63f4","B2","batch2","","8992","tol_tohand","","","","tol_peg_1","8992","8992","0","[[1,0,0],[3,0],[0]]","1","[[0,0,0],[1,2],[3]]","18","0","","","","","","7","","","","","","","","",""
"","","","","","single-stim-button","270","415834","0.0-2.0-65.0-1.0","5b208c7888ee7400012b63f4","B2","batch2","","584","tol_toboard","","","","tol_peg_2","584","584","0","[[1,0,0],[3,2],[0]]","1","[[0,0,0],[1,2],[3]]","18","0","","","","","","7","","","","","","","","",""
"","","","","","single-stim-button","271","416437","0.0-2.0-65.1-0.1","5b208c7888ee7400012b63f4","B2","batch2","","602","tol_tohand","","","","tol_peg_1","602","602","0","[[0,0,0],[3,2],[0]]","2","[[0,0,0],[1,2],[3]]","18","0","","","","","","7","","","","","","","","",""
"","","","","","single-stim-button","272","417282","0.0-2.0-65.1-1.1","5b208c7888ee7400012b63f4","B2","batch2","","844","tol_toboard","","","","tol_peg_3","844","844","0","[[0,0,0],[3,2],[1]]","2","[[0,0,0],[1,2],[3]]","18","0","","","","","","7","","","","","","","","",""
"","","","","","single-stim-button","273","418099","0.0-2.0-65.2-0.2","5b208c7888ee7400012b63f4","B2","batch2","","817","tol_tohand","","","","tol_peg_2","817","817","0","[[0,0,0],[3,0],[1]]","3","[[0,0,0],[1,2],[3]]","18","0","","","","","","7","","","","","","","","",""
"","","","","","single-stim-button","274","419033","0.0-2.0-65.2-1.2","5b208c7888ee7400012b63f4","B2","batch2","","932","tol_toboard","","","","tol_peg_1","932","932","0","[[2,0,0],[3,0],[1]]","3","[[0,0,0],[1,2],[3]]","18","0","","","","","","7","","","","","","","","",""
"","","","","","single-stim-button","275","419734","0.0-2.0-65.3-0.3","5b208c7888ee7400012b63f4","B2","batch2","","700","tol_tohand","","","","tol_peg_2","700","700","0","[[2,0,0],[0,0],[1]]","4","[[0,0,0],[1,2],[3]]","18","0","","","","","","7","","","","","","","","",""
"","","","","","single-stim-button","276","420351","0.0-2.0-65.3-1.3","5b208c7888ee7400012b63f4","B2","batch2","","616","tol_toboard","","","","tol_peg_1","616","616","0","[[2,3,0],[0,0],[1]]","4","[[0,0,0],[1,2],[3]]","18","0","","","","","","7","","","","","","","","",""
"","","","","","single-stim-button","277","421101","0.0-2.0-65.4-0.4","5b208c7888ee7400012b63f4","B2","batch2","","749","tol_tohand","","","","tol_peg_3","749","749","0","[[2,3,0],[0,0],[0]]","5","[[0,0,0],[1,2],[3]]","18","0","","","","","","7","","","","","","","","",""
"","","","","","single-stim-button","278","421793","0.0-2.0-65.4-1.4","5b208c7888ee7400012b63f4","B2","batch2","","691","tol_toboard","","","","tol_peg_2","691","691","0","[[2,3,0],[1,0],[0]]","5","[[0,0,0],[1,2],[3]]","18","0","","","","","","7","","","","","","","","",""
"","","","","","single-stim-button","279","422251","0.0-2.0-65.5-0.5","5b208c7888ee7400012b63f4","B2","batch2","","456","tol_tohand","","","","tol_peg_1","456","456","0","[[2,0,0],[1,0],[0]]","6","[[0,0,0],[1,2],[3]]","18","0","","","","","","7","","","","","","","","",""
"","","","","","single-stim-button","280","423122","0.0-2.0-65.5-1.5","5b208c7888ee7400012b63f4","B2","batch2","","870","tol_toboard","","","","tol_peg_3","870","870","0","[[2,0,0],[1,0],[3]]","6","[[0,0,0],[1,2],[3]]","18","0","","","","","","7","","","","","","","","",""
"","","","","","single-stim-button","281","424489","0.0-2.0-65.6-0.6","5b208c7888ee7400012b63f4","B2","batch2","","1366","tol_tohand","","","","tol_peg_1","1366","1366","0","[[0,0,0],[1,0],[3]]","7","[[0,0,0],[1,2],[3]]","18","0","","","","","","7","","","","","","","","",""
"","","","","","single-stim-button","282","425088","0.0-2.0-65.6-1.6","5b208c7888ee7400012b63f4","B2","batch2","","598","tol_toboard","","","","tol_peg_2","598","598","0","[[0,0,0],[1,2],[3]]","7","[[0,0,0],[1,2],[3]]","18","0","","","","","","7","","","","","","","","",""
"","","","","","poldrack-single-stim","283","426094","0.0-2.0-66.0","5b208c7888ee7400012b63f4","B2","batch2","","-1","tol_feedback","","","true","","1000","1000","500","","","","","","-1","none","true","8992","13682","","","","","","","","","",""
"","","","","","html-button-response","284","426822","0.0-2.0-67.0","5b208c7888ee7400012b63f4","B2","batch2","","726.1999999880791","tol_trial_num","<div class = centerbox><p class = center-block-text>problem <strong>20</strong> out of 25 problems</p></div>","0","","","","","","","","","","","","","","","","","","","","","","","","",""
"","","","","","single-stim-button","285","434183","0.0-2.0-68.0-0.0","5b208c7888ee7400012b63f4","B2","batch2","","7359","tol_tohand","","","","tol_peg_1","7359","7359","0","[[1,0,0],[3,0],[0]]","1","[[2,1,0],[0,0],[3]]","19","0","","","","","","5","","","","","","","","",""
"","","","","","single-stim-button","286","434963","0.0-2.0-68.0-1.0","5b208c7888ee7400012b63f4","B2","batch2","","778","tol_toboard","","","","tol_peg_3","778","778","0","[[1,0,0],[3,0],[2]]","1","[[2,1,0],[0,0],[3]]","19","0","","","","","","5","","","","","","","","",""
"","","","","","single-stim-button","287","436284","0.0-2.0-68.1-0.1","5b208c7888ee7400012b63f4","B2","batch2","","1320","tol_tohand","","","","tol_peg_1","1320","1320","0","[[0,0,0],[3,0],[2]]","2","[[2,1,0],[0,0],[3]]","19","0","","","","","","5","","","","","","","","",""
"","","","","","single-stim-button","288","436948","0.0-2.0-68.1-1.1","5b208c7888ee7400012b63f4","B2","batch2","","663","tol_toboard","","","","tol_peg_2","663","663","0","[[0,0,0],[3,1],[2]]","2","[[2,1,0],[0,0],[3]]","19","0","","","","","","5","","","","","","","","",""
"","","","","","single-stim-button","289","437500","0.0-2.0-68.2-0.2","5b208c7888ee7400012b63f4","B2","batch2","","550","tol_tohand","","","","tol_peg_3","550","550","0","[[0,0,0],[3,1],[0]]","3","[[2,1,0],[0,0],[3]]","19","0","","","","","","5","","","","","","","","",""
"","","","","","single-stim-button","290","438270","0.0-2.0-68.2-1.2","5b208c7888ee7400012b63f4","B2","batch2","","769","tol_toboard","","","","tol_peg_1","769","769","0","[[2,0,0],[3,1],[0]]","3","[[2,1,0],[0,0],[3]]","19","0","","","","","","5","","","","","","","","",""
"","","","","","single-stim-button","291","438850","0.0-2.0-68.3-0.3","5b208c7888ee7400012b63f4","B2","batch2","","579","tol_tohand","","","","tol_peg_2","579","579","0","[[2,0,0],[3,0],[0]]","4","[[2,1,0],[0,0],[3]]","19","0","","","","","","5","","","","","","","","",""
"","","","","","single-stim-button","292","439534","0.0-2.0-68.3-1.3","5b208c7888ee7400012b63f4","B2","batch2","","683","tol_toboard","","","","tol_peg_1","683","683","0","[[2,1,0],[3,0],[0]]","4","[[2,1,0],[0,0],[3]]","19","0","","","","","","5","","","","","","","","",""
"","","","","","single-stim-button","293","439984","0.0-2.0-68.4-0.4","5b208c7888ee7400012b63f4","B2","batch2","","449","tol_tohand","","","","tol_peg_2","449","449","0","[[2,1,0],[0,0],[0]]","5","[[2,1,0],[0,0],[3]]","19","0","","","","","","5","","","","","","","","",""
"","","","","","single-stim-button","294","440500","0.0-2.0-68.4-1.4","5b208c7888ee7400012b63f4","B2","batch2","","515","tol_toboard","","","","tol_peg_3","515","515","0","[[2,1,0],[0,0],[3]]","5","[[2,1,0],[0,0],[3]]","19","0","","","","","","5","","","","","","","","",""
"","","","","","poldrack-single-stim","295","441508","0.0-2.0-69.0","5b208c7888ee7400012b63f4","B2","batch2","","-1","tol_feedback","","","true","","1000","1000","500","","","","","","-1","none","true","7359","10257","","","","","","","","","",""
"","","","","","html-button-response","296","445905","0.0-2.0-70.0","5b208c7888ee7400012b63f4","B2","batch2","","4395","tol_trial_num","<div class = centerbox><p class = center-block-text>problem <strong>21</strong> out of 25 problems</p></div>","0","","","","","","","","","","","","","","","","","","","","","","","","",""
"","","","","","single-stim-button","297","452263","0.0-2.0-71.0-0.0","5b208c7888ee7400012b63f4","B2","batch2","","6356","tol_tohand","","","","tol_peg_1","6356","6356","0","[[1,0,0],[3,0],[0]]","1","[[3,2,0],[0,0],[1]]","20","0","","","","","","6","","","","","","","","",""
"","","","","","single-stim-button","298","452995","0.0-2.0-71.0-1.0","5b208c7888ee7400012b63f4","B2","batch2","","729","tol_toboard","","","","tol_peg_3","729","729","0","[[1,0,0],[3,0],[2]]","1","[[3,2,0],[0,0],[1]]","20","0","","","","","","6","","","","","","","","",""
"","","","","","single-stim-button","299","453559","0.0-2.0-71.1-0.1","5b208c7888ee7400012b63f4","B2","batch2","","562","tol_tohand","","","","tol_peg_1","562","562","0","[[0,0,0],[3,0],[2]]","2","[[3,2,0],[0,0],[1]]","20","0","","","","","","6","","","","","","","","",""
"","","","","","single-stim-button","300","454230","0.0-2.0-71.1-1.1","5b208c7888ee7400012b63f4","B2","batch2","","670","tol_toboard","","","","tol_peg_2","670","670","0","[[0,0,0],[3,1],[2]]","2","[[3,2,0],[0,0],[1]]","20","0","","","","","","6","","","","","","","","",""
"","","","","","single-stim-button","301","456832","0.0-2.0-71.2-0.2","5b208c7888ee7400012b63f4","B2","batch2","","2600","tol_tohand","","","","tol_peg_2","2600","2600","0","[[0,0,0],[3,0],[2]]","3","[[3,2,0],[0,0],[1]]","20","0","","","","","","6","","","","","","","","",""
"","","","","","single-stim-button","302","457665","0.0-2.0-71.2-1.2","5b208c7888ee7400012b63f4","B2","batch2","","832","tol_toboard","","","","tol_peg_1","832","832","0","[[1,0,0],[3,0],[2]]","3","[[3,2,0],[0,0],[1]]","20","0","","","","","","6","","","","","","","","",""
"","","","","","single-stim-button","303","459568","0.0-2.0-71.3-0.3","5b208c7888ee7400012b63f4","B2","batch2","","1901","tol_tohand","","","","tol_peg_3","1901","1901","0","[[1,0,0],[3,0],[0]]","4","[[3,2,0],[0,0],[1]]","20","0","","","","","","6","","","","","","","","",""
"","","","","","single-stim-button","304","460101","0.0-2.0-71.3-1.3","5b208c7888ee7400012b63f4","B2","batch2","","532","tol_toboard","","","","tol_peg_2","532","532","0","[[1,0,0],[3,2],[0]]","4","[[3,2,0],[0,0],[1]]","20","0","","","","","","6","","","","","","","","",""
"","","","","","single-stim-button","305","465436","0.0-2.0-71.4-0.4","5b208c7888ee7400012b63f4","B2","batch2","","5334","tol_tohand","","","","tol_peg_2","5334","5334","0","[[1,0,0],[3,0],[0]]","5","[[3,2,0],[0,0],[1]]","20","0","","","","","","6","","","","","","","","",""
"","","","","","single-stim-button","306","466190","0.0-2.0-71.4-1.4","5b208c7888ee7400012b63f4","B2","batch2","","752","tol_toboard","","","","tol_peg_3","752","752","0","[[1,0,0],[3,0],[2]]","5","[[3,2,0],[0,0],[1]]","20","0","","","","","","6","","","","","","","","",""
"","","","","","single-stim-button","307","466656","0.0-2.0-71.5-0.5","5b208c7888ee7400012b63f4","B2","batch2","","465","tol_tohand","","","","tol_peg_2","465","465","0","[[1,0,0],[0,0],[2]]","6","[[3,2,0],[0,0],[1]]","20","0","","","","","","6","","","","","","","","",""
"","","","","","single-stim-button","308","468074","0.0-2.0-71.5-1.5","5b208c7888ee7400012b63f4","B2","batch2","","1416","tol_toboard","","","","tol_peg_1","1416","1416","0","[[1,3,0],[0,0],[2]]","6","[[3,2,0],[0,0],[1]]","20","0","","","","","","6","","","","","","","","",""
"","","","","","single-stim-button","309","468642","0.0-2.0-71.6-0.6","5b208c7888ee7400012b63f4","B2","batch2","","567","tol_tohand","","","","tol_peg_3","567","567","0","[[1,3,0],[0,0],[0]]","7","[[3,2,0],[0,0],[1]]","20","0","","","","","","6","","","","","","","","",""
"","","","","","single-stim-button","310","469425","0.0-2.0-71.6-1.6","5b208c7888ee7400012b63f4","B2","batch2","","783","tol_toboard","","","","tol_peg_2","783","783","0","[[1,3,0],[2,0],[0]]","7","[[3,2,0],[0,0],[1]]","20","0","","","","","","6","","","","","","","","",""
"","","","","","single-stim-button","311","469825","0.0-2.0-71.7-0.7","5b208c7888ee7400012b63f4","B2","batch2","","399","tol_tohand","","","","tol_peg_1","399","399","0","[[1,0,0],[2,0],[0]]","8","[[3,2,0],[0,0],[1]]","20","0","","","","","","6","","","","","","","","",""
"","","","","","single-stim-button","312","470393","0.0-2.0-71.7-1.7","5b208c7888ee7400012b63f4","B2","batch2","","566","tol_toboard","","","","tol_peg_2","566","566","0","[[1,0,0],[2,3],[0]]","8","[[3,2,0],[0,0],[1]]","20","0","","","","","","6","","","","","","","","",""
"","","","","","single-stim-button","313","470811","0.0-2.0-71.8-0.8","5b208c7888ee7400012b63f4","B2","batch2","","417","tol_tohand","","","","tol_peg_1","417","417","0","[[0,0,0],[2,3],[0]]","9","[[3,2,0],[0,0],[1]]","20","0","","","","","","6","","","","","","","","",""
"","","","","","single-stim-button","314","471545","0.0-2.0-71.8-1.8","5b208c7888ee7400012b63f4","B2","batch2","","734","tol_toboard","","","","tol_peg_3","734","734","0","[[0,0,0],[2,3],[1]]","9","[[3,2,0],[0,0],[1]]","20","0","","","","","","6","","","","","","","","",""
"","","","","","single-stim-button","315","472025","0.0-2.0-71.9-0.9","5b208c7888ee7400012b63f4","B2","batch2","","479","tol_tohand","","","","tol_peg_2","479","479","0","[[0,0,0],[2,0],[1]]","10","[[3,2,0],[0,0],[1]]","20","0","","","","","","6","","","","","","","","",""
"","","","","","single-stim-button","316","472580","0.0-2.0-71.9-1.9","5b208c7888ee7400012b63f4","B2","batch2","","553","tol_toboard","","","","tol_peg_1","553","553","0","[[3,0,0],[2,0],[1]]","10","[[3,2,0],[0,0],[1]]","20","0","","","","","","6","","","","","","","","",""
"","","","","","single-stim-button","317","472994","0.0-2.0-71.10-0.10","5b208c7888ee7400012b63f4","B2","batch2","","412","tol_tohand","","","","tol_peg_2","412","412","0","[[3,0,0],[0,0],[1]]","11","[[3,2,0],[0,0],[1]]","20","0","","","","","","6","","","","","","","","",""
"","","","","","single-stim-button","318","473446","0.0-2.0-71.10-1.10","5b208c7888ee7400012b63f4","B2","batch2","","451","tol_toboard","","","","tol_peg_1","451","451","0","[[3,2,0],[0,0],[1]]","11","[[3,2,0],[0,0],[1]]","20","0","","","","","","6","","","","","","","","",""
"","","","","","poldrack-single-stim","319","474456","0.0-2.0-72.0","5b208c7888ee7400012b63f4","B2","batch2","","-1","tol_feedback","","","true","","1000","1000","500","","","","","","-1","none","true","6356","19492","","","","","","","","","",""
"","","","","","html-button-response","320","475130","0.0-2.0-73.0","5b208c7888ee7400012b63f4","B2","batch2","","672","tol_trial_num","<div class = centerbox><p class = center-block-text>problem <strong>22</strong> out of 25 problems</p></div>","0","","","","","","","","","","","","","","","","","","","","","","","","",""
"","","","","","single-stim-button","321","480668","0.0-2.0-74.0-0.0","5b208c7888ee7400012b63f4","B2","batch2","","5536","tol_tohand","","","","tol_peg_2","5536","5536","0","[[1,0,0],[2,0],[0]]","1","[[0,0,0],[1,2],[3]]","21","0","","","","","","6","","","","","","","","",""
"","","","","","single-stim-button","322","481406","0.0-2.0-74.0-1.0","5b208c7888ee7400012b63f4","B2","batch2","","737","tol_toboard","","","","tol_peg_3","737","737","0","[[1,0,0],[2,0],[3]]","1","[[0,0,0],[1,2],[3]]","21","0","","","","","","6","","","","","","","","",""
"","","","","","single-stim-button","323","481856","0.0-2.0-74.1-0.1","5b208c7888ee7400012b63f4","B2","batch2","","448","tol_tohand","","","","tol_peg_2","448","448","0","[[1,0,0],[0,0],[3]]","2","[[0,0,0],[1,2],[3]]","21","0","","","","","","6","","","","","","","","",""
"","","","","","single-stim-button","324","485640","0.0-2.0-74.1-1.1","5b208c7888ee7400012b63f4","B2","batch2","","3783","tol_toboard","","","","tol_peg_2","3783","3783","0","[[1,0,0],[2,0],[3]]","2","[[0,0,0],[1,2],[3]]","21","0","","","","","","6","","","","","","","","",""
"","","","","","single-stim-button","325","488742","0.0-2.0-74.2-0.2","5b208c7888ee7400012b63f4","B2","batch2","","3100","tol_tohand","","","","tol_peg_3","3100","3100","0","[[1,0,0],[2,0],[0]]","3","[[0,0,0],[1,2],[3]]","21","0","","","","","","6","","","","","","","","",""
"","","","","","single-stim-button","326","489577","0.0-2.0-74.2-1.2","5b208c7888ee7400012b63f4","B2","batch2","","834","tol_toboard","","","","tol_peg_1","834","834","0","[[1,3,0],[2,0],[0]]","3","[[0,0,0],[1,2],[3]]","21","0","","","","","","6","","","","","","","","",""
"","","","","","single-stim-button","327","489975","0.0-2.0-74.3-0.3","5b208c7888ee7400012b63f4","B2","batch2","","397","tol_tohand","","","","tol_peg_2","397","397","0","[[1,3,0],[0,0],[0]]","4","[[0,0,0],[1,2],[3]]","21","0","","","","","","6","","","","","","","","",""
"","","","","","single-stim-button","328","490572","0.0-2.0-74.3-1.3","5b208c7888ee7400012b63f4","B2","batch2","","596","tol_toboard","","","","tol_peg_3","596","596","0","[[1,3,0],[0,0],[2]]","4","[[0,0,0],[1,2],[3]]","21","0","","","","","","6","","","","","","","","",""
"","","","","","single-stim-button","329","491377","0.0-2.0-74.4-0.4","5b208c7888ee7400012b63f4","B2","batch2","","803","tol_tohand","","","","tol_peg_1","803","803","0","[[1,0,0],[0,0],[2]]","5","[[0,0,0],[1,2],[3]]","21","0","","","","","","6","","","","","","","","",""
"","","","","","single-stim-button","330","492134","0.0-2.0-74.4-1.4","5b208c7888ee7400012b63f4","B2","batch2","","756","tol_toboard","","","","tol_peg_2","756","756","0","[[1,0,0],[3,0],[2]]","5","[[0,0,0],[1,2],[3]]","21","0","","","","","","6","","","","","","","","",""
"","","","","","single-stim-button","331","492614","0.0-2.0-74.5-0.5","5b208c7888ee7400012b63f4","B2","batch2","","478","tol_tohand","","","","tol_peg_1","478","478","0","[[0,0,0],[3,0],[2]]","6","[[0,0,0],[1,2],[3]]","21","0","","","","","","6","","","","","","","","",""
"","","","","","single-stim-button","332","493093","0.0-2.0-74.5-1.5","5b208c7888ee7400012b63f4","B2","batch2","","478","tol_toboard","","","","tol_peg_2","478","478","0","[[0,0,0],[3,1],[2]]","6","[[0,0,0],[1,2],[3]]","21","0","","","","","","6","","","","","","","","",""
"","","","","","single-stim-button","333","496116","0.0-2.0-74.6-0.6","5b208c7888ee7400012b63f4","B2","batch2","","3023","tol_tohand","","","","tol_peg_2","3023","3023","0","[[0,0,0],[3,0],[2]]","7","[[0,0,0],[1,2],[3]]","21","0","","","","","","6","","","","","","","","",""
"","","","","","single-stim-button","334","496697","0.0-2.0-74.6-1.6","5b208c7888ee7400012b63f4","B2","batch2","","580","tol_toboard","","","","tol_peg_1","580","580","0","[[1,0,0],[3,0],[2]]","7","[[0,0,0],[1,2],[3]]","21","0","","","","","","6","","","","","","","","",""
"","","","","","single-stim-button","335","499284","0.0-2.0-74.7-0.7","5b208c7888ee7400012b63f4","B2","batch2","","2585","tol_tohand","","","","tol_peg_3","2585","2585","0","[[1,0,0],[3,0],[0]]","8","[[0,0,0],[1,2],[3]]","21","0","","","","","","6","","","","","","","","",""
"","","","","","single-stim-button","336","499869","0.0-2.0-74.7-1.7","5b208c7888ee7400012b63f4","B2","batch2","","584","tol_toboard","","","","tol_peg_1","584","584","0","[[1,2,0],[3,0],[0]]","8","[[0,0,0],[1,2],[3]]","21","0","","","","","","6","","","","","","","","",""
"","","","","","single-stim-button","337","503719","0.0-2.0-74.8-0.8","5b208c7888ee7400012b63f4","B2","batch2","","3848","tol_tohand","","","","tol_peg_1","3848","3848","0","[[1,0,0],[3,0],[0]]","9","[[0,0,0],[1,2],[3]]","21","0","","","","","","6","","","","","","","","",""
"","","","","","single-stim-button","338","505087","0.0-2.0-74.8-1.8","5b208c7888ee7400012b63f4","B2","batch2","","1367","tol_toboard","","","","tol_peg_1","1367","1367","0","[[1,2,0],[3,0],[0]]","9","[[0,0,0],[1,2],[3]]","21","0","","","","","","6","","","","","","","","",""
"","","","","","single-stim-button","339","507307","0.0-2.0-74.9-0.9","5b208c7888ee7400012b63f4","B2","batch2","","2218","tol_tohand","","","","tol_peg_2","2218","2218","0","[[1,2,0],[0,0],[0]]","10","[[0,0,0],[1,2],[3]]","21","0","","","","","","6","","","","","","","","",""
"","","","","","single-stim-button","340","508875","0.0-2.0-74.9-1.9","5b208c7888ee7400012b63f4","B2","batch2","","1567","tol_toboard","","","","tol_peg_3","1567","1567","0","[[1,2,0],[0,0],[3]]","10","[[0,0,0],[1,2],[3]]","21","0","","","","","","6","","","","","","","","",""
"","","","","","single-stim-button","341","510409","0.0-2.0-74.10-0.10","5b208c7888ee7400012b63f4","B2","batch2","","1533","tol_tohand","","","","tol_peg_1","1533","1533","0","[[1,0,0],[0,0],[3]]","11","[[0,0,0],[1,2],[3]]","21","0","","","","","","6","","","","","","","","",""
"","","","","","single-stim-button","342","510894","0.0-2.0-74.10-1.10","5b208c7888ee7400012b63f4","B2","batch2","","484","tol_toboard","","","","tol_peg_2","484","484","0","[[1,0,0],[2,0],[3]]","11","[[0,0,0],[1,2],[3]]","21","0","","","","","","6","","","","","","","","",""
"","","","","","single-stim-button","343","511516","0.0-2.0-74.11-0.11","5b208c7888ee7400012b63f4","B2","batch2","","620","tol_tohand","","","","tol_peg_1","620","620","0","[[0,0,0],[2,0],[3]]","12","[[0,0,0],[1,2],[3]]","21","0","","","","","","6","","","","","","","","",""
"","","","","","single-stim-button","344","511943","0.0-2.0-74.11-1.11","5b208c7888ee7400012b63f4","B2","batch2","","427","tol_toboard","","","","tol_peg_2","427","427","0","[[0,0,0],[2,1],[3]]","12","[[0,0,0],[1,2],[3]]","21","0","","","","","","6","","","","","","","","",""
"","","","","","single-stim-button","345","512492","0.0-2.0-74.12-0.12","5b208c7888ee7400012b63f4","B2","batch2","","548","tol_tohand","","","","tol_peg_3","548","548","0","[[0,0,0],[2,1],[0]]","13","[[0,0,0],[1,2],[3]]","21","0","","","","","","6","","","","","","","","",""
"","","","","","single-stim-button","346","513010","0.0-2.0-74.12-1.12","5b208c7888ee7400012b63f4","B2","batch2","","516","tol_toboard","","","","tol_peg_1","516","516","0","[[3,0,0],[2,1],[0]]","13","[[0,0,0],[1,2],[3]]","21","0","","","","","","6","","","","","","","","",""
"","","","","","single-stim-button","347","520331","0.0-2.0-74.13-0.13","5b208c7888ee7400012b63f4","B2","batch2","","7321","tol_tohand","","","","tol_peg_2","7321","7321","0","[[3,0,0],[2,0],[0]]","14","[[0,0,0],[1,2],[3]]","21","0","","","","","","6","","","","","","","","",""
"","","","","","single-stim-button","348","520950","0.0-2.0-74.13-1.13","5b208c7888ee7400012b63f4","B2","batch2","","618","tol_toboard","","","","tol_peg_3","618","618","0","[[3,0,0],[2,0],[1]]","14","[[0,0,0],[1,2],[3]]","21","0","","","","","","6","","","","","","","","",""
"","","","","","single-stim-button","349","521488","0.0-2.0-74.14-0.14","5b208c7888ee7400012b63f4","B2","batch2","","536","tol_tohand","","","","tol_peg_1","536","536","0","[[0,0,0],[2,0],[1]]","15","[[0,0,0],[1,2],[3]]","21","0","","","","","","6","","","","","","","","",""
"","","","","","single-stim-button","350","521952","0.0-2.0-74.14-1.14","5b208c7888ee7400012b63f4","B2","batch2","","464","tol_toboard","","","","tol_peg_2","464","464","0","[[0,0,0],[2,3],[1]]","15","[[0,0,0],[1,2],[3]]","21","0","","","","","","6","","","","","","","","",""
"","","","","","single-stim-button","351","522522","0.0-2.0-74.15-0.15","5b208c7888ee7400012b63f4","B2","batch2","","568","tol_tohand","","","","tol_peg_3","568","568","0","[[0,0,0],[2,3],[0]]","16","[[0,0,0],[1,2],[3]]","21","0","","","","","","6","","","","","","","","",""
"","","","","","single-stim-button","352","523221","0.0-2.0-74.15-1.15","5b208c7888ee7400012b63f4","B2","batch2","","698","tol_toboard","","","","tol_peg_1","698","698","0","[[1,0,0],[2,3],[0]]","16","[[0,0,0],[1,2],[3]]","21","0","","","","","","6","","","","","","","","",""
"","","","","","single-stim-button","353","523654","0.0-2.0-74.16-0.16","5b208c7888ee7400012b63f4","B2","batch2","","432","tol_tohand","","","","tol_peg_2","432","432","0","[[1,0,0],[2,0],[0]]","17","[[0,0,0],[1,2],[3]]","21","0","","","","","","6","","","","","","","","",""
"","","","","","single-stim-button","354","524242","0.0-2.0-74.16-1.16","5b208c7888ee7400012b63f4","B2","batch2","","586","tol_toboard","","","","tol_peg_3","586","586","0","[[1,0,0],[2,0],[3]]","17","[[0,0,0],[1,2],[3]]","21","0","","","","","","6","","","","","","","","",""
"","","","","","single-stim-button","355","524553","0.0-2.0-74.17-0.17","5b208c7888ee7400012b63f4","B2","batch2","","311","tol_tohand","","","","tol_peg_2","311","311","0","[[1,0,0],[0,0],[3]]","18","[[0,0,0],[1,2],[3]]","21","0","","","","","","6","","","","","","","","",""
"","","","","","single-stim-button","356","525136","0.0-2.0-74.17-1.17","5b208c7888ee7400012b63f4","B2","batch2","","582","tol_toboard","","","","tol_peg_1","582","582","0","[[1,2,0],[0,0],[3]]","18","[[0,0,0],[1,2],[3]]","21","0","","","","","","6","","","","","","","","",""
