"success","timeout","failed_images","failed_audio","failed_video","trial_type","trial_index","time_elapsed","internal_node_id","subject_id","study_id","session_id","view_history","rt","task","stimulus","response","correct","mouse_click","stim_duration","block_duration","timing_post_trial","current_position","tol_num_moves_made","tol_target","tol_problem_id","tol_rt","key_press","possible_responses","tol_correct","preplanning","tol_rt_per_trial","tol_min_moves","answer","item","fiar_detect_rt","fiar_detect_correct","total_correct_fiar_detect","post_trial_gap","choices","spm_correct","spm_rt"
"true","false","[]","[]","[]","preload","0","1483","0.0-0.0","5b23e3a26137550001a42101","A3","batch1","","","","","","","","","","","","","","","","","","","","","","","","","","","","","",""
"true","","","","","fullscreen","1","117615","0.0-1.0-0.0","5b23e3a26137550001a42101","A3","batch1","","","","","","","","","","","","","","","","","","","","","","","","","","","","","",""
"true","","","","","fullscreen","2","120055","0.0-2.0-0.0","5b23e3a26137550001a42101","A3","batch1","","","","","","","","","","","","","","","","","","","","","","","","","","","","","",""
"","","","","","instructions","3","171790","0.0-2.0-1.0-0.0-0.0","5b23e3a26137550001a42101","A3","batch1","[{""page_index"":0,""viewing_time"":8470.300000011921},{""page_index"":1,""viewing_time"":6024},{""page_index"":2,""viewing_time"":5688},{""page_index"":3,""viewing_time"":7784},{""page_index"":4,""viewing_time"":5128.0999999940395},{""page_index"":5,""viewing_time"":16128.09999999404},{""page_index"":6,""viewing_time"":2511.9000000059605}]","51734.59999999404","tol-instructions","","","","","","","","","","","","","","","","","","","","","","","","","","",""
"","","","","","html-button-response","4","172686","0.0-2.0-1.0-1.0-0.0","5b23e3a26137550001a42101","A3","batch1","","895.0999999940395","tol_enter_quiz","<p class=block-text> Let's answer a few questions <br>","0","","","","","","","","","","","","","","","","","","","","","","","","",""
"","","","","","html-button-response","5","175990","0.0-2.0-1.0-1.0-1.0","5b23e3a26137550001a42101","A3","batch1","","3303.0999999940395","tol_quiz","<p class = block-text>True or False: You can only move the ball on top of a peg. <br></p>","0","true","","","","","","","","","","","","","","","","","","","","","","","",""
"","","","","","html-button-response","6","176766","0.0-2.0-1.0-1.0-2.0","5b23e3a26137550001a42101","A3","batch1","","775","tol_quiz_feedback","<p class = block-text>Correct! You can only move the ball on top of a peg.</p>","0","","","","","","","","","","","","","","","","","","","","","","","","",""
"","","","","","html-button-response","7","179214","0.0-2.0-1.0-1.0-3.0","5b23e3a26137550001a42101","A3","batch1","","2447.199999988079","tol_quiz","<p class = block-text>True or False: You should try to match your board with the target board with fewest moves possible. <br></p>","0","true","","","","","","","","","","","","","","","","","","","","","","","",""
"","","","","","html-button-response","8","179886","0.0-2.0-1.0-1.0-4.0","5b23e3a26137550001a42101","A3","batch1","","671.3000000119209","tol_quiz_feedback","<p class = block-text>Correct! </p>","0","","","","","","","","","","","","","","","","","","","","","","","","",""
"","","","","","html-button-response","9","180782","0.0-2.0-2.0","5b23e3a26137550001a42101","A3","batch1","","895","","<p class=block-text> Now that you've understood the game, let's practice a few easier examples before we start!<br> <br>","0","","","","","","","","","","","","","","","","","","","","","","","","",""
"","","","","","single-stim-button","10","183591","0.0-2.0-3.0-0.0","5b23e3a26137550001a42101","A3","batch1","","2807","tol_practice","","","","tol_peg_2","2807","2807","0","[[1,2,0],[0,0],[0]]","1","[[1,2,0],[0,0],[3]]","practice","2807","","","","","","","","","","","","","","",""
"","","","","","single-stim-button","11","184414","0.0-2.0-3.0-1.0","5b23e3a26137550001a42101","A3","batch1","","822","tol_practice","","","","tol_peg_3","822","822","0","[[1,2,0],[0,0],[3]]","1","[[1,2,0],[0,0],[3]]","practice","822","","","","","","","","","","","","","","",""
"","","","","","poldrack-single-stim","12","185430","0.0-2.0-4.0","5b23e3a26137550001a42101","A3","batch1","","-1","tol_feedback","","","true","","1000","1000","500","","","","","","-1","none","true","","0","","","","","","","","","",""
"","","","","","single-stim-button","13","188062","0.0-2.0-5.0-0.0","5b23e3a26137550001a42101","A3","batch1","","2631","tol_practice","","","","tol_peg_1","2631","2631","0","[[1,0,0],[3,0],[0]]","2","[[0,0,0],[3,1],[2]]","practice","2631","","","","","","","","","","","","","","",""
"","","","","","single-stim-button","14","188846","0.0-2.0-5.0-1.0","5b23e3a26137550001a42101","A3","batch1","","784","tol_practice","","","","tol_peg_3","784","784","0","[[1,0,0],[3,0],[2]]","2","[[0,0,0],[3,1],[2]]","practice","784","","","","","","","","","","","","","","",""
"","","","","","single-stim-button","15","189566","0.0-2.0-5.1-0.1","5b23e3a26137550001a42101","A3","batch1","","719","tol_practice","","","","tol_peg_1","719","719","0","[[0,0,0],[3,0],[2]]","3","[[0,0,0],[3,1],[2]]","practice","719","","","","","","","","","","","","","","",""
"","","","","","single-stim-button","16","190022","0.0-2.0-5.1-1.1","5b23e3a26137550001a42101","A3","batch1","","456","tol_practice","","","","tol_peg_2","456","456","0","[[0,0,0],[3,1],[2]]","3","[[0,0,0],[3,1],[2]]","practice","456","","","","","","","","","","","","","","",""
"","","","","","poldrack-single-stim","17","191036","0.0-2.0-6.0","5b23e3a26137550001a42101","A3","batch1","","-1","tol_feedback","","","true","","1000","1000","500","","","","","","-1","none","true","","0","","","","","","","","","",""
"","","","","","single-stim-button","18","193222","0.0-2.0-7.0-0.0","5b23e3a26137550001a42101","A3","batch1","","2186","tol_practice","","","","tol_peg_2","2186","2186","0","[[1,2,0],[0,0],[0]]","4","[[1,0,0],[2,0],[3]]","practice","2186","","","","","","","","","","","","","","",""
"","","","","","single-stim-button","19","193918","0.0-2.0-7.0-1.0","5b23e3a26137550001a42101","A3","batch1","","696","tol_practice","","","","tol_peg_3","696","696","0","[[1,2,0],[0,0],[3]]","4","[[1,0,0],[2,0],[3]]","practice","696","","","","","","","","","","","","","","",""
"","","","","","single-stim-button","20","194382","0.0-2.0-7.1-0.1","5b23e3a26137550001a42101","A3","batch1","","464","tol_practice","","","","tol_peg_1","464","464","0","[[1,0,0],[0,0],[3]]","5","[[1,0,0],[2,0],[3]]","practice","464","","","","","","","","","","","","","","",""
"","","","","","single-stim-button","21","194998","0.0-2.0-7.1-1.1","5b23e3a26137550001a42101","A3","batch1","","616","tol_practice","","","","tol_peg_2","616","616","0","[[1,0,0],[2,0],[3]]","5","[[1,0,0],[2,0],[3]]","practice","616","","","","","","","","","","","","","","",""
"","","","","","poldrack-single-stim","22","196001","0.0-2.0-8.0","5b23e3a26137550001a42101","A3","batch1","","-1","tol_feedback","","","true","","1000","1000","500","","","","","","-1","none","true","","0","","","","","","","","","",""
"","","","","","html-button-response","23","197134","0.0-2.0-9.0","5b23e3a26137550001a42101","A3","batch1","","1132.0999999940395","tol_instruction","<div class = centerbox><p class = center-block-text>Great job! You are done with practice trials<br>You are about to start official trials.<br> <br> Problem <strong>1</strong> out of 25 problems</p></div>","0","","","","","","","","","","","","","","","","","","","","","","","","",""
"","","","","","single-stim-button","24","202686","0.0-2.0-10.0-0.0","5b23e3a26137550001a42101","A3","batch1","","4550","tol_tohand","","","","tol_peg_1","4550","4550","0","[[1,0,0],[3,0],[0]]","1","[[1,3,0],[2,0],[0]]","0","0","","","","","","3","","","","","","","","",""
"","","","","","single-stim-button","25","206014","0.0-2.0-10.0-1.0","5b23e3a26137550001a42101","A3","batch1","","3327","tol_toboard","","","","tol_peg_3","3327","3327","0","[[1,0,0],[3,0],[2]]","1","[[1,3,0],[2,0],[0]]","0","0","","","","","","3","","","","","","","","",""
"","","","","","single-stim-button","26","206470","0.0-2.0-10.1-0.1","5b23e3a26137550001a42101","A3","batch1","","456","tol_tohand","","","","tol_peg_2","456","456","0","[[1,0,0],[0,0],[2]]","2","[[1,3,0],[2,0],[0]]","0","0","","","","","","3","","","","","","","","",""
"","","","","","single-stim-button","27","206982","0.0-2.0-10.1-1.1","5b23e3a26137550001a42101","A3","batch1","","512","tol_toboard","","","","tol_peg_1","512","512","0","[[1,3,0],[0,0],[2]]","2","[[1,3,0],[2,0],[0]]","0","0","","","","","","3","","","","","","","","",""
"","","","","","single-stim-button","28","207550","0.0-2.0-10.2-0.2","5b23e3a26137550001a42101","A3","batch1","","568","tol_tohand","","","","tol_peg_3","568","568","0","[[1,3,0],[0,0],[0]]","3","[[1,3,0],[2,0],[0]]","0","0","","","","","","3","","","","","","","","",""
"","","","","","single-stim-button","29","208118","0.0-2.0-10.2-1.2","5b23e3a26137550001a42101","A3","batch1","","568","tol_toboard","","","","tol_peg_2","568","568","0","[[1,3,0],[2,0],[0]]","3","[[1,3,0],[2,0],[0]]","0","0","","","","","","3","","","","","","","","",""
"","","","","","poldrack-single-stim","30","209134","0.0-2.0-11.0","5b23e3a26137550001a42101","A3","batch1","","-1","tol_feedback","","","true","","1000","1000","500","","","","","","-1","none","true","4550","5574","","","","","","","","","",""
"","","","","","html-button-response","31","209910","0.0-2.0-12.0","5b23e3a26137550001a42101","A3","batch1","","775","tol_trial_num","<div class = centerbox><p class = center-block-text>problem <strong>2</strong> out of 25 problems</p></div>","0","","","","","","","","","","","","","","","","","","","","","","","","",""
"","","","","","single-stim-button","32","212830","0.0-2.0-13.0-0.0","5b23e3a26137550001a42101","A3","batch1","","2919","tol_tohand","","","","tol_peg_1","2919","2919","0","[[1,0,0],[3,0],[0]]","1","[[2,1,3],[0,0],[0]]","1","0","","","","","","5","","","","","","","","",""
"","","","","","single-stim-button","33","213582","0.0-2.0-13.0-1.0","5b23e3a26137550001a42101","A3","batch1","","752","tol_toboard","","","","tol_peg_3","752","752","0","[[1,0,0],[3,0],[2]]","1","[[2,1,3],[0,0],[0]]","1","0","","","","","","5","","","","","","","","",""
"","","","","","single-stim-button","34","214990","0.0-2.0-13.1-0.1","5b23e3a26137550001a42101","A3","batch1","","1408","tol_tohand","","","","tol_peg_1","1408","1408","0","[[0,0,0],[3,0],[2]]","2","[[2,1,3],[0,0],[0]]","1","0","","","","","","5","","","","","","","","",""
"","","","","","single-stim-button","35","215502","0.0-2.0-13.1-1.1","5b23e3a26137550001a42101","A3","batch1","","512","tol_toboard","","","","tol_peg_2","512","512","0","[[0,0,0],[3,1],[2]]","2","[[2,1,3],[0,0],[0]]","1","0","","","","","","5","","","","","","","","",""
"","","","","","single-stim-button","36","215966","0.0-2.0-13.2-0.2","5b23e3a26137550001a42101","A3","batch1","","464","tol_tohand","","","","tol_peg_3","464","464","0","[[0,0,0],[3,1],[0]]","3","[[2,1,3],[0,0],[0]]","1","0","","","","","","5","","","","","","","","",""
"","","","","","single-stim-button","37","216534","0.0-2.0-13.2-1.2","5b23e3a26137550001a42101","A3","batch1","","568","tol_toboard","","","","tol_peg_1","568","568","0","[[2,0,0],[3,1],[0]]","3","[[2,1,3],[0,0],[0]]","1","0","","","","","","5","","","","","","","","",""
"","","","","","single-stim-button","38","217126","0.0-2.0-13.3-0.3","5b23e3a26137550001a42101","A3","batch1","","591","tol_tohand","","","","tol_peg_2","591","591","0","[[2,0,0],[3,0],[0]]","4","[[2,1,3],[0,0],[0]]","1","0","","","","","","5","","","","","","","","",""
"","","","","","single-stim-button","39","217630","0.0-2.0-13.3-1.3","5b23e3a26137550001a42101","A3","batch1","","504","tol_toboard","","","","tol_peg_1","504","504","0","[[2,1,0],[3,0],[0]]","4","[[2,1,3],[0,0],[0]]","1","0","","","","","","5","","","","","","","","",""
"","","","","","single-stim-button","40","218110","0.0-2.0-13.4-0.4","5b23e3a26137550001a42101","A3","batch1","","480","tol_tohand","","","","tol_peg_2","480","480","0","[[2,1,0],[0,0],[0]]","5","[[2,1,3],[0,0],[0]]","1","0","","","","","","5","","","","","","","","",""
"","","","","","single-stim-button","41","218718","0.0-2.0-13.4-1.4","5b23e3a26137550001a42101","A3","batch1","","608","tol_toboard","","","","tol_peg_1","608","608","0","[[2,1,3],[0,0],[0]]","5","[[2,1,3],[0,0],[0]]","1","0","","","","","","5","","","","","","","","",""
"","","","","","poldrack-single-stim","42","219720","0.0-2.0-14.0","5b23e3a26137550001a42101","A3","batch1","","-1","tol_feedback","","","true","","1000","1000","500","","","","","","-1","none","true","2919","5862","","","","","","","","","",""
"","","","","","html-button-response","43","220678","0.0-2.0-15.0","5b23e3a26137550001a42101","A3","batch1","","957","tol_trial_num","<div class = centerbox><p class = center-block-text>problem <strong>3</strong> out of 25 problems</p></div>","0","","","","","","","","","","","","","","","","","","","","","","","","",""
"","","","","","single-stim-button","44","223774","0.0-2.0-16.0-0.0","5b23e3a26137550001a42101","A3","batch1","","3095","tol_tohand","","","","tol_peg_1","3095","3095","0","[[2,0,0],[0,0],[1]]","1","[[1,2,0],[3,0],[0]]","2","0","","","","","","4","","","","","","","","",""
"","","","","","single-stim-button","45","224414","0.0-2.0-16.0-1.0","5b23e3a26137550001a42101","A3","batch1","","640","tol_toboard","","","","tol_peg_2","640","640","0","[[2,0,0],[3,0],[1]]","1","[[1,2,0],[3,0],[0]]","2","0","","","","","","4","","","","","","","","",""
"","","","","","single-stim-button","46","224998","0.0-2.0-16.1-0.1","5b23e3a26137550001a42101","A3","batch1","","584","tol_tohand","","","","tol_peg_1","584","584","0","[[0,0,0],[3,0],[1]]","2","[[1,2,0],[3,0],[0]]","2","0","","","","","","4","","","","","","","","",""
"","","","","","single-stim-button","47","225414","0.0-2.0-16.1-1.1","5b23e3a26137550001a42101","A3","batch1","","416","tol_toboard","","","","tol_peg_2","416","416","0","[[0,0,0],[3,2],[1]]","2","[[1,2,0],[3,0],[0]]","2","0","","","","","","4","","","","","","","","",""
"","","","","","single-stim-button","48","225990","0.0-2.0-16.2-0.2","5b23e3a26137550001a42101","A3","batch1","","576","tol_tohand","","","","tol_peg_3","576","576","0","[[0,0,0],[3,2],[0]]","3","[[1,2,0],[3,0],[0]]","2","0","","","","","","4","","","","","","","","",""
"","","","","","single-stim-button","49","226430","0.0-2.0-16.2-1.2","5b23e3a26137550001a42101","A3","batch1","","440","tol_toboard","","","","tol_peg_1","440","440","0","[[1,0,0],[3,2],[0]]","3","[[1,2,0],[3,0],[0]]","2","0","","","","","","4","","","","","","","","",""
"","","","","","single-stim-button","50","226854","0.0-2.0-16.3-0.3","5b23e3a26137550001a42101","A3","batch1","","424","tol_tohand","","","","tol_peg_2","424","424","0","[[1,0,0],[3,0],[0]]","4","[[1,2,0],[3,0],[0]]","2","0","","","","","","4","","","","","","","","",""
"","","","","","single-stim-button","51","227230","0.0-2.0-16.3-1.3","5b23e3a26137550001a42101","A3","batch1","","376","tol_toboard","","","","tol_peg_1","376","376","0","[[1,2,0],[3,0],[0]]","4","[[1,2,0],[3,0],[0]]","2","0","","","","","","4","","","","","","","","",""
"","","","","","poldrack-single-stim","52","228232","0.0-2.0-17.0","5b23e3a26137550001a42101","A3","batch1","","-1","tol_feedback","","","true","","1000","1000","500","","","","","","-1","none","true","3095","4679","","","","","","","","","",""
"","","","","","html-button-response","53","228966","0.0-2.0-18.0","5b23e3a26137550001a42101","A3","batch1","","733.2000000178814","tol_trial_num","<div class = centerbox><p class = center-block-text>problem <strong>4</strong> out of 25 problems</p></div>","0","","","","","","","","","","","","","","","","","","","","","","","","",""
"","","","","","single-stim-button","54","232319","0.0-2.0-19.0-0.0","5b23e3a26137550001a42101","A3","batch1","","3353","tol_tohand","","","","tol_peg_2","3353","3353","0","[[3,0,0],[2,0],[0]]","1","[[3,0,0],[1,0],[2]]","3","0","","","","","","3","","","","","","","","",""
"","","","","","single-stim-button","55","232934","0.0-2.0-19.0-1.0","5b23e3a26137550001a42101","A3","batch1","","615","tol_toboard","","","","tol_peg_1","615","615","0","[[3,1,0],[2,0],[0]]","1","[[3,0,0],[1,0],[2]]","3","0","","","","","","3","","","","","","","","",""
"","","","","","single-stim-button","56","233454","0.0-2.0-19.1-0.1","5b23e3a26137550001a42101","A3","batch1","","520","tol_tohand","","","","tol_peg_2","520","520","0","[[3,1,0],[0,0],[0]]","2","[[3,0,0],[1,0],[2]]","3","0","","","","","","3","","","","","","","","",""
"","","","","","single-stim-button","57","234030","0.0-2.0-19.1-1.1","5b23e3a26137550001a42101","A3","batch1","","576","tol_toboard","","","","tol_peg_3","576","576","0","[[3,1,0],[0,0],[2]]","2","[[3,0,0],[1,0],[2]]","3","0","","","","","","3","","","","","","","","",""
"","","","","","single-stim-button","58","234703","0.0-2.0-19.2-0.2","5b23e3a26137550001a42101","A3","batch1","","672","tol_tohand","","","","tol_peg_1","672","672","0","[[3,0,0],[0,0],[2]]","3","[[3,0,0],[1,0],[2]]","3","0","","","","","","3","","","","","","","","",""
"","","","","","single-stim-button","59","235270","0.0-2.0-19.2-1.2","5b23e3a26137550001a42101","A3","batch1","","567","tol_toboard","","","","tol_peg_2","567","567","0","[[3,0,0],[1,0],[2]]","3","[[3,0,0],[1,0],[2]]","3","0","","","","","","3","","","","","","","","",""
"","","","","","poldrack-single-stim","60","236270","0.0-2.0-20.0","5b23e3a26137550001a42101","A3","batch1","","-1","tol_feedback","","","true","","1000","1000","500","","","","","","-1","none","true","3353","4545","","","","","","","","","",""
"","","","","","html-button-response","61","236822","0.0-2.0-21.0","5b23e3a26137550001a42101","A3","batch1","","550.5999999940395","tol_trial_num","<div class = centerbox><p class = center-block-text>problem <strong>5</strong> out of 25 problems</p></div>","0","","","","","","","","","","","","","","","","","","","","","","","","",""
"","","","","","single-stim-button","62","240014","0.0-2.0-22.0-0.0","5b23e3a26137550001a42101","A3","batch1","","3192","tol_tohand","","","","tol_peg_2","3192","3192","0","[[1,0,0],[0,0],[3]]","1","[[0,0,0],[1,2],[3]]","4","0","","","","","","7","","","","","","","","",""
"","","","","","single-stim-button","63","248926","0.0-2.0-22.0-1.0","5b23e3a26137550001a42101","A3","batch1","","8912","tol_toboard","","","","tol_peg_1","8912","8912","0","[[1,2,0],[0,0],[3]]","1","[[0,0,0],[1,2],[3]]","4","0","","","","","","7","","","","","","","","",""
"","","","","","single-stim-button","64","249629","0.0-2.0-22.1-0.1","5b23e3a26137550001a42101","A3","batch1","","703","tol_tohand","","","","tol_peg_3","703","703","0","[[1,2,0],[0,0],[0]]","2","[[0,0,0],[1,2],[3]]","4","0","","","","","","7","","","","","","","","",""
"","","","","","single-stim-button","65","250278","0.0-2.0-22.1-1.1","5b23e3a26137550001a42101","A3","batch1","","648","tol_toboard","","","","tol_peg_2","648","648","0","[[1,2,0],[3,0],[0]]","2","[[0,0,0],[1,2],[3]]","4","0","","","","","","7","","","","","","","","",""
"","","","","","single-stim-button","66","251294","0.0-2.0-22.2-0.2","5b23e3a26137550001a42101","A3","batch1","","1015","tol_tohand","","","","tol_peg_1","1015","1015","0","[[1,0,0],[3,0],[0]]","3","[[0,0,0],[1,2],[3]]","4","0","","","","","","7","","","","","","","","",""
"","","","","","single-stim-button","67","251942","0.0-2.0-22.2-1.2","5b23e3a26137550001a42101","A3","batch1","","647","tol_toboard","","","","tol_peg_3","647","647","0","[[1,0,0],[3,0],[2]]","3","[[0,0,0],[1,2],[3]]","4","0","","","","","","7","","","","","","","","",""
"","","","","","single-stim-button","68","254694","0.0-2.0-22.3-0.3","5b23e3a26137550001a42101","A3","batch1","","2752","tol_tohand","","","","tol_peg_2","2752","2752","0","[[1,0,0],[0,0],[2]]","4","[[0,0,0],[1,2],[3]]","4","0","","","","","","7","","","","","","","","",""
"","","","","","single-stim-button","69","255318","0.0-2.0-22.3-1.3","5b23e3a26137550001a42101","A3","batch1","","624","tol_toboard","","","","tol_peg_1","624","624","0","[[1,3,0],[0,0],[2]]","4","[[0,0,0],[1,2],[3]]","4","0","","","","","","7","","","","","","","","",""
"","","","","","single-stim-button","70","255734","0.0-2.0-22.4-0.4","5b23e3a26137550001a42101","A3","batch1","","416","tol_tohand","","","","tol_peg_3","416","416","0","[[1,3,0],[0,0],[0]]","5","[[0,0,0],[1,2],[3]]","4","0","","","","","","7","","","","","","","","",""
"","","","","","single-stim-button","71","256223","0.0-2.0-22.4-1.4","5b23e3a26137550001a42101","A3","batch1","","488","tol_toboard","","","","tol_peg_2","488","488","0","[[1,3,0],[2,0],[0]]","5","[[0,0,0],[1,2],[3]]","4","0","","","","","","7","","","","","","","","",""
"","","","","","single-stim-button","72","256845","0.0-2.0-22.5-0.5","5b23e3a26137550001a42101","A3","batch1","","622","tol_tohand","","","","tol_peg_1","622","622","0","[[1,0,0],[2,0],[0]]","6","[[0,0,0],[1,2],[3]]","4","0","","","","","","7","","","","","","","","",""
"","","","","","single-stim-button","73","257438","0.0-2.0-22.5-1.5","5b23e3a26137550001a42101","A3","batch1","","592","tol_toboard","","","","tol_peg_3","592","592","0","[[1,0,0],[2,0],[3]]","6","[[0,0,0],[1,2],[3]]","4","0","","","","","","7","","","","","","","","",""
"","","","","","single-stim-button","74","259366","0.0-2.0-22.6-0.6","5b23e3a26137550001a42101","A3","batch1","","1928","tol_tohand","","","","tol_peg_2","1928","1928","0","[[1,0,0],[0,0],[3]]","7","[[0,0,0],[1,2],[3]]","4","0","","","","","","7","","","","","","","","",""
"","","","","","single-stim-button","75","266070","0.0-2.0-22.6-1.6","5b23e3a26137550001a42101","A3","batch1","","6704","tol_toboard","","","","tol_peg_2","6704","6704","0","[[1,0,0],[2,0],[3]]","7","[[0,0,0],[1,2],[3]]","4","0","","","","","","7","","","","","","","","",""
"","","","","","single-stim-button","76","266838","0.0-2.0-22.7-0.7","5b23e3a26137550001a42101","A3","batch1","","767","tol_tohand","","","","tol_peg_3","767","767","0","[[1,0,0],[2,0],[0]]","8","[[0,0,0],[1,2],[3]]","4","0","","","","","","7","","","","","","","","",""
"","","","","","single-stim-button","77","267566","0.0-2.0-22.7-1.7","5b23e3a26137550001a42101","A3","batch1","","728","tol_toboard","","","","tol_peg_1","728","728","0","[[1,3,0],[2,0],[0]]","8","[[0,0,0],[1,2],[3]]","4","0","","","","","","7","","","","","","","","",""
"","","","","","single-stim-button","78","268470","0.0-2.0-22.8-0.8","5b23e3a26137550001a42101","A3","batch1","","902","tol_tohand","","","","tol_peg_2","902","902","0","[[1,3,0],[0,0],[0]]","9","[[0,0,0],[1,2],[3]]","4","0","","","","","","7","","","","","","","","",""
"","","","","","single-stim-button","79","269285","0.0-2.0-22.8-1.8","5b23e3a26137550001a42101","A3","batch1","","815","tol_toboard","","","","tol_peg_3","815","815","0","[[1,3,0],[0,0],[2]]","9","[[0,0,0],[1,2],[3]]","4","0","","","","","","7","","","","","","","","",""
"","","","","","single-stim-button","80","270486","0.0-2.0-22.9-0.9","5b23e3a26137550001a42101","A3","batch1","","1199","tol_tohand","","","","tol_peg_1","1199","1199","0","[[1,0,0],[0,0],[2]]","10","[[0,0,0],[1,2],[3]]","4","0","","","","","","7","","","","","","","","",""
"","","","","","single-stim-button","81","271029","0.0-2.0-22.9-1.9","5b23e3a26137550001a42101","A3","batch1","","543","tol_toboard","","","","tol_peg_2","543","543","0","[[1,0,0],[3,0],[2]]","10","[[0,0,0],[1,2],[3]]","4","0","","","","","","7","","","","","","","","",""
"","","","","","single-stim-button","82","271526","0.0-2.0-22.10-0.10","5b23e3a26137550001a42101","A3","batch1","","495","tol_tohand","","","","tol_peg_1","495","495","0","[[0,0,0],[3,0],[2]]","11","[[0,0,0],[1,2],[3]]","4","0","","","","","","7","","","","","","","","",""
"","","","","","single-stim-button","83","272374","0.0-2.0-22.10-1.10","5b23e3a26137550001a42101","A3","batch1","","847","tol_toboard","","","","tol_peg_2","847","847","0","[[0,0,0],[3,1],[2]]","11","[[0,0,0],[1,2],[3]]","4","0","","","","","","7","","","","","","","","",""
"","","","","","single-stim-button","84","273013","0.0-2.0-22.11-0.11","5b23e3a26137550001a42101","A3","batch1","","639","tol_tohand","","","","tol_peg_3","639","639","0","[[0,0,0],[3,1],[0]]","12","[[0,0,0],[1,2],[3]]","4","0","","","","","","7","","","","","","","","",""
"","","","","","single-stim-button","85","273662","0.0-2.0-22.11-1.11","5b23e3a26137550001a42101","A3","batch1","","648","tol_toboard","","","","tol_peg_1","648","648","0","[[2,0,0],[3,1],[0]]","12","[[0,0,0],[1,2],[3]]","4","0","","","","","","7","","","","","","","","",""
"","","","","","single-stim-button","86","274790","0.0-2.0-22.12-0.12","5b23e3a26137550001a42101","A3","batch1","","1128","tol_tohand","","","","tol_peg_2","1128","1128","0","[[2,0,0],[3,0],[0]]","13","[[0,0,0],[1,2],[3]]","4","0","","","","","","7","","","","","","","","",""
"","","","","","single-stim-button","87","275278","0.0-2.0-22.12-1.12","5b23e3a26137550001a42101","A3","batch1","","488","tol_toboard","","","","tol_peg_1","488","488","0","[[2,1,0],[3,0],[0]]","13","[[0,0,0],[1,2],[3]]","4","0","","","","","","7","","","","","","","","",""
"","","","","","single-stim-button","88","275662","0.0-2.0-22.13-0.13","5b23e3a26137550001a42101","A3","batch1","","384","tol_tohand","","","","tol_peg_2","384","384","0","[[2,1,0],[0,0],[0]]","14","[[0,0,0],[1,2],[3]]","4","0","","","","","","7","","","","","","","","",""
"","","","","","single-stim-button","89","276174","0.0-2.0-22.13-1.13","5b23e3a26137550001a42101","A3","batch1","","512","tol_toboard","","","","tol_peg_3","512","512","0","[[2,1,0],[0,0],[3]]","14","[[0,0,0],[1,2],[3]]","4","0","","","","","","7","","","","","","","","",""
"","","","","","single-stim-button","90","276791","0.0-2.0-22.14-0.14","5b23e3a26137550001a42101","A3","batch1","","615","tol_tohand","","","","tol_peg_1","615","615","0","[[2,0,0],[0,0],[3]]","15","[[0,0,0],[1,2],[3]]","4","0","","","","","","7","","","","","","","","",""
"","","","","","single-stim-button","91","277150","0.0-2.0-22.14-1.14","5b23e3a26137550001a42101","A3","batch1","","359","tol_toboard","","","","tol_peg_2","359","359","0","[[2,0,0],[1,0],[3]]","15","[[0,0,0],[1,2],[3]]","4","0","","","","","","7","","","","","","","","",""
"","","","","","single-stim-button","92","277509","0.0-2.0-22.15-0.15","5b23e3a26137550001a42101","A3","batch1","","359","tol_tohand","","","","tol_peg_1","359","359","0","[[0,0,0],[1,0],[3]]","16","[[0,0,0],[1,2],[3]]","4","0","","","","","","7","","","","","","","","",""
"","","","","","single-stim-button","93","277847","0.0-2.0-22.15-1.15","5b23e3a26137550001a42101","A3","batch1","","337","tol_toboard","","","","tol_peg_2","337","337","0","[[0,0,0],[1,2],[3]]","16","[[0,0,0],[1,2],[3]]","4","0","","","","","","7","","","","","","","","",""
"","","","","","poldrack-single-stim","94","278848","0.0-2.0-23.0","5b23e3a26137550001a42101","A3","batch1","","-1","tol_feedback","","","true","","1000","1000","500","","","","","","-1","none","true","3192","17116","","","","","","","","","",""
"","","","","","html-button-response","95","279494","0.0-2.0-24.0","5b23e3a26137550001a42101","A3","batch1","","645.5999999940395","tol_trial_num","<div class = centerbox><p class = center-block-text>problem <strong>6</strong> out of 25 problems</p></div>","0","","","","","","","","","","","","","","","","","","","","","","","","",""
"","","","","","single-stim-button","96","287269","0.0-2.0-25.0-0.0","5b23e3a26137550001a42101","A3","batch1","","7775","tol_tohand","","","","tol_peg_3","7775","7775","0","[[0,0,0],[1,2],[0]]","1","[[1,0,0],[2,3],[0]]","5","0","","","","","","6","","","","","","","","",""
"","","","","","single-stim-button","97","287902","0.0-2.0-25.0-1.0","5b23e3a26137550001a42101","A3","batch1","","631","tol_toboard","","","","tol_peg_1","631","631","0","[[3,0,0],[1,2],[0]]","1","[[1,0,0],[2,3],[0]]","5","0","","","","","","6","","","","","","","","",""
"","","","","","single-stim-button","98","294999","0.0-2.0-25.1-0.1","5b23e3a26137550001a42101","A3","batch1","","7096","tol_tohand","","","","tol_peg_1","7096","7096","0","[[0,0,0],[1,2],[0]]","2","[[1,0,0],[2,3],[0]]","5","0","","","","","","6","","","","","","","","",""
"","","","","","single-stim-button","99","297070","0.0-2.0-25.1-1.1","5b23e3a26137550001a42101","A3","batch1","","2071","tol_toboard","","","","tol_peg_3","2071","2071","0","[[0,0,0],[1,2],[3]]","2","[[1,0,0],[2,3],[0]]","5","0","","","","","","6","","","","","","","","",""
"","","","","","single-stim-button","100","297654","0.0-2.0-25.2-0.2","5b23e3a26137550001a42101","A3","batch1","","584","tol_tohand","","","","tol_peg_2","584","584","0","[[0,0,0],[1,0],[3]]","3","[[1,0,0],[2,3],[0]]","5","0","","","","","","6","","","","","","","","",""
"","","","","","single-stim-button","101","298166","0.0-2.0-25.2-1.2","5b23e3a26137550001a42101","A3","batch1","","511","tol_toboard","","","","tol_peg_1","511","511","0","[[2,0,0],[1,0],[3]]","3","[[1,0,0],[2,3],[0]]","5","0","","","","","","6","","","","","","","","",""
"","","","","","single-stim-button","102","298654","0.0-2.0-25.3-0.3","5b23e3a26137550001a42101","A3","batch1","","488","tol_tohand","","","","tol_peg_2","488","488","0","[[2,0,0],[0,0],[3]]","4","[[1,0,0],[2,3],[0]]","5","0","","","","","","6","","","","","","","","",""
"","","","","","single-stim-button","103","299126","0.0-2.0-25.3-1.3","5b23e3a26137550001a42101","A3","batch1","","472","tol_toboard","","","","tol_peg_1","472","472","0","[[2,1,0],[0,0],[3]]","4","[[1,0,0],[2,3],[0]]","5","0","","","","","","6","","","","","","","","",""
"","","","","","single-stim-button","104","303078","0.0-2.0-25.4-0.4","5b23e3a26137550001a42101","A3","batch1","","3952","tol_tohand","","","","tol_peg_3","3952","3952","0","[[2,1,0],[0,0],[0]]","5","[[1,0,0],[2,3],[0]]","5","0","","","","","","6","","","","","","","","",""
"","","","","","single-stim-button","105","303470","0.0-2.0-25.4-1.4","5b23e3a26137550001a42101","A3","batch1","","391","tol_toboard","","","","tol_peg_2","391","391","0","[[2,1,0],[3,0],[0]]","5","[[1,0,0],[2,3],[0]]","5","0","","","","","","6","","","","","","","","",""
"","","","","","single-stim-button","106","303991","0.0-2.0-25.5-0.5","5b23e3a26137550001a42101","A3","batch1","","520","tol_tohand","","","","tol_peg_1","520","520","0","[[2,0,0],[3,0],[0]]","6","[[1,0,0],[2,3],[0]]","5","0","","","","","","6","","","","","","","","",""
"","","","","","single-stim-button","107","304454","0.0-2.0-25.5-1.5","5b23e3a26137550001a42101","A3","batch1","","463","tol_toboard","","","","tol_peg_3","463","463","0","[[2,0,0],[3,0],[1]]","6","[[1,0,0],[2,3],[0]]","5","0","","","","","","6","","","","","","","","",""
"","","","","","single-stim-button","108","306110","0.0-2.0-25.6-0.6","5b23e3a26137550001a42101","A3","batch1","","1656","tol_tohand","","","","tol_peg_1","1656","1656","0","[[0,0,0],[3,0],[1]]","7","[[1,0,0],[2,3],[0]]","5","0","","","","","","6","","","","","","","","",""
"","","","","","single-stim-button","109","306454","0.0-2.0-25.6-1.6","5b23e3a26137550001a42101","A3","batch1","","344","tol_toboard","","","","tol_peg_2","344","344","0","[[0,0,0],[3,2],[1]]","7","[[1,0,0],[2,3],[0]]","5","0","","","","","","6","","","","","","","","",""
"","","","","","single-stim-button","110","308486","0.0-2.0-25.7-0.7","5b23e3a26137550001a42101","A3","batch1","","2032","tol_tohand","","","","tol_peg_3","2032","2032","0","[[0,0,0],[3,2],[0]]","8","[[1,0,0],[2,3],[0]]","5","0","","","","","","6","","","","","","","","",""
"","","","","","single-stim-button","111","309094","0.0-2.0-25.7-1.7","5b23e3a26137550001a42101","A3","batch1","","608","tol_toboard","","","","tol_peg_1","608","608","0","[[1,0,0],[3,2],[0]]","8","[[1,0,0],[2,3],[0]]","5","0","","","","","","6","","","","","","","","",""
"","","","","","single-stim-button","112","319534","0.0-2.0-25.8-0.8","5b23e3a26137550001a42101","A3","batch1","","10440","tol_tohand","","","","tol_peg_2","10440","10440","0","[[1,0,0],[3,0],[0]]","9","[[1,0,0],[2,3],[0]]","5","0","","","","","","6","","","","","","","","",""
"","","","","","single-stim-button","113","319950","0.0-2.0-25.8-1.8","5b23e3a26137550001a42101","A3","batch1","","416","tol_toboard","","","","tol_peg_2","416","416","0","[[1,0,0],[3,2],[0]]","9","[[1,0,0],[2,3],[0]]","5","0","","","","","","6","","","","","","","","",""
"","","","","","single-stim-button","114","320646","0.0-2.0-25.9-0.9","5b23e3a26137550001a42101","A3","batch1","","696","tol_tohand","","","","tol_peg_2","696","696","0","[[1,0,0],[3,0],[0]]","10","[[1,0,0],[2,3],[0]]","5","0","","","","","","6","","","","","","","","",""
"","","","","","single-stim-button","115","321150","0.0-2.0-25.9-1.9","5b23e3a26137550001a42101","A3","batch1","","504","tol_toboard","","","","tol_peg_3","504","504","0","[[1,0,0],[3,0],[2]]","10","[[1,0,0],[2,3],[0]]","5","0","","","","","","6","","","","","","","","",""
"","","","","","single-stim-button","116","321726","0.0-2.0-25.10-0.10","5b23e3a26137550001a42101","A3","batch1","","576","tol_tohand","","","","tol_peg_2","576","576","0","[[1,0,0],[0,0],[2]]","11","[[1,0,0],[2,3],[0]]","5","0","","","","","","6","","","","","","","","",""
"","","","","","single-stim-button","117","322278","0.0-2.0-25.10-1.10","5b23e3a26137550001a42101","A3","batch1","","551","tol_toboard","","","","tol_peg_1","551","551","0","[[1,3,0],[0,0],[2]]","11","[[1,0,0],[2,3],[0]]","5","0","","","","","","6","","","","","","","","",""
"","","","","","single-stim-button","118","322846","0.0-2.0-25.11-0.11","5b23e3a26137550001a42101","A3","batch1","","568","tol_tohand","","","","tol_peg_3","568","568","0","[[1,3,0],[0,0],[0]]","12","[[1,0,0],[2,3],[0]]","5","0","","","","","","6","","","","","","","","",""
"","","","","","single-stim-button","119","323262","0.0-2.0-25.11-1.11","5b23e3a26137550001a42101","A3","batch1","","416","tol_toboard","","","","tol_peg_2","416","416","0","[[1,3,0],[2,0],[0]]","12","[[1,0,0],[2,3],[0]]","5","0","","","","","","6","","","","","","","","",""
"","","","","","single-stim-button","120","323798","0.0-2.0-25.12-0.12","5b23e3a26137550001a42101","A3","batch1","","535","tol_tohand","","","","tol_peg_1","535","535","0","[[1,0,0],[2,0],[0]]","13","[[1,0,0],[2,3],[0]]","5","0","","","","","","6","","","","","","","","",""
"","","","","","single-stim-button","121","324166","0.0-2.0-25.12-1.12","5b23e3a26137550001a42101","A3","batch1","","368","tol_toboard","","","","tol_peg_2","368","368","0","[[1,0,0],[2,3],[0]]","13","[[1,0,0],[2,3],[0]]","5","0","","","","","","6","","","","","","","","",""
"","","","","","poldrack-single-stim","122","325167","0.0-2.0-26.0","5b23e3a26137550001a42101","A3","batch1","","-1","tol_feedback","","","true","","1000","1000","500","","","","","","-1","none","true","7775","36918","","","","","","","","","",""
"","","","","","html-button-response","123","325662","0.0-2.0-27.0","5b23e3a26137550001a42101","A3","batch1","","493.59999999403954","tol_trial_num","<div class = centerbox><p class = center-block-text>problem <strong>7</strong> out of 25 problems</p></div>","0","","","","","","","","","","","","","","","","","","","","","","","","",""
"","","","","","single-stim-button","124","344230","0.0-2.0-28.0-0.0","5b23e3a26137550001a42101","A3","batch1","","18568","tol_tohand","","","","tol_peg_3","18568","18568","0","[[2,1,0],[0,0],[0]]","1","[[1,2,0],[3,0],[0]]","6","0","","","","","","5","","","","","","","","",""
"","","","","","single-stim-button","125","344774","0.0-2.0-28.0-1.0","5b23e3a26137550001a42101","A3","batch1","","544","tol_toboard","","","","tol_peg_2","544","544","0","[[2,1,0],[3,0],[0]]","1","[[1,2,0],[3,0],[0]]","6","0","","","","","","5","","","","","","","","",""
"","","","","","single-stim-button","126","345398","0.0-2.0-28.1-0.1","5b23e3a26137550001a42101","A3","batch1","","624","tol_tohand","","","","tol_peg_1","624","624","0","[[2,0,0],[3,0],[0]]","2","[[1,2,0],[3,0],[0]]","6","0","","","","","","5","","","","","","","","",""
"","","","","","single-stim-button","127","346038","0.0-2.0-28.1-1.1","5b23e3a26137550001a42101","A3","batch1","","640","tol_toboard","","","","tol_peg_2","640","640","0","[[2,0,0],[3,1],[0]]","2","[[1,2,0],[3,0],[0]]","6","0","","","","","","5","","","","","","","","",""
"","","","","","single-stim-button","128","346526","0.0-2.0-28.2-0.2","5b23e3a26137550001a42101","A3","batch1","","488","tol_tohand","","","","tol_peg_1","488","488","0","[[0,0,0],[3,1],[0]]","3","[[1,2,0],[3,0],[0]]","6","0","","","","","","5","","","","","","","","",""
"","","","","","single-stim-button","129","347414","0.0-2.0-28.2-1.2","5b23e3a26137550001a42101","A3","batch1","","888","tol_toboard","","","","tol_peg_3","888","888","0","[[0,0,0],[3,1],[2]]","3","[[1,2,0],[3,0],[0]]","6","0","","","","","","5","","","","","","","","",""
"","","","","","single-stim-button","130","347863","0.0-2.0-28.3-0.3","5b23e3a26137550001a42101","A3","batch1","","449","tol_tohand","","","","tol_peg_2","449","449","0","[[0,0,0],[3,0],[2]]","4","[[1,2,0],[3,0],[0]]","6","0","","","","","","5","","","","","","","","",""
"","","","","","single-stim-button","131","348470","0.0-2.0-28.3-1.3","5b23e3a26137550001a42101","A3","batch1","","607","tol_toboard","","","","tol_peg_1","607","607","0","[[1,0,0],[3,0],[2]]","4","[[1,2,0],[3,0],[0]]","6","0","","","","","","5","","","","","","","","",""
"","","","","","single-stim-button","132","348974","0.0-2.0-28.4-0.4","5b23e3a26137550001a42101","A3","batch1","","504","tol_tohand","","","","tol_peg_3","504","504","0","[[1,0,0],[3,0],[0]]","5","[[1,2,0],[3,0],[0]]","6","0","","","","","","5","","","","","","","","",""
"","","","","","single-stim-button","133","349486","0.0-2.0-28.4-1.4","5b23e3a26137550001a42101","A3","batch1","","512","tol_toboard","","","","tol_peg_1","512","512","0","[[1,2,0],[3,0],[0]]","5","[[1,2,0],[3,0],[0]]","6","0","","","","","","5","","","","","","","","",""
"","","","","","poldrack-single-stim","134","350488","0.0-2.0-29.0","5b23e3a26137550001a42101","A3","batch1","","-1","tol_feedback","","","true","","1000","1000","500","","","","","","-1","none","true","18568","20633","","","","","","","","","",""
"","","","","","html-button-response","135","350934","0.0-2.0-30.0","5b23e3a26137550001a42101","A3","batch1","","445","tol_trial_num","<div class = centerbox><p class = center-block-text>problem <strong>8</strong> out of 25 problems</p></div>","0","","","","","","","","","","","","","","","","","","","","","","","","",""
"","","","","","single-stim-button","136","353950","0.0-2.0-31.0-0.0","5b23e3a26137550001a42101","A3","batch1","","3016","tol_tohand","","","","tol_peg_3","3016","3016","0","[[0,0,0],[2,3],[0]]","1","[[1,2,0],[3,0],[0]]","7","0","","","","","","4","","","","","","","","",""
"","","","","","single-stim-button","137","354638","0.0-2.0-31.0-1.0","5b23e3a26137550001a42101","A3","batch1","","687","tol_toboard","","","","tol_peg_1","687","687","0","[[1,0,0],[2,3],[0]]","1","[[1,2,0],[3,0],[0]]","7","0","","","","","","4","","","","","","","","",""
"","","","","","single-stim-button","138","357509","0.0-2.0-31.1-0.1","5b23e3a26137550001a42101","A3","batch1","","2871","tol_tohand","","","","tol_peg_2","2871","2871","0","[[1,0,0],[2,0],[0]]","2","[[1,2,0],[3,0],[0]]","7","0","","","","","","4","","","","","","","","",""
"","","","","","single-stim-button","139","358173","0.0-2.0-31.1-1.1","5b23e3a26137550001a42101","A3","batch1","","663","tol_toboard","","","","tol_peg_3","663","663","0","[[1,0,0],[2,0],[3]]","2","[[1,2,0],[3,0],[0]]","7","0","","","","","","4","","","","","","","","",""
"","","","","","single-stim-button","140","358637","0.0-2.0-31.2-0.2","5b23e3a26137550001a42101","A3","batch1","","464","tol_tohand","","","","tol_peg_2","464","464","0","[[1,0,0],[0,0],[3]]","3","[[1,2,0],[3,0],[0]]","7","0","","","","","","4","","","","","","","","",""
"","","","","","single-stim-button","141","359109","0.0-2.0-31.2-1.2","5b23e3a26137550001a42101","A3","batch1","","471","tol_toboard","","","","tol_peg_1","471","471","0","[[1,2,0],[0,0],[3]]","3","[[1,2,0],[3,0],[0]]","7","0","","","","","","4","","","","","","","","",""
"","","","","","single-stim-button","142","359589","0.0-2.0-31.3-0.3","5b23e3a26137550001a42101","A3","batch1","","479","tol_tohand","","","","tol_peg_3","479","479","0","[[1,2,0],[0,0],[0]]","4","[[1,2,0],[3,0],[0]]","7","0","","","","","","4","","","","","","","","",""
"","","","","","single-stim-button","143","359965","0.0-2.0-31.3-1.3","5b23e3a26137550001a42101","A3","batch1","","375","tol_toboard","","","","tol_peg_2","375","375","0","[[1,2,0],[3,0],[0]]","4","[[1,2,0],[3,0],[0]]","7","0","","","","","","4","","","","","","","","",""
"","","","","","poldrack-single-stim","144","360969","0.0-2.0-32.0","5b23e3a26137550001a42101","A3","batch1","","-1","tol_feedback","","","true","","1000","1000","500","","","","","","-1","none","true","3016","6830","","","","","","","","","",""
"","","","","","html-button-response","145","361381","0.0-2.0-33.0","5b23e3a26137550001a42101","A3","batch1","","411","tol_trial_num","<div class = centerbox><p class = center-block-text>problem <strong>9</strong> out of 25 problems</p></div>","0","","","","","","","","","","","","","","","","","","","","","","","","",""
"","","","","","single-stim-button","146","373133","0.0-2.0-34.0-0.0","5b23e3a26137550001a42101","A3","batch1","","11751","tol_tohand","","","","tol_peg_3","11751","11751","0","[[3,2,0],[0,0],[0]]","1","[[2,1,0],[3,0],[0]]","8","0","","","","","","6","","","","","","","","",""
"","","","","","single-stim-button","147","373565","0.0-2.0-34.0-1.0","5b23e3a26137550001a42101","A3","batch1","","431","tol_toboard","","","","tol_peg_2","431","431","0","[[3,2,0],[1,0],[0]]","1","[[2,1,0],[3,0],[0]]","8","0","","","","","","6","","","","","","","","",""
"","","","","","single-stim-button","148","374013","0.0-2.0-34.1-0.1","5b23e3a26137550001a42101","A3","batch1","","447","tol_tohand","","","","tol_peg_1","447","447","0","[[3,0,0],[1,0],[0]]","2","[[2,1,0],[3,0],[0]]","8","0","","","","","","6","","","","","","","","",""
"","","","","","single-stim-button","149","374437","0.0-2.0-34.1-1.1","5b23e3a26137550001a42101","A3","batch1","","424","tol_toboard","","","","tol_peg_2","424","424","0","[[3,0,0],[1,2],[0]]","2","[[2,1,0],[3,0],[0]]","8","0","","","","","","6","","","","","","","","",""
"","","","","","single-stim-button","150","374862","0.0-2.0-34.2-0.2","5b23e3a26137550001a42101","A3","batch1","","425","tol_tohand","","","","tol_peg_1","425","425","0","[[0,0,0],[1,2],[0]]","3","[[2,1,0],[3,0],[0]]","8","0","","","","","","6","","","","","","","","",""
"","","","","","single-stim-button","151","375325","0.0-2.0-34.2-1.2","5b23e3a26137550001a42101","A3","batch1","","462","tol_toboard","","","","tol_peg_3","462","462","0","[[0,0,0],[1,2],[3]]","3","[[2,1,0],[3,0],[0]]","8","0","","","","","","6","","","","","","","","",""
"","","","","","single-stim-button","152","380493","0.0-2.0-34.3-0.3","5b23e3a26137550001a42101","A3","batch1","","5168","tol_tohand","","","","tol_peg_2","5168","5168","0","[[0,0,0],[1,0],[3]]","4","[[2,1,0],[3,0],[0]]","8","0","","","","","","6","","","","","","","","",""
"","","","","","single-stim-button","153","381461","0.0-2.0-34.3-1.3","5b23e3a26137550001a42101","A3","batch1","","967","tol_toboard","","","","tol_peg_1","967","967","0","[[2,0,0],[1,0],[3]]","4","[[2,1,0],[3,0],[0]]","8","0","","","","","","6","","","","","","","","",""
"","","","","","single-stim-button","154","381973","0.0-2.0-34.4-0.4","5b23e3a26137550001a42101","A3","batch1","","512","tol_tohand","","","","tol_peg_2","512","512","0","[[2,0,0],[0,0],[3]]","5","[[2,1,0],[3,0],[0]]","8","0","","","","","","6","","","","","","","","",""
"","","","","","single-stim-button","155","382429","0.0-2.0-34.4-1.4","5b23e3a26137550001a42101","A3","batch1","","456","tol_toboard","","","","tol_peg_1","456","456","0","[[2,1,0],[0,0],[3]]","5","[[2,1,0],[3,0],[0]]","8","0","","","","","","6","","","","","","","","",""
"","","","","","single-stim-button","156","383029","0.0-2.0-34.5-0.5","5b23e3a26137550001a42101","A3","batch1","","599","tol_tohand","","","","tol_peg_3","599","599","0","[[2,1,0],[0,0],[0]]","6","[[2,1,0],[3,0],[0]]","8","0","","","","","","6","","","","","","","","",""
"","","","","","single-stim-button","157","383445","0.0-2.0-34.5-1.5","5b23e3a26137550001a42101","A3","batch1","","416","tol_toboard","","","","tol_peg_2","416","416","0","[[2,1,0],[3,0],[0]]","6","[[2,1,0],[3,0],[0]]","8","0","","","","","","6","","","","","","","","",""
"","","","","","poldrack-single-stim","158","384446","0.0-2.0-35.0","5b23e3a26137550001a42101","A3","batch1","","-1","tol_feedback","","","true","","1000","1000","500","","","","","","-1","none","true","11751","18902","","","","","","","","","",""
"","","","","","html-button-response","159","385061","0.0-2.0-36.0","5b23e3a26137550001a42101","A3","batch1","","613.8999999761581","tol_trial_num","<div class = centerbox><p class = center-block-text>problem <strong>10</strong> out of 25 problems</p></div>","0","","","","","","","","","","","","","","","","","","","","","","","","",""
"","","","","","single-stim-button","160","389861","0.0-2.0-37.0-0.0","5b23e3a26137550001a42101","A3","batch1","","4799","tol_tohand","","","","tol_peg_2","4799","4799","0","[[3,0,0],[0,0],[2]]","1","[[3,0,0],[2,1],[0]]","9","0","","","","","","3","","","","","","","","",""
"","","","","","single-stim-button","161","390270","0.0-2.0-37.0-1.0","5b23e3a26137550001a42101","A3","batch1","","408","tol_toboard","","","","tol_peg_1","408","408","0","[[3,1,0],[0,0],[2]]","1","[[3,0,0],[2,1],[0]]","9","0","","","","","","3","","","","","","","","",""
"","","","","","single-stim-button","162","390861","0.0-2.0-37.1-0.1","5b23e3a26137550001a42101","A3","batch1","","591","tol_tohand","","","","tol_peg_3","591","591","0","[[3,1,0],[0,0],[0]]","2","[[3,0,0],[2,1],[0]]","9","0","","","","","","3","","","","","","","","",""
"","","","","","single-stim-button","163","391269","0.0-2.0-37.1-1.1","5b23e3a26137550001a42101","A3","batch1","","407","tol_toboard","","","","tol_peg_2","407","407","0","[[3,1,0],[2,0],[0]]","2","[[3,0,0],[2,1],[0]]","9","0","","","","","","3","","","","","","","","",""
"","","","","","single-stim-button","164","391733","0.0-2.0-37.2-0.2","5b23e3a26137550001a42101","A3","batch1","","463","tol_tohand","","","","tol_peg_1","463","463","0","[[3,0,0],[2,0],[0]]","3","[[3,0,0],[2,1],[0]]","9","0","","","","","","3","","","","","","","","",""
"","","","","","single-stim-button","165","392118","0.0-2.0-37.2-1.2","5b23e3a26137550001a42101","A3","batch1","","383","tol_toboard","","","","tol_peg_2","383","383","0","[[3,0,0],[2,1],[0]]","3","[[3,0,0],[2,1],[0]]","9","0","","","","","","3","","","","","","","","",""
"","","","","","poldrack-single-stim","166","393120","0.0-2.0-38.0","5b23e3a26137550001a42101","A3","batch1","","-1","tol_feedback","","","true","","1000","1000","500","","","","","","-1","none","true","4799","5853","","","","","","","","","",""
"","","","","","html-button-response","167","393565","0.0-2.0-39.0","5b23e3a26137550001a42101","A3","batch1","","444.40000000596046","tol_trial_num","<div class = centerbox><p class = center-block-text>problem <strong>11</strong> out of 25 problems</p></div>","0","","","","","","","","","","","","","","","","","","","","","","","","",""
"","","","","","single-stim-button","168","410605","0.0-2.0-40.0-0.0","5b23e3a26137550001a42101","A3","batch1","","17039","tol_tohand","","","","tol_peg_2","17039","17039","0","[[1,2,0],[0,0],[0]]","1","[[2,0,0],[1,3],[0]]","10","0","","","","","","6","","","","","","","","",""
"","","","","","single-stim-button","169","411125","0.0-2.0-40.0-1.0","5b23e3a26137550001a42101","A3","batch1","","519","tol_toboard","","","","tol_peg_3","519","519","0","[[1,2,0],[0,0],[3]]","1","[[2,0,0],[1,3],[0]]","10","0","","","","","","6","","","","","","","","",""
"","","","","","single-stim-button","170","411589","0.0-2.0-40.1-0.1","5b23e3a26137550001a42101","A3","batch1","","464","tol_tohand","","","","tol_peg_1","464","464","0","[[1,0,0],[0,0],[3]]","2","[[2,0,0],[1,3],[0]]","10","0","","","","","","6","","","","","","","","",""
"","","","","","single-stim-button","171","412037","0.0-2.0-40.1-1.1","5b23e3a26137550001a42101","A3","batch1","","447","tol_toboard","","","","tol_peg_2","447","447","0","[[1,0,0],[2,0],[3]]","2","[[2,0,0],[1,3],[0]]","10","0","","","","","","6","","","","","","","","",""
"","","","","","single-stim-button","172","412893","0.0-2.0-40.2-0.2","5b23e3a26137550001a42101","A3","batch1","","855","tol_tohand","","","","tol_peg_1","855","855","0","[[0,0,0],[2,0],[3]]","3","[[2,0,0],[1,3],[0]]","10","0","","","","","","6","","","","","","","","",""
"","","","","","single-stim-button","173","414605","0.0-2.0-40.2-1.2","5b23e3a26137550001a42101","A3","batch1","","1711","tol_toboard","","","","tol_peg_2","1711","1711","0","[[0,0,0],[2,1],[3]]","3","[[2,0,0],[1,3],[0]]","10","0","","","","","","6","","","","","","","","",""
"","","","","","single-stim-button","174","417445","0.0-2.0-40.3-0.3","5b23e3a26137550001a42101","A3","batch1","","2839","tol_tohand","","","","tol_peg_3","2839","2839","0","[[0,0,0],[2,1],[0]]","4","[[2,0,0],[1,3],[0]]","10","0","","","","","","6","","","","","","","","",""
"","","","","","single-stim-button","175","418061","0.0-2.0-40.3-1.3","5b23e3a26137550001a42101","A3","batch1","","615","tol_toboard","","","","tol_peg_1","615","615","0","[[3,0,0],[2,1],[0]]","4","[[2,0,0],[1,3],[0]]","10","0","","","","","","6","","","","","","","","",""
"","","","","","single-stim-button","176","418582","0.0-2.0-40.4-0.4","5b23e3a26137550001a42101","A3","batch1","","520","tol_tohand","","","","tol_peg_2","520","520","0","[[3,0,0],[2,0],[0]]","5","[[2,0,0],[1,3],[0]]","10","0","","","","","","6","","","","","","","","",""
"","","","","","single-stim-button","177","419046","0.0-2.0-40.4-1.4","5b23e3a26137550001a42101","A3","batch1","","462","tol_toboard","","","","tol_peg_3","462","462","0","[[3,0,0],[2,0],[1]]","5","[[2,0,0],[1,3],[0]]","10","0","","","","","","6","","","","","","","","",""
"","","","","","single-stim-button","178","421118","0.0-2.0-40.5-0.5","5b23e3a26137550001a42101","A3","batch1","","2072","tol_tohand","","","","tol_peg_2","2072","2072","0","[[3,0,0],[0,0],[1]]","6","[[2,0,0],[1,3],[0]]","10","0","","","","","","6","","","","","","","","",""
"","","","","","single-stim-button","179","423638","0.0-2.0-40.5-1.5","5b23e3a26137550001a42101","A3","batch1","","2520","tol_toboard","","","","tol_peg_1","2520","2520","0","[[3,2,0],[0,0],[1]]","6","[[2,0,0],[1,3],[0]]","10","0","","","","","","6","","","","","","","","",""
"","","","","","single-stim-button","180","424854","0.0-2.0-40.6-0.6","5b23e3a26137550001a42101","A3","batch1","","1216","tol_tohand","","","","tol_peg_3","1216","1216","0","[[3,2,0],[0,0],[0]]","7","[[2,0,0],[1,3],[0]]","10","0","","","","","","6","","","","","","","","",""
"","","","","","single-stim-button","181","425286","0.0-2.0-40.6-1.6","5b23e3a26137550001a42101","A3","batch1","","432","tol_toboard","","","","tol_peg_2","432","432","0","[[3,2,0],[1,0],[0]]","7","[[2,0,0],[1,3],[0]]","10","0","","","","","","6","","","","","","","","",""
"","","","","","single-stim-button","182","425767","0.0-2.0-40.7-0.7","5b23e3a26137550001a42101","A3","batch1","","481","tol_tohand","","","","tol_peg_1","481","481","0","[[3,0,0],[1,0],[0]]","8","[[2,0,0],[1,3],[0]]","10","0","","","","","","6","","","","","","","","",""
"","","","","","single-stim-button","183","426238","0.0-2.0-40.7-1.7","5b23e3a26137550001a42101","A3","batch1","","471","tol_toboard","","","","tol_peg_3","471","471","0","[[3,0,0],[1,0],[2]]","8","[[2,0,0],[1,3],[0]]","10","0","","","","","","6","","","","","","","","",""
"","","","","","single-stim-button","184","426702","0.0-2.0-40.8-0.8","5b23e3a26137550001a42101","A3","batch1","","464","tol_tohand","","","","tol_peg_1","464","464","0","[[0,0,0],[1,0],[2]]","9","[[2,0,0],[1,3],[0]]","10","0","","","","","","6","","","","","","","","",""
"","","","","","single-stim-button","185","427733","0.0-2.0-40.8-1.8","5b23e3a26137550001a42101","A3","batch1","","1030","tol_toboard","","","","tol_peg_2","1030","1030","0","[[0,0,0],[1,3],[2]]","9","[[2,0,0],[1,3],[0]]","10","0","","","","","","6","","","","","","","","",""
"","","","","","single-stim-button","186","428158","0.0-2.0-40.9-0.9","5b23e3a26137550001a42101","A3","batch1","","424","tol_tohand","","","","tol_peg_3","424","424","0","[[0,0,0],[1,3],[0]]","10","[[2,0,0],[1,3],[0]]","10","0","","","","","","6","","","","","","","","",""
"","","","","","single-stim-button","187","428630","0.0-2.0-40.9-1.9","5b23e3a26137550001a42101","A3","batch1","","472","tol_toboard","","","","tol_peg_1","472","472","0","[[2,0,0],[1,3],[0]]","10","[[2,0,0],[1,3],[0]]","10","0","","","","","","6","","","","","","","","",""
"","","","","","poldrack-single-stim","188","429631","0.0-2.0-41.0","5b23e3a26137550001a42101","A3","batch1","","-1","tol_feedback","","","true","","1000","1000","500","","","","","","-1","none","true","17039","26374","","","","","","","","","",""
"","","","","","html-button-response","189","430182","0.0-2.0-42.0","5b23e3a26137550001a42101","A3","batch1","","549.4000000059605","tol_trial_num","<div class = centerbox><p class = center-block-text>problem <strong>12</strong> out of 25 problems</p></div>","0","","","","","","","","","","","","","","","","","","","","","","","","",""
"","","","","","single-stim-button","190","434078","0.0-2.0-43.0-0.0","5b23e3a26137550001a42101","A3","batch1","","3896","tol_tohand","","","","tol_peg_1","3896","3896","0","[[1,0,0],[3,0],[0]]","1","[[2,3,0],[0,0],[1]]","11","0","","","","","","4","","","","","","","","",""
"","","","","","single-stim-button","191","434550","0.0-2.0-43.0-1.0","5b23e3a26137550001a42101","A3","batch1","","471","tol_toboard","","","","tol_peg_2","471","471","0","[[1,0,0],[3,2],[0]]","1","[[2,3,0],[0,0],[1]]","11","0","","","","","","4","","","","","","","","",""
"","","","","","single-stim-button","192","435054","0.0-2.0-43.1-0.1","5b23e3a26137550001a42101","A3","batch1","","504","tol_tohand","","","","tol_peg_1","504","504","0","[[0,0,0],[3,2],[0]]","2","[[2,3,0],[0,0],[1]]","11","0","","","","","","4","","","","","","","","",""
"","","","","","single-stim-button","193","435958","0.0-2.0-43.1-1.1","5b23e3a26137550001a42101","A3","batch1","","903","tol_toboard","","","","tol_peg_3","903","903","0","[[0,0,0],[3,2],[1]]","2","[[2,3,0],[0,0],[1]]","11","0","","","","","","4","","","","","","","","",""
"","","","","","single-stim-button","194","436485","0.0-2.0-43.2-0.2","5b23e3a26137550001a42101","A3","batch1","","527","tol_tohand","","","","tol_peg_2","527","527","0","[[0,0,0],[3,0],[1]]","3","[[2,3,0],[0,0],[1]]","11","0","","","","","","4","","","","","","","","",""
"","","","","","single-stim-button","195","436982","0.0-2.0-43.2-1.2","5b23e3a26137550001a42101","A3","batch1","","495","tol_toboard","","","","tol_peg_1","495","495","0","[[2,0,0],[3,0],[1]]","3","[[2,3,0],[0,0],[1]]","11","0","","","","","","4","","","","","","","","",""
"","","","","","single-stim-button","196","437406","0.0-2.0-43.3-0.3","5b23e3a26137550001a42101","A3","batch1","","424","tol_tohand","","","","tol_peg_2","424","424","0","[[2,0,0],[0,0],[1]]","4","[[2,3,0],[0,0],[1]]","11","0","","","","","","4","","","","","","","","",""
"","","","","","single-stim-button","197","437774","0.0-2.0-43.3-1.3","5b23e3a26137550001a42101","A3","batch1","","367","tol_toboard","","","","tol_peg_1","367","367","0","[[2,3,0],[0,0],[1]]","4","[[2,3,0],[0,0],[1]]","11","0","","","","","","4","","","","","","","","",""
"","","","","","poldrack-single-stim","198","438777","0.0-2.0-44.0","5b23e3a26137550001a42101","A3","batch1","","-1","tol_feedback","","","true","","1000","1000","500","","","","","","-1","none","true","3896","5351","","","","","","","","","",""
"","","","","","html-button-response","199","439382","0.0-2.0-45.0","5b23e3a26137550001a42101","A3","batch1","","603.4000000059605","tol_trial_num","<div class = centerbox><p class = center-block-text>problem <strong>13</strong> out of 25 problems</p></div>","0","","","","","","","","","","","","","","","","","","","","","","","","",""
"","","","","","single-stim-button","200","447749","0.0-2.0-46.0-0.0","5b23e3a26137550001a42101","A3","batch1","","8367","tol_tohand","","","","tol_peg_1","8367","8367","0","[[1,0,0],[3,0],[0]]","1","[[0,0,0],[2,3],[1]]","12","0","","","","","","4","","","","","","","","",""
"","","","","","single-stim-button","201","448270","0.0-2.0-46.0-1.0","5b23e3a26137550001a42101","A3","batch1","","519","tol_toboard","","","","tol_peg_2","519","519","0","[[1,0,0],[3,2],[0]]","1","[[0,0,0],[2,3],[1]]","12","0","","","","","","4","","","","","","","","",""
"","","","","","single-stim-button","202","448774","0.0-2.0-46.1-0.1","5b23e3a26137550001a42101","A3","batch1","","504","tol_tohand","","","","tol_peg_1","504","504","0","[[0,0,0],[3,2],[0]]","2","[[0,0,0],[2,3],[1]]","12","0","","","","","","4","","","","","","","","",""
"","","","","","single-stim-button","203","449494","0.0-2.0-46.1-1.1","5b23e3a26137550001a42101","A3","batch1","","719","tol_toboard","","","","tol_peg_3","719","719","0","[[0,0,0],[3,2],[1]]","2","[[0,0,0],[2,3],[1]]","12","0","","","","","","4","","","","","","","","",""
"","","","","","single-stim-button","204","450741","0.0-2.0-46.2-0.2","5b23e3a26137550001a42101","A3","batch1","","1247","tol_tohand","","","","tol_peg_2","1247","1247","0","[[0,0,0],[3,0],[1]]","3","[[0,0,0],[2,3],[1]]","12","0","","","","","","4","","","","","","","","",""
"","","","","","single-stim-button","205","451398","0.0-2.0-46.2-1.2","5b23e3a26137550001a42101","A3","batch1","","656","tol_toboard","","","","tol_peg_1","656","656","0","[[2,0,0],[3,0],[1]]","3","[[0,0,0],[2,3],[1]]","12","0","","","","","","4","","","","","","","","",""
"","","","","","single-stim-button","206","458278","0.0-2.0-46.3-0.3","5b23e3a26137550001a42101","A3","batch1","","6880","tol_tohand","","","","tol_peg_1","6880","6880","0","[[0,0,0],[3,0],[1]]","4","[[0,0,0],[2,3],[1]]","12","0","","","","","","4","","","","","","","","",""
"","","","","","single-stim-button","207","458918","0.0-2.0-46.3-1.3","5b23e3a26137550001a42101","A3","batch1","","639","tol_toboard","","","","tol_peg_2","639","639","0","[[0,0,0],[3,2],[1]]","4","[[0,0,0],[2,3],[1]]","12","0","","","","","","4","","","","","","","","",""
"","","","","","single-stim-button","208","459358","0.0-2.0-46.4-0.4","5b23e3a26137550001a42101","A3","batch1","","439","tol_tohand","","","","tol_peg_3","439","439","0","[[0,0,0],[3,2],[0]]","5","[[0,0,0],[2,3],[1]]","12","0","","","","","","4","","","","","","","","",""
"","","","","","single-stim-button","209","460046","0.0-2.0-46.4-1.4","5b23e3a26137550001a42101","A3","batch1","","687","tol_toboard","","","","tol_peg_1","687","687","0","[[1,0,0],[3,2],[0]]","5","[[0,0,0],[2,3],[1]]","12","0","","","","","","4","","","","","","","","",""
"","","","","","single-stim-button","210","460815","0.0-2.0-46.5-0.5","5b23e3a26137550001a42101","A3","batch1","","769","tol_tohand","","","","tol_peg_2","769","769","0","[[1,0,0],[3,0],[0]]","6","[[0,0,0],[2,3],[1]]","12","0","","","","","","4","","","","","","","","",""
"","","","","","single-stim-button","211","461246","0.0-2.0-46.5-1.5","5b23e3a26137550001a42101","A3","batch1","","430","tol_toboard","","","","tol_peg_3","430","430","0","[[1,0,0],[3,0],[2]]","6","[[0,0,0],[2,3],[1]]","12","0","","","","","","4","","","","","","","","",""
"","","","","","single-stim-button","212","461623","0.0-2.0-46.6-0.6","5b23e3a26137550001a42101","A3","batch1","","376","tol_tohand","","","","tol_peg_2","376","376","0","[[1,0,0],[0,0],[2]]","7","[[0,0,0],[2,3],[1]]","12","0","","","","","","4","","","","","","","","",""
"","","","","","single-stim-button","213","462430","0.0-2.0-46.6-1.6","5b23e3a26137550001a42101","A3","batch1","","807","tol_toboard","","","","tol_peg_1","807","807","0","[[1,3,0],[0,0],[2]]","7","[[0,0,0],[2,3],[1]]","12","0","","","","","","4","","","","","","","","",""
"","","","","","single-stim-button","214","463062","0.0-2.0-46.7-0.7","5b23e3a26137550001a42101","A3","batch1","","632","tol_tohand","","","","tol_peg_3","632","632","0","[[1,3,0],[0,0],[0]]","8","[[0,0,0],[2,3],[1]]","12","0","","","","","","4","","","","","","","","",""
"","","","","","single-stim-button","215","463430","0.0-2.0-46.7-1.7","5b23e3a26137550001a42101","A3","batch1","","367","tol_toboard","","","","tol_peg_2","367","367","0","[[1,3,0],[2,0],[0]]","8","[[0,0,0],[2,3],[1]]","12","0","","","","","","4","","","","","","","","",""
"","","","","","single-stim-button","216","463879","0.0-2.0-46.8-0.8","5b23e3a26137550001a42101","A3","batch1","","449","tol_tohand","","","","tol_peg_1","449","449","0","[[1,0,0],[2,0],[0]]","9","[[0,0,0],[2,3],[1]]","12","0","","","","","","4","","","","","","","","",""
"","","","","","single-stim-button","217","464253","0.0-2.0-46.8-1.8","5b23e3a26137550001a42101","A3","batch1","","374","tol_toboard","","","","tol_peg_2","374","374","0","[[1,0,0],[2,3],[0]]","9","[[0,0,0],[2,3],[1]]","12","0","","","","","","4","","","","","","","","",""
"","","","","","single-stim-button","218","464855","0.0-2.0-46.9-0.9","5b23e3a26137550001a42101","A3","batch1","","601","tol_tohand","","","","tol_peg_1","601","601","0","[[0,0,0],[2,3],[0]]","10","[[0,0,0],[2,3],[1]]","12","0","","","","","","4","","","","","","","","",""
"","","","","","single-stim-button","219","465277","0.0-2.0-46.9-1.9","5b23e3a26137550001a42101","A3","batch1","","422","tol_toboard","","","","tol_peg_3","422","422","0","[[0,0,0],[2,3],[1]]","10","[[0,0,0],[2,3],[1]]","12","0","","","","","","4","","","","","","","","",""
"","","","","","poldrack-single-stim","220","466279","0.0-2.0-47.0","5b23e3a26137550001a42101","A3","batch1","","-1","tol_feedback","","","true","","1000","1000","500","","","","","","-1","none","true","8367","20264","","","","","","","","","",""
"","","","","","html-button-response","221","466718","0.0-2.0-48.0","5b23e3a26137550001a42101","A3","batch1","","437.40000000596046","attention_check","<p class = block-text>How many balls are in your board<br></p>","1","true","","","","","","","","","","","","","","","","","","","","","","","",""
"","","","","","html-button-response","222","470758","0.0-2.0-49.0","5b23e3a26137550001a42101","A3","batch1","","4039.199999988079","tol_trial_num","<div class = centerbox><p class = center-block-text>problem <strong>14</strong> out of 25 problems</p></div>","0","","","","","","","","","","","","","","","","","","","","","","","","",""
"","","","","","single-stim-button","223","487102","0.0-2.0-50.0-0.0","5b23e3a26137550001a42101","A3","batch1","","16344","tol_tohand","","","","tol_peg_1","16344","16344","0","[[2,0,0],[3,0],[0]]","1","[[1,2,0],[3,0],[0]]","13","0","","","","","","4","","","","","","","","",""
"","","","","","single-stim-button","224","488126","0.0-2.0-50.0-1.0","5b23e3a26137550001a42101","A3","batch1","","1023","tol_toboard","","","","tol_peg_3","1023","1023","0","[[2,0,0],[3,0],[1]]","1","[[1,2,0],[3,0],[0]]","13","0","","","","","","4","","","","","","","","",""
"","","","","","single-stim-button","225","488830","0.0-2.0-50.1-0.1","5b23e3a26137550001a42101","A3","batch1","","704","tol_tohand","","","","tol_peg_1","704","704","0","[[0,0,0],[3,0],[1]]","2","[[1,2,0],[3,0],[0]]","13","0","","","","","","4","","","","","","","","",""
"","","","","","single-stim-button","226","489326","0.0-2.0-50.1-1.1","5b23e3a26137550001a42101","A3","batch1","","496","tol_toboard","","","","tol_peg_2","496","496","0","[[0,0,0],[3,2],[1]]","2","[[1,2,0],[3,0],[0]]","13","0","","","","","","4","","","","","","","","",""
"","","","","","single-stim-button","227","489830","0.0-2.0-50.2-0.2","5b23e3a26137550001a42101","A3","batch1","","504","tol_tohand","","","","tol_peg_3","504","504","0","[[0,0,0],[3,2],[0]]","3","[[1,2,0],[3,0],[0]]","13","0","","","","","","4","","","","","","","","",""
"","","","","","single-stim-button","228","490374","0.0-2.0-50.2-1.2","5b23e3a26137550001a42101","A3","batch1","","544","tol_toboard","","","","tol_peg_1","544","544","0","[[1,0,0],[3,2],[0]]","3","[[1,2,0],[3,0],[0]]","13","0","","","","","","4","","","","","","","","",""
"","","","","","single-stim-button","229","490870","0.0-2.0-50.3-0.3","5b23e3a26137550001a42101","A3","batch1","","496","tol_tohand","","","","tol_peg_2","496","496","0","[[1,0,0],[3,0],[0]]","4","[[1,2,0],[3,0],[0]]","13","0","","","","","","4","","","","","","","","",""
"","","","","","single-stim-button","230","491342","0.0-2.0-50.3-1.3","5b23e3a26137550001a42101","A3","batch1","","472","tol_toboard","","","","tol_peg_1","472","472","0","[[1,2,0],[3,0],[0]]","4","[[1,2,0],[3,0],[0]]","13","0","","","","","","4","","","","","","","","",""
"","","","","","poldrack-single-stim","231","492354","0.0-2.0-51.0","5b23e3a26137550001a42101","A3","batch1","","-1","tol_feedback","","","true","","1000","1000","500","","","","","","-1","none","true","16344","18048","","","","","","","","","",""
"","","","","","html-button-response","232","492998","0.0-2.0-52.0","5b23e3a26137550001a42101","A3","batch1","","643.8000000119209","tol_trial_num","<div class = centerbox><p class = center-block-text>problem <strong>15</strong> out of 25 problems</p></div>","0","","","","","","","","","","","","","","","","","","","","","","","","",""
"","","","","","single-stim-button","233","499158","0.0-2.0-53.0-0.0","5b23e3a26137550001a42101","A3","batch1","","6159","tol_tohand","","","","tol_peg_1","6159","6159","0","[[1,0,0],[3,0],[0]]","1","[[2,0,0],[3,0],[1]]","14","0","","","","","","3","","","","","","","","",""
"","","","","","single-stim-button","234","499630","0.0-2.0-53.0-1.0","5b23e3a26137550001a42101","A3","batch1","","472","tol_toboard","","","","tol_peg_2","472","472","0","[[1,0,0],[3,2],[0]]","1","[[2,0,0],[3,0],[1]]","14","0","","","","","","3","","","","","","","","",""
"","","","","","single-stim-button","235","500062","0.0-2.0-53.1-0.1","5b23e3a26137550001a42101","A3","batch1","","431","tol_tohand","","","","tol_peg_1","431","431","0","[[0,0,0],[3,2],[0]]","2","[[2,0,0],[3,0],[1]]","14","0","","","","","","3","","","","","","","","",""
"","","","","","single-stim-button","236","500598","0.0-2.0-53.1-1.1","5b23e3a26137550001a42101","A3","batch1","","536","tol_toboard","","","","tol_peg_3","536","536","0","[[0,0,0],[3,2],[1]]","2","[[2,0,0],[3,0],[1]]","14","0","","","","","","3","","","","","","","","",""
"","","","","","single-stim-button","237","501094","0.0-2.0-53.2-0.2","5b23e3a26137550001a42101","A3","batch1","","495","tol_tohand","","","","tol_peg_2","495","495","0","[[0,0,0],[3,0],[1]]","3","[[2,0,0],[3,0],[1]]","14","0","","","","","","3","","","","","","","","",""
"","","","","","single-stim-button","238","501686","0.0-2.0-53.2-1.2","5b23e3a26137550001a42101","A3","batch1","","592","tol_toboard","","","","tol_peg_1","592","592","0","[[2,0,0],[3,0],[1]]","3","[[2,0,0],[3,0],[1]]","14","0","","","","","","3","","","","","","","","",""
"","","","","","poldrack-single-stim","239","502687","0.0-2.0-54.0","5b23e3a26137550001a42101","A3","batch1","","-1","tol_feedback","","","true","","1000","1000","500","","","","","","-1","none","true","6159","7085","","","","","","","","","",""
"","","","","","html-button-response","240","503166","0.0-2.0-55.0","5b23e3a26137550001a42101","A3","batch1","","477.90000000596046","tol_trial_num","<div class = centerbox><p class = center-block-text>problem <strong>16</strong> out of 25 problems</p></div>","0","","","","","","","","","","","","","","","","","","","","","","","","",""
"","","","","","single-stim-button","241","510814","0.0-2.0-56.0-0.0","5b23e3a26137550001a42101","A3","batch1","","7648","tol_tohand","","","","tol_peg_3","7648","7648","0","[[0,0,0],[2,3],[0]]","1","[[2,3,0],[1,0],[0]]","15","0","","","","","","7","","","","","","","","",""
"","","","","","single-stim-button","242","511302","0.0-2.0-56.0-1.0","5b23e3a26137550001a42101","A3","batch1","","488","tol_toboard","","","","tol_peg_1","488","488","0","[[1,0,0],[2,3],[0]]","1","[[2,3,0],[1,0],[0]]","15","0","","","","","","7","","","","","","","","",""
"","","","","","single-stim-button","243","511966","0.0-2.0-56.1-0.1","5b23e3a26137550001a42101","A3","batch1","","664","tol_tohand","","","","tol_peg_2","664","664","0","[[1,0,0],[2,0],[0]]","2","[[2,3,0],[1,0],[0]]","15","0","","","","","","7","","","","","","","","",""
"","","","","","single-stim-button","244","523158","0.0-2.0-56.1-1.1","5b23e3a26137550001a42101","A3","batch1","","11192","tol_toboard","","","","tol_peg_3","11192","11192","0","[[1,0,0],[2,0],[3]]","2","[[2,3,0],[1,0],[0]]","15","0","","","","","","7","","","","","","","","",""
"","","","","","single-stim-button","245","538630","0.0-2.0-56.2-0.2","5b23e3a26137550001a42101","A3","batch1","","15471","tol_tohand","","","","tol_peg_3","15471","15471","0","[[1,0,0],[2,0],[0]]","3","[[2,3,0],[1,0],[0]]","15","0","","","","","","7","","","","","","","","",""
"","","","","","single-stim-button","246","538958","0.0-2.0-56.2-1.2","5b23e3a26137550001a42101","A3","batch1","","328","tol_toboard","","","","tol_peg_2","328","328","0","[[1,0,0],[2,3],[0]]","3","[[2,3,0],[1,0],[0]]","15","0","","","","","","7","","","","","","","","",""
"","","","","","single-stim-button","247","539286","0.0-2.0-56.3-0.3","5b23e3a26137550001a42101","A3","batch1","","328","tol_tohand","","","","tol_peg_1","328","328","0","[[0,0,0],[2,3],[0]]","4","[[2,3,0],[1,0],[0]]","15","0","","","","","","7","","","","","","","","",""
"","","","","","single-stim-button","248","539966","0.0-2.0-56.3-1.3","5b23e3a26137550001a42101","A3","batch1","","680","tol_toboard","","","","tol_peg_3","680","680","0","[[0,0,0],[2,3],[1]]","4","[[2,3,0],[1,0],[0]]","15","0","","","","","","7","","","","","","","","",""
"","","","","","single-stim-button","249","542231","0.0-2.0-56.4-0.4","5b23e3a26137550001a42101","A3","batch1","","2265","tol_tohand","","","","tol_peg_2","2265","2265","0","[[0,0,0],[2,0],[1]]","5","[[2,3,0],[1,0],[0]]","15","0","","","","","","7","","","","","","","","",""
"","","","","","single-stim-button","250","542559","0.0-2.0-56.4-1.4","5b23e3a26137550001a42101","A3","batch1","","328","tol_toboard","","","","tol_peg_1","328","328","0","[[3,0,0],[2,0],[1]]","5","[[2,3,0],[1,0],[0]]","15","0","","","","","","7","","","","","","","","",""
"","","","","","single-stim-button","251","543086","0.0-2.0-56.5-0.5","5b23e3a26137550001a42101","A3","batch1","","527","tol_tohand","","","","tol_peg_2","527","527","0","[[3,0,0],[0,0],[1]]","6","[[2,3,0],[1,0],[0]]","15","0","","","","","","7","","","","","","","","",""
"","","","","","single-stim-button","252","544190","0.0-2.0-56.5-1.5","5b23e3a26137550001a42101","A3","batch1","","1104","tol_toboard","","","","tol_peg_1","1104","1104","0","[[3,2,0],[0,0],[1]]","6","[[2,3,0],[1,0],[0]]","15","0","","","","","","7","","","","","","","","",""
"","","","","","single-stim-button","253","546383","0.0-2.0-56.6-0.6","5b23e3a26137550001a42101","A3","batch1","","2193","tol_tohand","","","","tol_peg_3","2193","2193","0","[[3,2,0],[0,0],[0]]","7","[[2,3,0],[1,0],[0]]","15","0","","","","","","7","","","","","","","","",""
"","","","","","single-stim-button","254","546734","0.0-2.0-56.6-1.6","5b23e3a26137550001a42101","A3","batch1","","351","tol_toboard","","","","tol_peg_2","351","351","0","[[3,2,0],[1,0],[0]]","7","[[2,3,0],[1,0],[0]]","15","0","","","","","","7","","","","","","","","",""
"","","","","","single-stim-button","255","547630","0.0-2.0-56.7-0.7","5b23e3a26137550001a42101","A3","batch1","","896","tol_tohand","","","","tol_peg_1","896","896","0","[[3,0,0],[1,0],[0]]","8","[[2,3,0],[1,0],[0]]","15","0","","","","","","7","","","","","","","","",""
"","","","","","single-stim-button","256","549174","0.0-2.0-56.7-1.7","5b23e3a26137550001a42101","A3","batch1","","1544","tol_toboard","","","","tol_peg_3","1544","1544","0","[[3,0,0],[1,0],[2]]","8","[[2,3,0],[1,0],[0]]","15","0","","","","","","7","","","","","","","","",""
"","","","","","single-stim-button","257","549822","0.0-2.0-56.8-0.8","5b23e3a26137550001a42101","A3","batch1","","648","tol_tohand","","","","tol_peg_1","648","648","0","[[0,0,0],[1,0],[2]]","9","[[2,3,0],[1,0],[0]]","15","0","","","","","","7","","","","","","","","",""
"","","","","","single-stim-button","258","550350","0.0-2.0-56.8-1.8","5b23e3a26137550001a42101","A3","batch1","","528","tol_toboard","","","","tol_peg_2","528","528","0","[[0,0,0],[1,3],[2]]","9","[[2,3,0],[1,0],[0]]","15","0","","","","","","7","","","","","","","","",""
"","","","","","single-stim-button","259","550742","0.0-2.0-56.9-0.9","5b23e3a26137550001a42101","A3","batch1","","392","tol_tohand","","","","tol_peg_3","392","392","0","[[0,0,0],[1,3],[0]]","10","[[2,3,0],[1,0],[0]]","15","0","","","","","","7","","","","","","","","",""
"","","","","","single-stim-button","260","551246","0.0-2.0-56.9-1.9","5b23e3a26137550001a42101","A3","batch1","","504","tol_toboard","","","","tol_peg_1","504","504","0","[[2,0,0],[1,3],[0]]","10","[[2,3,0],[1,0],[0]]","15","0","","","","","","7","","","","","","","","",""
"","","","","","single-stim-button","261","551718","0.0-2.0-56.10-0.10","5b23e3a26137550001a42101","A3","batch1","","472","tol_tohand","","","","tol_peg_2","472","472","0","[[2,0,0],[1,0],[0]]","11","[[2,3,0],[1,0],[0]]","15","0","","","","","","7","","","","","","","","",""
"","","","","","single-stim-button","262","552054","0.0-2.0-56.10-1.10","5b23e3a26137550001a42101","A3","batch1","","336","tol_toboard","","","","tol_peg_1","336","336","0","[[2,3,0],[1,0],[0]]","11","[[2,3,0],[1,0],[0]]","15","0","","","","","","7","","","","","","","","",""
"","","","","","poldrack-single-stim","263","553056","0.0-2.0-57.0","5b23e3a26137550001a42101","A3","batch1","","-1","tol_feedback","","","true","","1000","1000","500","","","","","","-1","none","true","7648","31504","","","","","","","","","",""
"","","","","","html-button-response","264","553646","0.0-2.0-58.0","5b23e3a26137550001a42101","A3","batch1","","589.4000000059605","tol_trial_num","<div class = centerbox><p class = center-block-text>problem <strong>17</strong> out of 25 problems</p></div>","0","","","","","","","","","","","","","","","","","","","","","","","","",""
"","","","","","single-stim-button","265","562798","0.0-2.0-59.0-0.0","5b23e3a26137550001a42101","A3","batch1","","9152","tol_tohand","","","","tol_peg_2","9152","9152","0","[[1,2,0],[0,0],[0]]","1","[[3,1,0],[2,0],[0]]","16","0","","","","","","5","","","","","","","","",""
"","","","","","single-stim-button","266","563398","0.0-2.0-59.0-1.0","5b23e3a26137550001a42101","A3","batch1","","600","tol_toboard","","","","tol_peg_3","600","600","0","[[1,2,0],[0,0],[3]]","1","[[3,1,0],[2,0],[0]]","16","0","","","","","","5","","","","","","","","",""
"","","","","","single-stim-button","267","563950","0.0-2.0-59.1-0.1","5b23e3a26137550001a42101","A3","batch1","","552","tol_tohand","","","","tol_peg_1","552","552","0","[[1,0,0],[0,0],[3]]","2","[[3,1,0],[2,0],[0]]","16","0","","","","","","5","","","","","","","","",""
"","","","","","single-stim-button","268","564502","0.0-2.0-59.1-1.1","5b23e3a26137550001a42101","A3","batch1","","552","tol_toboard","","","","tol_peg_2","552","552","0","[[1,0,0],[2,0],[3]]","2","[[3,1,0],[2,0],[0]]","16","0","","","","","","5","","","","","","","","",""
"","","","","","single-stim-button","269","565070","0.0-2.0-59.2-0.2","5b23e3a26137550001a42101","A3","batch1","","568","tol_tohand","","","","tol_peg_1","568","568","0","[[0,0,0],[2,0],[3]]","3","[[3,1,0],[2,0],[0]]","16","0","","","","","","5","","","","","","","","",""
"","","","","","single-stim-button","270","565630","0.0-2.0-59.2-1.2","5b23e3a26137550001a42101","A3","batch1","","560","tol_toboard","","","","tol_peg_2","560","560","0","[[0,0,0],[2,1],[3]]","3","[[3,1,0],[2,0],[0]]","16","0","","","","","","5","","","","","","","","",""
"","","","","","single-stim-button","271","566198","0.0-2.0-59.3-0.3","5b23e3a26137550001a42101","A3","batch1","","568","tol_tohand","","","","tol_peg_3","568","568","0","[[0,0,0],[2,1],[0]]","4","[[3,1,0],[2,0],[0]]","16","0","","","","","","5","","","","","","","","",""
"","","","","","single-stim-button","272","566742","0.0-2.0-59.3-1.3","5b23e3a26137550001a42101","A3","batch1","","544","tol_toboard","","","","tol_peg_1","544","544","0","[[3,0,0],[2,1],[0]]","4","[[3,1,0],[2,0],[0]]","16","0","","","","","","5","","","","","","","","",""
"","","","","","single-stim-button","273","567262","0.0-2.0-59.4-0.4","5b23e3a26137550001a42101","A3","batch1","","519","tol_tohand","","","","tol_peg_2","519","519","0","[[3,0,0],[2,0],[0]]","5","[[3,1,0],[2,0],[0]]","16","0","","","","","","5","","","","","","","","",""
"","","","","","single-stim-button","274","567774","0.0-2.0-59.4-1.4","5b23e3a26137550001a42101","A3","batch1","","511","tol_toboard","","","","tol_peg_1","511","511","0","[[3,1,0],[2,0],[0]]","5","[[3,1,0],[2,0],[0]]","16","0","","","","","","5","","","","","","","","",""
"","","","","","poldrack-single-stim","275","568776","0.0-2.0-60.0","5b23e3a26137550001a42101","A3","batch1","","-1","tol_feedback","","","true","","1000","1000","500","","","","","","-1","none","true","9152","11359","","","","","","","","","",""
"","","","","","html-button-response","276","569622","0.0-2.0-61.0","5b23e3a26137550001a42101","A3","batch1","","845.0999999940395","tol_trial_num","<div class = centerbox><p class = center-block-text>problem <strong>18</strong> out of 25 problems</p></div>","0","","","","","","","","","","","","","","","","","","","","","","","","",""
"","","","","","single-stim-button","277","592478","0.0-2.0-62.0-0.0","5b23e3a26137550001a42101","A3","batch1","","22856","tol_tohand","","","","tol_peg_1","22856","22856","0","[[1,0,0],[3,0],[0]]","1","[[3,0,0],[2,0],[1]]","17","0","","","","","","5","","","","","","","","",""
"","","","","","single-stim-button","278","592926","0.0-2.0-62.0-1.0","5b23e3a26137550001a42101","A3","batch1","","448","tol_toboard","","","","tol_peg_2","448","448","0","[[1,0,0],[3,2],[0]]","1","[[3,0,0],[2,0],[1]]","17","0","","","","","","5","","","","","","","","",""
"","","","","","single-stim-button","279","593343","0.0-2.0-62.1-0.1","5b23e3a26137550001a42101","A3","batch1","","417","tol_tohand","","","","tol_peg_1","417","417","0","[[0,0,0],[3,2],[0]]","2","[[3,0,0],[2,0],[1]]","17","0","","","","","","5","","","","","","","","",""
"","","","","","single-stim-button","280","593798","0.0-2.0-62.1-1.1","5b23e3a26137550001a42101","A3","batch1","","455","tol_toboard","","","","tol_peg_3","455","455","0","[[0,0,0],[3,2],[1]]","2","[[3,0,0],[2,0],[1]]","17","0","","","","","","5","","","","","","","","",""
"","","","","","single-stim-button","281","594670","0.0-2.0-62.2-0.2","5b23e3a26137550001a42101","A3","batch1","","872","tol_tohand","","","","tol_peg_2","872","872","0","[[0,0,0],[3,0],[1]]","3","[[3,0,0],[2,0],[1]]","17","0","","","","","","5","","","","","","","","",""
"","","","","","single-stim-button","282","595286","0.0-2.0-62.2-1.2","5b23e3a26137550001a42101","A3","batch1","","615","tol_toboard","","","","tol_peg_1","615","615","0","[[2,0,0],[3,0],[1]]","3","[[3,0,0],[2,0],[1]]","17","0","","","","","","5","","","","","","","","",""
"","","","","","single-stim-button","283","598766","0.0-2.0-62.3-0.3","5b23e3a26137550001a42101","A3","batch1","","3480","tol_tohand","","","","tol_peg_2","3480","3480","0","[[2,0,0],[0,0],[1]]","4","[[3,0,0],[2,0],[1]]","17","0","","","","","","5","","","","","","","","",""
"","","","","","single-stim-button","284","599126","0.0-2.0-62.3-1.3","5b23e3a26137550001a42101","A3","batch1","","359","tol_toboard","","","","tol_peg_1","359","359","0","[[2,3,0],[0,0],[1]]","4","[[3,0,0],[2,0],[1]]","17","0","","","","","","5","","","","","","","","",""
"","","","","","single-stim-button","285","601823","0.0-2.0-62.4-0.4","5b23e3a26137550001a42101","A3","batch1","","2697","tol_tohand","","","","tol_peg_3","2697","2697","0","[[2,3,0],[0,0],[0]]","5","[[3,0,0],[2,0],[1]]","17","0","","","","","","5","","","","","","","","",""
"","","","","","single-stim-button","286","602222","0.0-2.0-62.4-1.4","5b23e3a26137550001a42101","A3","batch1","","398","tol_toboard","","","","tol_peg_2","398","398","0","[[2,3,0],[1,0],[0]]","5","[[3,0,0],[2,0],[1]]","17","0","","","","","","5","","","","","","","","",""
"","","","","","single-stim-button","287","604166","0.0-2.0-62.5-0.5","5b23e3a26137550001a42101","A3","batch1","","1943","tol_tohand","","","","tol_peg_1","1943","1943","0","[[2,0,0],[1,0],[0]]","6","[[3,0,0],[2,0],[1]]","17","0","","","","","","5","","","","","","","","",""
"","","","","","single-stim-button","288","605206","0.0-2.0-62.5-1.5","5b23e3a26137550001a42101","A3","batch1","","1039","tol_toboard","","","","tol_peg_2","1039","1039","0","[[2,0,0],[1,3],[0]]","6","[[3,0,0],[2,0],[1]]","17","0","","","","","","5","","","","","","","","",""
"","","","","","single-stim-button","289","606470","0.0-2.0-62.6-0.6","5b23e3a26137550001a42101","A3","batch1","","1263","tol_tohand","","","","tol_peg_1","1263","1263","0","[[0,0,0],[1,3],[0]]","7","[[3,0,0],[2,0],[1]]","17","0","","","","","","5","","","","","","","","",""
"","","","","","single-stim-button","290","607157","0.0-2.0-62.6-1.6","5b23e3a26137550001a42101","A3","batch1","","687","tol_toboard","","","","tol_peg_3","687","687","0","[[0,0,0],[1,3],[2]]","7","[[3,0,0],[2,0],[1]]","17","0","","","","","","5","","","","","","","","",""
"","","","","","single-stim-button","291","607614","0.0-2.0-62.7-0.7","5b23e3a26137550001a42101","A3","batch1","","455","tol_tohand","","","","tol_peg_2","455","455","0","[[0,0,0],[1,0],[2]]","8","[[3,0,0],[2,0],[1]]","17","0","","","","","","5","","","","","","","","",""
"","","","","","single-stim-button","292","608150","0.0-2.0-62.7-1.7","5b23e3a26137550001a42101","A3","batch1","","535","tol_toboard","","","","tol_peg_1","535","535","0","[[3,0,0],[1,0],[2]]","8","[[3,0,0],[2,0],[1]]","17","0","","","","","","5","","","","","","","","",""
"","","","","","single-stim-button","293","609366","0.0-2.0-62.8-0.8","5b23e3a26137550001a42101","A3","batch1","","1216","tol_tohand","","","","tol_peg_2","1216","1216","0","[[3,0,0],[0,0],[2]]","9","[[3,0,0],[2,0],[1]]","17","0","","","","","","5","","","","","","","","",""
"","","","","","single-stim-button","294","610197","0.0-2.0-62.8-1.8","5b23e3a26137550001a42101","A3","batch1","","831","tol_toboard","","","","tol_peg_1","831","831","0","[[3,1,0],[0,0],[2]]","9","[[3,0,0],[2,0],[1]]","17","0","","","","","","5","","","","","","","","",""
"","","","","","single-stim-button","295","610638","0.0-2.0-62.9-0.9","5b23e3a26137550001a42101","A3","batch1","","440","tol_tohand","","","","tol_peg_3","440","440","0","[[3,1,0],[0,0],[0]]","10","[[3,0,0],[2,0],[1]]","17","0","","","","","","5","","","","","","","","",""
"","","","","","single-stim-button","296","610998","0.0-2.0-62.9-1.9","5b23e3a26137550001a42101","A3","batch1","","359","tol_toboard","","","","tol_peg_2","359","359","0","[[3,1,0],[2,0],[0]]","10","[[3,0,0],[2,0],[1]]","17","0","","","","","","5","","","","","","","","",""
"","","","","","single-stim-button","297","611390","0.0-2.0-62.10-0.10","5b23e3a26137550001a42101","A3","batch1","","391","tol_tohand","","","","tol_peg_1","391","391","0","[[3,0,0],[2,0],[0]]","11","[[3,0,0],[2,0],[1]]","17","0","","","","","","5","","","","","","","","",""
"","","","","","single-stim-button","298","611894","0.0-2.0-62.10-1.10","5b23e3a26137550001a42101","A3","batch1","","504","tol_toboard","","","","tol_peg_3","504","504","0","[[3,0,0],[2,0],[1]]","11","[[3,0,0],[2,0],[1]]","17","0","","","","","","5","","","","","","","","",""
"","","","","","poldrack-single-stim","299","612895","0.0-2.0-63.0","5b23e3a26137550001a42101","A3","batch1","","-1","tol_feedback","","","true","","1000","1000","500","","","","","","-1","none","true","22856","36030","","","","","","","","","",""
"","","","","","html-button-response","300","613486","0.0-2.0-64.0","5b23e3a26137550001a42101","A3","batch1","","590.0999999940395","tol_trial_num","<div class = centerbox><p class = center-block-text>problem <strong>19</strong> out of 25 problems</p></div>","0","","","","","","","","","","","","","","","","","","","","","","","","",""
"","","","","","single-stim-button","301","625661","0.0-2.0-65.0-0.0","5b23e3a26137550001a42101","A3","batch1","","12175","tol_tohand","","","","tol_peg_2","12175","12175","0","[[1,2,0],[0,0],[0]]","1","[[0,0,0],[1,2],[3]]","18","0","","","","","","7","","","","","","","","",""
"","","","","","single-stim-button","302","626078","0.0-2.0-65.0-1.0","5b23e3a26137550001a42101","A3","batch1","","415","tol_toboard","","","","tol_peg_3","415","415","0","[[1,2,0],[0,0],[3]]","1","[[0,0,0],[1,2],[3]]","18","0","","","","","","7","","","","","","","","",""
"","","","","","single-stim-button","303","626598","0.0-2.0-65.1-0.1","5b23e3a26137550001a42101","A3","batch1","","519","tol_tohand","","","","tol_peg_1","519","519","0","[[1,0,0],[0,0],[3]]","2","[[0,0,0],[1,2],[3]]","18","0","","","","","","7","","","","","","","","",""
"","","","","","single-stim-button","304","627054","0.0-2.0-65.1-1.1","5b23e3a26137550001a42101","A3","batch1","","456","tol_toboard","","","","tol_peg_2","456","456","0","[[1,0,0],[2,0],[3]]","2","[[0,0,0],[1,2],[3]]","18","0","","","","","","7","","","","","","","","",""
"","","","","","single-stim-button","305","627709","0.0-2.0-65.2-0.2","5b23e3a26137550001a42101","A3","batch1","","654","tol_tohand","","","","tol_peg_1","654","654","0","[[0,0,0],[2,0],[3]]","3","[[0,0,0],[1,2],[3]]","18","0","","","","","","7","","","","","","","","",""
"","","","","","single-stim-button","306","628110","0.0-2.0-65.2-1.2","5b23e3a26137550001a42101","A3","batch1","","399","tol_toboard","","","","tol_peg_2","399","399","0","[[0,0,0],[2,1],[3]]","3","[[0,0,0],[1,2],[3]]","18","0","","","","","","7","","","","","","","","",""
"","","","","","single-stim-button","307","630174","0.0-2.0-65.3-0.3","5b23e3a26137550001a42101","A3","batch1","","2064","tol_tohand","","","","tol_peg_3","2064","2064","0","[[0,0,0],[2,1],[0]]","4","[[0,0,0],[1,2],[3]]","18","0","","","","","","7","","","","","","","","",""
"","","","","","single-stim-button","308","630654","0.0-2.0-65.3-1.3","5b23e3a26137550001a42101","A3","batch1","","479","tol_toboard","","","","tol_peg_1","479","479","0","[[3,0,0],[2,1],[0]]","4","[[0,0,0],[1,2],[3]]","18","0","","","","","","7","","","","","","","","",""
"","","","","","single-stim-button","309","631118","0.0-2.0-65.4-0.4","5b23e3a26137550001a42101","A3","batch1","","463","tol_tohand","","","","tol_peg_2","463","463","0","[[3,0,0],[2,0],[0]]","5","[[0,0,0],[1,2],[3]]","18","0","","","","","","7","","","","","","","","",""
"","","","","","single-stim-button","310","631910","0.0-2.0-65.4-1.4","5b23e3a26137550001a42101","A3","batch1","","792","tol_toboard","","","","tol_peg_1","792","792","0","[[3,1,0],[2,0],[0]]","5","[[0,0,0],[1,2],[3]]","18","0","","","","","","7","","","","","","","","",""
"","","","","","single-stim-button","311","632262","0.0-2.0-65.5-0.5","5b23e3a26137550001a42101","A3","batch1","","351","tol_tohand","","","","tol_peg_2","351","351","0","[[3,1,0],[0,0],[0]]","6","[[0,0,0],[1,2],[3]]","18","0","","","","","","7","","","","","","","","",""
"","","","","","single-stim-button","312","632662","0.0-2.0-65.5-1.5","5b23e3a26137550001a42101","A3","batch1","","400","tol_toboard","","","","tol_peg_3","400","400","0","[[3,1,0],[0,0],[2]]","6","[[0,0,0],[1,2],[3]]","18","0","","","","","","7","","","","","","","","",""
"","","","","","single-stim-button","313","633270","0.0-2.0-65.6-0.6","5b23e3a26137550001a42101","A3","batch1","","607","tol_tohand","","","","tol_peg_1","607","607","0","[[3,0,0],[0,0],[2]]","7","[[0,0,0],[1,2],[3]]","18","0","","","","","","7","","","","","","","","",""
"","","","","","single-stim-button","314","633734","0.0-2.0-65.6-1.6","5b23e3a26137550001a42101","A3","batch1","","463","tol_toboard","","","","tol_peg_2","463","463","0","[[3,0,0],[1,0],[2]]","7","[[0,0,0],[1,2],[3]]","18","0","","","","","","7","","","","","","","","",""
"","","","","","single-stim-button","315","634206","0.0-2.0-65.7-0.7","5b23e3a26137550001a42101","A3","batch1","","471","tol_tohand","","","","tol_peg_3","471","471","0","[[3,0,0],[1,0],[0]]","8","[[0,0,0],[1,2],[3]]","18","0","","","","","","7","","","","","","","","",""
"","","","","","single-stim-button","316","634566","0.0-2.0-65.7-1.7","5b23e3a26137550001a42101","A3","batch1","","359","tol_toboard","","","","tol_peg_2","359","359","0","[[3,0,0],[1,2],[0]]","8","[[0,0,0],[1,2],[3]]","18","0","","","","","","7","","","","","","","","",""
"","","","","","single-stim-button","317","634974","0.0-2.0-65.8-0.8","5b23e3a26137550001a42101","A3","batch1","","407","tol_tohand","","","","tol_peg_1","407","407","0","[[0,0,0],[1,2],[0]]","9","[[0,0,0],[1,2],[3]]","18","0","","","","","","7","","","","","","","","",""
"","","","","","single-stim-button","318","635461","0.0-2.0-65.8-1.8","5b23e3a26137550001a42101","A3","batch1","","487","tol_toboard","","","","tol_peg_3","487","487","0","[[0,0,0],[1,2],[3]]","9","[[0,0,0],[1,2],[3]]","18","0","","","","","","7","","","","","","","","",""
"","","","","","poldrack-single-stim","319","636463","0.0-2.0-66.0","5b23e3a26137550001a42101","A3","batch1","","-1","tol_feedback","","","true","","1000","1000","500","","","","","","-1","none","true","12175","17711","","","","","","","","","",""
"","","","","","html-button-response","320","636902","0.0-2.0-67.0","5b23e3a26137550001a42101","A3","batch1","","437.19999998807907","tol_trial_num","<div class = centerbox><p class = center-block-text>problem <strong>20</strong> out of 25 problems</p></div>","0","","","","","","","","","","","","","","","","","","","","","","","","",""
"","","","","","single-stim-button","321","639062","0.0-2.0-68.0-0.0","5b23e3a26137550001a42101","A3","batch1","","2159","tol_tohand","","","","tol_peg_2","2159","2159","0","[[1,2,0],[0,0],[0]]","1","[[2,1,0],[0,0],[3]]","19","0","","","","","","5","","","","","","","","",""
"","","","","","single-stim-button","322","639597","0.0-2.0-68.0-1.0","5b23e3a26137550001a42101","A3","batch1","","535","tol_toboard","","","","tol_peg_3","535","535","0","[[1,2,0],[0,0],[3]]","1","[[2,1,0],[0,0],[3]]","19","0","","","","","","5","","","","","","","","",""
"","","","","","single-stim-button","323","640094","0.0-2.0-68.1-0.1","5b23e3a26137550001a42101","A3","batch1","","495","tol_tohand","","","","tol_peg_1","495","495","0","[[1,0,0],[0,0],[3]]","2","[[2,1,0],[0,0],[3]]","19","0","","","","","","5","","","","","","","","",""
"","","","","","single-stim-button","324","640502","0.0-2.0-68.1-1.1","5b23e3a26137550001a42101","A3","batch1","","407","tol_toboard","","","","tol_peg_2","407","407","0","[[1,0,0],[2,0],[3]]","2","[[2,1,0],[0,0],[3]]","19","0","","","","","","5","","","","","","","","",""
"","","","","","single-stim-button","325","641173","0.0-2.0-68.2-0.2","5b23e3a26137550001a42101","A3","batch1","","671","tol_tohand","","","","tol_peg_1","671","671","0","[[0,0,0],[2,0],[3]]","3","[[2,1,0],[0,0],[3]]","19","0","","","","","","5","","","","","","","","",""
"","","","","","single-stim-button","326","641934","0.0-2.0-68.2-1.2","5b23e3a26137550001a42101","A3","batch1","","759","tol_toboard","","","","tol_peg_2","759","759","0","[[0,0,0],[2,1],[3]]","3","[[2,1,0],[0,0],[3]]","19","0","","","","","","5","","","","","","","","",""
"","","","","","single-stim-button","327","642470","0.0-2.0-68.3-0.3","5b23e3a26137550001a42101","A3","batch1","","535","tol_tohand","","","","tol_peg_3","535","535","0","[[0,0,0],[2,1],[0]]","4","[[2,1,0],[0,0],[3]]","19","0","","","","","","5","","","","","","","","",""
"","","","","","single-stim-button","328","645430","0.0-2.0-68.3-1.3","5b23e3a26137550001a42101","A3","batch1","","2959","tol_toboard","","","","tol_peg_1","2959","2959","0","[[3,0,0],[2,1],[0]]","4","[[2,1,0],[0,0],[3]]","19","0","","","","","","5","","","","","","","","",""
"","","","","","single-stim-button","329","646070","0.0-2.0-68.4-0.4","5b23e3a26137550001a42101","A3","batch1","","640","tol_tohand","","","","tol_peg_2","640","640","0","[[3,0,0],[2,0],[0]]","5","[[2,1,0],[0,0],[3]]","19","0","","","","","","5","","","","","","","","",""
"","","","","","single-stim-button","330","648174","0.0-2.0-68.4-1.4","5b23e3a26137550001a42101","A3","batch1","","2102","tol_toboard","","","","tol_peg_3","2102","2102","0","[[3,0,0],[2,0],[1]]","5","[[2,1,0],[0,0],[3]]","19","0","","","","","","5","","","","","","","","",""
"","","","","","single-stim-button","331","664622","0.0-2.0-68.5-0.5","5b23e3a26137550001a42101","A3","batch1","","16448","tol_tohand","","","","tol_peg_1","16448","16448","0","[[0,0,0],[2,0],[1]]","6","[[2,1,0],[0,0],[3]]","19","0","","","","","","5","","","","","","","","",""
"","","","","","single-stim-button","332","664926","0.0-2.0-68.5-1.5","5b23e3a26137550001a42101","A3","batch1","","302","tol_toboard","","","","tol_peg_2","302","302","0","[[0,0,0],[2,3],[1]]","6","[[2,1,0],[0,0],[3]]","19","0","","","","","","5","","","","","","","","",""
"","","","","","single-stim-button","333","665670","0.0-2.0-68.6-0.6","5b23e3a26137550001a42101","A3","batch1","","743","tol_tohand","","","","tol_peg_3","743","743","0","[[0,0,0],[2,3],[0]]","7","[[2,1,0],[0,0],[3]]","19","0","","","","","","5","","","","","","","","",""
"","","","","","single-stim-button","334","666238","0.0-2.0-68.6-1.6","5b23e3a26137550001a42101","A3","batch1","","568","tol_toboard","","","","tol_peg_1","568","568","0","[[1,0,0],[2,3],[0]]","7","[[2,1,0],[0,0],[3]]","19","0","","","","","","5","","","","","","","","",""
"","","","","","single-stim-button","335","666814","0.0-2.0-68.7-0.7","5b23e3a26137550001a42101","A3","batch1","","576","tol_tohand","","","","tol_peg_2","576","576","0","[[1,0,0],[2,0],[0]]","8","[[2,1,0],[0,0],[3]]","19","0","","","","","","5","","","","","","","","",""
"","","","","","single-stim-button","336","667461","0.0-2.0-68.7-1.7","5b23e3a26137550001a42101","A3","batch1","","647","tol_toboard","","","","tol_peg_3","647","647","0","[[1,0,0],[2,0],[3]]","8","[[2,1,0],[0,0],[3]]","19","0","","","","","","5","","","","","","","","",""
"","","","","","single-stim-button","337","670230","0.0-2.0-68.8-0.8","5b23e3a26137550001a42101","A3","batch1","","2767","tol_tohand","","","","tol_peg_1","2767","2767","0","[[0,0,0],[2,0],[3]]","9","[[2,1,0],[0,0],[3]]","19","0","","","","","","5","","","","","","","","",""
"","","","","","single-stim-button","338","673078","0.0-2.0-68.8-1.8","5b23e3a26137550001a42101","A3","batch1","","2847","tol_toboard","","","","tol_peg_2","2847","2847","0","[[0,0,0],[2,1],[3]]","9","[[2,1,0],[0,0],[3]]","19","0","","","","","","5","","","","","","","","",""
"","","","","","single-stim-button","339","676534","0.0-2.0-68.9-0.9","5b23e3a26137550001a42101","A3","batch1","","3455","tol_tohand","","","","tol_peg_3","3455","3455","0","[[0,0,0],[2,1],[0]]","10","[[2,1,0],[0,0],[3]]","19","0","","","","","","5","","","","","","","","",""
"","","","","","single-stim-button","340","677350","0.0-2.0-68.9-1.9","5b23e3a26137550001a42101","A3","batch1","","815","tol_toboard","","","","tol_peg_1","815","815","0","[[3,0,0],[2,1],[0]]","10","[[2,1,0],[0,0],[3]]","19","0","","","","","","5","","","","","","","","",""
"","","","","","single-stim-button","341","678030","0.0-2.0-68.10-0.10","5b23e3a26137550001a42101","A3","batch1","","679","tol_tohand","","","","tol_peg_2","679","679","0","[[3,0,0],[2,0],[0]]","11","[[2,1,0],[0,0],[3]]","19","0","","","","","","5","","","","","","","","",""
"","","","","","single-stim-button","342","678534","0.0-2.0-68.10-1.10","5b23e3a26137550001a42101","A3","batch1","","503","tol_toboard","","","","tol_peg_1","503","503","0","[[3,1,0],[2,0],[0]]","11","[[2,1,0],[0,0],[3]]","19","0","","","","","","5","","","","","","","","",""
"","","","","","single-stim-button","343","680046","0.0-2.0-68.11-0.11","5b23e3a26137550001a42101","A3","batch1","","1511","tol_tohand","","","","tol_peg_2","1511","1511","0","[[3,1,0],[0,0],[0]]","12","[[2,1,0],[0,0],[3]]","19","0","","","","","","5","","","","","","","","",""
"","","","","","single-stim-button","344","680582","0.0-2.0-68.11-1.11","5b23e3a26137550001a42101","A3","batch1","","535","tol_toboard","","","","tol_peg_3","535","535","0","[[3,1,0],[0,0],[2]]","12","[[2,1,0],[0,0],[3]]","19","0","","","","","","5","","","","","","","","",""
"","","","","","single-stim-button","345","681262","0.0-2.0-68.12-0.12","5b23e3a26137550001a42101","A3","batch1","","679","tol_tohand","","","","tol_peg_1","679","679","0","[[3,0,0],[0,0],[2]]","13","[[2,1,0],[0,0],[3]]","19","0","","","","","","5","","","","","","","","",""
"","","","","","single-stim-button","346","681678","0.0-2.0-68.12-1.12","5b23e3a26137550001a42101","A3","batch1","","415","tol_toboard","","","","tol_peg_2","415","415","0","[[3,0,0],[1,0],[2]]","13","[[2,1,0],[0,0],[3]]","19","0","","","","","","5","","","","","","","","",""
"","","","","","single-stim-button","347","682021","0.0-2.0-68.13-0.13","5b23e3a26137550001a42101","A3","batch1","","343","tol_tohand","","","","tol_peg_1","343","343","0","[[0,0,0],[1,0],[2]]","14","[[2,1,0],[0,0],[3]]","19","0","","","","","","5","","","","","","","","",""
"","","","","","single-stim-button","348","682366","0.0-2.0-68.13-1.13","5b23e3a26137550001a42101","A3","batch1","","343","tol_toboard","","","","tol_peg_2","343","343","0","[[0,0,0],[1,3],[2]]","14","[[2,1,0],[0,0],[3]]","19","0","","","","","","5","","","","","","","","",""
"","","","","","single-stim-button","349","682798","0.0-2.0-68.14-0.14","5b23e3a26137550001a42101","A3","batch1","","431","tol_tohand","","","","tol_peg_3","431","431","0","[[0,0,0],[1,3],[0]]","15","[[2,1,0],[0,0],[3]]","19","0","","","","","","5","","","","","","","","",""
"","","","","","single-stim-button","350","683510","0.0-2.0-68.14-1.14","5b23e3a26137550001a42101","A3","batch1","","711","tol_toboard","","","","tol_peg_1","711","711","0","[[2,0,0],[1,3],[0]]","15","[[2,1,0],[0,0],[3]]","19","0","","","","","","5","","","","","","","","",""
"","","","","","single-stim-button","351","683895","0.0-2.0-68.15-0.15","5b23e3a26137550001a42101","A3","batch1","","384","tol_tohand","","","","tol_peg_2","384","384","0","[[2,0,0],[1,0],[0]]","16","[[2,1,0],[0,0],[3]]","19","0","","","","","","5","","","","","","","","",""
"","","","","","single-stim-button","352","684486","0.0-2.0-68.15-1.15","5b23e3a26137550001a42101","A3","batch1","","590","tol_toboard","","","","tol_peg_3","590","590","0","[[2,0,0],[1,0],[3]]","16","[[2,1,0],[0,0],[3]]","19","0","","","","","","5","","","","","","","","",""
"","","","","","single-stim-button","353","684806","0.0-2.0-68.16-0.16","5b23e3a26137550001a42101","A3","batch1","","320","tol_tohand","","","","tol_peg_2","320","320","0","[[2,0,0],[0,0],[3]]","17","[[2,1,0],[0,0],[3]]","19","0","","","","","","5","","","","","","","","",""
"","","","","","single-stim-button","354","685094","0.0-2.0-68.16-1.16","5b23e3a26137550001a42101","A3","batch1","","288","tol_toboard","","","","tol_peg_1","288","288","0","[[2,1,0],[0,0],[3]]","17","[[2,1,0],[0,0],[3]]","19","0","","","","","","5","","","","","","","","",""
"","","","","","poldrack-single-stim","355","686095","0.0-2.0-69.0","5b23e3a26137550001a42101","A3","batch1","","-1","tol_feedback","","","true","","1000","1000","500","","","","","","-1","none","true","2159","32836","","","","","","","","","",""
"","","","","","html-button-response","356","686710","0.0-2.0-70.0","5b23e3a26137550001a42101","A3","batch1","","613.9000000059605","tol_trial_num","<div class = centerbox><p class = center-block-text>problem <strong>21</strong> out of 25 problems</p></div>","0","","","","","","","","","","","","","","","","","","","","","","","","",""
