"success","timeout","failed_images","failed_audio","failed_video","trial_type","trial_index","time_elapsed","internal_node_id","subject_id","study_id","session_id","view_history","rt","stimulus","response","task","correct","answer","item","fiar_detect_rt","fiar_detect_correct","total_correct_fiar_detect","post_trial_gap","choices","spm_correct","spm_rt","mouse_click","stim_duration","block_duration","timing_post_trial","current_position","tol_num_moves_made","tol_target","tol_problem_id","tol_rt","key_press","possible_responses","tol_correct","preplanning","tol_rt_per_trial","tol_min_moves"
"true","false","[]","[]","[]","preload","0","3691","0.0-0.0","5b2834ed7da9a90001a3c5e5","F1","batch6","","","","","","","","","","","","","","","","","","","","","","","","","","","","","",""
"true","","","","","fullscreen","1","18838","0.0-1.0-0.0","5b2834ed7da9a90001a3c5e5","F1","batch6","","","","","","","","","","","","","","","","","","","","","","","","","","","","","",""
"true","","","","","fullscreen","2","21879","0.0-2.0-0.0","5b2834ed7da9a90001a3c5e5","F1","batch6","","","","","","","","","","","","","","","","","","","","","","","","","","","","","",""
"","","","","","instructions","3","41203","0.0-2.0-1.0-0.0","5b2834ed7da9a90001a3c5e5","F1","batch6","[{""page_index"":0,""viewing_time"":10578.199999988079},{""page_index"":1,""viewing_time"":8744}]","19322.69999998808","","","","","","","","","","","","","","","","","","","","","","","","","","","",""
"","","","","","html-button-response","4","42354","0.0-2.0-1.0-1.0-0.0","5b2834ed7da9a90001a3c5e5","F1","batch6","","1148.800000011921","<p class=block-text> Let's answer a few questions <br>","0","pattern_enter_quiz","","","","","","","","","","","","","","","","","","","","","","","","",""
"","","","","","html-button-response","5","47172","0.0-2.0-1.0-1.0-1.0","5b2834ed7da9a90001a3c5e5","F1","batch6","","4817.4000000059605","<p class = block-text>True or False: You will have as much time as you want to make each choice. <br></p>","1","pattern_quiz","true","","","","","","","","","","","","","","","","","","","","","","","",""
"","","","","","html-button-response","6","59378","0.0-2.0-1.0-1.0-2.0","5b2834ed7da9a90001a3c5e5","F1","batch6","","12203.90000000596","<p class = block-text>Correct! You should make your choice <strong> as fast as you can</strong>.</p>","0","pattern_quiz_feedback","","","","","","","","","","","","","","","","","","","","","","","","",""
"","","","","","html-button-response","7","62913","0.0-2.0-1.0-1.0-3.0","5b2834ed7da9a90001a3c5e5","F1","batch6","","3533.4000000059605","<p class = block-text>True or False: You will look for 4 pieces in black or white color connected in a row either horizontally, vertically or diagonally. <br></p>","0","pattern_quiz","true","","","","","","","","","","","","","","","","","","","","","","","",""
"","","","","","html-button-response","8","63513","0.0-2.0-1.0-1.0-4.0","5b2834ed7da9a90001a3c5e5","F1","batch6","","598.8000000119209","<p class = block-text>Correct! </p>","0","pattern_quiz_feedback","","","","","","","","","","","","","","","","","","","","","","","","",""
"","","","","","html-button-response","9","65412","0.0-2.0-2.0","5b2834ed7da9a90001a3c5e5","F1","batch6","","1897.199999988079","<p class=block-text> Now that you've understood the game, let's do a few practice trials before we start!<br> <br>","0","pattern_enter_practice","","","","","","","","","","","","","","","","","","","","","","","","",""
"","","","","","image-keyboard-response","10","69185","0.0-2.0-3.0-0.0","5b2834ed7da9a90001a3c5e5","F1","batch6","","3765.4000000059605","stim/prac_yes_20_dia_b1.png","f","pattern_practice","true","f","","","","","","","","","","","","","","","","","","","","","","",""
"","","","","","html-keyboard-response","11","70202","0.0-2.0-3.0-1.0","5b2834ed7da9a90001a3c5e5","F1","batch6","","null","<p style=""font-size:30px;color:green;"">Correct!</p>","null","pattern_feedback","","","","","","","","","","","","","","","","","","","","","","","","",""
"","","","","","image-keyboard-response","12","71809","0.0-2.0-3.0-0.1","5b2834ed7da9a90001a3c5e5","F1","batch6","","1605.199999988079","stim/prac_no_16_1.png","j","pattern_practice","true","j","","","","","","","","","","","","","","","","","","","","","","",""
"","","","","","html-keyboard-response","13","72833","0.0-2.0-3.0-1.1","5b2834ed7da9a90001a3c5e5","F1","batch6","","null","<p style=""font-size:30px;color:green;"">Correct!</p>","null","pattern_feedback","","","","","","","","","","","","","","","","","","","","","","","","",""
"","","","","","image-keyboard-response","14","73613","0.0-2.0-3.0-0.2","5b2834ed7da9a90001a3c5e5","F1","batch6","","779.0999999940395","stim/prac_yes_16_ver_w1.png","f","pattern_practice","true","f","","","","","","","","","","","","","","","","","","","","","","",""
"","","","","","html-keyboard-response","15","74635","0.0-2.0-3.0-1.2","5b2834ed7da9a90001a3c5e5","F1","batch6","","null","<p style=""font-size:30px;color:green;"">Correct!</p>","null","pattern_feedback","","","","","","","","","","","","","","","","","","","","","","","","",""
"","","","","","image-keyboard-response","16","75292","0.0-2.0-3.0-0.3","5b2834ed7da9a90001a3c5e5","F1","batch6","","654.5999999940395","stim/prac_yes_18_hor_w1.png","f","pattern_practice","true","f","","","","","","","","","","","","","","","","","","","","","","",""
"","","","","","html-keyboard-response","17","76319","0.0-2.0-3.0-1.3","5b2834ed7da9a90001a3c5e5","F1","batch6","","null","<p style=""font-size:30px;color:green;"">Correct!</p>","null","pattern_feedback","","","","","","","","","","","","","","","","","","","","","","","","",""
"","","","","","image-keyboard-response","18","77050","0.0-2.0-3.0-0.4","5b2834ed7da9a90001a3c5e5","F1","batch6","","728.7999999821186","stim/prac_no_18_1.png","j","pattern_practice","true","j","","","","","","","","","","","","","","","","","","","","","","",""
"","","","","","html-keyboard-response","19","78079","0.0-2.0-3.0-1.4","5b2834ed7da9a90001a3c5e5","F1","batch6","","null","<p style=""font-size:30px;color:green;"">Correct!</p>","null","pattern_feedback","","","","","","","","","","","","","","","","","","","","","","","","",""
"","","","","","html-button-response","20","81243","0.0-2.0-4.0","5b2834ed7da9a90001a3c5e5","F1","batch6","","3161.5","<p class=block-text> Good job! You are done with practice trials!<br>
        You responded correctly on 100% of the trials.<br>
        Press the button below to start official trials. Now you won't see any feedback about your response</p>","0","pattern_enter_official_trials","","","","","","","","","","","","","","","","","","","","","","","","",""
"","","","","","html-keyboard-response","21","82059","0.0-2.0-5.0-0.0","5b2834ed7da9a90001a3c5e5","F1","batch6","","null","<p class=block-text>Trial 1 out of 78</p>","null","pattern_show_trial_num","","","","","","","","","","","","","","","","","","","","","","","","",""
"","","","","","image-keyboard-response","22","83145","0.0-2.0-5.0-1.0","5b2834ed7da9a90001a3c5e5","F1","batch6","","1083.300000011921","stim/no_22_1_b.png","j","pattern_response","true","j","pattern_07","1083.300000011921","true","1","","","","","","","","","","","","","","","","","","",""
"","","","","","html-keyboard-response","23","84463","0.0-2.0-5.0-0.1","5b2834ed7da9a90001a3c5e5","F1","batch6","","null","<p class=block-text>Trial 2 out of 78</p>","null","pattern_show_trial_num","","","","","","","","","","","","","","","","","","","","","","","","",""
"","","","","","image-keyboard-response","24","87972","0.0-2.0-5.0-1.1","5b2834ed7da9a90001a3c5e5","F1","batch6","","3506.4000000059605","stim/yes_42_dia_w1_w.png","j","pattern_response","false","f","pattern_64","3506.4000000059605","false","1","","","","","","","","","","","","","","","","","","",""
"","","","","","html-keyboard-response","25","89296","0.0-2.0-5.0-0.2","5b2834ed7da9a90001a3c5e5","F1","batch6","","null","<p class=block-text>Trial 3 out of 78</p>","null","pattern_show_trial_num","","","","","","","","","","","","","","","","","","","","","","","","",""
"","","","","","image-keyboard-response","26","89971","0.0-2.0-5.0-1.2","5b2834ed7da9a90001a3c5e5","F1","batch6","","672.0999999940395","stim/yes_23_ver_b1.png","f","pattern_response","true","f","pattern_48","672.0999999940395","true","2","","","","","","","","","","","","","","","","","","",""
"","","","","","html-keyboard-response","27","91294","0.0-2.0-5.0-0.3","5b2834ed7da9a90001a3c5e5","F1","batch6","","null","<p class=block-text>Trial 4 out of 78</p>","null","pattern_show_trial_num","","","","","","","","","","","","","","","","","","","","","","","","",""
"","","","","","image-keyboard-response","28","92315","0.0-2.0-5.0-1.3","5b2834ed7da9a90001a3c5e5","F1","batch6","","1018.8999999761581","stim/yes_26_dia_w2_w.png","f","pattern_response","true","f","pattern_50","1018.8999999761581","true","3","","","","","","","","","","","","","","","","","","",""
"","","","","","html-keyboard-response","29","93626","0.0-2.0-5.0-0.4","5b2834ed7da9a90001a3c5e5","F1","batch6","","null","<p class=block-text>Trial 5 out of 78</p>","null","pattern_show_trial_num","","","","","","","","","","","","","","","","","","","","","","","","",""
"","","","","","image-keyboard-response","30","94705","0.0-2.0-5.0-1.4","5b2834ed7da9a90001a3c5e5","F1","batch6","","1077.7999999821186","stim/yes_51_dia_b1.png","f","pattern_response","true","f","pattern_72","1077.7999999821186","true","4","","","","","","","","","","","","","","","","","","",""
"","","","","","html-keyboard-response","31","96027","0.0-2.0-5.0-0.5","5b2834ed7da9a90001a3c5e5","F1","batch6","","null","<p class=block-text>Trial 6 out of 78</p>","null","pattern_show_trial_num","","","","","","","","","","","","","","","","","","","","","","","","",""
"","","","","","image-keyboard-response","32","96779","0.0-2.0-5.0-1.5","5b2834ed7da9a90001a3c5e5","F1","batch6","","750.1999999880791","stim/yes_44_ver_w1_w.png","f","pattern_response","true","f","pattern_66","750.1999999880791","true","5","","","","","","","","","","","","","","","","","","",""
"","","","","","html-keyboard-response","33","98101","0.0-2.0-5.0-0.6","5b2834ed7da9a90001a3c5e5","F1","batch6","","null","<p class=block-text>Trial 7 out of 78</p>","null","pattern_show_trial_num","","","","","","","","","","","","","","","","","","","","","","","","",""
"","","","","","image-keyboard-response","34","102070","0.0-2.0-5.0-1.6","5b2834ed7da9a90001a3c5e5","F1","batch6","","3966.800000011921","stim/yes_58_dia_w1_w.png","j","pattern_response","false","f","pattern_76","3966.800000011921","false","5","","","","","","","","","","","","","","","","","","",""
"","","","","","html-keyboard-response","35","103387","0.0-2.0-5.0-0.7","5b2834ed7da9a90001a3c5e5","F1","batch6","","null","<p class=block-text>Trial 8 out of 78</p>","null","pattern_show_trial_num","","","","","","","","","","","","","","","","","","","","","","","","",""
"","","","","","image-keyboard-response","36","103927","0.0-2.0-5.0-1.7","5b2834ed7da9a90001a3c5e5","F1","batch6","","537.4000000059605","stim/yes_36_ver_w1_w.png","f","pattern_response","true","f","pattern_58","537.4000000059605","true","6","","","","","","","","","","","","","","","","","","",""
"","","","","","html-keyboard-response","37","105235","0.0-2.0-5.0-0.8","5b2834ed7da9a90001a3c5e5","F1","batch6","","null","<p class=block-text>Trial 9 out of 78</p>","null","pattern_show_trial_num","","","","","","","","","","","","","","","","","","","","","","","","",""
"","","","","","image-keyboard-response","38","106168","0.0-2.0-5.0-1.8","5b2834ed7da9a90001a3c5e5","F1","batch6","","929.7000000178814","stim/no_25_1_b.png","j","pattern_response","true","j","pattern_09","929.7000000178814","true","7","","","","","","","","","","","","","","","","","","",""
"","","","","","html-keyboard-response","39","107495","0.0-2.0-5.0-0.9","5b2834ed7da9a90001a3c5e5","F1","batch6","","null","<p class=block-text>Trial 10 out of 78</p>","null","pattern_show_trial_num","","","","","","","","","","","","","","","","","","","","","","","","",""
"","","","","","image-keyboard-response","40","110044","0.0-2.0-5.0-1.9","5b2834ed7da9a90001a3c5e5","F1","batch6","","2546.199999988079","stim/no_58_1_w.png","j","pattern_response","true","j","pattern_35","2546.199999988079","true","8","","","","","","","","","","","","","","","","","","",""
"","","","","","html-keyboard-response","41","111365","0.0-2.0-5.0-0.10","5b2834ed7da9a90001a3c5e5","F1","batch6","","null","<p class=block-text>Trial 11 out of 78</p>","null","pattern_show_trial_num","","","","","","","","","","","","","","","","","","","","","","","","",""
"","","","","","image-keyboard-response","42","114414","0.0-2.0-5.0-1.10","5b2834ed7da9a90001a3c5e5","F1","batch6","","3046.7000000178814","stim/no_67_1.png","j","pattern_response","true","j","pattern_39","3046.7000000178814","true","9","","","","","","","","","","","","","","","","","","",""
"","","","","","html-keyboard-response","43","115739","0.0-2.0-5.0-0.11","5b2834ed7da9a90001a3c5e5","F1","batch6","","null","<p class=block-text>Trial 12 out of 78</p>","null","pattern_show_trial_num","","","","","","","","","","","","","","","","","","","","","","","","",""
"","","","","","image-keyboard-response","44","116269","0.0-2.0-5.0-1.11","5b2834ed7da9a90001a3c5e5","F1","batch6","","526.5999999940395","stim/yes_12_hor_w1_w.png","f","pattern_response","true","f","pattern_42","526.5999999940395","true","10","","","","","","","","","","","","","","","","","","",""
"","","","","","html-keyboard-response","45","117588","0.0-2.0-5.0-0.12","5b2834ed7da9a90001a3c5e5","F1","batch6","","null","<p class=block-text>Trial 13 out of 78</p>","null","pattern_show_trial_num","","","","","","","","","","","","","","","","","","","","","","","","",""
"","","","","","image-keyboard-response","46","118324","0.0-2.0-5.0-1.12","5b2834ed7da9a90001a3c5e5","F1","batch6","","733.8000000119209","stim/yes_29_hor_b1_b.png","f","pattern_response","true","f","pattern_52","733.8000000119209","true","11","","","","","","","","","","","","","","","","","","",""
"","","","","","html-keyboard-response","47","119643","0.0-2.0-5.0-0.13","5b2834ed7da9a90001a3c5e5","F1","batch6","","null","<p class=block-text>Trial 14 out of 78</p>","null","pattern_show_trial_num","","","","","","","","","","","","","","","","","","","","","","","","",""
"","","","","","image-keyboard-response","48","120162","0.0-2.0-5.0-1.13","5b2834ed7da9a90001a3c5e5","F1","batch6","","516","stim/yes_17_ver_b1_b.png","f","pattern_response","true","f","pattern_46","516","true","12","","","","","","","","","","","","","","","","","","",""
"","","","","","html-keyboard-response","49","121480","0.0-2.0-5.0-0.14","5b2834ed7da9a90001a3c5e5","F1","batch6","","null","<p class=block-text>Trial 15 out of 78</p>","null","pattern_show_trial_num","","","","","","","","","","","","","","","","","","","","","","","","",""
"","","","","","image-keyboard-response","50","122208","0.0-2.0-5.0-1.14","5b2834ed7da9a90001a3c5e5","F1","batch6","","726.0999999940395","stim/yes_33_dia_w1_w.png","f","pattern_response","true","f","pattern_56","726.0999999940395","true","13","","","","","","","","","","","","","","","","","","",""
"","","","","","html-keyboard-response","51","123525","0.0-2.0-5.0-0.15","5b2834ed7da9a90001a3c5e5","F1","batch6","","null","<p class=block-text>Trial 16 out of 78</p>","null","pattern_show_trial_num","","","","","","","","","","","","","","","","","","","","","","","","",""
"","","","","","image-keyboard-response","52","125676","0.0-2.0-5.0-1.15","5b2834ed7da9a90001a3c5e5","F1","batch6","","2147.9000000059605","stim/no_36_1_b.png","j","pattern_response","true","j","pattern_17","2147.9000000059605","true","14","","","","","","","","","","","","","","","","","","",""
"","","","","","html-keyboard-response","53","126999","0.0-2.0-5.0-0.16","5b2834ed7da9a90001a3c5e5","F1","batch6","","null","<p class=block-text>Trial 17 out of 78</p>","null","pattern_show_trial_num","","","","","","","","","","","","","","","","","","","","","","","","",""
"","","","","","image-keyboard-response","54","127931","0.0-2.0-5.0-1.16","5b2834ed7da9a90001a3c5e5","F1","batch6","","928.6999999880791","stim/yes_46_ver_b1_b.png","f","pattern_response","true","f","pattern_68","928.6999999880791","true","15","","","","","","","","","","","","","","","","","","",""
"","","","","","html-keyboard-response","55","129258","0.0-2.0-5.0-0.17","5b2834ed7da9a90001a3c5e5","F1","batch6","","null","<p class=block-text>Trial 18 out of 78</p>","null","pattern_show_trial_num","","","","","","","","","","","","","","","","","","","","","","","","",""
"","","","","","image-keyboard-response","56","130848","0.0-2.0-5.0-1.17","5b2834ed7da9a90001a3c5e5","F1","batch6","","1586.7999999821186","stim/no_30_1_b.png","j","pattern_response","true","j","pattern_13","1586.7999999821186","true","16","","","","","","","","","","","","","","","","","","",""
"","","","","","html-keyboard-response","57","132165","0.0-2.0-5.0-0.18","5b2834ed7da9a90001a3c5e5","F1","batch6","","null","<p class=block-text>Trial 19 out of 78</p>","null","pattern_show_trial_num","","","","","","","","","","","","","","","","","","","","","","","","",""
"","","","","","image-keyboard-response","58","134950","0.0-2.0-5.0-1.18","5b2834ed7da9a90001a3c5e5","F1","batch6","","2782.699999988079","stim/no_49_2_b.png","j","pattern_response","true","j","pattern_29","2782.699999988079","true","17","","","","","","","","","","","","","","","","","","",""
"","","","","","html-keyboard-response","59","136268","0.0-2.0-5.0-0.19","5b2834ed7da9a90001a3c5e5","F1","batch6","","null","<p class=block-text>Trial 20 out of 78</p>","null","pattern_show_trial_num","","","","","","","","","","","","","","","","","","","","","","","","",""
"","","","","","image-keyboard-response","60","136880","0.0-2.0-5.0-1.19","5b2834ed7da9a90001a3c5e5","F1","batch6","","608.5999999940395","stim/yes_37_hor_w1_w.png","f","pattern_response","true","f","pattern_60","608.5999999940395","true","18","","","","","","","","","","","","","","","","","","",""
"","","","","","html-keyboard-response","61","138202","0.0-2.0-5.0-0.20","5b2834ed7da9a90001a3c5e5","F1","batch6","","null","<p class=block-text>Trial 21 out of 78</p>","null","pattern_show_trial_num","","","","","","","","","","","","","","","","","","","","","","","","",""
"","","","","","image-keyboard-response","62","138768","0.0-2.0-5.0-1.20","5b2834ed7da9a90001a3c5e5","F1","batch6","","564.0999999940395","stim/yes_15_dia_b1u_b.png","f","pattern_response","true","f","pattern_44","564.0999999940395","true","19","","","","","","","","","","","","","","","","","","",""
"","","","","","html-keyboard-response","63","140080","0.0-2.0-5.0-0.21","5b2834ed7da9a90001a3c5e5","F1","batch6","","null","<p class=block-text>Trial 22 out of 78</p>","null","pattern_show_trial_num","","","","","","","","","","","","","","","","","","","","","","","","",""
"","","","","","image-keyboard-response","64","141397","0.0-2.0-5.0-1.21","5b2834ed7da9a90001a3c5e5","F1","batch6","","1315","stim/yes_49_hor_w1_b.png","j","pattern_response","false","f","pattern_70","1315","false","19","","","","","","","","","","","","","","","","","","",""
"","","","","","html-keyboard-response","65","142714","0.0-2.0-5.0-0.22","5b2834ed7da9a90001a3c5e5","F1","batch6","","null","<p class=block-text>Trial 23 out of 78</p>","null","pattern_show_trial_num","","","","","","","","","","","","","","","","","","","","","","","","",""
"","","","","","image-keyboard-response","66","143282","0.0-2.0-5.0-1.22","5b2834ed7da9a90001a3c5e5","F1","batch6","","566.3999999761581","stim/yes_39_hor_w1_w.png","f","pattern_response","true","f","pattern_62","566.3999999761581","true","20","","","","","","","","","","","","","","","","","","",""
"","","","","","html-keyboard-response","67","144597","0.0-2.0-5.0-0.23","5b2834ed7da9a90001a3c5e5","F1","batch6","","null","<p class=block-text>Trial 24 out of 78</p>","null","pattern_show_trial_num","","","","","","","","","","","","","","","","","","","","","","","","",""
"","","","","","image-keyboard-response","68","146421","0.0-2.0-5.0-1.23","5b2834ed7da9a90001a3c5e5","F1","batch6","","1821.800000011921","stim/no_43_2_b.png","j","pattern_response","true","j","pattern_23","1821.800000011921","true","21","","","","","","","","","","","","","","","","","","",""
"","","","","","html-keyboard-response","69","147742","0.0-2.0-5.0-0.24","5b2834ed7da9a90001a3c5e5","F1","batch6","","null","<p class=block-text>Trial 25 out of 78</p>","null","pattern_show_trial_num","","","","","","","","","","","","","","","","","","","","","","","","",""
"","","","","","image-keyboard-response","70","148763","0.0-2.0-5.0-1.24","5b2834ed7da9a90001a3c5e5","F1","batch6","","1019.9000000059605","stim/no_28_2.png","j","pattern_response","true","j","pattern_11","1019.9000000059605","true","22","","","","","","","","","","","","","","","","","","",""
"","","","","","html-keyboard-response","71","150075","0.0-2.0-5.0-0.25","5b2834ed7da9a90001a3c5e5","F1","batch6","","null","<p class=block-text>Trial 26 out of 78</p>","null","pattern_show_trial_num","","","","","","","","","","","","","","","","","","","","","","","","",""
"","","","","","image-keyboard-response","72","152996","0.0-2.0-5.0-1.25","5b2834ed7da9a90001a3c5e5","F1","batch6","","2919.300000011921","stim/no_51_1.png","j","pattern_response","true","j","pattern_31","2919.300000011921","true","23","","","","","","","","","","","","","","","","","","",""
"","","","","","html-keyboard-response","73","154321","0.0-2.0-5.0-0.26","5b2834ed7da9a90001a3c5e5","F1","batch6","","null","<p class=block-text>Trial 27 out of 78</p>","null","pattern_show_trial_num","","","","","","","","","","","","","","","","","","","","","","","","",""
"","","","","","image-keyboard-response","74","157196","0.0-2.0-5.0-1.26","5b2834ed7da9a90001a3c5e5","F1","batch6","","2872.5","stim/no_39_1_w.png","j","pattern_response","true","j","pattern_21","2872.5","true","24","","","","","","","","","","","","","","","","","","",""
"","","","","","html-keyboard-response","75","158518","0.0-2.0-5.0-0.27","5b2834ed7da9a90001a3c5e5","F1","batch6","","null","<p class=block-text>Trial 28 out of 78</p>","null","pattern_show_trial_num","","","","","","","","","","","","","","","","","","","","","","","","",""
"","","","","","image-keyboard-response","76","159548","0.0-2.0-5.0-1.27","5b2834ed7da9a90001a3c5e5","F1","batch6","","1026.9000000059605","stim/yes_30_ver_b1_b.png","f","pattern_response","true","f","pattern_54","1026.9000000059605","true","25","","","","","","","","","","","","","","","","","","",""
"","","","","","html-keyboard-response","77","160872","0.0-2.0-5.0-0.28","5b2834ed7da9a90001a3c5e5","F1","batch6","","null","<p class=block-text>Trial 29 out of 78</p>","null","pattern_show_trial_num","","","","","","","","","","","","","","","","","","","","","","","","",""
"","","","","","image-keyboard-response","78","164034","0.0-2.0-5.0-1.28","5b2834ed7da9a90001a3c5e5","F1","batch6","","3159.9000000059605","stim/no_53_1_b.png","j","pattern_response","true","j","pattern_33","3159.9000000059605","true","26","","","","","","","","","","","","","","","","","","",""
"","","","","","html-keyboard-response","79","165358","0.0-2.0-5.0-0.29","5b2834ed7da9a90001a3c5e5","F1","batch6","","null","<p class=block-text>Trial 30 out of 78</p>","null","pattern_show_trial_num","","","","","","","","","","","","","","","","","","","","","","","","",""
"","","","","","image-keyboard-response","80","167333","0.0-2.0-5.0-1.29","5b2834ed7da9a90001a3c5e5","F1","batch6","","1972.8999999761581","stim/no_33_1_b.png","j","pattern_response","true","j","pattern_15","1972.8999999761581","true","27","","","","","","","","","","","","","","","","","","",""
"","","","","","html-keyboard-response","81","168648","0.0-2.0-5.0-0.30","5b2834ed7da9a90001a3c5e5","F1","batch6","","null","<p class=block-text>Trial 31 out of 78</p>","null","pattern_show_trial_num","","","","","","","","","","","","","","","","","","","","","","","","",""
"","","","","","image-keyboard-response","82","170005","0.0-2.0-5.0-1.30","5b2834ed7da9a90001a3c5e5","F1","batch6","","1353.7000000178814","stim/no_18_1_b.png","j","pattern_response","true","j","pattern_05","1353.7000000178814","true","28","","","","","","","","","","","","","","","","","","",""
"","","","","","html-keyboard-response","83","171330","0.0-2.0-5.0-0.31","5b2834ed7da9a90001a3c5e5","F1","batch6","","null","<p class=block-text>Trial 32 out of 78</p>","null","pattern_show_trial_num","","","","","","","","","","","","","","","","","","","","","","","","",""
"","","","","","image-keyboard-response","84","172538","0.0-2.0-5.0-1.31","5b2834ed7da9a90001a3c5e5","F1","batch6","","1206.5","stim/no_12_1.png","j","pattern_response","true","j","pattern_01","1206.5","true","29","","","","","","","","","","","","","","","","","","",""
"","","","","","html-keyboard-response","85","173856","0.0-2.0-5.0-0.32","5b2834ed7da9a90001a3c5e5","F1","batch6","","null","<p class=block-text>Trial 33 out of 78</p>","null","pattern_show_trial_num","","","","","","","","","","","","","","","","","","","","","","","","",""
"","","","","","image-keyboard-response","86","174549","0.0-2.0-5.0-1.32","5b2834ed7da9a90001a3c5e5","F1","batch6","","690.0999999940395","stim/no_15_1_w.png","j","pattern_response","true","j","pattern_03","690.0999999940395","true","30","","","","","","","","","","","","","","","","","","",""
"","","","","","html-keyboard-response","87","175863","0.0-2.0-5.0-0.33","5b2834ed7da9a90001a3c5e5","F1","batch6","","null","<p class=block-text>Trial 34 out of 78</p>","null","pattern_show_trial_num","","","","","","","","","","","","","","","","","","","","","","","","",""
"","","","","","image-keyboard-response","88","177025","0.0-2.0-5.0-1.33","5b2834ed7da9a90001a3c5e5","F1","batch6","","1160.699999988079","stim/yes_63_dia_b1.png","f","pattern_response","true","f","pattern_78","1160.699999988079","true","31","","","","","","","","","","","","","","","","","","",""
"","","","","","html-keyboard-response","89","178340","0.0-2.0-5.0-0.34","5b2834ed7da9a90001a3c5e5","F1","batch6","","null","<p class=block-text>Trial 35 out of 78</p>","null","pattern_show_trial_num","","","","","","","","","","","","","","","","","","","","","","","","",""
"","","","","","image-keyboard-response","90","182038","0.0-2.0-5.0-1.34","5b2834ed7da9a90001a3c5e5","F1","batch6","","3696.4000000059605","stim/no_47_1_b.png","j","pattern_response","true","j","pattern_27","3696.4000000059605","true","32","","","","","","","","","","","","","","","","","","",""
"","","","","","html-keyboard-response","91","183352","0.0-2.0-5.0-0.35","5b2834ed7da9a90001a3c5e5","F1","batch6","","null","<p class=block-text>Trial 36 out of 78</p>","null","pattern_show_trial_num","","","","","","","","","","","","","","","","","","","","","","","","",""
"","","","","","image-keyboard-response","92","186709","0.0-2.0-5.0-1.35","5b2834ed7da9a90001a3c5e5","F1","batch6","","3355.0999999940395","stim/yes_53_ver_b1_b.png","j","pattern_response","false","f","pattern_74","3355.0999999940395","false","32","","","","","","","","","","","","","","","","","","",""
"","","","","","html-keyboard-response","93","188029","0.0-2.0-5.0-0.36","5b2834ed7da9a90001a3c5e5","F1","batch6","","null","<p class=block-text>Trial 37 out of 78</p>","null","pattern_show_trial_num","","","","","","","","","","","","","","","","","","","","","","","","",""
"","","","","","image-keyboard-response","94","189606","0.0-2.0-5.0-1.36","5b2834ed7da9a90001a3c5e5","F1","batch6","","1575","stim/yes_70_ver_b1.png","f","pattern_response","true","f","pattern_80","1575","true","33","","","","","","","","","","","","","","","","","","",""
"","","","","","html-keyboard-response","95","190924","0.0-2.0-5.0-0.37","5b2834ed7da9a90001a3c5e5","F1","batch6","","null","<p class=block-text>Trial 38 out of 78</p>","null","pattern_show_trial_num","","","","","","","","","","","","","","","","","","","","","","","","",""
"","","","","","image-keyboard-response","96","193118","0.0-2.0-5.0-1.37","5b2834ed7da9a90001a3c5e5","F1","batch6","","2192","stim/no_37_2_w.png","j","pattern_response","true","j","pattern_19","2192","true","34","","","","","","","","","","","","","","","","","","",""
"","","","","","html-keyboard-response","97","194441","0.0-2.0-5.0-0.38","5b2834ed7da9a90001a3c5e5","F1","batch6","","null","<p class=block-text>Trial 39 out of 78</p>","null","pattern_show_trial_num","","","","","","","","","","","","","","","","","","","","","","","","",""
"","","","","","image-keyboard-response","98","196863","0.0-2.0-5.0-1.38","5b2834ed7da9a90001a3c5e5","F1","batch6","","2420.199999988079","stim/no_45_1_w.png","j","pattern_response","true","j","pattern_25","2420.199999988079","true","35","","","","","","","","","","","","","","","","","","",""
"","","","","","image-keyboard-response","99","198989","0.0-2.0-6.0","5b2834ed7da9a90001a3c5e5","F1","batch6","","1616.9000000059605","stim/empty_board.png","j","attention_check","true","j","","","","","500","[""f"",""j""]","","","","","","","","","","","","","","","","",""
"","","","","","html-keyboard-response","100","199801","0.0-2.0-7.0-0.0","5b2834ed7da9a90001a3c5e5","F1","batch6","","null","<p class=block-text>Trial 40 out of 78</p>","null","pattern_show_trial_num","","","","","","","","","","","","","","","","","","","","","","","","",""
"","","","","","image-keyboard-response","101","202619","0.0-2.0-7.0-1.0","5b2834ed7da9a90001a3c5e5","F1","batch6","","2815.199999988079","stim/no_48_1_w.png","j","pattern_response","true","j","pattern_28","2815.199999988079","true","36","","","","","","","","","","","","","","","","","","",""
"","","","","","html-keyboard-response","102","203939","0.0-2.0-7.0-0.1","5b2834ed7da9a90001a3c5e5","F1","batch6","","null","<p class=block-text>Trial 41 out of 78</p>","null","pattern_show_trial_num","","","","","","","","","","","","","","","","","","","","","","","","",""
"","","","","","image-keyboard-response","103","205656","0.0-2.0-7.0-1.1","5b2834ed7da9a90001a3c5e5","F1","batch6","","1714.2000000178814","stim/yes_38_hor_b1_b.png","j","pattern_response","false","f","pattern_61","1714.2000000178814","false","36","","","","","","","","","","","","","","","","","","",""
"","","","","","html-keyboard-response","104","206973","0.0-2.0-7.0-0.2","5b2834ed7da9a90001a3c5e5","F1","batch6","","null","<p class=block-text>Trial 42 out of 78</p>","null","pattern_show_trial_num","","","","","","","","","","","","","","","","","","","","","","","","",""
"","","","","","image-keyboard-response","105","209009","0.0-2.0-7.0-1.2","5b2834ed7da9a90001a3c5e5","F1","batch6","","2033.699999988079","stim/no_29_1_b.png","j","pattern_response","true","j","pattern_12","2033.699999988079","true","37","","","","","","","","","","","","","","","","","","",""
"","","","","","html-keyboard-response","106","210324","0.0-2.0-7.0-0.3","5b2834ed7da9a90001a3c5e5","F1","batch6","","null","<p class=block-text>Trial 43 out of 78</p>","null","pattern_show_trial_num","","","","","","","","","","","","","","","","","","","","","","","","",""
"","","","","","image-keyboard-response","107","211127","0.0-2.0-7.0-1.3","5b2834ed7da9a90001a3c5e5","F1","batch6","","800.6999999880791","stim/yes_35_dia_b1.png","f","pattern_response","true","f","pattern_57","800.6999999880791","true","38","","","","","","","","","","","","","","","","","","",""
"","","","","","html-keyboard-response","108","212444","0.0-2.0-7.0-0.4","5b2834ed7da9a90001a3c5e5","F1","batch6","","null","<p class=block-text>Trial 44 out of 78</p>","null","pattern_show_trial_num","","","","","","","","","","","","","","","","","","","","","","","","",""
"","","","","","image-keyboard-response","109","216683","0.0-2.0-7.0-1.4","5b2834ed7da9a90001a3c5e5","F1","batch6","","4236.200000017881","stim/no_65_1_b.png","j","pattern_response","true","j","pattern_38","4236.200000017881","true","39","","","","","","","","","","","","","","","","","","",""
"","","","","","html-keyboard-response","110","217995","0.0-2.0-7.0-0.5","5b2834ed7da9a90001a3c5e5","F1","batch6","","null","<p class=block-text>Trial 45 out of 78</p>","null","pattern_show_trial_num","","","","","","","","","","","","","","","","","","","","","","","","",""
"","","","","","image-keyboard-response","111","218637","0.0-2.0-7.0-1.5","5b2834ed7da9a90001a3c5e5","F1","batch6","","640.3000000119209","stim/yes_60_ver_b1_b.png","f","pattern_response","true","f","pattern_77","640.3000000119209","true","40","","","","","","","","","","","","","","","","","","",""
"","","","","","html-keyboard-response","112","219952","0.0-2.0-7.0-0.6","5b2834ed7da9a90001a3c5e5","F1","batch6","","null","<p class=block-text>Trial 46 out of 78</p>","null","pattern_show_trial_num","","","","","","","","","","","","","","","","","","","","","","","","",""
"","","","","","image-keyboard-response","113","222605","0.0-2.0-7.0-1.6","5b2834ed7da9a90001a3c5e5","F1","batch6","","2651.5","stim/no_46_1_b.png","j","pattern_response","true","j","pattern_26","2651.5","true","41","","","","","","","","","","","","","","","","","","",""
"","","","","","html-keyboard-response","114","223921","0.0-2.0-7.0-0.7","5b2834ed7da9a90001a3c5e5","F1","batch6","","null","<p class=block-text>Trial 47 out of 78</p>","null","pattern_show_trial_num","","","","","","","","","","","","","","","","","","","","","","","","",""
"","","","","","image-keyboard-response","115","229994","0.0-2.0-7.0-1.7","5b2834ed7da9a90001a3c5e5","F1","batch6","","6070.200000017881","stim/yes_67_hor_b1.png","j","pattern_response","false","f","pattern_79","6070.200000017881","false","41","","","","","","","","","","","","","","","","","","",""
"","","","","","html-keyboard-response","116","231308","0.0-2.0-7.0-0.8","5b2834ed7da9a90001a3c5e5","F1","batch6","","null","<p class=block-text>Trial 48 out of 78</p>","null","pattern_show_trial_num","","","","","","","","","","","","","","","","","","","","","","","","",""
"","","","","","image-keyboard-response","117","231897","0.0-2.0-7.0-1.8","5b2834ed7da9a90001a3c5e5","F1","batch6","","585.9000000059605","stim/yes_17_dia_w1.png","f","pattern_response","true","f","pattern_45","585.9000000059605","true","42","","","","","","","","","","","","","","","","","","",""
"","","","","","html-keyboard-response","118","233208","0.0-2.0-7.0-0.9","5b2834ed7da9a90001a3c5e5","F1","batch6","","null","<p class=block-text>Trial 49 out of 78</p>","null","pattern_show_trial_num","","","","","","","","","","","","","","","","","","","","","","","","",""
"","","","","","image-keyboard-response","119","234056","0.0-2.0-7.0-1.9","5b2834ed7da9a90001a3c5e5","F1","batch6","","845.8000000119209","stim/no_26_1_w.png","j","pattern_response","true","j","pattern_10","845.8000000119209","true","43","","","","","","","","","","","","","","","","","","",""
"","","","","","html-keyboard-response","120","235370","0.0-2.0-7.0-0.10","5b2834ed7da9a90001a3c5e5","F1","batch6","","null","<p class=block-text>Trial 50 out of 78</p>","null","pattern_show_trial_num","","","","","","","","","","","","","","","","","","","","","","","","",""
"","","","","","image-keyboard-response","121","235949","0.0-2.0-7.0-1.10","5b2834ed7da9a90001a3c5e5","F1","batch6","","576","stim/no_13_2_b.png","j","pattern_response","true","j","pattern_02","576","true","44","","","","","","","","","","","","","","","","","","",""
"","","","","","html-keyboard-response","122","237273","0.0-2.0-7.0-0.11","5b2834ed7da9a90001a3c5e5","F1","batch6","","null","<p class=block-text>Trial 51 out of 78</p>","null","pattern_show_trial_num","","","","","","","","","","","","","","","","","","","","","","","","",""
"","","","","","image-keyboard-response","123","237988","0.0-2.0-7.0-1.11","5b2834ed7da9a90001a3c5e5","F1","batch6","","712.8000000119209","stim/no_23_1.png","j","pattern_response","true","j","pattern_08","712.8000000119209","true","45","","","","","","","","","","","","","","","","","","",""
"","","","","","html-keyboard-response","124","239317","0.0-2.0-7.0-0.12","5b2834ed7da9a90001a3c5e5","F1","batch6","","null","<p class=block-text>Trial 52 out of 78</p>","null","pattern_show_trial_num","","","","","","","","","","","","","","","","","","","","","","","","",""
"","","","","","image-keyboard-response","125","240963","0.0-2.0-7.0-1.12","5b2834ed7da9a90001a3c5e5","F1","batch6","","1643.2000000178814","stim/yes_31_hor_b1.png","f","pattern_response","true","f","pattern_55","1643.2000000178814","true","46","","","","","","","","","","","","","","","","","","",""
"","","","","","html-keyboard-response","126","242274","0.0-2.0-7.0-0.13","5b2834ed7da9a90001a3c5e5","F1","batch6","","null","<p class=block-text>Trial 53 out of 78</p>","null","pattern_show_trial_num","","","","","","","","","","","","","","","","","","","","","","","","",""
"","","","","","image-keyboard-response","127","245673","0.0-2.0-7.0-1.13","5b2834ed7da9a90001a3c5e5","F1","batch6","","3395","stim/no_44_1.png","j","pattern_response","true","j","pattern_24","3395","true","47","","","","","","","","","","","","","","","","","","",""
"","","","","","html-keyboard-response","128","246994","0.0-2.0-7.0-0.14","5b2834ed7da9a90001a3c5e5","F1","batch6","","null","<p class=block-text>Trial 54 out of 78</p>","null","pattern_show_trial_num","","","","","","","","","","","","","","","","","","","","","","","","",""
"","","","","","image-keyboard-response","129","248262","0.0-2.0-7.0-1.14","5b2834ed7da9a90001a3c5e5","F1","batch6","","1265.2999999821186","stim/no_38_1_b.png","j","pattern_response","true","j","pattern_20","1265.2999999821186","true","48","","","","","","","","","","","","","","","","","","",""
"","","","","","html-keyboard-response","130","249579","0.0-2.0-7.0-0.15","5b2834ed7da9a90001a3c5e5","F1","batch6","","null","<p class=block-text>Trial 55 out of 78</p>","null","pattern_show_trial_num","","","","","","","","","","","","","","","","","","","","","","","","",""
"","","","","","image-keyboard-response","131","253028","0.0-2.0-7.0-1.15","5b2834ed7da9a90001a3c5e5","F1","batch6","","3447.699999988079","stim/no_50_1.png","j","pattern_response","true","j","pattern_30","3447.699999988079","true","49","","","","","","","","","","","","","","","","","","",""
"","","","","","html-keyboard-response","132","254341","0.0-2.0-7.0-0.16","5b2834ed7da9a90001a3c5e5","F1","batch6","","null","<p class=block-text>Trial 56 out of 78</p>","null","pattern_show_trial_num","","","","","","","","","","","","","","","","","","","","","","","","",""
"","","","","","image-keyboard-response","133","255906","0.0-2.0-7.0-1.16","5b2834ed7da9a90001a3c5e5","F1","batch6","","1562.0999999940395","stim/yes_48_dia_w1_w.png","f","pattern_response","true","f","pattern_69","1562.0999999940395","true","50","","","","","","","","","","","","","","","","","","",""
"","","","","","html-keyboard-response","134","257219","0.0-2.0-7.0-0.17","5b2834ed7da9a90001a3c5e5","F1","batch6","","null","<p class=block-text>Trial 57 out of 78</p>","null","pattern_show_trial_num","","","","","","","","","","","","","","","","","","","","","","","","",""
"","","","","","image-keyboard-response","135","261240","0.0-2.0-7.0-1.17","5b2834ed7da9a90001a3c5e5","F1","batch6","","4019.2000000178814","stim/no_62_1_w.png","j","pattern_response","true","j","pattern_36","4019.2000000178814","true","51","","","","","","","","","","","","","","","","","","",""
"","","","","","html-keyboard-response","136","262561","0.0-2.0-7.0-0.18","5b2834ed7da9a90001a3c5e5","F1","batch6","","null","<p class=block-text>Trial 58 out of 78</p>","null","pattern_show_trial_num","","","","","","","","","","","","","","","","","","","","","","","","",""
"","","","","","image-keyboard-response","137","263362","0.0-2.0-7.0-1.18","5b2834ed7da9a90001a3c5e5","F1","batch6","","797.5","stim/yes_55_hor_w1_w.png","f","pattern_response","true","f","pattern_75","797.5","true","52","","","","","","","","","","","","","","","","","","",""
"","","","","","html-keyboard-response","138","264684","0.0-2.0-7.0-0.19","5b2834ed7da9a90001a3c5e5","F1","batch6","","null","<p class=block-text>Trial 59 out of 78</p>","null","pattern_show_trial_num","","","","","","","","","","","","","","","","","","","","","","","","",""
"","","","","","image-keyboard-response","139","265370","0.0-2.0-7.0-1.19","5b2834ed7da9a90001a3c5e5","F1","batch6","","681.7999999821186","stim/yes_29_ver_w1.png","f","pattern_response","true","f","pattern_53","681.7999999821186","true","53","","","","","","","","","","","","","","","","","","",""
"","","","","","html-keyboard-response","140","266697","0.0-2.0-7.0-0.20","5b2834ed7da9a90001a3c5e5","F1","batch6","","null","<p class=block-text>Trial 60 out of 78</p>","null","pattern_show_trial_num","","","","","","","","","","","","","","","","","","","","","","","","",""
"","","","","","image-keyboard-response","141","269472","0.0-2.0-7.0-1.20","5b2834ed7da9a90001a3c5e5","F1","batch6","","2773.0999999940395","stim/no_36_2_w.png","j","pattern_response","true","j","pattern_18","2773.0999999940395","true","54","","","","","","","","","","","","","","","","","","",""
"","","","","","html-keyboard-response","142","270789","0.0-2.0-7.0-0.21","5b2834ed7da9a90001a3c5e5","F1","batch6","","null","<p class=block-text>Trial 61 out of 78</p>","null","pattern_show_trial_num","","","","","","","","","","","","","","","","","","","","","","","","",""
"","","","","","image-keyboard-response","143","272033","0.0-2.0-7.0-1.21","5b2834ed7da9a90001a3c5e5","F1","batch6","","1241.199999988079","stim/yes_52_ver_w1.png","f","pattern_response","true","f","pattern_73","1241.199999988079","true","55","","","","","","","","","","","","","","","","","","",""
"","","","","","html-keyboard-response","144","273359","0.0-2.0-7.0-0.22","5b2834ed7da9a90001a3c5e5","F1","batch6","","null","<p class=block-text>Trial 62 out of 78</p>","null","pattern_show_trial_num","","","","","","","","","","","","","","","","","","","","","","","","",""
"","","","","","image-keyboard-response","145","276341","0.0-2.0-7.0-1.22","5b2834ed7da9a90001a3c5e5","F1","batch6","","2978.5","stim/no_70_2.png","j","pattern_response","true","j","pattern_40","2978.5","true","56","","","","","","","","","","","","","","","","","","",""
"","","","","","html-keyboard-response","146","277652","0.0-2.0-7.0-0.23","5b2834ed7da9a90001a3c5e5","F1","batch6","","null","<p class=block-text>Trial 63 out of 78</p>","null","pattern_show_trial_num","","","","","","","","","","","","","","","","","","","","","","","","",""
"","","","","","image-keyboard-response","147","279471","0.0-2.0-7.0-1.23","5b2834ed7da9a90001a3c5e5","F1","batch6","","1817.5","stim/yes_37_dia_w1.png","j","pattern_response","false","f","pattern_59","1817.5","false","56","","","","","","","","","","","","","","","","","","",""
"","","","","","html-keyboard-response","148","280794","0.0-2.0-7.0-0.24","5b2834ed7da9a90001a3c5e5","F1","batch6","","null","<p class=block-text>Trial 64 out of 78</p>","null","pattern_show_trial_num","","","","","","","","","","","","","","","","","","","","","","","","",""
"","","","","","image-keyboard-response","149","281518","0.0-2.0-7.0-1.24","5b2834ed7da9a90001a3c5e5","F1","batch6","","722","stim/yes_28_ver_b1.png","f","pattern_response","true","f","pattern_51","722","true","57","","","","","","","","","","","","","","","","","","",""
"","","","","","html-keyboard-response","150","282831","0.0-2.0-7.0-0.25","5b2834ed7da9a90001a3c5e5","F1","batch6","","null","<p class=block-text>Trial 65 out of 78</p>","null","pattern_show_trial_num","","","","","","","","","","","","","","","","","","","","","","","","",""
"","","","","","image-keyboard-response","151","283660","0.0-2.0-7.0-1.25","5b2834ed7da9a90001a3c5e5","F1","batch6","","827","stim/no_17_1_w.png","j","pattern_response","true","j","pattern_04","827","true","58","","","","","","","","","","","","","","","","","","",""
"","","","","","html-keyboard-response","152","284977","0.0-2.0-7.0-0.26","5b2834ed7da9a90001a3c5e5","F1","batch6","","null","<p class=block-text>Trial 66 out of 78</p>","null","pattern_show_trial_num","","","","","","","","","","","","","","","","","","","","","","","","",""
"","","","","","image-keyboard-response","153","287264","0.0-2.0-7.0-1.26","5b2834ed7da9a90001a3c5e5","F1","batch6","","2285.199999988079","stim/no_55_1_w.png","j","pattern_response","true","j","pattern_34","2285.199999988079","true","59","","","","","","","","","","","","","","","","","","",""
"","","","","","html-keyboard-response","154","288583","0.0-2.0-7.0-0.27","5b2834ed7da9a90001a3c5e5","F1","batch6","","null","<p class=block-text>Trial 67 out of 78</p>","null","pattern_show_trial_num","","","","","","","","","","","","","","","","","","","","","","","","",""
"","","","","","image-keyboard-response","155","290354","0.0-2.0-7.0-1.27","5b2834ed7da9a90001a3c5e5","F1","batch6","","1768.800000011921","stim/no_34_1_b.png","j","pattern_response","true","j","pattern_16","1768.800000011921","true","60","","","","","","","","","","","","","","","","","","",""
"","","","","","html-keyboard-response","156","291674","0.0-2.0-7.0-0.28","5b2834ed7da9a90001a3c5e5","F1","batch6","","null","<p class=block-text>Trial 68 out of 78</p>","null","pattern_show_trial_num","","","","","","","","","","","","","","","","","","","","","","","","",""
"","","","","","image-keyboard-response","157","292615","0.0-2.0-7.0-1.28","5b2834ed7da9a90001a3c5e5","F1","batch6","","937.5","stim/yes_45_hor_b2_b.png","f","pattern_response","true","f","pattern_67","937.5","true","61","","","","","","","","","","","","","","","","","","",""
"","","","","","html-keyboard-response","158","293933","0.0-2.0-7.0-0.29","5b2834ed7da9a90001a3c5e5","F1","batch6","","null","<p class=block-text>Trial 69 out of 78</p>","null","pattern_show_trial_num","","","","","","","","","","","","","","","","","","","","","","","","",""
"","","","","","image-keyboard-response","159","295328","0.0-2.0-7.0-1.29","5b2834ed7da9a90001a3c5e5","F1","batch6","","1393.0999999940395","stim/no_32_1_w.png","j","pattern_response","true","j","pattern_14","1393.0999999940395","true","62","","","","","","","","","","","","","","","","","","",""
"","","","","","html-keyboard-response","160","296646","0.0-2.0-7.0-0.30","5b2834ed7da9a90001a3c5e5","F1","batch6","","null","<p class=block-text>Trial 70 out of 78</p>","null","pattern_show_trial_num","","","","","","","","","","","","","","","","","","","","","","","","",""
"","","","","","image-keyboard-response","161","297306","0.0-2.0-7.0-1.30","5b2834ed7da9a90001a3c5e5","F1","batch6","","657.6999999880791","stim/yes_43_ver_w1_w.png","f","pattern_response","true","f","pattern_65","657.6999999880791","true","63","","","","","","","","","","","","","","","","","","",""
"","","","","","html-keyboard-response","162","298630","0.0-2.0-7.0-0.31","5b2834ed7da9a90001a3c5e5","F1","batch6","","null","<p class=block-text>Trial 71 out of 78</p>","null","pattern_show_trial_num","","","","","","","","","","","","","","","","","","","","","","","","",""
"","","","","","image-keyboard-response","163","299257","0.0-2.0-7.0-1.31","5b2834ed7da9a90001a3c5e5","F1","batch6","","624.4000000059605","stim/yes_22_ver_w1.png","f","pattern_response","true","f","pattern_47","624.4000000059605","true","64","","","","","","","","","","","","","","","","","","",""
"","","","","","html-keyboard-response","164","300573","0.0-2.0-7.0-0.32","5b2834ed7da9a90001a3c5e5","F1","batch6","","null","<p class=block-text>Trial 72 out of 78</p>","null","pattern_show_trial_num","","","","","","","","","","","","","","","","","","","","","","","","",""
"","","","","","image-keyboard-response","165","301836","0.0-2.0-7.0-1.32","5b2834ed7da9a90001a3c5e5","F1","batch6","","1260.4000000059605","stim/no_20_1_w.png","j","pattern_response","true","j","pattern_06","1260.4000000059605","true","65","","","","","","","","","","","","","","","","","","",""
"","","","","","html-keyboard-response","166","303157","0.0-2.0-7.0-0.33","5b2834ed7da9a90001a3c5e5","F1","batch6","","null","<p class=block-text>Trial 73 out of 78</p>","null","pattern_show_trial_num","","","","","","","","","","","","","","","","","","","","","","","","",""
"","","","","","image-keyboard-response","167","304842","0.0-2.0-7.0-1.33","5b2834ed7da9a90001a3c5e5","F1","batch6","","1682.1000000238419","stim/no_52_1.png","j","pattern_response","true","j","pattern_32","1682.1000000238419","true","66","","","","","","","","","","","","","","","","","","",""
"","","","","","html-keyboard-response","168","306157","0.0-2.0-7.0-0.34","5b2834ed7da9a90001a3c5e5","F1","batch6","","null","<p class=block-text>Trial 74 out of 78</p>","null","pattern_show_trial_num","","","","","","","","","","","","","","","","","","","","","","","","",""
"","","","","","image-keyboard-response","169","307007","0.0-2.0-7.0-1.34","5b2834ed7da9a90001a3c5e5","F1","batch6","","849","stim/yes_25_hor_b1_b.png","f","pattern_response","true","f","pattern_49","849","true","67","","","","","","","","","","","","","","","","","","",""
"","","","","","html-keyboard-response","170","308328","0.0-2.0-7.0-0.35","5b2834ed7da9a90001a3c5e5","F1","batch6","","null","<p class=block-text>Trial 75 out of 78</p>","null","pattern_show_trial_num","","","","","","","","","","","","","","","","","","","","","","","","",""
"","","","","","image-keyboard-response","171","309722","0.0-2.0-7.0-1.35","5b2834ed7da9a90001a3c5e5","F1","batch6","","1393","stim/yes_50_dia_w1.png","f","pattern_response","true","f","pattern_71","1393","true","68","","","","","","","","","","","","","","","","","","",""
"","","","","","html-keyboard-response","172","311046","0.0-2.0-7.0-0.36","5b2834ed7da9a90001a3c5e5","F1","batch6","","null","<p class=block-text>Trial 76 out of 78</p>","null","pattern_show_trial_num","","","","","","","","","","","","","","","","","","","","","","","","",""
"","","","","","image-keyboard-response","173","311660","0.0-2.0-7.0-1.36","5b2834ed7da9a90001a3c5e5","F1","batch6","","613","stim/yes_14_hor_b1_w.png","f","pattern_response","true","f","pattern_43","613","true","69","","","","","","","","","","","","","","","","","","",""
"","","","","","html-keyboard-response","174","312979","0.0-2.0-7.0-0.37","5b2834ed7da9a90001a3c5e5","F1","batch6","","null","<p class=block-text>Trial 77 out of 78</p>","null","pattern_show_trial_num","","","","","","","","","","","","","","","","","","","","","","","","",""
"","","","","","image-keyboard-response","175","314870","0.0-2.0-7.0-1.37","5b2834ed7da9a90001a3c5e5","F1","batch6","","1888.5","stim/no_42_1_w.png","j","pattern_response","true","j","pattern_22","1888.5","true","70","","","","","","","","","","","","","","","","","","",""
"","","","","","html-keyboard-response","176","316188","0.0-2.0-7.0-0.38","5b2834ed7da9a90001a3c5e5","F1","batch6","","null","<p class=block-text>Trial 78 out of 78</p>","null","pattern_show_trial_num","","","","","","","","","","","","","","","","","","","","","","","","",""
"","","","","","image-keyboard-response","177","318014","0.0-2.0-7.0-1.38","5b2834ed7da9a90001a3c5e5","F1","batch6","","1823.0999999940395","stim/yes_40_dia_b1_b.png","f","pattern_response","true","f","pattern_63","1823.0999999940395","true","71","","","","","","","","","","","","","","","","","","",""
"","","","","","html-button-response","178","321666","0.0-2.0-8.0","5b2834ed7da9a90001a3c5e5","F1","batch6","","3133.0999999940395","<p class = block-text>This concludes the 4-in-a-row detection game.Thank you for your responses!<br>
            You responded correctly on 91% of the trials.<br>
            When you are ready, press ""Continue"" button to continue </p>","0","","","","","","","","","","","","","","","","","","","","","","","","","",""
"true","","","","","fullscreen","179","324846","0.0-3.0-0.0","5b2834ed7da9a90001a3c5e5","F1","batch6","","","","","spm_fullscreen","","","","","","","","","","","","","","","","","","","","","","","","",""
"","","","","","html-button-response","180","335945","0.0-3.0-1.0","5b2834ed7da9a90001a3c5e5","F1","batch6","","11097.5","<p class = block-text><b>Instructions</b> <br>This is a widely used intelligence test in research. <br>In this test, a figure with a missing piece will be presented.<br>Below the figure are alternative pieces to complete the figure, only one of which is correct.<br> Different figures might involve different principles for obtaining the missing piece<br>Your job is to select the most logical piece to complete the figure.</p>","0","","","","","","","","","","","","","","","","","","","","","","","","","",""
"","","","","","html-keyboard-response","181","336757","0.0-3.0-2.0-0.0","5b2834ed7da9a90001a3c5e5","F1","batch6","","null","<p class=block-text>Trial 1 out of 60</p>","null","spm_show_trial_num","","","","","","","","","","","","","","","","","","","","","","","","",""
"","","","","","image-button-response","182","342292","0.0-3.0-2.0-1.0","5b2834ed7da9a90001a3c5e5","F1","batch6","","5529.5999999940395","img/question_1_1.jpeg","3","spm_respsonse","1","4","mat_01","","","","","","1","5529.5999999940395","","","","","","","","","","","","","","",""
"","","","","","html-keyboard-response","183","343353","0.0-3.0-2.0-0.1","5b2834ed7da9a90001a3c5e5","F1","batch6","","null","<p class=block-text>Trial 2 out of 60</p>","null","spm_show_trial_num","","","","","","","","","","","","","","","","","","","","","","","","",""
"","","","","","image-button-response","184","345546","0.0-3.0-2.0-1.1","5b2834ed7da9a90001a3c5e5","F1","batch6","","2189.199999988079","img/question_1_2.jpeg","4","spm_respsonse","1","5","mat_02","","","","","","1","2189.199999988079","","","","","","","","","","","","","","",""
"","","","","","html-keyboard-response","185","346613","0.0-3.0-2.0-0.2","5b2834ed7da9a90001a3c5e5","F1","batch6","","null","<p class=block-text>Trial 3 out of 60</p>","null","spm_show_trial_num","","","","","","","","","","","","","","","","","","","","","","","","",""
"","","","","","image-button-response","186","349546","0.0-3.0-2.0-1.2","5b2834ed7da9a90001a3c5e5","F1","batch6","","2928.5","img/question_1_3.jpeg","0","spm_respsonse","1","1","mat_03","","","","","","1","2928.5","","","","","","","","","","","","","","",""
"","","","","","html-keyboard-response","187","350620","0.0-3.0-2.0-0.3","5b2834ed7da9a90001a3c5e5","F1","batch6","","null","<p class=block-text>Trial 4 out of 60</p>","null","spm_show_trial_num","","","","","","","","","","","","","","","","","","","","","","","","",""
"","","","","","image-button-response","188","352218","0.0-3.0-2.0-1.3","5b2834ed7da9a90001a3c5e5","F1","batch6","","1595.7000000178814","img/question_1_4.jpeg","1","spm_respsonse","1","2","mat_04","","","","","","1","1595.7000000178814","","","","","","","","","","","","","","",""
"","","","","","html-keyboard-response","189","353277","0.0-3.0-2.0-0.4","5b2834ed7da9a90001a3c5e5","F1","batch6","","null","<p class=block-text>Trial 5 out of 60</p>","null","spm_show_trial_num","","","","","","","","","","","","","","","","","","","","","","","","",""
"","","","","","image-button-response","190","355530","0.0-3.0-2.0-1.4","5b2834ed7da9a90001a3c5e5","F1","batch6","","2252.5","img/question_1_5.jpeg","5","spm_respsonse","1","6","mat_05","","","","","","1","2252.5","","","","","","","","","","","","","","",""
"","","","","","html-keyboard-response","191","356582","0.0-3.0-2.0-0.5","5b2834ed7da9a90001a3c5e5","F1","batch6","","null","<p class=block-text>Trial 6 out of 60</p>","null","spm_show_trial_num","","","","","","","","","","","","","","","","","","","","","","","","",""
"","","","","","image-button-response","192","360122","0.0-3.0-2.0-1.5","5b2834ed7da9a90001a3c5e5","F1","batch6","","3538.5","img/question_1_6.jpeg","2","spm_respsonse","1","3","mat_06","","","","","","1","3538.5","","","","","","","","","","","","","","",""
"","","","","","html-keyboard-response","193","361192","0.0-3.0-2.0-0.6","5b2834ed7da9a90001a3c5e5","F1","batch6","","null","<p class=block-text>Trial 7 out of 60</p>","null","spm_show_trial_num","","","","","","","","","","","","","","","","","","","","","","","","",""
"","","","","","image-button-response","194","365219","0.0-3.0-2.0-1.6","5b2834ed7da9a90001a3c5e5","F1","batch6","","4024.5","img/question_1_7.jpeg","5","spm_respsonse","1","6","mat_07","","","","","","1","4024.5","","","","","","","","","","","","","","",""
"","","","","","html-keyboard-response","195","366282","0.0-3.0-2.0-0.7","5b2834ed7da9a90001a3c5e5","F1","batch6","","null","<p class=block-text>Trial 8 out of 60</p>","null","spm_show_trial_num","","","","","","","","","","","","","","","","","","","","","","","","",""
"","","","","","image-button-response","196","369716","0.0-3.0-2.0-1.7","5b2834ed7da9a90001a3c5e5","F1","batch6","","3430.800000011921","img/question_1_8.jpeg","1","spm_respsonse","1","2","mat_08","","","","","","1","3430.800000011921","","","","","","","","","","","","","","",""
"","","","","","html-keyboard-response","197","370787","0.0-3.0-2.0-0.8","5b2834ed7da9a90001a3c5e5","F1","batch6","","null","<p class=block-text>Trial 9 out of 60</p>","null","spm_show_trial_num","","","","","","","","","","","","","","","","","","","","","","","","",""
"","","","","","image-button-response","198","374801","0.0-3.0-2.0-1.8","5b2834ed7da9a90001a3c5e5","F1","batch6","","4010.9000000059605","img/question_1_9.jpeg","0","spm_respsonse","1","1","mat_09","","","","","","1","4010.9000000059605","","","","","","","","","","","","","","",""
"","","","","","html-keyboard-response","199","375866","0.0-3.0-2.0-0.9","5b2834ed7da9a90001a3c5e5","F1","batch6","","null","<p class=block-text>Trial 10 out of 60</p>","null","spm_show_trial_num","","","","","","","","","","","","","","","","","","","","","","","","",""
"","","","","","image-button-response","200","380137","0.0-3.0-2.0-1.9","5b2834ed7da9a90001a3c5e5","F1","batch6","","4267.799999982119","img/question_1_10.jpeg","2","spm_respsonse","1","3","mat_10","","","","","","1","4267.799999982119","","","","","","","","","","","","","","",""
"","","","","","html-keyboard-response","201","381202","0.0-3.0-2.0-0.10","5b2834ed7da9a90001a3c5e5","F1","batch6","","null","<p class=block-text>Trial 11 out of 60</p>","null","spm_show_trial_num","","","","","","","","","","","","","","","","","","","","","","","","",""
"","","","","","image-button-response","202","386206","0.0-3.0-2.0-1.10","5b2834ed7da9a90001a3c5e5","F1","batch6","","4999.9000000059605","img/question_1_11.jpeg","3","spm_respsonse","1","4","mat_11","","","","","","1","4999.9000000059605","","","","","","","","","","","","","","",""
"","","","","","html-keyboard-response","203","387281","0.0-3.0-2.0-0.11","5b2834ed7da9a90001a3c5e5","F1","batch6","","null","<p class=block-text>Trial 12 out of 60</p>","null","spm_show_trial_num","","","","","","","","","","","","","","","","","","","","","","","","",""
"","","","","","image-button-response","204","391926","0.0-3.0-2.0-1.11","5b2834ed7da9a90001a3c5e5","F1","batch6","","4640.199999988079","img/question_1_12.jpeg","1","spm_respsonse","0","5","mat_12","","","","","","0","4640.199999988079","","","","","","","","","","","","","","",""
"","","","","","html-keyboard-response","205","392991","0.0-3.0-2.0-0.12","5b2834ed7da9a90001a3c5e5","F1","batch6","","null","<p class=block-text>Trial 13 out of 60</p>","null","spm_show_trial_num","","","","","","","","","","","","","","","","","","","","","","","","",""
"","","","","","image-button-response","206","394928","0.0-3.0-2.0-1.12","5b2834ed7da9a90001a3c5e5","F1","batch6","","1934.0999999940395","img/question_2_1.jpeg","1","spm_respsonse","1","2","mat_13","","","","","","1","1934.0999999940395","","","","","","","","","","","","","","",""
"","","","","","html-keyboard-response","207","396001","0.0-3.0-2.0-0.13","5b2834ed7da9a90001a3c5e5","F1","batch6","","null","<p class=block-text>Trial 14 out of 60</p>","null","spm_show_trial_num","","","","","","","","","","","","","","","","","","","","","","","","",""
"","","","","","image-button-response","208","399431","0.0-3.0-2.0-1.13","5b2834ed7da9a90001a3c5e5","F1","batch6","","3426.2000000178814","img/question_2_2.jpeg","5","spm_respsonse","1","6","mat_14","","","","","","1","3426.2000000178814","","","","","","","","","","","","","","",""
"","","","","","html-keyboard-response","209","400486","0.0-3.0-2.0-0.14","5b2834ed7da9a90001a3c5e5","F1","batch6","","null","<p class=block-text>Trial 15 out of 60</p>","null","spm_show_trial_num","","","","","","","","","","","","","","","","","","","","","","","","",""
"","","","","","image-button-response","210","403420","0.0-3.0-2.0-1.14","5b2834ed7da9a90001a3c5e5","F1","batch6","","2931.7999999821186","img/question_2_3.jpeg","0","spm_respsonse","1","1","mat_15","","","","","","1","2931.7999999821186","","","","","","","","","","","","","","",""
"","","","","","html-keyboard-response","211","404492","0.0-3.0-2.0-0.15","5b2834ed7da9a90001a3c5e5","F1","batch6","","null","<p class=block-text>Trial 16 out of 60</p>","null","spm_show_trial_num","","","","","","","","","","","","","","","","","","","","","","","","",""
"","","","","","image-button-response","212","406520","0.0-3.0-2.0-1.15","5b2834ed7da9a90001a3c5e5","F1","batch6","","2024.9000000059605","img/question_2_4.jpeg","1","spm_respsonse","1","2","mat_16","","","","","","1","2024.9000000059605","","","","","","","","","","","","","","",""
"","","","","","html-keyboard-response","213","407591","0.0-3.0-2.0-0.16","5b2834ed7da9a90001a3c5e5","F1","batch6","","null","<p class=block-text>Trial 17 out of 60</p>","null","spm_show_trial_num","","","","","","","","","","","","","","","","","","","","","","","","",""
"","","","","","image-button-response","214","411488","0.0-3.0-2.0-1.16","5b2834ed7da9a90001a3c5e5","F1","batch6","","3892.800000011921","img/question_2_5.jpeg","0","spm_respsonse","1","1","mat_17","","","","","","1","3892.800000011921","","","","","","","","","","","","","","",""
"","","","","","html-keyboard-response","215","412564","0.0-3.0-2.0-0.17","5b2834ed7da9a90001a3c5e5","F1","batch6","","null","<p class=block-text>Trial 18 out of 60</p>","null","spm_show_trial_num","","","","","","","","","","","","","","","","","","","","","","","","",""
"","","","","","image-button-response","216","415962","0.0-3.0-2.0-1.17","5b2834ed7da9a90001a3c5e5","F1","batch6","","3395.5999999940395","img/question_2_6.jpeg","2","spm_respsonse","1","3","mat_18","","","","","","1","3395.5999999940395","","","","","","","","","","","","","","",""
"","","","","","html-keyboard-response","217","417037","0.0-3.0-2.0-0.18","5b2834ed7da9a90001a3c5e5","F1","batch6","","null","<p class=block-text>Trial 19 out of 60</p>","null","spm_show_trial_num","","","","","","","","","","","","","","","","","","","","","","","","",""
"","","","","","image-button-response","218","419855","0.0-3.0-2.0-1.18","5b2834ed7da9a90001a3c5e5","F1","batch6","","2814.399999976158","img/question_2_7.jpeg","4","spm_respsonse","1","5","mat_19","","","","","","1","2814.399999976158","","","","","","","","","","","","","","",""
"","","","","","html-keyboard-response","219","420925","0.0-3.0-2.0-0.19","5b2834ed7da9a90001a3c5e5","F1","batch6","","null","<p class=block-text>Trial 20 out of 60</p>","null","spm_show_trial_num","","","","","","","","","","","","","","","","","","","","","","","","",""
"","","","","","image-button-response","220","426257","0.0-3.0-2.0-1.19","5b2834ed7da9a90001a3c5e5","F1","batch6","","5330.0999999940395","img/question_2_8.jpeg","5","spm_respsonse","1","6","mat_20","","","","","","1","5330.0999999940395","","","","","","","","","","","","","","",""
"","","","","","html-keyboard-response","221","427320","0.0-3.0-2.0-0.20","5b2834ed7da9a90001a3c5e5","F1","batch6","","null","<p class=block-text>Trial 21 out of 60</p>","null","spm_show_trial_num","","","","","","","","","","","","","","","","","","","","","","","","",""
"","","","","","image-button-response","222","434724","0.0-3.0-2.0-1.20","5b2834ed7da9a90001a3c5e5","F1","batch6","","7399.5999999940395","img/question_2_9.jpeg","3","spm_respsonse","1","4","mat_21","","","","","","1","7399.5999999940395","","","","","","","","","","","","","","",""
"","","","","","html-keyboard-response","223","435796","0.0-3.0-2.0-0.21","5b2834ed7da9a90001a3c5e5","F1","batch6","","null","<p class=block-text>Trial 22 out of 60</p>","null","spm_show_trial_num","","","","","","","","","","","","","","","","","","","","","","","","",""
"","","","","","image-button-response","224","450228","0.0-3.0-2.0-1.21","5b2834ed7da9a90001a3c5e5","F1","batch6","","14428.09999999404","img/question_2_10.jpeg","1","spm_respsonse","0","3","mat_22","","","","","","0","14428.09999999404","","","","","","","","","","","","","","",""
"","","","","","html-keyboard-response","225","451299","0.0-3.0-2.0-0.22","5b2834ed7da9a90001a3c5e5","F1","batch6","","null","<p class=block-text>Trial 23 out of 60</p>","null","spm_show_trial_num","","","","","","","","","","","","","","","","","","","","","","","","",""
"","","","","","image-button-response","226","459183","0.0-3.0-2.0-1.22","5b2834ed7da9a90001a3c5e5","F1","batch6","","7881.299999982119","img/question_2_11.jpeg","3","spm_respsonse","1","4","mat_23","","","","","","1","7881.299999982119","","","","","","","","","","","","","","",""
"","","","","","html-keyboard-response","227","460260","0.0-3.0-2.0-0.23","5b2834ed7da9a90001a3c5e5","F1","batch6","","null","<p class=block-text>Trial 24 out of 60</p>","null","spm_show_trial_num","","","","","","","","","","","","","","","","","","","","","","","","",""
"","","","","","image-button-response","228","464678","0.0-3.0-2.0-1.23","5b2834ed7da9a90001a3c5e5","F1","batch6","","4413.100000023842","img/question_2_12.jpeg","4","spm_respsonse","1","5","mat_24","","","","","","1","4413.100000023842","","","","","","","","","","","","","","",""
"","","","","","html-button-response","229","466749","0.0-3.0-3.0","5b2834ed7da9a90001a3c5e5","F1","batch6","","1816.7000000178814","<p class = block-text>Attention check: Please choose 1<br></p>","0","attention_check","true","","","","","","","","","","","","","","","","","","","","","","","",""
"","","","","","html-keyboard-response","230","467558","0.0-3.0-4.0-0.0","5b2834ed7da9a90001a3c5e5","F1","batch6","","null","<p class=block-text>Trial 25 out of 60</p>","null","spm_show_trial_num","","","","","","","","","","","","","","","","","","","","","","","","",""
"","","","","","image-button-response","231","473485","0.0-3.0-4.0-1.0","5b2834ed7da9a90001a3c5e5","F1","batch6","","5922.800000011921","img/question_3_1.jpeg","1","spm_respsonse","0","8","mat_25","","","","","","0","5922.800000011921","","","","","","","","","","","","","","",""
"","","","","","html-keyboard-response","232","474548","0.0-3.0-4.0-0.1","5b2834ed7da9a90001a3c5e5","F1","batch6","","null","<p class=block-text>Trial 26 out of 60</p>","null","spm_show_trial_num","","","","","","","","","","","","","","","","","","","","","","","","",""
"","","","","","image-button-response","233","477429","0.0-3.0-4.0-1.1","5b2834ed7da9a90001a3c5e5","F1","batch6","","2877.5999999940395","img/question_3_2.jpeg","1","spm_respsonse","1","2","mat_26","","","","","","1","2877.5999999940395","","","","","","","","","","","","","","",""
"","","","","","html-keyboard-response","234","478496","0.0-3.0-4.0-0.2","5b2834ed7da9a90001a3c5e5","F1","batch6","","null","<p class=block-text>Trial 27 out of 60</p>","null","spm_show_trial_num","","","","","","","","","","","","","","","","","","","","","","","","",""
"","","","","","image-button-response","235","481195","0.0-3.0-4.0-1.2","5b2834ed7da9a90001a3c5e5","F1","batch6","","2695","img/question_3_3.jpeg","2","spm_respsonse","1","3","mat_27","","","","","","1","2695","","","","","","","","","","","","","","",""
"","","","","","html-keyboard-response","236","482263","0.0-3.0-4.0-0.3","5b2834ed7da9a90001a3c5e5","F1","batch6","","null","<p class=block-text>Trial 28 out of 60</p>","null","spm_show_trial_num","","","","","","","","","","","","","","","","","","","","","","","","",""
"","","","","","image-button-response","237","486146","0.0-3.0-4.0-1.3","5b2834ed7da9a90001a3c5e5","F1","batch6","","3881.7000000178814","img/question_3_4.jpeg","7","spm_respsonse","1","8","mat_28","","","","","","1","3881.7000000178814","","","","","","","","","","","","","","",""
"","","","","","html-keyboard-response","238","487213","0.0-3.0-4.0-0.4","5b2834ed7da9a90001a3c5e5","F1","batch6","","null","<p class=block-text>Trial 29 out of 60</p>","null","spm_show_trial_num","","","","","","","","","","","","","","","","","","","","","","","","",""
"","","","","","image-button-response","239","491709","0.0-3.0-4.0-1.4","5b2834ed7da9a90001a3c5e5","F1","batch6","","4491.700000017881","img/question_3_5.jpeg","6","spm_respsonse","1","7","mat_29","","","","","","1","4491.700000017881","","","","","","","","","","","","","","",""
"","","","","","html-keyboard-response","240","492771","0.0-3.0-4.0-0.5","5b2834ed7da9a90001a3c5e5","F1","batch6","","null","<p class=block-text>Trial 30 out of 60</p>","null","spm_show_trial_num","","","","","","","","","","","","","","","","","","","","","","","","",""
"","","","","","image-button-response","241","495586","0.0-3.0-4.0-1.5","5b2834ed7da9a90001a3c5e5","F1","batch6","","2811.9000000059605","img/question_3_6.jpeg","3","spm_respsonse","1","4","mat_30","","","","","","1","2811.9000000059605","","","","","","","","","","","","","","",""
"","","","","","html-keyboard-response","242","496656","0.0-3.0-4.0-0.6","5b2834ed7da9a90001a3c5e5","F1","batch6","","null","<p class=block-text>Trial 31 out of 60</p>","null","spm_show_trial_num","","","","","","","","","","","","","","","","","","","","","","","","",""
"","","","","","image-button-response","243","500668","0.0-3.0-4.0-1.6","5b2834ed7da9a90001a3c5e5","F1","batch6","","4008.4000000059605","img/question_3_7.jpeg","4","spm_respsonse","1","5","mat_31","","","","","","1","4008.4000000059605","","","","","","","","","","","","","","",""
"","","","","","html-keyboard-response","244","501742","0.0-3.0-4.0-0.7","5b2834ed7da9a90001a3c5e5","F1","batch6","","null","<p class=block-text>Trial 32 out of 60</p>","null","spm_show_trial_num","","","","","","","","","","","","","","","","","","","","","","","","",""
"","","","","","image-button-response","245","510239","0.0-3.0-4.0-1.7","5b2834ed7da9a90001a3c5e5","F1","batch6","","8493.90000000596","img/question_3_8.jpeg","3","spm_respsonse","0","1","mat_32","","","","","","0","8493.90000000596","","","","","","","","","","","","","","",""
"","","","","","html-keyboard-response","246","511301","0.0-3.0-4.0-0.8","5b2834ed7da9a90001a3c5e5","F1","batch6","","null","<p class=block-text>Trial 33 out of 60</p>","null","spm_show_trial_num","","","","","","","","","","","","","","","","","","","","","","","","",""
"","","","","","image-button-response","247","519632","0.0-3.0-4.0-1.8","5b2834ed7da9a90001a3c5e5","F1","batch6","","8326","img/question_3_9.jpeg","6","spm_respsonse","1","7","mat_33","","","","","","1","8326","","","","","","","","","","","","","","",""
"","","","","","html-keyboard-response","248","520696","0.0-3.0-4.0-0.9","5b2834ed7da9a90001a3c5e5","F1","batch6","","null","<p class=block-text>Trial 34 out of 60</p>","null","spm_show_trial_num","","","","","","","","","","","","","","","","","","","","","","","","",""
"","","","","","image-button-response","249","527210","0.0-3.0-4.0-1.9","5b2834ed7da9a90001a3c5e5","F1","batch6","","6508.4000000059605","img/question_3_10.jpeg","7","spm_respsonse","0","6","mat_34","","","","","","0","6508.4000000059605","","","","","","","","","","","","","","",""
"","","","","","html-keyboard-response","250","528266","0.0-3.0-4.0-0.10","5b2834ed7da9a90001a3c5e5","F1","batch6","","null","<p class=block-text>Trial 35 out of 60</p>","null","spm_show_trial_num","","","","","","","","","","","","","","","","","","","","","","","","",""
"","","","","","image-button-response","251","540813","0.0-3.0-4.0-1.10","5b2834ed7da9a90001a3c5e5","F1","batch6","","12544","img/question_3_11.jpeg","0","spm_respsonse","1","1","mat_35","","","","","","1","12544","","","","","","","","","","","","","","",""
"","","","","","html-keyboard-response","252","541879","0.0-3.0-4.0-0.11","5b2834ed7da9a90001a3c5e5","F1","batch6","","null","<p class=block-text>Trial 36 out of 60</p>","null","spm_show_trial_num","","","","","","","","","","","","","","","","","","","","","","","","",""
"","","","","","image-button-response","253","550441","0.0-3.0-4.0-1.11","5b2834ed7da9a90001a3c5e5","F1","batch6","","8558.59999999404","img/question_3_12.jpeg","2","spm_respsonse","0","2","mat_36","","","","","","0","8558.59999999404","","","","","","","","","","","","","","",""
"","","","","","html-keyboard-response","254","551504","0.0-3.0-4.0-0.12","5b2834ed7da9a90001a3c5e5","F1","batch6","","null","<p class=block-text>Trial 37 out of 60</p>","null","spm_show_trial_num","","","","","","","","","","","","","","","","","","","","","","","","",""
"","","","","","image-button-response","255","554030","0.0-3.0-4.0-1.12","5b2834ed7da9a90001a3c5e5","F1","batch6","","2523.100000023842","img/question_4_1.jpeg","2","spm_respsonse","1","3","mat_37","","","","","","1","2523.100000023842","","","","","","","","","","","","","","",""
"","","","","","html-keyboard-response","256","555093","0.0-3.0-4.0-0.13","5b2834ed7da9a90001a3c5e5","F1","batch6","","null","<p class=block-text>Trial 38 out of 60</p>","null","spm_show_trial_num","","","","","","","","","","","","","","","","","","","","","","","","",""
"","","","","","image-button-response","257","560538","0.0-3.0-4.0-1.13","5b2834ed7da9a90001a3c5e5","F1","batch6","","5442.200000017881","img/question_4_2.jpeg","3","spm_respsonse","1","4","mat_38","","","","","","1","5442.200000017881","","","","","","","","","","","","","","",""
"","","","","","html-keyboard-response","258","561602","0.0-3.0-4.0-0.14","5b2834ed7da9a90001a3c5e5","F1","batch6","","null","<p class=block-text>Trial 39 out of 60</p>","null","spm_show_trial_num","","","","","","","","","","","","","","","","","","","","","","","","",""
"","","","","","image-button-response","259","566306","0.0-3.0-4.0-1.14","5b2834ed7da9a90001a3c5e5","F1","batch6","","4701.300000011921","img/question_4_3.jpeg","2","spm_respsonse","1","3","mat_39","","","","","","1","4701.300000011921","","","","","","","","","","","","","","",""
"","","","","","html-keyboard-response","260","567368","0.0-3.0-4.0-0.15","5b2834ed7da9a90001a3c5e5","F1","batch6","","null","<p class=block-text>Trial 40 out of 60</p>","null","spm_show_trial_num","","","","","","","","","","","","","","","","","","","","","","","","",""
"","","","","","image-button-response","261","572034","0.0-3.0-4.0-1.15","5b2834ed7da9a90001a3c5e5","F1","batch6","","4663.299999982119","img/question_4_4.jpeg","6","spm_respsonse","1","7","mat_40","","","","","","1","4663.299999982119","","","","","","","","","","","","","","",""
"","","","","","html-keyboard-response","262","573095","0.0-3.0-4.0-0.16","5b2834ed7da9a90001a3c5e5","F1","batch6","","null","<p class=block-text>Trial 41 out of 60</p>","null","spm_show_trial_num","","","","","","","","","","","","","","","","","","","","","","","","",""
"","","","","","image-button-response","263","579347","0.0-3.0-4.0-1.16","5b2834ed7da9a90001a3c5e5","F1","batch6","","6249.5999999940395","img/question_4_5.jpeg","7","spm_respsonse","1","8","mat_41","","","","","","1","6249.5999999940395","","","","","","","","","","","","","","",""
"","","","","","html-keyboard-response","264","580408","0.0-3.0-4.0-0.17","5b2834ed7da9a90001a3c5e5","F1","batch6","","null","<p class=block-text>Trial 42 out of 60</p>","null","spm_show_trial_num","","","","","","","","","","","","","","","","","","","","","","","","",""
"","","","","","image-button-response","265","588362","0.0-3.0-4.0-1.17","5b2834ed7da9a90001a3c5e5","F1","batch6","","7945.0999999940395","img/question_4_6.jpeg","5","spm_respsonse","1","6","mat_42","","","","","","1","7945.0999999940395","","","","","","","","","","","","","","",""
"","","","","","html-keyboard-response","266","589426","0.0-3.0-4.0-0.18","5b2834ed7da9a90001a3c5e5","F1","batch6","","null","<p class=block-text>Trial 43 out of 60</p>","null","spm_show_trial_num","","","","","","","","","","","","","","","","","","","","","","","","",""
"","","","","","image-button-response","267","600495","0.0-3.0-4.0-1.18","5b2834ed7da9a90001a3c5e5","F1","batch6","","11065.699999988079","img/question_4_7.jpeg","6","spm_respsonse","0","5","mat_43","","","","","","0","11065.699999988079","","","","","","","","","","","","","","",""
"","","","","","html-keyboard-response","268","601573","0.0-3.0-4.0-0.19","5b2834ed7da9a90001a3c5e5","F1","batch6","","null","<p class=block-text>Trial 44 out of 60</p>","null","spm_show_trial_num","","","","","","","","","","","","","","","","","","","","","","","","",""
"","","","","","image-button-response","269","612394","0.0-3.0-4.0-1.19","5b2834ed7da9a90001a3c5e5","F1","batch6","","10818.700000017881","img/question_4_8.jpeg","1","spm_respsonse","0","4","mat_44","","","","","","0","10818.700000017881","","","","","","","","","","","","","","",""
"","","","","","html-keyboard-response","270","613467","0.0-3.0-4.0-0.20","5b2834ed7da9a90001a3c5e5","F1","batch6","","null","<p class=block-text>Trial 45 out of 60</p>","null","spm_show_trial_num","","","","","","","","","","","","","","","","","","","","","","","","",""
"","","","","","image-button-response","271","624392","0.0-3.0-4.0-1.20","5b2834ed7da9a90001a3c5e5","F1","batch6","","10920.300000011921","img/question_4_9.jpeg","2","spm_respsonse","0","1","mat_45","","","","","","0","10920.300000011921","","","","","","","","","","","","","","",""
"","","","","","html-keyboard-response","272","625455","0.0-3.0-4.0-0.21","5b2834ed7da9a90001a3c5e5","F1","batch6","","null","<p class=block-text>Trial 46 out of 60</p>","null","spm_show_trial_num","","","","","","","","","","","","","","","","","","","","","","","","",""
"","","","","","image-button-response","273","632920","0.0-3.0-4.0-1.21","5b2834ed7da9a90001a3c5e5","F1","batch6","","7462","img/question_4_10.jpeg","1","spm_respsonse","1","2","mat_46","","","","","","1","7462","","","","","","","","","","","","","","",""
"","","","","","html-keyboard-response","274","633994","0.0-3.0-4.0-0.22","5b2834ed7da9a90001a3c5e5","F1","batch6","","null","<p class=block-text>Trial 47 out of 60</p>","null","spm_show_trial_num","","","","","","","","","","","","","","","","","","","","","","","","",""
"","","","","","image-button-response","275","660168","0.0-3.0-4.0-1.22","5b2834ed7da9a90001a3c5e5","F1","batch6","","26171.19999998808","img/question_4_11.jpeg","4","spm_respsonse","1","5","mat_47","","","","","","1","26171.19999998808","","","","","","","","","","","","","","",""
"","","","","","html-keyboard-response","276","661231","0.0-3.0-4.0-0.23","5b2834ed7da9a90001a3c5e5","F1","batch6","","null","<p class=block-text>Trial 48 out of 60</p>","null","spm_show_trial_num","","","","","","","","","","","","","","","","","","","","","","","","",""
"","","","","","image-button-response","277","668452","0.0-3.0-4.0-1.23","5b2834ed7da9a90001a3c5e5","F1","batch6","","7213.5999999940395","img/question_4_12.jpeg","6","spm_respsonse","0","6","mat_48","","","","","","0","7213.5999999940395","","","","","","","","","","","","","","",""
"","","","","","html-keyboard-response","278","669504","0.0-3.0-4.0-0.24","5b2834ed7da9a90001a3c5e5","F1","batch6","","null","<p class=block-text>Trial 49 out of 60</p>","null","spm_show_trial_num","","","","","","","","","","","","","","","","","","","","","","","","",""
"","","","","","image-button-response","279","674737","0.0-3.0-4.0-1.24","5b2834ed7da9a90001a3c5e5","F1","batch6","","5228.5999999940395","img/question_5_1.jpeg","6","spm_respsonse","1","7","mat_49","","","","","","1","5228.5999999940395","","","","","","","","","","","","","","",""
"","","","","","html-keyboard-response","280","675797","0.0-3.0-4.0-0.25","5b2834ed7da9a90001a3c5e5","F1","batch6","","null","<p class=block-text>Trial 50 out of 60</p>","null","spm_show_trial_num","","","","","","","","","","","","","","","","","","","","","","","","",""
"","","","","","image-button-response","281","683495","0.0-3.0-4.0-1.25","5b2834ed7da9a90001a3c5e5","F1","batch6","","7694.199999988079","img/question_5_2.jpeg","0","spm_respsonse","0","6","mat_50","","","","","","0","7694.199999988079","","","","","","","","","","","","","","",""
"","","","","","html-keyboard-response","282","684569","0.0-3.0-4.0-0.26","5b2834ed7da9a90001a3c5e5","F1","batch6","","null","<p class=block-text>Trial 51 out of 60</p>","null","spm_show_trial_num","","","","","","","","","","","","","","","","","","","","","","","","",""
"","","","","","image-button-response","283","691092","0.0-3.0-4.0-1.26","5b2834ed7da9a90001a3c5e5","F1","batch6","","6519.9000000059605","img/question_5_3.jpeg","1","spm_respsonse","0","8","mat_51","","","","","","0","6519.9000000059605","","","","","","","","","","","","","","",""
"","","","","","html-keyboard-response","284","692154","0.0-3.0-4.0-0.27","5b2834ed7da9a90001a3c5e5","F1","batch6","","null","<p class=block-text>Trial 52 out of 60</p>","null","spm_show_trial_num","","","","","","","","","","","","","","","","","","","","","","","","",""
"","","","","","image-button-response","285","696814","0.0-3.0-4.0-1.27","5b2834ed7da9a90001a3c5e5","F1","batch6","","4656.199999988079","img/question_5_4.jpeg","2","spm_respsonse","0","2","mat_52","","","","","","0","4656.199999988079","","","","","","","","","","","","","","",""
"","","","","","html-keyboard-response","286","697895","0.0-3.0-4.0-0.28","5b2834ed7da9a90001a3c5e5","F1","batch6","","null","<p class=block-text>Trial 53 out of 60</p>","null","spm_show_trial_num","","","","","","","","","","","","","","","","","","","","","","","","",""
"","","","","","image-button-response","287","714978","0.0-3.0-4.0-1.28","5b2834ed7da9a90001a3c5e5","F1","batch6","","17079.40000000596","img/question_5_5.jpeg","0","spm_respsonse","1","1","mat_53","","","","","","1","17079.40000000596","","","","","","","","","","","","","","",""
"","","","","","html-keyboard-response","288","716053","0.0-3.0-4.0-0.29","5b2834ed7da9a90001a3c5e5","F1","batch6","","null","<p class=block-text>Trial 54 out of 60</p>","null","spm_show_trial_num","","","","","","","","","","","","","","","","","","","","","","","","",""
"","","","","","image-button-response","289","724380","0.0-3.0-4.0-1.29","5b2834ed7da9a90001a3c5e5","F1","batch6","","8324.300000011921","img/question_5_6.jpeg","1","spm_respsonse","0","5","mat_54","","","","","","0","8324.300000011921","","","","","","","","","","","","","","",""
"","","","","","html-keyboard-response","290","725455","0.0-3.0-4.0-0.30","5b2834ed7da9a90001a3c5e5","F1","batch6","","null","<p class=block-text>Trial 55 out of 60</p>","null","spm_show_trial_num","","","","","","","","","","","","","","","","","","","","","","","","",""
"","","","","","image-button-response","291","734571","0.0-3.0-4.0-1.30","5b2834ed7da9a90001a3c5e5","F1","batch6","","9113.399999976158","img/question_5_7.jpeg","7","spm_respsonse","0","1","mat_55","","","","","","0","9113.399999976158","","","","","","","","","","","","","","",""
"","","","","","html-keyboard-response","292","735635","0.0-3.0-4.0-0.31","5b2834ed7da9a90001a3c5e5","F1","batch6","","null","<p class=block-text>Trial 56 out of 60</p>","null","spm_show_trial_num","","","","","","","","","","","","","","","","","","","","","","","","",""
"","","","","","image-button-response","293","747463","0.0-3.0-4.0-1.31","5b2834ed7da9a90001a3c5e5","F1","batch6","","11824.40000000596","img/question_5_8.jpeg","0","spm_respsonse","0","6","mat_56","","","","","","0","11824.40000000596","","","","","","","","","","","","","","",""
"","","","","","html-keyboard-response","294","748517","0.0-3.0-4.0-0.32","5b2834ed7da9a90001a3c5e5","F1","batch6","","null","<p class=block-text>Trial 57 out of 60</p>","null","spm_show_trial_num","","","","","","","","","","","","","","","","","","","","","","","","",""
"","","","","","image-button-response","295","758602","0.0-3.0-4.0-1.32","5b2834ed7da9a90001a3c5e5","F1","batch6","","10080.700000017881","img/question_5_9.jpeg","6","spm_respsonse","0","3","mat_57","","","","","","0","10080.700000017881","","","","","","","","","","","","","","",""
"","","","","","html-keyboard-response","296","759667","0.0-3.0-4.0-0.33","5b2834ed7da9a90001a3c5e5","F1","batch6","","null","<p class=block-text>Trial 58 out of 60</p>","null","spm_show_trial_num","","","","","","","","","","","","","","","","","","","","","","","","",""
"","","","","","image-button-response","297","765198","0.0-3.0-4.0-1.33","5b2834ed7da9a90001a3c5e5","F1","batch6","","5527.5","img/question_5_10.jpeg","5","spm_respsonse","0","2","mat_58","","","","","","0","5527.5","","","","","","","","","","","","","","",""
"","","","","","html-keyboard-response","298","766271","0.0-3.0-4.0-0.34","5b2834ed7da9a90001a3c5e5","F1","batch6","","null","<p class=block-text>Trial 59 out of 60</p>","null","spm_show_trial_num","","","","","","","","","","","","","","","","","","","","","","","","",""
"","","","","","image-button-response","299","772910","0.0-3.0-4.0-1.34","5b2834ed7da9a90001a3c5e5","F1","batch6","","6634.9000000059605","img/question_5_11.jpeg","2","spm_respsonse","0","4","mat_59","","","","","","0","6634.9000000059605","","","","","","","","","","","","","","",""
"","","","","","html-keyboard-response","300","773975","0.0-3.0-4.0-0.35","5b2834ed7da9a90001a3c5e5","F1","batch6","","null","<p class=block-text>Trial 60 out of 60</p>","null","spm_show_trial_num","","","","","","","","","","","","","","","","","","","","","","","","",""
"","","","","","image-button-response","301","779633","0.0-3.0-4.0-1.35","5b2834ed7da9a90001a3c5e5","F1","batch6","","5653.299999982119","img/question_5_12.jpeg","2","spm_respsonse","0","5","mat_60","","","","","","0","5653.299999982119","","","","","","","","","","","","","","",""
"","","","","","html-button-response","302","780842","0.0-3.0-5.0","5b2834ed7da9a90001a3c5e5","F1","batch6","","943.9000000059605","<p class= block-text>This concludes the Standard Progressive Matrix game. Thank you for your responses!<br> When you are ready, click the button continue</p>","0","spm_goodbye","","","","","","","","","","","","","","","","","","","","","","","","",""
"true","","","","","fullscreen","303","784785","0.0-4.0-0.0","5b2834ed7da9a90001a3c5e5","F1","batch6","","","","","","","","","","","","","","","","","","","","","","","","","","","","","",""
"","","","","","instructions","304","822355","0.0-4.0-1.0-0.0-0.0","5b2834ed7da9a90001a3c5e5","F1","batch6","[{""page_index"":0,""viewing_time"":14352.700000017881},{""page_index"":1,""viewing_time"":4269.4000000059605},{""page_index"":2,""viewing_time"":3502.699999988079},{""page_index"":3,""viewing_time"":3493.0999999940395},{""page_index"":4,""viewing_time"":6519.800000011921},{""page_index"":5,""viewing_time"":3883.2999999821186},{""page_index"":6,""viewing_time"":1546.9000000059605}]","37568.10000002384","","","tol-instructions","","","","","","","","","","","","","","","","","","","","","","","","",""
"","","","","","html-button-response","305","823046","0.0-4.0-1.0-1.0-0.0","5b2834ed7da9a90001a3c5e5","F1","batch6","","689.4000000059605","<p class=block-text> Let's answer a few questions <br>","0","tol_enter_quiz","","","","","","","","","","","","","","","","","","","","","","","","",""
"","","","","","html-button-response","306","825202","0.0-4.0-1.0-1.0-1.0","5b2834ed7da9a90001a3c5e5","F1","batch6","","2154.399999976158","<p class = block-text>True or False: You can only move the ball on top of a peg. <br></p>","0","tol_quiz","true","","","","","","","","","","","","","","","","","","","","","","","",""
"","","","","","html-button-response","307","825951","0.0-4.0-1.0-1.0-2.0","5b2834ed7da9a90001a3c5e5","F1","batch6","","747.0999999940395","<p class = block-text>Correct! You can only move the ball on top of a peg.</p>","0","tol_quiz_feedback","","","","","","","","","","","","","","","","","","","","","","","","",""
"","","","","","html-button-response","308","828313","0.0-4.0-1.0-1.0-3.0","5b2834ed7da9a90001a3c5e5","F1","batch6","","2361.9000000059605","<p class = block-text>True or False: You should try to match your board with the target board with fewest moves possible. <br></p>","0","tol_quiz","true","","","","","","","","","","","","","","","","","","","","","","","",""
"","","","","","html-button-response","309","828840","0.0-4.0-1.0-1.0-4.0","5b2834ed7da9a90001a3c5e5","F1","batch6","","525.3000000119209","<p class = block-text>Correct! </p>","0","tol_quiz_feedback","","","","","","","","","","","","","","","","","","","","","","","","",""
"","","","","","html-button-response","310","830048","0.0-4.0-2.0","5b2834ed7da9a90001a3c5e5","F1","batch6","","1207.1000000238419","<p class=block-text> Now that you've understood the game, let's practice a few easier examples before we start!<br> <br>","0","","","","","","","","","","","","","","","","","","","","","","","","","",""
"","","","","","single-stim-button","311","834589","0.0-4.0-3.0-0.0","5b2834ed7da9a90001a3c5e5","F1","batch6","","4536","","","tol_practice","","","","","","","","","","","tol_peg_2","4536","4536","0","[[1,2,0],[0,0],[0]]","1","[[1,2,0],[0,0],[3]]","practice","4536","","","","","",""
"","","","","","single-stim-button","312","836637","0.0-4.0-3.0-1.0","5b2834ed7da9a90001a3c5e5","F1","batch6","","2047","","","tol_practice","","","","","","","","","","","tol_peg_3","2047","2047","0","[[1,2,0],[0,0],[3]]","1","[[1,2,0],[0,0],[3]]","practice","2047","","","","","",""
"","","","","","poldrack-single-stim","313","837639","0.0-4.0-4.0","5b2834ed7da9a90001a3c5e5","F1","batch6","","-1","","","tol_feedback","true","","","","","","","","","","","1000","1000","500","","","","","","-1","none","true","","0",""
"","","","","","single-stim-button","314","840155","0.0-4.0-5.0-0.0","5b2834ed7da9a90001a3c5e5","F1","batch6","","2514","","","tol_practice","","","","","","","","","","","tol_peg_1","2514","2514","0","[[1,0,0],[3,0],[0]]","2","[[0,0,0],[3,1],[2]]","practice","2514","","","","","",""
"","","","","","single-stim-button","315","841542","0.0-4.0-5.0-1.0","5b2834ed7da9a90001a3c5e5","F1","batch6","","1387","","","tol_practice","","","","","","","","","","","tol_peg_3","1387","1387","0","[[1,0,0],[3,0],[2]]","2","[[0,0,0],[3,1],[2]]","practice","1387","","","","","",""
"","","","","","single-stim-button","316","842213","0.0-4.0-5.1-0.1","5b2834ed7da9a90001a3c5e5","F1","batch6","","669","","","tol_practice","","","","","","","","","","","tol_peg_1","669","669","0","[[0,0,0],[3,0],[2]]","3","[[0,0,0],[3,1],[2]]","practice","669","","","","","",""
"","","","","","single-stim-button","317","842940","0.0-4.0-5.1-1.1","5b2834ed7da9a90001a3c5e5","F1","batch6","","727","","","tol_practice","","","","","","","","","","","tol_peg_2","727","727","0","[[0,0,0],[3,1],[2]]","3","[[0,0,0],[3,1],[2]]","practice","727","","","","","",""
"","","","","","poldrack-single-stim","318","843952","0.0-4.0-6.0","5b2834ed7da9a90001a3c5e5","F1","batch6","","-1","","","tol_feedback","true","","","","","","","","","","","1000","1000","500","","","","","","-1","none","true","","0",""
"","","","","","single-stim-button","319","845752","0.0-4.0-7.0-0.0","5b2834ed7da9a90001a3c5e5","F1","batch6","","1798","","","tol_practice","","","","","","","","","","","tol_peg_1","1798","1798","0","[[1,0,0],[3,0],[0]]","4","[[1,0,0],[2,0],[3]]","practice","1798","","","","","",""
"","","","","","single-stim-button","320","850451","0.0-4.0-7.0-1.0","5b2834ed7da9a90001a3c5e5","F1","batch6","","4698","","","tol_practice","","","","","","","","","","","tol_peg_2","4698","4698","0","[[1,0,0],[3,2],[0]]","4","[[1,0,0],[2,0],[3]]","practice","4698","","","","","",""
"","","","","","single-stim-button","321","850952","0.0-4.0-7.1-0.1","5b2834ed7da9a90001a3c5e5","F1","batch6","","500","","","tol_practice","","","","","","","","","","","tol_peg_2","500","500","0","[[1,0,0],[3,0],[0]]","5","[[1,0,0],[2,0],[3]]","practice","500","","","","","",""
"","","","","","single-stim-button","322","851552","0.0-4.0-7.1-1.1","5b2834ed7da9a90001a3c5e5","F1","batch6","","600","","","tol_practice","","","","","","","","","","","tol_peg_2","600","600","0","[[1,0,0],[3,2],[0]]","5","[[1,0,0],[2,0],[3]]","practice","600","","","","","",""
"","","","","","single-stim-button","323","851984","0.0-4.0-7.2-0.2","5b2834ed7da9a90001a3c5e5","F1","batch6","","430","","","tol_practice","","","","","","","","","","","tol_peg_2","430","430","0","[[1,0,0],[3,0],[0]]","6","[[1,0,0],[2,0],[3]]","practice","430","","","","","",""
"","","","","","single-stim-button","324","852467","0.0-4.0-7.2-1.2","5b2834ed7da9a90001a3c5e5","F1","batch6","","482","","","tol_practice","","","","","","","","","","","tol_peg_1","482","482","0","[[1,2,0],[3,0],[0]]","6","[[1,0,0],[2,0],[3]]","practice","482","","","","","",""
"","","","","","single-stim-button","325","852957","0.0-4.0-7.3-0.3","5b2834ed7da9a90001a3c5e5","F1","batch6","","489","","","tol_practice","","","","","","","","","","","tol_peg_2","489","489","0","[[1,2,0],[0,0],[0]]","7","[[1,0,0],[2,0],[3]]","practice","489","","","","","",""
"","","","","","single-stim-button","326","853543","0.0-4.0-7.3-1.3","5b2834ed7da9a90001a3c5e5","F1","batch6","","586","","","tol_practice","","","","","","","","","","","tol_peg_3","586","586","0","[[1,2,0],[0,0],[3]]","7","[[1,0,0],[2,0],[3]]","practice","586","","","","","",""
"","","","","","single-stim-button","327","854107","0.0-4.0-7.4-0.4","5b2834ed7da9a90001a3c5e5","F1","batch6","","563","","","tol_practice","","","","","","","","","","","tol_peg_1","563","563","0","[[1,0,0],[0,0],[3]]","8","[[1,0,0],[2,0],[3]]","practice","563","","","","","",""
"","","","","","single-stim-button","328","854463","0.0-4.0-7.4-1.4","5b2834ed7da9a90001a3c5e5","F1","batch6","","356","","","tol_practice","","","","","","","","","","","tol_peg_2","356","356","0","[[1,0,0],[2,0],[3]]","8","[[1,0,0],[2,0],[3]]","practice","356","","","","","",""
"","","","","","poldrack-single-stim","329","855473","0.0-4.0-8.0","5b2834ed7da9a90001a3c5e5","F1","batch6","","-1","","","tol_feedback","true","","","","","","","","","","","1000","1000","500","","","","","","-1","none","true","","0",""
"","","","","","html-button-response","330","857461","0.0-4.0-9.0","5b2834ed7da9a90001a3c5e5","F1","batch6","","1986.9000000059605","<div class = centerbox><p class = center-block-text>Great job! You are done with practice trials<br>You are about to start official trials.<br> <br> Problem <strong>1</strong> out of 25 problems</p></div>","0","tol_instruction","","","","","","","","","","","","","","","","","","","","","","","","",""
"","","","","","single-stim-button","331","861561","0.0-4.0-10.0-0.0","5b2834ed7da9a90001a3c5e5","F1","batch6","","3082","","","tol_tohand","","","","","","","","","","","tol_peg_2","3082","3082","0","[[1,2,0],[0,0],[0]]","1","[[1,3,0],[2,0],[0]]","0","0","","","","","","3"
"","","","","","single-stim-button","332","862303","0.0-4.0-10.0-1.0","5b2834ed7da9a90001a3c5e5","F1","batch6","","741","","","tol_toboard","","","","","","","","","","","tol_peg_3","741","741","0","[[1,2,0],[0,0],[3]]","1","[[1,3,0],[2,0],[0]]","0","0","","","","","","3"
"","","","","","single-stim-button","333","863068","0.0-4.0-10.1-0.1","5b2834ed7da9a90001a3c5e5","F1","batch6","","764","","","tol_tohand","","","","","","","","","","","tol_peg_1","764","764","0","[[1,0,0],[0,0],[3]]","2","[[1,3,0],[2,0],[0]]","0","0","","","","","","3"
"","","","","","single-stim-button","334","863593","0.0-4.0-10.1-1.1","5b2834ed7da9a90001a3c5e5","F1","batch6","","524","","","tol_toboard","","","","","","","","","","","tol_peg_2","524","524","0","[[1,0,0],[2,0],[3]]","2","[[1,3,0],[2,0],[0]]","0","0","","","","","","3"
"","","","","","single-stim-button","335","864135","0.0-4.0-10.2-0.2","5b2834ed7da9a90001a3c5e5","F1","batch6","","540","","","tol_tohand","","","","","","","","","","","tol_peg_3","540","540","0","[[1,0,0],[2,0],[0]]","3","[[1,3,0],[2,0],[0]]","0","0","","","","","","3"
"","","","","","single-stim-button","336","864654","0.0-4.0-10.2-1.2","5b2834ed7da9a90001a3c5e5","F1","batch6","","518","","","tol_toboard","","","","","","","","","","","tol_peg_1","518","518","0","[[1,3,0],[2,0],[0]]","3","[[1,3,0],[2,0],[0]]","0","0","","","","","","3"
"","","","","","poldrack-single-stim","337","865661","0.0-4.0-11.0","5b2834ed7da9a90001a3c5e5","F1","batch6","","-1","","","tol_feedback","true","","","","","","","","","","","1000","1000","500","","","","","","-1","none","true","3082","4386",""
"","","","","","html-button-response","338","867297","0.0-4.0-12.0","5b2834ed7da9a90001a3c5e5","F1","batch6","","1635.6000000238419","<div class = centerbox><p class = center-block-text>problem <strong>2</strong> out of 25 problems</p></div>","0","tol_trial_num","","","","","","","","","","","","","","","","","","","","","","","","",""
"","","","","","single-stim-button","339","870159","0.0-4.0-13.0-0.0","5b2834ed7da9a90001a3c5e5","F1","batch6","","2859","","","tol_tohand","","","","","","","","","","","tol_peg_1","2859","2859","0","[[1,0,0],[3,0],[0]]","1","[[2,1,3],[0,0],[0]]","1","0","","","","","","5"
"","","","","","single-stim-button","340","871076","0.0-4.0-13.0-1.0","5b2834ed7da9a90001a3c5e5","F1","batch6","","917","","","tol_toboard","","","","","","","","","","","tol_peg_3","917","917","0","[[1,0,0],[3,0],[2]]","1","[[2,1,3],[0,0],[0]]","1","0","","","","","","5"
"","","","","","single-stim-button","341","871581","0.0-4.0-13.1-0.1","5b2834ed7da9a90001a3c5e5","F1","batch6","","504","","","tol_tohand","","","","","","","","","","","tol_peg_2","504","504","0","[[1,0,0],[0,0],[2]]","2","[[2,1,3],[0,0],[0]]","1","0","","","","","","5"
"","","","","","single-stim-button","342","874301","0.0-4.0-13.1-1.1","5b2834ed7da9a90001a3c5e5","F1","batch6","","2720","","","tol_toboard","","","","","","","","","","","tol_peg_2","2720","2720","0","[[1,0,0],[3,0],[2]]","2","[[2,1,3],[0,0],[0]]","1","0","","","","","","5"
"","","","","","single-stim-button","343","874858","0.0-4.0-13.2-0.2","5b2834ed7da9a90001a3c5e5","F1","batch6","","555","","","tol_tohand","","","","","","","","","","","tol_peg_1","555","555","0","[[0,0,0],[3,0],[2]]","3","[[2,1,3],[0,0],[0]]","1","0","","","","","","5"
"","","","","","single-stim-button","344","875410","0.0-4.0-13.2-1.2","5b2834ed7da9a90001a3c5e5","F1","batch6","","551","","","tol_toboard","","","","","","","","","","","tol_peg_2","551","551","0","[[0,0,0],[3,1],[2]]","3","[[2,1,3],[0,0],[0]]","1","0","","","","","","5"
"","","","","","single-stim-button","345","876078","0.0-4.0-13.3-0.3","5b2834ed7da9a90001a3c5e5","F1","batch6","","667","","","tol_tohand","","","","","","","","","","","tol_peg_3","667","667","0","[[0,0,0],[3,1],[0]]","4","[[2,1,3],[0,0],[0]]","1","0","","","","","","5"
"","","","","","single-stim-button","346","877047","0.0-4.0-13.3-1.3","5b2834ed7da9a90001a3c5e5","F1","batch6","","968","","","tol_toboard","","","","","","","","","","","tol_peg_1","968","968","0","[[2,0,0],[3,1],[0]]","4","[[2,1,3],[0,0],[0]]","1","0","","","","","","5"
"","","","","","single-stim-button","347","877946","0.0-4.0-13.4-0.4","5b2834ed7da9a90001a3c5e5","F1","batch6","","898","","","tol_tohand","","","","","","","","","","","tol_peg_2","898","898","0","[[2,0,0],[3,0],[0]]","5","[[2,1,3],[0,0],[0]]","1","0","","","","","","5"
