"success","timeout","failed_images","failed_audio","failed_video","trial_type","trial_index","time_elapsed","internal_node_id","subject_id","study_id","session_id","view_history","rt","task","stimulus","response","correct","mouse_click","stim_duration","block_duration","timing_post_trial","current_position","tol_num_moves_made","tol_target","tol_problem_id","tol_rt","key_press","possible_responses","tol_correct","preplanning","tol_rt_per_trial","tol_min_moves","answer","item","fiar_detect_rt","fiar_detect_correct","total_correct_fiar_detect","post_trial_gap","choices","spm_correct","spm_rt"
"true","false","[]","[]","[]","preload","0","2679","0.0-0.0","5b476e05f2c50b0001a70e60","F1","batch6","","","","","","","","","","","","","","","","","","","","","","","","","","","","","",""
"true","","","","","fullscreen","1","11669","0.0-1.0-0.0","5b476e05f2c50b0001a70e60","F1","batch6","","","","","","","","","","","","","","","","","","","","","","","","","","","","","",""
"true","","","","","fullscreen","2","14811","0.0-2.0-0.0","5b476e05f2c50b0001a70e60","F1","batch6","","","","","","","","","","","","","","","","","","","","","","","","","","","","","",""
"","","","","","instructions","3","64017","0.0-2.0-1.0-0.0-0.0","5b476e05f2c50b0001a70e60","F1","batch6","[{""page_index"":0,""viewing_time"":7332.10000038147},{""page_index"":1,""viewing_time"":5806.599999904633},{""page_index"":2,""viewing_time"":5051.199999809265},{""page_index"":3,""viewing_time"":12078.099999904633},{""page_index"":4,""viewing_time"":6370.900000095367},{""page_index"":5,""viewing_time"":9561},{""page_index"":6,""viewing_time"":3005}]","49205.10000038147","tol-instructions","","","","","","","","","","","","","","","","","","","","","","","","","","",""
"","","","","","html-button-response","4","65014","0.0-2.0-1.0-1.0-0.0","5b476e05f2c50b0001a70e60","F1","batch6","","995.4000000953674","tol_enter_quiz","<p class=block-text> Let's answer a few questions <br>","0","","","","","","","","","","","","","","","","","","","","","","","","",""
"","","","","","html-button-response","5","70381","0.0-2.0-1.0-1.0-1.0","5b476e05f2c50b0001a70e60","F1","batch6","","5365.5","tol_quiz","<p class = block-text>True or False: You can only move the ball on top of a peg. <br></p>","0","true","","","","","","","","","","","","","","","","","","","","","","","",""
"","","","","","html-button-response","6","71361","0.0-2.0-1.0-1.0-2.0","5b476e05f2c50b0001a70e60","F1","batch6","","978","tol_quiz_feedback","<p class = block-text>Correct! You can only move the ball on top of a peg.</p>","0","","","","","","","","","","","","","","","","","","","","","","","","",""
"","","","","","html-button-response","7","74015","0.0-2.0-1.0-1.0-3.0","5b476e05f2c50b0001a70e60","F1","batch6","","2653.4000000953674","tol_quiz","<p class = block-text>True or False: You should try to match your board with the target board with fewest moves possible. <br></p>","0","true","","","","","","","","","","","","","","","","","","","","","","","",""
"","","","","","html-button-response","8","74710","0.0-2.0-1.0-1.0-4.0","5b476e05f2c50b0001a70e60","F1","batch6","","694.3000001907349","tol_quiz_feedback","<p class = block-text>Correct! </p>","0","","","","","","","","","","","","","","","","","","","","","","","","",""
"","","","","","html-button-response","9","76564","0.0-2.0-2.0","5b476e05f2c50b0001a70e60","F1","batch6","","1851.9000000953674","","<p class=block-text> Now that you've understood the game, let's practice a few easier examples before we start!<br> <br>","0","","","","","","","","","","","","","","","","","","","","","","","","",""
"","","","","","single-stim-button","10","80568","0.0-2.0-3.0-0.0","5b476e05f2c50b0001a70e60","F1","batch6","","4002","tol_practice","","","","tol_peg_2","4002","4002","0","[[1,2,0],[0,0],[0]]","1","[[1,2,0],[0,0],[3]]","practice","4002","","","","","","","","","","","","","","",""
"","","","","","single-stim-button","11","82731","0.0-2.0-3.0-1.0","5b476e05f2c50b0001a70e60","F1","batch6","","2161","tol_practice","","","","tol_peg_3","2161","2161","0","[[1,2,0],[0,0],[3]]","1","[[1,2,0],[0,0],[3]]","practice","2161","","","","","","","","","","","","","","",""
"","","","","","poldrack-single-stim","12","83746","0.0-2.0-4.0","5b476e05f2c50b0001a70e60","F1","batch6","","-1","tol_feedback","","","true","","1000","1000","500","","","","","","-1","none","true","","0","","","","","","","","","",""
"","","","","","single-stim-button","13","87265","0.0-2.0-5.0-0.0","5b476e05f2c50b0001a70e60","F1","batch6","","3519","tol_practice","","","","tol_peg_1","3519","3519","0","[[1,0,0],[3,0],[0]]","2","[[0,0,0],[3,1],[2]]","practice","3519","","","","","","","","","","","","","","",""
"","","","","","single-stim-button","14","89675","0.0-2.0-5.0-1.0","5b476e05f2c50b0001a70e60","F1","batch6","","2408","tol_practice","","","","tol_peg_3","2408","2408","0","[[1,0,0],[3,0],[2]]","2","[[0,0,0],[3,1],[2]]","practice","2408","","","","","","","","","","","","","","",""
"","","","","","single-stim-button","15","90731","0.0-2.0-5.1-0.1","5b476e05f2c50b0001a70e60","F1","batch6","","1055","tol_practice","","","","tol_peg_1","1055","1055","0","[[0,0,0],[3,0],[2]]","3","[[0,0,0],[3,1],[2]]","practice","1055","","","","","","","","","","","","","","",""
"","","","","","single-stim-button","16","91532","0.0-2.0-5.1-1.1","5b476e05f2c50b0001a70e60","F1","batch6","","800","tol_practice","","","","tol_peg_2","800","800","0","[[0,0,0],[3,1],[2]]","3","[[0,0,0],[3,1],[2]]","practice","800","","","","","","","","","","","","","","",""
"","","","","","poldrack-single-stim","17","92536","0.0-2.0-6.0","5b476e05f2c50b0001a70e60","F1","batch6","","-1","tol_feedback","","","true","","1000","1000","500","","","","","","-1","none","true","","0","","","","","","","","","",""
"","","","","","single-stim-button","18","94809","0.0-2.0-7.0-0.0","5b476e05f2c50b0001a70e60","F1","batch6","","2272","tol_practice","","","","tol_peg_2","2272","2272","0","[[1,2,0],[0,0],[0]]","4","[[1,0,0],[2,0],[3]]","practice","2272","","","","","","","","","","","","","","",""
"","","","","","single-stim-button","19","95590","0.0-2.0-7.0-1.0","5b476e05f2c50b0001a70e60","F1","batch6","","780","tol_practice","","","","tol_peg_3","780","780","0","[[1,2,0],[0,0],[3]]","4","[[1,0,0],[2,0],[3]]","practice","780","","","","","","","","","","","","","","",""
"","","","","","single-stim-button","20","96614","0.0-2.0-7.1-0.1","5b476e05f2c50b0001a70e60","F1","batch6","","1023","tol_practice","","","","tol_peg_1","1023","1023","0","[[1,0,0],[0,0],[3]]","5","[[1,0,0],[2,0],[3]]","practice","1023","","","","","","","","","","","","","","",""
"","","","","","single-stim-button","21","97270","0.0-2.0-7.1-1.1","5b476e05f2c50b0001a70e60","F1","batch6","","654","tol_practice","","","","tol_peg_2","654","654","0","[[1,0,0],[2,0],[3]]","5","[[1,0,0],[2,0],[3]]","practice","654","","","","","","","","","","","","","","",""
"","","","","","poldrack-single-stim","22","98272","0.0-2.0-8.0","5b476e05f2c50b0001a70e60","F1","batch6","","-1","tol_feedback","","","true","","1000","1000","500","","","","","","-1","none","true","","0","","","","","","","","","",""
"","","","","","html-button-response","23","101000","0.0-2.0-9.0","5b476e05f2c50b0001a70e60","F1","batch6","","2727","tol_instruction","<div class = centerbox><p class = center-block-text>Great job! You are done with practice trials<br>You are about to start official trials.<br> <br> Problem <strong>1</strong> out of 25 problems</p></div>","0","","","","","","","","","","","","","","","","","","","","","","","","",""
"","","","","","single-stim-button","24","108124","0.0-2.0-10.0-0.0","5b476e05f2c50b0001a70e60","F1","batch6","","6119","tol_tohand","","","","tol_peg_1","6119","6119","0","[[1,0,0],[3,0],[0]]","1","[[1,3,0],[2,0],[0]]","0","0","","","","","","3","","","","","","","","",""
"","","","","","single-stim-button","25","109505","0.0-2.0-10.0-1.0","5b476e05f2c50b0001a70e60","F1","batch6","","1380","tol_toboard","","","","tol_peg_3","1380","1380","0","[[1,0,0],[3,0],[2]]","1","[[1,3,0],[2,0],[0]]","0","0","","","","","","3","","","","","","","","",""
"","","","","","single-stim-button","26","110893","0.0-2.0-10.1-0.1","5b476e05f2c50b0001a70e60","F1","batch6","","1387","tol_tohand","","","","tol_peg_2","1387","1387","0","[[1,0,0],[0,0],[2]]","2","[[1,3,0],[2,0],[0]]","0","0","","","","","","3","","","","","","","","",""
"","","","","","single-stim-button","27","111598","0.0-2.0-10.1-1.1","5b476e05f2c50b0001a70e60","F1","batch6","","704","tol_toboard","","","","tol_peg_1","704","704","0","[[1,3,0],[0,0],[2]]","2","[[1,3,0],[2,0],[0]]","0","0","","","","","","3","","","","","","","","",""
"","","","","","single-stim-button","28","112658","0.0-2.0-10.2-0.2","5b476e05f2c50b0001a70e60","F1","batch6","","1059","tol_tohand","","","","tol_peg_3","1059","1059","0","[[1,3,0],[0,0],[0]]","3","[[1,3,0],[2,0],[0]]","0","0","","","","","","3","","","","","","","","",""
"","","","","","single-stim-button","29","113415","0.0-2.0-10.2-1.2","5b476e05f2c50b0001a70e60","F1","batch6","","756","tol_toboard","","","","tol_peg_2","756","756","0","[[1,3,0],[2,0],[0]]","3","[[1,3,0],[2,0],[0]]","0","0","","","","","","3","","","","","","","","",""
"","","","","","poldrack-single-stim","30","114417","0.0-2.0-11.0","5b476e05f2c50b0001a70e60","F1","batch6","","-1","tol_feedback","","","true","","1000","1000","500","","","","","","-1","none","true","6119","8565","","","","","","","","","",""
"","","","","","html-button-response","31","115428","0.0-2.0-12.0","5b476e05f2c50b0001a70e60","F1","batch6","","1009.7999997138977","tol_trial_num","<div class = centerbox><p class = center-block-text>problem <strong>2</strong> out of 25 problems</p></div>","0","","","","","","","","","","","","","","","","","","","","","","","","",""
"","","","","","single-stim-button","32","121419","0.0-2.0-13.0-0.0","5b476e05f2c50b0001a70e60","F1","batch6","","5991","tol_tohand","","","","tol_peg_1","5991","5991","0","[[1,0,0],[3,0],[0]]","1","[[2,1,3],[0,0],[0]]","1","0","","","","","","5","","","","","","","","",""
"","","","","","single-stim-button","33","122107","0.0-2.0-13.0-1.0","5b476e05f2c50b0001a70e60","F1","batch6","","687","tol_toboard","","","","tol_peg_3","687","687","0","[[1,0,0],[3,0],[2]]","1","[[2,1,3],[0,0],[0]]","1","0","","","","","","5","","","","","","","","",""
"","","","","","single-stim-button","34","122976","0.0-2.0-13.1-0.1","5b476e05f2c50b0001a70e60","F1","batch6","","868","tol_tohand","","","","tol_peg_1","868","868","0","[[0,0,0],[3,0],[2]]","2","[[2,1,3],[0,0],[0]]","1","0","","","","","","5","","","","","","","","",""
"","","","","","single-stim-button","35","123612","0.0-2.0-13.1-1.1","5b476e05f2c50b0001a70e60","F1","batch6","","635","tol_toboard","","","","tol_peg_2","635","635","0","[[0,0,0],[3,1],[2]]","2","[[2,1,3],[0,0],[0]]","1","0","","","","","","5","","","","","","","","",""
"","","","","","single-stim-button","36","127510","0.0-2.0-13.2-0.2","5b476e05f2c50b0001a70e60","F1","batch6","","3897","tol_tohand","","","","tol_peg_2","3897","3897","0","[[0,0,0],[3,0],[2]]","3","[[2,1,3],[0,0],[0]]","1","0","","","","","","5","","","","","","","","",""
"","","","","","single-stim-button","37","131092","0.0-2.0-13.2-1.2","5b476e05f2c50b0001a70e60","F1","batch6","","3581","tol_toboard","","","","tol_peg_1","3581","3581","0","[[1,0,0],[3,0],[2]]","3","[[2,1,3],[0,0],[0]]","1","0","","","","","","5","","","","","","","","",""
"","","","","","single-stim-button","38","132016","0.0-2.0-13.3-0.3","5b476e05f2c50b0001a70e60","F1","batch6","","922","tol_tohand","","","","tol_peg_3","922","922","0","[[1,0,0],[3,0],[0]]","4","[[2,1,3],[0,0],[0]]","1","0","","","","","","5","","","","","","","","",""
"","","","","","single-stim-button","39","132708","0.0-2.0-13.3-1.3","5b476e05f2c50b0001a70e60","F1","batch6","","692","tol_toboard","","","","tol_peg_1","692","692","0","[[1,2,0],[3,0],[0]]","4","[[2,1,3],[0,0],[0]]","1","0","","","","","","5","","","","","","","","",""
"","","","","","single-stim-button","40","133513","0.0-2.0-13.4-0.4","5b476e05f2c50b0001a70e60","F1","batch6","","805","tol_tohand","","","","tol_peg_2","805","805","0","[[1,2,0],[0,0],[0]]","5","[[2,1,3],[0,0],[0]]","1","0","","","","","","5","","","","","","","","",""
"","","","","","single-stim-button","41","135174","0.0-2.0-13.4-1.4","5b476e05f2c50b0001a70e60","F1","batch6","","1661","tol_toboard","","","","tol_peg_3","1661","1661","0","[[1,2,0],[0,0],[3]]","5","[[2,1,3],[0,0],[0]]","1","0","","","","","","5","","","","","","","","",""
"","","","","","single-stim-button","42","140408","0.0-2.0-13.5-0.5","5b476e05f2c50b0001a70e60","F1","batch6","","5233","tol_tohand","","","","tol_peg_3","5233","5233","0","[[1,2,0],[0,0],[0]]","6","[[2,1,3],[0,0],[0]]","1","0","","","","","","5","","","","","","","","",""
"","","","","","single-stim-button","43","141413","0.0-2.0-13.5-1.5","5b476e05f2c50b0001a70e60","F1","batch6","","1004","tol_toboard","","","","tol_peg_2","1004","1004","0","[[1,2,0],[3,0],[0]]","6","[[2,1,3],[0,0],[0]]","1","0","","","","","","5","","","","","","","","",""
"","","","","","single-stim-button","44","143198","0.0-2.0-13.6-0.6","5b476e05f2c50b0001a70e60","F1","batch6","","1784","tol_tohand","","","","tol_peg_1","1784","1784","0","[[1,0,0],[3,0],[0]]","7","[[2,1,3],[0,0],[0]]","1","0","","","","","","5","","","","","","","","",""
"","","","","","single-stim-button","45","143974","0.0-2.0-13.6-1.6","5b476e05f2c50b0001a70e60","F1","batch6","","776","tol_toboard","","","","tol_peg_3","776","776","0","[[1,0,0],[3,0],[2]]","7","[[2,1,3],[0,0],[0]]","1","0","","","","","","5","","","","","","","","",""
"","","","","","single-stim-button","46","144755","0.0-2.0-13.7-0.7","5b476e05f2c50b0001a70e60","F1","batch6","","780","tol_tohand","","","","tol_peg_1","780","780","0","[[0,0,0],[3,0],[2]]","8","[[2,1,3],[0,0],[0]]","1","0","","","","","","5","","","","","","","","",""
"","","","","","single-stim-button","47","145539","0.0-2.0-13.7-1.7","5b476e05f2c50b0001a70e60","F1","batch6","","783","tol_toboard","","","","tol_peg_2","783","783","0","[[0,0,0],[3,1],[2]]","8","[[2,1,3],[0,0],[0]]","1","0","","","","","","5","","","","","","","","",""
"","","","","","single-stim-button","48","146264","0.0-2.0-13.8-0.8","5b476e05f2c50b0001a70e60","F1","batch6","","724","tol_tohand","","","","tol_peg_3","724","724","0","[[0,0,0],[3,1],[0]]","9","[[2,1,3],[0,0],[0]]","1","0","","","","","","5","","","","","","","","",""
"","","","","","single-stim-button","49","147200","0.0-2.0-13.8-1.8","5b476e05f2c50b0001a70e60","F1","batch6","","935","tol_toboard","","","","tol_peg_1","935","935","0","[[2,0,0],[3,1],[0]]","9","[[2,1,3],[0,0],[0]]","1","0","","","","","","5","","","","","","","","",""
"","","","","","single-stim-button","50","148240","0.0-2.0-13.9-0.9","5b476e05f2c50b0001a70e60","F1","batch6","","1039","tol_tohand","","","","tol_peg_2","1039","1039","0","[[2,0,0],[3,0],[0]]","10","[[2,1,3],[0,0],[0]]","1","0","","","","","","5","","","","","","","","",""
"","","","","","single-stim-button","51","149037","0.0-2.0-13.9-1.9","5b476e05f2c50b0001a70e60","F1","batch6","","796","tol_toboard","","","","tol_peg_3","796","796","0","[[2,0,0],[3,0],[1]]","10","[[2,1,3],[0,0],[0]]","1","0","","","","","","5","","","","","","","","",""
"","","","","","single-stim-button","52","149557","0.0-2.0-13.10-0.10","5b476e05f2c50b0001a70e60","F1","batch6","","519","tol_tohand","","","","tol_peg_2","519","519","0","[[2,0,0],[0,0],[1]]","11","[[2,1,3],[0,0],[0]]","1","0","","","","","","5","","","","","","","","",""
"","","","","","single-stim-button","53","149997","0.0-2.0-13.10-1.10","5b476e05f2c50b0001a70e60","F1","batch6","","439","tol_toboard","","","","tol_peg_1","439","439","0","[[2,3,0],[0,0],[1]]","11","[[2,1,3],[0,0],[0]]","1","0","","","","","","5","","","","","","","","",""
"","","","","","single-stim-button","54","150566","0.0-2.0-13.11-0.11","5b476e05f2c50b0001a70e60","F1","batch6","","568","tol_tohand","","","","tol_peg_3","568","568","0","[[2,3,0],[0,0],[0]]","12","[[2,1,3],[0,0],[0]]","1","0","","","","","","5","","","","","","","","",""
"","","","","","single-stim-button","55","151927","0.0-2.0-13.11-1.11","5b476e05f2c50b0001a70e60","F1","batch6","","1359","tol_toboard","","","","tol_peg_3","1359","1359","0","[[2,3,0],[0,0],[1]]","12","[[2,1,3],[0,0],[0]]","1","0","","","","","","5","","","","","","","","",""
"","","","","","single-stim-button","56","152704","0.0-2.0-13.12-0.12","5b476e05f2c50b0001a70e60","F1","batch6","","776","tol_tohand","","","","tol_peg_1","776","776","0","[[2,0,0],[0,0],[1]]","13","[[2,1,3],[0,0],[0]]","1","0","","","","","","5","","","","","","","","",""
"","","","","","single-stim-button","57","153472","0.0-2.0-13.12-1.12","5b476e05f2c50b0001a70e60","F1","batch6","","767","tol_toboard","","","","tol_peg_2","767","767","0","[[2,0,0],[3,0],[1]]","13","[[2,1,3],[0,0],[0]]","1","0","","","","","","5","","","","","","","","",""
"","","","","","single-stim-button","58","154004","0.0-2.0-13.13-0.13","5b476e05f2c50b0001a70e60","F1","batch6","","532","tol_tohand","","","","tol_peg_3","532","532","0","[[2,0,0],[3,0],[0]]","14","[[2,1,3],[0,0],[0]]","1","0","","","","","","5","","","","","","","","",""
"","","","","","single-stim-button","59","154805","0.0-2.0-13.13-1.13","5b476e05f2c50b0001a70e60","F1","batch6","","800","tol_toboard","","","","tol_peg_1","800","800","0","[[2,1,0],[3,0],[0]]","14","[[2,1,3],[0,0],[0]]","1","0","","","","","","5","","","","","","","","",""
"","","","","","single-stim-button","60","155728","0.0-2.0-13.14-0.14","5b476e05f2c50b0001a70e60","F1","batch6","","923","tol_tohand","","","","tol_peg_2","923","923","0","[[2,1,0],[0,0],[0]]","15","[[2,1,3],[0,0],[0]]","1","0","","","","","","5","","","","","","","","",""
"","","","","","single-stim-button","61","156241","0.0-2.0-13.14-1.14","5b476e05f2c50b0001a70e60","F1","batch6","","511","tol_toboard","","","","tol_peg_1","511","511","0","[[2,1,3],[0,0],[0]]","15","[[2,1,3],[0,0],[0]]","1","0","","","","","","5","","","","","","","","",""
"","","","","","poldrack-single-stim","62","157243","0.0-2.0-14.0","5b476e05f2c50b0001a70e60","F1","batch6","","-1","tol_feedback","","","true","","1000","1000","500","","","","","","-1","none","true","5991","25361","","","","","","","","","",""
"","","","","","html-button-response","63","157994","0.0-2.0-15.0","5b476e05f2c50b0001a70e60","F1","batch6","","749.2999997138977","tol_trial_num","<div class = centerbox><p class = center-block-text>problem <strong>3</strong> out of 25 problems</p></div>","0","","","","","","","","","","","","","","","","","","","","","","","","",""
"","","","","","single-stim-button","64","167927","0.0-2.0-16.0-0.0","5b476e05f2c50b0001a70e60","F1","batch6","","9932","tol_tohand","","","","tol_peg_1","9932","9932","0","[[2,0,0],[0,0],[1]]","1","[[1,2,0],[3,0],[0]]","2","0","","","","","","4","","","","","","","","",""
"","","","","","single-stim-button","65","168808","0.0-2.0-16.0-1.0","5b476e05f2c50b0001a70e60","F1","batch6","","880","tol_toboard","","","","tol_peg_2","880","880","0","[[2,0,0],[3,0],[1]]","1","[[1,2,0],[3,0],[0]]","2","0","","","","","","4","","","","","","","","",""
"","","","","","single-stim-button","66","169592","0.0-2.0-16.1-0.1","5b476e05f2c50b0001a70e60","F1","batch6","","784","tol_tohand","","","","tol_peg_1","784","784","0","[[0,0,0],[3,0],[1]]","2","[[1,2,0],[3,0],[0]]","2","0","","","","","","4","","","","","","","","",""
"","","","","","single-stim-button","67","170360","0.0-2.0-16.1-1.1","5b476e05f2c50b0001a70e60","F1","batch6","","768","tol_toboard","","","","tol_peg_2","768","768","0","[[0,0,0],[3,2],[1]]","2","[[1,2,0],[3,0],[0]]","2","0","","","","","","4","","","","","","","","",""
"","","","","","single-stim-button","68","171264","0.0-2.0-16.2-0.2","5b476e05f2c50b0001a70e60","F1","batch6","","903","tol_tohand","","","","tol_peg_3","903","903","0","[[0,0,0],[3,2],[0]]","3","[[1,2,0],[3,0],[0]]","2","0","","","","","","4","","","","","","","","",""
"","","","","","single-stim-button","69","171953","0.0-2.0-16.2-1.2","5b476e05f2c50b0001a70e60","F1","batch6","","687","tol_toboard","","","","tol_peg_1","687","687","0","[[1,0,0],[3,2],[0]]","3","[[1,2,0],[3,0],[0]]","2","0","","","","","","4","","","","","","","","",""
"","","","","","single-stim-button","70","172585","0.0-2.0-16.3-0.3","5b476e05f2c50b0001a70e60","F1","batch6","","632","tol_tohand","","","","tol_peg_2","632","632","0","[[1,0,0],[3,0],[0]]","4","[[1,2,0],[3,0],[0]]","2","0","","","","","","4","","","","","","","","",""
"","","","","","single-stim-button","71","173149","0.0-2.0-16.3-1.3","5b476e05f2c50b0001a70e60","F1","batch6","","563","tol_toboard","","","","tol_peg_1","563","563","0","[[1,2,0],[3,0],[0]]","4","[[1,2,0],[3,0],[0]]","2","0","","","","","","4","","","","","","","","",""
"","","","","","poldrack-single-stim","72","174156","0.0-2.0-17.0","5b476e05f2c50b0001a70e60","F1","batch6","","-1","tol_feedback","","","true","","1000","1000","500","","","","","","-1","none","true","9932","12251","","","","","","","","","",""
"","","","","","html-button-response","73","175502","0.0-2.0-18.0","5b476e05f2c50b0001a70e60","F1","batch6","","1345","tol_trial_num","<div class = centerbox><p class = center-block-text>problem <strong>4</strong> out of 25 problems</p></div>","0","","","","","","","","","","","","","","","","","","","","","","","","",""
"","","","","","single-stim-button","74","179408","0.0-2.0-19.0-0.0","5b476e05f2c50b0001a70e60","F1","batch6","","3905","tol_tohand","","","","tol_peg_2","3905","3905","0","[[3,0,0],[2,0],[0]]","1","[[3,0,0],[1,0],[2]]","3","0","","","","","","3","","","","","","","","",""
"","","","","","single-stim-button","75","179993","0.0-2.0-19.0-1.0","5b476e05f2c50b0001a70e60","F1","batch6","","584","tol_toboard","","","","tol_peg_1","584","584","0","[[3,1,0],[2,0],[0]]","1","[[3,0,0],[1,0],[2]]","3","0","","","","","","3","","","","","","","","",""
"","","","","","single-stim-button","76","180597","0.0-2.0-19.1-0.1","5b476e05f2c50b0001a70e60","F1","batch6","","603","tol_tohand","","","","tol_peg_2","603","603","0","[[3,1,0],[0,0],[0]]","2","[[3,0,0],[1,0],[2]]","3","0","","","","","","3","","","","","","","","",""
"","","","","","single-stim-button","77","181257","0.0-2.0-19.1-1.1","5b476e05f2c50b0001a70e60","F1","batch6","","659","tol_toboard","","","","tol_peg_3","659","659","0","[[3,1,0],[0,0],[2]]","2","[[3,0,0],[1,0],[2]]","3","0","","","","","","3","","","","","","","","",""
"","","","","","single-stim-button","78","181838","0.0-2.0-19.2-0.2","5b476e05f2c50b0001a70e60","F1","batch6","","580","tol_tohand","","","","tol_peg_1","580","580","0","[[3,0,0],[0,0],[2]]","3","[[3,0,0],[1,0],[2]]","3","0","","","","","","3","","","","","","","","",""
"","","","","","single-stim-button","79","182410","0.0-2.0-19.2-1.2","5b476e05f2c50b0001a70e60","F1","batch6","","571","tol_toboard","","","","tol_peg_2","571","571","0","[[3,0,0],[1,0],[2]]","3","[[3,0,0],[1,0],[2]]","3","0","","","","","","3","","","","","","","","",""
"","","","","","poldrack-single-stim","80","183414","0.0-2.0-20.0","5b476e05f2c50b0001a70e60","F1","batch6","","-1","tol_feedback","","","true","","1000","1000","500","","","","","","-1","none","true","3905","5088","","","","","","","","","",""
"","","","","","html-button-response","81","183943","0.0-2.0-21.0","5b476e05f2c50b0001a70e60","F1","batch6","","528","tol_trial_num","<div class = centerbox><p class = center-block-text>problem <strong>5</strong> out of 25 problems</p></div>","0","","","","","","","","","","","","","","","","","","","","","","","","",""
"","","","","","single-stim-button","82","199298","0.0-2.0-22.0-0.0","5b476e05f2c50b0001a70e60","F1","batch6","","15354","tol_tohand","","","","tol_peg_1","15354","15354","0","[[0,0,0],[2,0],[3]]","1","[[0,0,0],[1,2],[3]]","4","0","","","","","","7","","","","","","","","",""
"","","","","","single-stim-button","83","200815","0.0-2.0-22.0-1.0","5b476e05f2c50b0001a70e60","F1","batch6","","1516","tol_toboard","","","","tol_peg_2","1516","1516","0","[[0,0,0],[2,1],[3]]","1","[[0,0,0],[1,2],[3]]","4","0","","","","","","7","","","","","","","","",""
"","","","","","single-stim-button","84","202863","0.0-2.0-22.1-0.1","5b476e05f2c50b0001a70e60","F1","batch6","","2047","tol_tohand","","","","tol_peg_3","2047","2047","0","[[0,0,0],[2,1],[0]]","2","[[0,0,0],[1,2],[3]]","4","0","","","","","","7","","","","","","","","",""
"","","","","","single-stim-button","85","203824","0.0-2.0-22.1-1.1","5b476e05f2c50b0001a70e60","F1","batch6","","960","tol_toboard","","","","tol_peg_1","960","960","0","[[3,0,0],[2,1],[0]]","2","[[0,0,0],[1,2],[3]]","4","0","","","","","","7","","","","","","","","",""
"","","","","","single-stim-button","86","204368","0.0-2.0-22.2-0.2","5b476e05f2c50b0001a70e60","F1","batch6","","544","tol_tohand","","","","tol_peg_2","544","544","0","[[3,0,0],[2,0],[0]]","3","[[0,0,0],[1,2],[3]]","4","0","","","","","","7","","","","","","","","",""
"","","","","","single-stim-button","87","205486","0.0-2.0-22.2-1.2","5b476e05f2c50b0001a70e60","F1","batch6","","1118","tol_toboard","","","","tol_peg_3","1118","1118","0","[[3,0,0],[2,0],[1]]","3","[[0,0,0],[1,2],[3]]","4","0","","","","","","7","","","","","","","","",""
"","","","","","single-stim-button","88","206354","0.0-2.0-22.3-0.3","5b476e05f2c50b0001a70e60","F1","batch6","","867","tol_tohand","","","","tol_peg_1","867","867","0","[[0,0,0],[2,0],[1]]","4","[[0,0,0],[1,2],[3]]","4","0","","","","","","7","","","","","","","","",""
"","","","","","single-stim-button","89","207583","0.0-2.0-22.3-1.3","5b476e05f2c50b0001a70e60","F1","batch6","","1229","tol_toboard","","","","tol_peg_2","1229","1229","0","[[0,0,0],[2,3],[1]]","4","[[0,0,0],[1,2],[3]]","4","0","","","","","","7","","","","","","","","",""
"","","","","","single-stim-button","90","210464","0.0-2.0-22.4-0.4","5b476e05f2c50b0001a70e60","F1","batch6","","2880","tol_tohand","","","","tol_peg_2","2880","2880","0","[[0,0,0],[2,0],[1]]","5","[[0,0,0],[1,2],[3]]","4","0","","","","","","7","","","","","","","","",""
"","","","","","single-stim-button","91","211088","0.0-2.0-22.4-1.4","5b476e05f2c50b0001a70e60","F1","batch6","","623","tol_toboard","","","","tol_peg_1","623","623","0","[[3,0,0],[2,0],[1]]","5","[[0,0,0],[1,2],[3]]","4","0","","","","","","7","","","","","","","","",""
"","","","","","single-stim-button","92","212873","0.0-2.0-22.5-0.5","5b476e05f2c50b0001a70e60","F1","batch6","","1784","tol_tohand","","","","tol_peg_2","1784","1784","0","[[3,0,0],[0,0],[1]]","6","[[0,0,0],[1,2],[3]]","4","0","","","","","","7","","","","","","","","",""
"","","","","","single-stim-button","93","213682","0.0-2.0-22.5-1.5","5b476e05f2c50b0001a70e60","F1","batch6","","809","tol_toboard","","","","tol_peg_1","809","809","0","[[3,2,0],[0,0],[1]]","6","[[0,0,0],[1,2],[3]]","4","0","","","","","","7","","","","","","","","",""
"","","","","","single-stim-button","94","214666","0.0-2.0-22.6-0.6","5b476e05f2c50b0001a70e60","F1","batch6","","983","tol_tohand","","","","tol_peg_3","983","983","0","[[3,2,0],[0,0],[0]]","7","[[0,0,0],[1,2],[3]]","4","0","","","","","","7","","","","","","","","",""
"","","","","","single-stim-button","95","215327","0.0-2.0-22.6-1.6","5b476e05f2c50b0001a70e60","F1","batch6","","660","tol_toboard","","","","tol_peg_2","660","660","0","[[3,2,0],[1,0],[0]]","7","[[0,0,0],[1,2],[3]]","4","0","","","","","","7","","","","","","","","",""
"","","","","","single-stim-button","96","216267","0.0-2.0-22.7-0.7","5b476e05f2c50b0001a70e60","F1","batch6","","940","tol_tohand","","","","tol_peg_1","940","940","0","[[3,0,0],[1,0],[0]]","8","[[0,0,0],[1,2],[3]]","4","0","","","","","","7","","","","","","","","",""
"","","","","","single-stim-button","97","216939","0.0-2.0-22.7-1.7","5b476e05f2c50b0001a70e60","F1","batch6","","672","tol_toboard","","","","tol_peg_2","672","672","0","[[3,0,0],[1,2],[0]]","8","[[0,0,0],[1,2],[3]]","4","0","","","","","","7","","","","","","","","",""
"","","","","","single-stim-button","98","217468","0.0-2.0-22.8-0.8","5b476e05f2c50b0001a70e60","F1","batch6","","528","tol_tohand","","","","tol_peg_1","528","528","0","[[0,0,0],[1,2],[0]]","9","[[0,0,0],[1,2],[3]]","4","0","","","","","","7","","","","","","","","",""
"","","","","","single-stim-button","99","217936","0.0-2.0-22.8-1.8","5b476e05f2c50b0001a70e60","F1","batch6","","468","tol_toboard","","","","tol_peg_3","468","468","0","[[0,0,0],[1,2],[3]]","9","[[0,0,0],[1,2],[3]]","4","0","","","","","","7","","","","","","","","",""
"","","","","","poldrack-single-stim","100","218941","0.0-2.0-23.0","5b476e05f2c50b0001a70e60","F1","batch6","","-1","tol_feedback","","","true","","1000","1000","500","","","","","","-1","none","true","15354","25927","","","","","","","","","",""
"","","","","","html-button-response","101","219425","0.0-2.0-24.0","5b476e05f2c50b0001a70e60","F1","batch6","","482.5","tol_trial_num","<div class = centerbox><p class = center-block-text>problem <strong>6</strong> out of 25 problems</p></div>","0","","","","","","","","","","","","","","","","","","","","","","","","",""
"","","","","","single-stim-button","102","228309","0.0-2.0-25.0-0.0","5b476e05f2c50b0001a70e60","F1","batch6","","8884","tol_tohand","","","","tol_peg_3","8884","8884","0","[[0,0,0],[1,2],[0]]","1","[[1,0,0],[2,3],[0]]","5","0","","","","","","6","","","","","","","","",""
"","","","","","single-stim-button","103","229206","0.0-2.0-25.0-1.0","5b476e05f2c50b0001a70e60","F1","batch6","","896","tol_toboard","","","","tol_peg_1","896","896","0","[[3,0,0],[1,2],[0]]","1","[[1,0,0],[2,3],[0]]","5","0","","","","","","6","","","","","","","","",""
"","","","","","single-stim-button","104","229682","0.0-2.0-25.1-0.1","5b476e05f2c50b0001a70e60","F1","batch6","","476","tol_tohand","","","","tol_peg_2","476","476","0","[[3,0,0],[1,0],[0]]","2","[[1,0,0],[2,3],[0]]","5","0","","","","","","6","","","","","","","","",""
"","","","","","single-stim-button","105","230366","0.0-2.0-25.1-1.1","5b476e05f2c50b0001a70e60","F1","batch6","","683","tol_toboard","","","","tol_peg_3","683","683","0","[[3,0,0],[1,0],[2]]","2","[[1,0,0],[2,3],[0]]","5","0","","","","","","6","","","","","","","","",""
"","","","","","single-stim-button","106","231091","0.0-2.0-25.2-0.2","5b476e05f2c50b0001a70e60","F1","batch6","","724","tol_tohand","","","","tol_peg_2","724","724","0","[[3,0,0],[0,0],[2]]","3","[[1,0,0],[2,3],[0]]","5","0","","","","","","6","","","","","","","","",""
"","","","","","single-stim-button","107","232099","0.0-2.0-25.2-1.2","5b476e05f2c50b0001a70e60","F1","batch6","","1008","tol_toboard","","","","tol_peg_1","1008","1008","0","[[3,1,0],[0,0],[2]]","3","[[1,0,0],[2,3],[0]]","5","0","","","","","","6","","","","","","","","",""
"","","","","","single-stim-button","108","232840","0.0-2.0-25.3-0.3","5b476e05f2c50b0001a70e60","F1","batch6","","740","tol_tohand","","","","tol_peg_3","740","740","0","[[3,1,0],[0,0],[0]]","4","[[1,0,0],[2,3],[0]]","5","0","","","","","","6","","","","","","","","",""
"","","","","","single-stim-button","109","233460","0.0-2.0-25.3-1.3","5b476e05f2c50b0001a70e60","F1","batch6","","620","tol_toboard","","","","tol_peg_2","620","620","0","[[3,1,0],[2,0],[0]]","4","[[1,0,0],[2,3],[0]]","5","0","","","","","","6","","","","","","","","",""
"","","","","","single-stim-button","110","234640","0.0-2.0-25.4-0.4","5b476e05f2c50b0001a70e60","F1","batch6","","1179","tol_tohand","","","","tol_peg_1","1179","1179","0","[[3,0,0],[2,0],[0]]","5","[[1,0,0],[2,3],[0]]","5","0","","","","","","6","","","","","","","","",""
"","","","","","single-stim-button","111","235345","0.0-2.0-25.4-1.4","5b476e05f2c50b0001a70e60","F1","batch6","","705","tol_toboard","","","","tol_peg_3","705","705","0","[[3,0,0],[2,0],[1]]","5","[[1,0,0],[2,3],[0]]","5","0","","","","","","6","","","","","","","","",""
"","","","","","single-stim-button","112","235973","0.0-2.0-25.5-0.5","5b476e05f2c50b0001a70e60","F1","batch6","","627","tol_tohand","","","","tol_peg_1","627","627","0","[[0,0,0],[2,0],[1]]","6","[[1,0,0],[2,3],[0]]","5","0","","","","","","6","","","","","","","","",""
"","","","","","single-stim-button","113","236401","0.0-2.0-25.5-1.5","5b476e05f2c50b0001a70e60","F1","batch6","","427","tol_toboard","","","","tol_peg_2","427","427","0","[[0,0,0],[2,3],[1]]","6","[[1,0,0],[2,3],[0]]","5","0","","","","","","6","","","","","","","","",""
"","","","","","single-stim-button","114","236970","0.0-2.0-25.6-0.6","5b476e05f2c50b0001a70e60","F1","batch6","","569","tol_tohand","","","","tol_peg_3","569","569","0","[[0,0,0],[2,3],[0]]","7","[[1,0,0],[2,3],[0]]","5","0","","","","","","6","","","","","","","","",""
"","","","","","single-stim-button","115","237470","0.0-2.0-25.6-1.6","5b476e05f2c50b0001a70e60","F1","batch6","","499","tol_toboard","","","","tol_peg_1","499","499","0","[[1,0,0],[2,3],[0]]","7","[[1,0,0],[2,3],[0]]","5","0","","","","","","6","","","","","","","","",""
"","","","","","poldrack-single-stim","116","238492","0.0-2.0-26.0","5b476e05f2c50b0001a70e60","F1","batch6","","-1","tol_feedback","","","true","","1000","1000","500","","","","","","-1","none","true","8884","13199","","","","","","","","","",""
"","","","","","html-button-response","117","239063","0.0-2.0-27.0","5b476e05f2c50b0001a70e60","F1","batch6","","569.6999998092651","tol_trial_num","<div class = centerbox><p class = center-block-text>problem <strong>7</strong> out of 25 problems</p></div>","0","","","","","","","","","","","","","","","","","","","","","","","","",""
"","","","","","single-stim-button","118","244598","0.0-2.0-28.0-0.0","5b476e05f2c50b0001a70e60","F1","batch6","","5535","tol_tohand","","","","tol_peg_3","5535","5535","0","[[2,1,0],[0,0],[0]]","1","[[1,2,0],[3,0],[0]]","6","0","","","","","","5","","","","","","","","",""
"","","","","","single-stim-button","119","245274","0.0-2.0-28.0-1.0","5b476e05f2c50b0001a70e60","F1","batch6","","675","tol_toboard","","","","tol_peg_2","675","675","0","[[2,1,0],[3,0],[0]]","1","[[1,2,0],[3,0],[0]]","6","0","","","","","","5","","","","","","","","",""
"","","","","","single-stim-button","120","246659","0.0-2.0-28.1-0.1","5b476e05f2c50b0001a70e60","F1","batch6","","1384","tol_tohand","","","","tol_peg_1","1384","1384","0","[[2,0,0],[3,0],[0]]","2","[[1,2,0],[3,0],[0]]","6","0","","","","","","5","","","","","","","","",""
"","","","","","single-stim-button","121","249408","0.0-2.0-28.1-1.1","5b476e05f2c50b0001a70e60","F1","batch6","","2749","tol_toboard","","","","tol_peg_3","2749","2749","0","[[2,0,0],[3,0],[1]]","2","[[1,2,0],[3,0],[0]]","6","0","","","","","","5","","","","","","","","",""
"","","","","","single-stim-button","122","250064","0.0-2.0-28.2-0.2","5b476e05f2c50b0001a70e60","F1","batch6","","655","tol_tohand","","","","tol_peg_1","655","655","0","[[0,0,0],[3,0],[1]]","3","[[1,2,0],[3,0],[0]]","6","0","","","","","","5","","","","","","","","",""
"","","","","","single-stim-button","123","251006","0.0-2.0-28.2-1.2","5b476e05f2c50b0001a70e60","F1","batch6","","941","tol_toboard","","","","tol_peg_2","941","941","0","[[0,0,0],[3,2],[1]]","3","[[1,2,0],[3,0],[0]]","6","0","","","","","","5","","","","","","","","",""
"","","","","","single-stim-button","124","251689","0.0-2.0-28.3-0.3","5b476e05f2c50b0001a70e60","F1","batch6","","682","tol_tohand","","","","tol_peg_3","682","682","0","[[0,0,0],[3,2],[0]]","4","[[1,2,0],[3,0],[0]]","6","0","","","","","","5","","","","","","","","",""
"","","","","","single-stim-button","125","252277","0.0-2.0-28.3-1.3","5b476e05f2c50b0001a70e60","F1","batch6","","588","tol_toboard","","","","tol_peg_1","588","588","0","[[1,0,0],[3,2],[0]]","4","[[1,2,0],[3,0],[0]]","6","0","","","","","","5","","","","","","","","",""
"","","","","","single-stim-button","126","253098","0.0-2.0-28.4-0.4","5b476e05f2c50b0001a70e60","F1","batch6","","820","tol_tohand","","","","tol_peg_2","820","820","0","[[1,0,0],[3,0],[0]]","5","[[1,2,0],[3,0],[0]]","6","0","","","","","","5","","","","","","","","",""
"","","","","","single-stim-button","127","253886","0.0-2.0-28.4-1.4","5b476e05f2c50b0001a70e60","F1","batch6","","788","tol_toboard","","","","tol_peg_1","788","788","0","[[1,2,0],[3,0],[0]]","5","[[1,2,0],[3,0],[0]]","6","0","","","","","","5","","","","","","","","",""
"","","","","","poldrack-single-stim","128","254894","0.0-2.0-29.0","5b476e05f2c50b0001a70e60","F1","batch6","","-1","tol_feedback","","","true","","1000","1000","500","","","","","","-1","none","true","5535","9076","","","","","","","","","",""
"","","","","","html-button-response","129","255455","0.0-2.0-30.0","5b476e05f2c50b0001a70e60","F1","batch6","","559.4000000953674","tol_trial_num","<div class = centerbox><p class = center-block-text>problem <strong>8</strong> out of 25 problems</p></div>","0","","","","","","","","","","","","","","","","","","","","","","","","",""
"","","","","","single-stim-button","130","259569","0.0-2.0-31.0-0.0","5b476e05f2c50b0001a70e60","F1","batch6","","4113","tol_tohand","","","","tol_peg_3","4113","4113","0","[[0,0,0],[2,3],[0]]","1","[[1,2,0],[3,0],[0]]","7","0","","","","","","4","","","","","","","","",""
"","","","","","single-stim-button","131","260782","0.0-2.0-31.0-1.0","5b476e05f2c50b0001a70e60","F1","batch6","","1212","tol_toboard","","","","tol_peg_1","1212","1212","0","[[1,0,0],[2,3],[0]]","1","[[1,2,0],[3,0],[0]]","7","0","","","","","","4","","","","","","","","",""
"","","","","","single-stim-button","132","261482","0.0-2.0-31.1-0.1","5b476e05f2c50b0001a70e60","F1","batch6","","699","tol_tohand","","","","tol_peg_2","699","699","0","[[1,0,0],[2,0],[0]]","2","[[1,2,0],[3,0],[0]]","7","0","","","","","","4","","","","","","","","",""
"","","","","","single-stim-button","133","262239","0.0-2.0-31.1-1.1","5b476e05f2c50b0001a70e60","F1","batch6","","756","tol_toboard","","","","tol_peg_3","756","756","0","[[1,0,0],[2,0],[3]]","2","[[1,2,0],[3,0],[0]]","7","0","","","","","","4","","","","","","","","",""
"","","","","","single-stim-button","134","262683","0.0-2.0-31.2-0.2","5b476e05f2c50b0001a70e60","F1","batch6","","443","tol_tohand","","","","tol_peg_2","443","443","0","[[1,0,0],[0,0],[3]]","3","[[1,2,0],[3,0],[0]]","7","0","","","","","","4","","","","","","","","",""
"","","","","","single-stim-button","135","263179","0.0-2.0-31.2-1.2","5b476e05f2c50b0001a70e60","F1","batch6","","495","tol_toboard","","","","tol_peg_1","495","495","0","[[1,2,0],[0,0],[3]]","3","[[1,2,0],[3,0],[0]]","7","0","","","","","","4","","","","","","","","",""
"","","","","","single-stim-button","136","263702","0.0-2.0-31.3-0.3","5b476e05f2c50b0001a70e60","F1","batch6","","523","tol_tohand","","","","tol_peg_3","523","523","0","[[1,2,0],[0,0],[0]]","4","[[1,2,0],[3,0],[0]]","7","0","","","","","","4","","","","","","","","",""
"","","","","","single-stim-button","137","264367","0.0-2.0-31.3-1.3","5b476e05f2c50b0001a70e60","F1","batch6","","664","tol_toboard","","","","tol_peg_2","664","664","0","[[1,2,0],[3,0],[0]]","4","[[1,2,0],[3,0],[0]]","7","0","","","","","","4","","","","","","","","",""
"","","","","","poldrack-single-stim","138","265384","0.0-2.0-32.0","5b476e05f2c50b0001a70e60","F1","batch6","","-1","tol_feedback","","","true","","1000","1000","500","","","","","","-1","none","true","4113","5778","","","","","","","","","",""
"","","","","","html-button-response","139","265877","0.0-2.0-33.0","5b476e05f2c50b0001a70e60","F1","batch6","","491.30000019073486","tol_trial_num","<div class = centerbox><p class = center-block-text>problem <strong>9</strong> out of 25 problems</p></div>","0","","","","","","","","","","","","","","","","","","","","","","","","",""
"","","","","","single-stim-button","140","274220","0.0-2.0-34.0-0.0","5b476e05f2c50b0001a70e60","F1","batch6","","8343","tol_tohand","","","","tol_peg_3","8343","8343","0","[[3,2,0],[0,0],[0]]","1","[[2,1,0],[3,0],[0]]","8","0","","","","","","6","","","","","","","","",""
"","","","","","single-stim-button","141","276990","0.0-2.0-34.0-1.0","5b476e05f2c50b0001a70e60","F1","batch6","","2768","tol_toboard","","","","tol_peg_2","2768","2768","0","[[3,2,0],[1,0],[0]]","1","[[2,1,0],[3,0],[0]]","8","0","","","","","","6","","","","","","","","",""
"","","","","","single-stim-button","142","279027","0.0-2.0-34.1-0.1","5b476e05f2c50b0001a70e60","F1","batch6","","2036","tol_tohand","","","","tol_peg_1","2036","2036","0","[[3,0,0],[1,0],[0]]","2","[[2,1,0],[3,0],[0]]","8","0","","","","","","6","","","","","","","","",""
"","","","","","single-stim-button","143","280572","0.0-2.0-34.1-1.1","5b476e05f2c50b0001a70e60","F1","batch6","","1545","tol_toboard","","","","tol_peg_2","1545","1545","0","[[3,0,0],[1,2],[0]]","2","[[2,1,0],[3,0],[0]]","8","0","","","","","","6","","","","","","","","",""
"","","","","","single-stim-button","144","281284","0.0-2.0-34.2-0.2","5b476e05f2c50b0001a70e60","F1","batch6","","712","tol_tohand","","","","tol_peg_1","712","712","0","[[0,0,0],[1,2],[0]]","3","[[2,1,0],[3,0],[0]]","8","0","","","","","","6","","","","","","","","",""
"","","","","","single-stim-button","145","281933","0.0-2.0-34.2-1.2","5b476e05f2c50b0001a70e60","F1","batch6","","648","tol_toboard","","","","tol_peg_3","648","648","0","[[0,0,0],[1,2],[3]]","3","[[2,1,0],[3,0],[0]]","8","0","","","","","","6","","","","","","","","",""
"","","","","","single-stim-button","146","282525","0.0-2.0-34.3-0.3","5b476e05f2c50b0001a70e60","F1","batch6","","591","tol_tohand","","","","tol_peg_2","591","591","0","[[0,0,0],[1,0],[3]]","4","[[2,1,0],[3,0],[0]]","8","0","","","","","","6","","","","","","","","",""
"","","","","","single-stim-button","147","283433","0.0-2.0-34.3-1.3","5b476e05f2c50b0001a70e60","F1","batch6","","907","tol_toboard","","","","tol_peg_1","907","907","0","[[2,0,0],[1,0],[3]]","4","[[2,1,0],[3,0],[0]]","8","0","","","","","","6","","","","","","","","",""
"","","","","","single-stim-button","148","284086","0.0-2.0-34.4-0.4","5b476e05f2c50b0001a70e60","F1","batch6","","652","tol_tohand","","","","tol_peg_2","652","652","0","[[2,0,0],[0,0],[3]]","5","[[2,1,0],[3,0],[0]]","8","0","","","","","","6","","","","","","","","",""
"","","","","","single-stim-button","149","284722","0.0-2.0-34.4-1.4","5b476e05f2c50b0001a70e60","F1","batch6","","635","tol_toboard","","","","tol_peg_1","635","635","0","[[2,1,0],[0,0],[3]]","5","[[2,1,0],[3,0],[0]]","8","0","","","","","","6","","","","","","","","",""
"","","","","","single-stim-button","150","285390","0.0-2.0-34.5-0.5","5b476e05f2c50b0001a70e60","F1","batch6","","667","tol_tohand","","","","tol_peg_3","667","667","0","[[2,1,0],[0,0],[0]]","6","[[2,1,0],[3,0],[0]]","8","0","","","","","","6","","","","","","","","",""
"","","","","","single-stim-button","151","285987","0.0-2.0-34.5-1.5","5b476e05f2c50b0001a70e60","F1","batch6","","596","tol_toboard","","","","tol_peg_2","596","596","0","[[2,1,0],[3,0],[0]]","6","[[2,1,0],[3,0],[0]]","8","0","","","","","","6","","","","","","","","",""
"","","","","","poldrack-single-stim","152","286999","0.0-2.0-35.0","5b476e05f2c50b0001a70e60","F1","batch6","","-1","tol_feedback","","","true","","1000","1000","500","","","","","","-1","none","true","8343","13001","","","","","","","","","",""
"","","","","","html-button-response","153","287379","0.0-2.0-36.0","5b476e05f2c50b0001a70e60","F1","batch6","","378.30000019073486","tol_trial_num","<div class = centerbox><p class = center-block-text>problem <strong>10</strong> out of 25 problems</p></div>","0","","","","","","","","","","","","","","","","","","","","","","","","",""
"","","","","","single-stim-button","154","294574","0.0-2.0-37.0-0.0","5b476e05f2c50b0001a70e60","F1","batch6","","7195","tol_tohand","","","","tol_peg_2","7195","7195","0","[[3,0,0],[0,0],[2]]","1","[[3,0,0],[2,1],[0]]","9","0","","","","","","3","","","","","","","","",""
"","","","","","single-stim-button","155","295455","0.0-2.0-37.0-1.0","5b476e05f2c50b0001a70e60","F1","batch6","","879","tol_toboard","","","","tol_peg_1","879","879","0","[[3,1,0],[0,0],[2]]","1","[[3,0,0],[2,1],[0]]","9","0","","","","","","3","","","","","","","","",""
"","","","","","single-stim-button","156","296344","0.0-2.0-37.1-0.1","5b476e05f2c50b0001a70e60","F1","batch6","","888","tol_tohand","","","","tol_peg_3","888","888","0","[[3,1,0],[0,0],[0]]","2","[[3,0,0],[2,1],[0]]","9","0","","","","","","3","","","","","","","","",""
"","","","","","single-stim-button","157","296936","0.0-2.0-37.1-1.1","5b476e05f2c50b0001a70e60","F1","batch6","","592","tol_toboard","","","","tol_peg_2","592","592","0","[[3,1,0],[2,0],[0]]","2","[[3,0,0],[2,1],[0]]","9","0","","","","","","3","","","","","","","","",""
"","","","","","single-stim-button","158","297552","0.0-2.0-37.2-0.2","5b476e05f2c50b0001a70e60","F1","batch6","","616","tol_tohand","","","","tol_peg_1","616","616","0","[[3,0,0],[2,0],[0]]","3","[[3,0,0],[2,1],[0]]","9","0","","","","","","3","","","","","","","","",""
"","","","","","single-stim-button","159","298129","0.0-2.0-37.2-1.2","5b476e05f2c50b0001a70e60","F1","batch6","","576","tol_toboard","","","","tol_peg_2","576","576","0","[[3,0,0],[2,1],[0]]","3","[[3,0,0],[2,1],[0]]","9","0","","","","","","3","","","","","","","","",""
"","","","","","poldrack-single-stim","160","299130","0.0-2.0-38.0","5b476e05f2c50b0001a70e60","F1","batch6","","-1","tol_feedback","","","true","","1000","1000","500","","","","","","-1","none","true","7195","8699","","","","","","","","","",""
"","","","","","html-button-response","161","299749","0.0-2.0-39.0","5b476e05f2c50b0001a70e60","F1","batch6","","617.9000000953674","tol_trial_num","<div class = centerbox><p class = center-block-text>problem <strong>11</strong> out of 25 problems</p></div>","0","","","","","","","","","","","","","","","","","","","","","","","","",""
"","","","","","single-stim-button","162","303588","0.0-2.0-40.0-0.0","5b476e05f2c50b0001a70e60","F1","batch6","","3837","tol_tohand","","","","tol_peg_2","3837","3837","0","[[1,2,0],[0,0],[0]]","1","[[2,0,0],[1,3],[0]]","10","0","","","","","","6","","","","","","","","",""
"","","","","","single-stim-button","163","304816","0.0-2.0-40.0-1.0","5b476e05f2c50b0001a70e60","F1","batch6","","1227","tol_toboard","","","","tol_peg_3","1227","1227","0","[[1,2,0],[0,0],[3]]","1","[[2,0,0],[1,3],[0]]","10","0","","","","","","6","","","","","","","","",""
"","","","","","single-stim-button","164","307109","0.0-2.0-40.1-0.1","5b476e05f2c50b0001a70e60","F1","batch6","","2293","tol_tohand","","","","tol_peg_3","2293","2293","0","[[1,2,0],[0,0],[0]]","2","[[2,0,0],[1,3],[0]]","10","0","","","","","","6","","","","","","","","",""
"","","","","","single-stim-button","165","307834","0.0-2.0-40.1-1.1","5b476e05f2c50b0001a70e60","F1","batch6","","724","tol_toboard","","","","tol_peg_2","724","724","0","[[1,2,0],[3,0],[0]]","2","[[2,0,0],[1,3],[0]]","10","0","","","","","","6","","","","","","","","",""
"","","","","","single-stim-button","166","308642","0.0-2.0-40.2-0.2","5b476e05f2c50b0001a70e60","F1","batch6","","808","tol_tohand","","","","tol_peg_1","808","808","0","[[1,0,0],[3,0],[0]]","3","[[2,0,0],[1,3],[0]]","10","0","","","","","","6","","","","","","","","",""
"","","","","","single-stim-button","167","313473","0.0-2.0-40.2-1.2","5b476e05f2c50b0001a70e60","F1","batch6","","4830","tol_toboard","","","","tol_peg_3","4830","4830","0","[[1,0,0],[3,0],[2]]","3","[[2,0,0],[1,3],[0]]","10","0","","","","","","6","","","","","","","","",""
"","","","","","single-stim-button","168","314272","0.0-2.0-40.3-0.3","5b476e05f2c50b0001a70e60","F1","batch6","","799","tol_tohand","","","","tol_peg_1","799","799","0","[[0,0,0],[3,0],[2]]","4","[[2,0,0],[1,3],[0]]","10","0","","","","","","6","","","","","","","","",""
"","","","","","single-stim-button","169","314821","0.0-2.0-40.3-1.3","5b476e05f2c50b0001a70e60","F1","batch6","","548","tol_toboard","","","","tol_peg_2","548","548","0","[[0,0,0],[3,1],[2]]","4","[[2,0,0],[1,3],[0]]","10","0","","","","","","6","","","","","","","","",""
"","","","","","single-stim-button","170","315266","0.0-2.0-40.4-0.4","5b476e05f2c50b0001a70e60","F1","batch6","","444","tol_tohand","","","","tol_peg_3","444","444","0","[[0,0,0],[3,1],[0]]","5","[[2,0,0],[1,3],[0]]","10","0","","","","","","6","","","","","","","","",""
"","","","","","single-stim-button","171","316026","0.0-2.0-40.4-1.4","5b476e05f2c50b0001a70e60","F1","batch6","","759","tol_toboard","","","","tol_peg_1","759","759","0","[[2,0,0],[3,1],[0]]","5","[[2,0,0],[1,3],[0]]","10","0","","","","","","6","","","","","","","","",""
"","","","","","single-stim-button","172","317259","0.0-2.0-40.5-0.5","5b476e05f2c50b0001a70e60","F1","batch6","","1232","tol_tohand","","","","tol_peg_2","1232","1232","0","[[2,0,0],[3,0],[0]]","6","[[2,0,0],[1,3],[0]]","10","0","","","","","","6","","","","","","","","",""
"","","","","","single-stim-button","173","317995","0.0-2.0-40.5-1.5","5b476e05f2c50b0001a70e60","F1","batch6","","735","tol_toboard","","","","tol_peg_1","735","735","0","[[2,1,0],[3,0],[0]]","6","[[2,0,0],[1,3],[0]]","10","0","","","","","","6","","","","","","","","",""
"","","","","","single-stim-button","174","318811","0.0-2.0-40.6-0.6","5b476e05f2c50b0001a70e60","F1","batch6","","815","tol_tohand","","","","tol_peg_2","815","815","0","[[2,1,0],[0,0],[0]]","7","[[2,0,0],[1,3],[0]]","10","0","","","","","","6","","","","","","","","",""
"","","","","","single-stim-button","175","319288","0.0-2.0-40.6-1.6","5b476e05f2c50b0001a70e60","F1","batch6","","476","tol_toboard","","","","tol_peg_3","476","476","0","[[2,1,0],[0,0],[3]]","7","[[2,0,0],[1,3],[0]]","10","0","","","","","","6","","","","","","","","",""
"","","","","","single-stim-button","176","320304","0.0-2.0-40.7-0.7","5b476e05f2c50b0001a70e60","F1","batch6","","1015","tol_tohand","","","","tol_peg_1","1015","1015","0","[[2,0,0],[0,0],[3]]","8","[[2,0,0],[1,3],[0]]","10","0","","","","","","6","","","","","","","","",""
"","","","","","single-stim-button","177","320960","0.0-2.0-40.7-1.7","5b476e05f2c50b0001a70e60","F1","batch6","","655","tol_toboard","","","","tol_peg_2","655","655","0","[[2,0,0],[1,0],[3]]","8","[[2,0,0],[1,3],[0]]","10","0","","","","","","6","","","","","","","","",""
"","","","","","single-stim-button","178","321421","0.0-2.0-40.8-0.8","5b476e05f2c50b0001a70e60","F1","batch6","","460","tol_tohand","","","","tol_peg_3","460","460","0","[[2,0,0],[1,0],[0]]","9","[[2,0,0],[1,3],[0]]","10","0","","","","","","6","","","","","","","","",""
"","","","","","single-stim-button","179","321909","0.0-2.0-40.8-1.8","5b476e05f2c50b0001a70e60","F1","batch6","","488","tol_toboard","","","","tol_peg_2","488","488","0","[[2,0,0],[1,3],[0]]","9","[[2,0,0],[1,3],[0]]","10","0","","","","","","6","","","","","","","","",""
"","","","","","poldrack-single-stim","180","322925","0.0-2.0-41.0","5b476e05f2c50b0001a70e60","F1","batch6","","-1","tol_feedback","","","true","","1000","1000","500","","","","","","-1","none","true","3837","11703","","","","","","","","","",""
"","","","","","html-button-response","181","323482","0.0-2.0-42.0","5b476e05f2c50b0001a70e60","F1","batch6","","554.9000000953674","tol_trial_num","<div class = centerbox><p class = center-block-text>problem <strong>12</strong> out of 25 problems</p></div>","0","","","","","","","","","","","","","","","","","","","","","","","","",""
"","","","","","single-stim-button","182","328876","0.0-2.0-43.0-0.0","5b476e05f2c50b0001a70e60","F1","batch6","","5393","tol_tohand","","","","tol_peg_1","5393","5393","0","[[1,0,0],[3,0],[0]]","1","[[2,3,0],[0,0],[1]]","11","0","","","","","","4","","","","","","","","",""
"","","","","","single-stim-button","183","329625","0.0-2.0-43.0-1.0","5b476e05f2c50b0001a70e60","F1","batch6","","749","tol_toboard","","","","tol_peg_2","749","749","0","[[1,0,0],[3,2],[0]]","1","[[2,3,0],[0,0],[1]]","11","0","","","","","","4","","","","","","","","",""
"","","","","","single-stim-button","184","330153","0.0-2.0-43.1-0.1","5b476e05f2c50b0001a70e60","F1","batch6","","527","tol_tohand","","","","tol_peg_1","527","527","0","[[0,0,0],[3,2],[0]]","2","[[2,3,0],[0,0],[1]]","11","0","","","","","","4","","","","","","","","",""
"","","","","","single-stim-button","185","330917","0.0-2.0-43.1-1.1","5b476e05f2c50b0001a70e60","F1","batch6","","764","tol_toboard","","","","tol_peg_3","764","764","0","[[0,0,0],[3,2],[1]]","2","[[2,3,0],[0,0],[1]]","11","0","","","","","","4","","","","","","","","",""
"","","","","","single-stim-button","186","332082","0.0-2.0-43.2-0.2","5b476e05f2c50b0001a70e60","F1","batch6","","1164","tol_tohand","","","","tol_peg_2","1164","1164","0","[[0,0,0],[3,0],[1]]","3","[[2,3,0],[0,0],[1]]","11","0","","","","","","4","","","","","","","","",""
"","","","","","single-stim-button","187","332674","0.0-2.0-43.2-1.2","5b476e05f2c50b0001a70e60","F1","batch6","","591","tol_toboard","","","","tol_peg_1","591","591","0","[[2,0,0],[3,0],[1]]","3","[[2,3,0],[0,0],[1]]","11","0","","","","","","4","","","","","","","","",""
"","","","","","single-stim-button","188","333363","0.0-2.0-43.3-0.3","5b476e05f2c50b0001a70e60","F1","batch6","","689","tol_tohand","","","","tol_peg_2","689","689","0","[[2,0,0],[0,0],[1]]","4","[[2,3,0],[0,0],[1]]","11","0","","","","","","4","","","","","","","","",""
"","","","","","single-stim-button","189","333887","0.0-2.0-43.3-1.3","5b476e05f2c50b0001a70e60","F1","batch6","","524","tol_toboard","","","","tol_peg_1","524","524","0","[[2,3,0],[0,0],[1]]","4","[[2,3,0],[0,0],[1]]","11","0","","","","","","4","","","","","","","","",""
"","","","","","poldrack-single-stim","190","334889","0.0-2.0-44.0","5b476e05f2c50b0001a70e60","F1","batch6","","-1","tol_feedback","","","true","","1000","1000","500","","","","","","-1","none","true","5393","7773","","","","","","","","","",""
"","","","","","html-button-response","191","335256","0.0-2.0-45.0","5b476e05f2c50b0001a70e60","F1","batch6","","365.59999990463257","tol_trial_num","<div class = centerbox><p class = center-block-text>problem <strong>13</strong> out of 25 problems</p></div>","0","","","","","","","","","","","","","","","","","","","","","","","","",""
"","","","","","single-stim-button","192","340622","0.0-2.0-46.0-0.0","5b476e05f2c50b0001a70e60","F1","batch6","","5366","tol_tohand","","","","tol_peg_1","5366","5366","0","[[1,0,0],[3,0],[0]]","1","[[0,0,0],[2,3],[1]]","12","0","","","","","","4","","","","","","","","",""
"","","","","","single-stim-button","193","341179","0.0-2.0-46.0-1.0","5b476e05f2c50b0001a70e60","F1","batch6","","555","tol_toboard","","","","tol_peg_2","555","555","0","[[1,0,0],[3,2],[0]]","1","[[0,0,0],[2,3],[1]]","12","0","","","","","","4","","","","","","","","",""
"","","","","","single-stim-button","194","341696","0.0-2.0-46.1-0.1","5b476e05f2c50b0001a70e60","F1","batch6","","516","tol_tohand","","","","tol_peg_1","516","516","0","[[0,0,0],[3,2],[0]]","2","[[0,0,0],[2,3],[1]]","12","0","","","","","","4","","","","","","","","",""
"","","","","","single-stim-button","195","342335","0.0-2.0-46.1-1.1","5b476e05f2c50b0001a70e60","F1","batch6","","639","tol_toboard","","","","tol_peg_3","639","639","0","[[0,0,0],[3,2],[1]]","2","[[0,0,0],[2,3],[1]]","12","0","","","","","","4","","","","","","","","",""
"","","","","","single-stim-button","196","350211","0.0-2.0-46.2-0.2","5b476e05f2c50b0001a70e60","F1","batch6","","7875","tol_tohand","","","","tol_peg_3","7875","7875","0","[[0,0,0],[3,2],[0]]","3","[[0,0,0],[2,3],[1]]","12","0","","","","","","4","","","","","","","","",""
"","","","","","single-stim-button","197","351124","0.0-2.0-46.2-1.2","5b476e05f2c50b0001a70e60","F1","batch6","","912","tol_toboard","","","","tol_peg_1","912","912","0","[[1,0,0],[3,2],[0]]","3","[[0,0,0],[2,3],[1]]","12","0","","","","","","4","","","","","","","","",""
"","","","","","single-stim-button","198","353361","0.0-2.0-46.3-0.3","5b476e05f2c50b0001a70e60","F1","batch6","","2237","tol_tohand","","","","tol_peg_2","2237","2237","0","[[1,0,0],[3,0],[0]]","4","[[0,0,0],[2,3],[1]]","12","0","","","","","","4","","","","","","","","",""
"","","","","","single-stim-button","199","356250","0.0-2.0-46.3-1.3","5b476e05f2c50b0001a70e60","F1","batch6","","2888","tol_toboard","","","","tol_peg_1","2888","2888","0","[[1,2,0],[3,0],[0]]","4","[[0,0,0],[2,3],[1]]","12","0","","","","","","4","","","","","","","","",""
"","","","","","single-stim-button","200","357015","0.0-2.0-46.4-0.4","5b476e05f2c50b0001a70e60","F1","batch6","","764","tol_tohand","","","","tol_peg_2","764","764","0","[[1,2,0],[0,0],[0]]","5","[[0,0,0],[2,3],[1]]","12","0","","","","","","4","","","","","","","","",""
"","","","","","single-stim-button","201","357807","0.0-2.0-46.4-1.4","5b476e05f2c50b0001a70e60","F1","batch6","","792","tol_toboard","","","","tol_peg_3","792","792","0","[[1,2,0],[0,0],[3]]","5","[[0,0,0],[2,3],[1]]","12","0","","","","","","4","","","","","","","","",""
"","","","","","single-stim-button","202","358396","0.0-2.0-46.5-0.5","5b476e05f2c50b0001a70e60","F1","batch6","","588","tol_tohand","","","","tol_peg_1","588","588","0","[[1,0,0],[0,0],[3]]","6","[[0,0,0],[2,3],[1]]","12","0","","","","","","4","","","","","","","","",""
"","","","","","single-stim-button","203","359020","0.0-2.0-46.5-1.5","5b476e05f2c50b0001a70e60","F1","batch6","","624","tol_toboard","","","","tol_peg_2","624","624","0","[[1,0,0],[2,0],[3]]","6","[[0,0,0],[2,3],[1]]","12","0","","","","","","4","","","","","","","","",""
"","","","","","single-stim-button","204","360824","0.0-2.0-46.6-0.6","5b476e05f2c50b0001a70e60","F1","batch6","","1803","tol_tohand","","","","tol_peg_3","1803","1803","0","[[1,0,0],[2,0],[0]]","7","[[0,0,0],[2,3],[1]]","12","0","","","","","","4","","","","","","","","",""
"","","","","","single-stim-button","205","361385","0.0-2.0-46.6-1.6","5b476e05f2c50b0001a70e60","F1","batch6","","560","tol_toboard","","","","tol_peg_2","560","560","0","[[1,0,0],[2,3],[0]]","7","[[0,0,0],[2,3],[1]]","12","0","","","","","","4","","","","","","","","",""
"","","","","","single-stim-button","206","361989","0.0-2.0-46.7-0.7","5b476e05f2c50b0001a70e60","F1","batch6","","603","tol_tohand","","","","tol_peg_1","603","603","0","[[0,0,0],[2,3],[0]]","8","[[0,0,0],[2,3],[1]]","12","0","","","","","","4","","","","","","","","",""
"","","","","","single-stim-button","207","362486","0.0-2.0-46.7-1.7","5b476e05f2c50b0001a70e60","F1","batch6","","496","tol_toboard","","","","tol_peg_3","496","496","0","[[0,0,0],[2,3],[1]]","8","[[0,0,0],[2,3],[1]]","12","0","","","","","","4","","","","","","","","",""
"","","","","","poldrack-single-stim","208","363488","0.0-2.0-47.0","5b476e05f2c50b0001a70e60","F1","batch6","","-1","tol_feedback","","","true","","1000","1000","500","","","","","","-1","none","true","5366","19752","","","","","","","","","",""
"","","","","","html-button-response","209","365715","0.0-2.0-48.0","5b476e05f2c50b0001a70e60","F1","batch6","","2225.5999999046326","attention_check","<p class = block-text>How many balls are in your board<br></p>","1","true","","","","","","","","","","","","","","","","","","","","","","","",""
"","","","","","html-button-response","210","366920","0.0-2.0-49.0","5b476e05f2c50b0001a70e60","F1","batch6","","1203.6000003814697","tol_trial_num","<div class = centerbox><p class = center-block-text>problem <strong>14</strong> out of 25 problems</p></div>","0","","","","","","","","","","","","","","","","","","","","","","","","",""
"","","","","","single-stim-button","211","371002","0.0-2.0-50.0-0.0","5b476e05f2c50b0001a70e60","F1","batch6","","4082","tol_tohand","","","","tol_peg_1","4082","4082","0","[[2,0,0],[3,0],[0]]","1","[[1,2,0],[3,0],[0]]","13","0","","","","","","4","","","","","","","","",""
"","","","","","single-stim-button","212","371658","0.0-2.0-50.0-1.0","5b476e05f2c50b0001a70e60","F1","batch6","","656","tol_toboard","","","","tol_peg_2","656","656","0","[[2,0,0],[3,1],[0]]","1","[[1,2,0],[3,0],[0]]","13","0","","","","","","4","","","","","","","","",""
"","","","","","single-stim-button","213","372907","0.0-2.0-50.1-0.1","5b476e05f2c50b0001a70e60","F1","batch6","","1249","tol_tohand","","","","tol_peg_1","1249","1249","0","[[0,0,0],[3,1],[0]]","2","[[1,2,0],[3,0],[0]]","13","0","","","","","","4","","","","","","","","",""
"","","","","","single-stim-button","214","373715","0.0-2.0-50.1-1.1","5b476e05f2c50b0001a70e60","F1","batch6","","807","tol_toboard","","","","tol_peg_3","807","807","0","[[0,0,0],[3,1],[2]]","2","[[1,2,0],[3,0],[0]]","13","0","","","","","","4","","","","","","","","",""
"","","","","","single-stim-button","215","374228","0.0-2.0-50.2-0.2","5b476e05f2c50b0001a70e60","F1","batch6","","513","tol_tohand","","","","tol_peg_2","513","513","0","[[0,0,0],[3,0],[2]]","3","[[1,2,0],[3,0],[0]]","13","0","","","","","","4","","","","","","","","",""
"","","","","","single-stim-button","216","374656","0.0-2.0-50.2-1.2","5b476e05f2c50b0001a70e60","F1","batch6","","427","tol_toboard","","","","tol_peg_1","427","427","0","[[1,0,0],[3,0],[2]]","3","[[1,2,0],[3,0],[0]]","13","0","","","","","","4","","","","","","","","",""
"","","","","","single-stim-button","217","375388","0.0-2.0-50.3-0.3","5b476e05f2c50b0001a70e60","F1","batch6","","732","tol_tohand","","","","tol_peg_3","732","732","0","[[1,0,0],[3,0],[0]]","4","[[1,2,0],[3,0],[0]]","13","0","","","","","","4","","","","","","","","",""
"","","","","","single-stim-button","218","375972","0.0-2.0-50.3-1.3","5b476e05f2c50b0001a70e60","F1","batch6","","584","tol_toboard","","","","tol_peg_1","584","584","0","[[1,2,0],[3,0],[0]]","4","[[1,2,0],[3,0],[0]]","13","0","","","","","","4","","","","","","","","",""
"","","","","","poldrack-single-stim","219","376975","0.0-2.0-51.0","5b476e05f2c50b0001a70e60","F1","batch6","","-1","tol_feedback","","","true","","1000","1000","500","","","","","","-1","none","true","4082","6576","","","","","","","","","",""
"","","","","","html-button-response","220","377733","0.0-2.0-52.0","5b476e05f2c50b0001a70e60","F1","batch6","","756.5","tol_trial_num","<div class = centerbox><p class = center-block-text>problem <strong>15</strong> out of 25 problems</p></div>","0","","","","","","","","","","","","","","","","","","","","","","","","",""
"","","","","","single-stim-button","221","382460","0.0-2.0-53.0-0.0","5b476e05f2c50b0001a70e60","F1","batch6","","4727","tol_tohand","","","","tol_peg_1","4727","4727","0","[[1,0,0],[3,0],[0]]","1","[[2,0,0],[3,0],[1]]","14","0","","","","","","3","","","","","","","","",""
"","","","","","single-stim-button","222","383220","0.0-2.0-53.0-1.0","5b476e05f2c50b0001a70e60","F1","batch6","","759","tol_toboard","","","","tol_peg_2","759","759","0","[[1,0,0],[3,2],[0]]","1","[[2,0,0],[3,0],[1]]","14","0","","","","","","3","","","","","","","","",""
"","","","","","single-stim-button","223","383745","0.0-2.0-53.1-0.1","5b476e05f2c50b0001a70e60","F1","batch6","","524","tol_tohand","","","","tol_peg_1","524","524","0","[[0,0,0],[3,2],[0]]","2","[[2,0,0],[3,0],[1]]","14","0","","","","","","3","","","","","","","","",""
"","","","","","single-stim-button","224","384209","0.0-2.0-53.1-1.1","5b476e05f2c50b0001a70e60","F1","batch6","","463","tol_toboard","","","","tol_peg_3","463","463","0","[[0,0,0],[3,2],[1]]","2","[[2,0,0],[3,0],[1]]","14","0","","","","","","3","","","","","","","","",""
"","","","","","single-stim-button","225","384797","0.0-2.0-53.2-0.2","5b476e05f2c50b0001a70e60","F1","batch6","","587","tol_tohand","","","","tol_peg_2","587","587","0","[[0,0,0],[3,0],[1]]","3","[[2,0,0],[3,0],[1]]","14","0","","","","","","3","","","","","","","","",""
"","","","","","single-stim-button","226","385321","0.0-2.0-53.2-1.2","5b476e05f2c50b0001a70e60","F1","batch6","","522","tol_toboard","","","","tol_peg_1","522","522","0","[[2,0,0],[3,0],[1]]","3","[[2,0,0],[3,0],[1]]","14","0","","","","","","3","","","","","","","","",""
"","","","","","poldrack-single-stim","227","386334","0.0-2.0-54.0","5b476e05f2c50b0001a70e60","F1","batch6","","-1","tol_feedback","","","true","","1000","1000","500","","","","","","-1","none","true","4727","5838","","","","","","","","","",""
"","","","","","html-button-response","228","386870","0.0-2.0-55.0","5b476e05f2c50b0001a70e60","F1","batch6","","534.9000000953674","tol_trial_num","<div class = centerbox><p class = center-block-text>problem <strong>16</strong> out of 25 problems</p></div>","0","","","","","","","","","","","","","","","","","","","","","","","","",""
"","","","","","single-stim-button","229","399440","0.0-2.0-56.0-0.0","5b476e05f2c50b0001a70e60","F1","batch6","","12570","tol_tohand","","","","tol_peg_3","12570","12570","0","[[0,0,0],[2,3],[0]]","1","[[2,3,0],[1,0],[0]]","15","0","","","","","","7","","","","","","","","",""
"","","","","","single-stim-button","230","400101","0.0-2.0-56.0-1.0","5b476e05f2c50b0001a70e60","F1","batch6","","660","tol_toboard","","","","tol_peg_1","660","660","0","[[1,0,0],[2,3],[0]]","1","[[2,3,0],[1,0],[0]]","15","0","","","","","","7","","","","","","","","",""
"","","","","","single-stim-button","231","404887","0.0-2.0-56.1-0.1","5b476e05f2c50b0001a70e60","F1","batch6","","4785","tol_tohand","","","","tol_peg_2","4785","4785","0","[[1,0,0],[2,0],[0]]","2","[[2,3,0],[1,0],[0]]","15","0","","","","","","7","","","","","","","","",""
"","","","","","single-stim-button","232","405584","0.0-2.0-56.1-1.1","5b476e05f2c50b0001a70e60","F1","batch6","","696","tol_toboard","","","","tol_peg_1","696","696","0","[[1,3,0],[2,0],[0]]","2","[[2,3,0],[1,0],[0]]","15","0","","","","","","7","","","","","","","","",""
"","","","","","single-stim-button","233","406112","0.0-2.0-56.2-0.2","5b476e05f2c50b0001a70e60","F1","batch6","","527","tol_tohand","","","","tol_peg_2","527","527","0","[[1,3,0],[0,0],[0]]","3","[[2,3,0],[1,0],[0]]","15","0","","","","","","7","","","","","","","","",""
"","","","","","single-stim-button","234","411082","0.0-2.0-56.2-1.2","5b476e05f2c50b0001a70e60","F1","batch6","","4969","tol_toboard","","","","tol_peg_2","4969","4969","0","[[1,3,0],[2,0],[0]]","3","[[2,3,0],[1,0],[0]]","15","0","","","","","","7","","","","","","","","",""
"","","","","","single-stim-button","235","419915","0.0-2.0-56.3-0.3","5b476e05f2c50b0001a70e60","F1","batch6","","8832","tol_tohand","","","","tol_peg_1","8832","8832","0","[[1,0,0],[2,0],[0]]","4","[[2,3,0],[1,0],[0]]","15","0","","","","","","7","","","","","","","","",""
"","","","","","single-stim-button","236","420555","0.0-2.0-56.3-1.3","5b476e05f2c50b0001a70e60","F1","batch6","","639","tol_toboard","","","","tol_peg_2","639","639","0","[[1,0,0],[2,3],[0]]","4","[[2,3,0],[1,0],[0]]","15","0","","","","","","7","","","","","","","","",""
"","","","","","single-stim-button","237","421160","0.0-2.0-56.4-0.4","5b476e05f2c50b0001a70e60","F1","batch6","","604","tol_tohand","","","","tol_peg_1","604","604","0","[[0,0,0],[2,3],[0]]","5","[[2,3,0],[1,0],[0]]","15","0","","","","","","7","","","","","","","","",""
"","","","","","single-stim-button","238","422132","0.0-2.0-56.4-1.4","5b476e05f2c50b0001a70e60","F1","batch6","","971","tol_toboard","","","","tol_peg_3","971","971","0","[[0,0,0],[2,3],[1]]","5","[[2,3,0],[1,0],[0]]","15","0","","","","","","7","","","","","","","","",""
"","","","","","single-stim-button","239","424189","0.0-2.0-56.5-0.5","5b476e05f2c50b0001a70e60","F1","batch6","","2056","tol_tohand","","","","tol_peg_2","2056","2056","0","[[0,0,0],[2,0],[1]]","6","[[2,3,0],[1,0],[0]]","15","0","","","","","","7","","","","","","","","",""
"","","","","","single-stim-button","240","424849","0.0-2.0-56.5-1.5","5b476e05f2c50b0001a70e60","F1","batch6","","659","tol_toboard","","","","tol_peg_1","659","659","0","[[3,0,0],[2,0],[1]]","6","[[2,3,0],[1,0],[0]]","15","0","","","","","","7","","","","","","","","",""
"","","","","","single-stim-button","241","425442","0.0-2.0-56.6-0.6","5b476e05f2c50b0001a70e60","F1","batch6","","592","tol_tohand","","","","tol_peg_2","592","592","0","[[3,0,0],[0,0],[1]]","7","[[2,3,0],[1,0],[0]]","15","0","","","","","","7","","","","","","","","",""
"","","","","","single-stim-button","242","426034","0.0-2.0-56.6-1.6","5b476e05f2c50b0001a70e60","F1","batch6","","591","tol_toboard","","","","tol_peg_1","591","591","0","[[3,2,0],[0,0],[1]]","7","[[2,3,0],[1,0],[0]]","15","0","","","","","","7","","","","","","","","",""
"","","","","","single-stim-button","243","426798","0.0-2.0-56.7-0.7","5b476e05f2c50b0001a70e60","F1","batch6","","763","tol_tohand","","","","tol_peg_3","763","763","0","[[3,2,0],[0,0],[0]]","8","[[2,3,0],[1,0],[0]]","15","0","","","","","","7","","","","","","","","",""
"","","","","","single-stim-button","244","427411","0.0-2.0-56.7-1.7","5b476e05f2c50b0001a70e60","F1","batch6","","612","tol_toboard","","","","tol_peg_2","612","612","0","[[3,2,0],[1,0],[0]]","8","[[2,3,0],[1,0],[0]]","15","0","","","","","","7","","","","","","","","",""
"","","","","","single-stim-button","245","429584","0.0-2.0-56.8-0.8","5b476e05f2c50b0001a70e60","F1","batch6","","2172","tol_tohand","","","","tol_peg_1","2172","2172","0","[[3,0,0],[1,0],[0]]","9","[[2,3,0],[1,0],[0]]","15","0","","","","","","7","","","","","","","","",""
"","","","","","single-stim-button","246","430144","0.0-2.0-56.8-1.8","5b476e05f2c50b0001a70e60","F1","batch6","","560","tol_toboard","","","","tol_peg_2","560","560","0","[[3,0,0],[1,2],[0]]","9","[[2,3,0],[1,0],[0]]","15","0","","","","","","7","","","","","","","","",""
"","","","","","single-stim-button","247","430797","0.0-2.0-56.9-0.9","5b476e05f2c50b0001a70e60","F1","batch6","","652","tol_tohand","","","","tol_peg_1","652","652","0","[[0,0,0],[1,2],[0]]","10","[[2,3,0],[1,0],[0]]","15","0","","","","","","7","","","","","","","","",""
"","","","","","single-stim-button","248","431605","0.0-2.0-56.9-1.9","5b476e05f2c50b0001a70e60","F1","batch6","","808","tol_toboard","","","","tol_peg_3","808","808","0","[[0,0,0],[1,2],[3]]","10","[[2,3,0],[1,0],[0]]","15","0","","","","","","7","","","","","","","","",""
"","","","","","single-stim-button","249","432133","0.0-2.0-56.10-0.10","5b476e05f2c50b0001a70e60","F1","batch6","","528","tol_tohand","","","","tol_peg_2","528","528","0","[[0,0,0],[1,0],[3]]","11","[[2,3,0],[1,0],[0]]","15","0","","","","","","7","","","","","","","","",""
"","","","","","single-stim-button","250","432685","0.0-2.0-56.10-1.10","5b476e05f2c50b0001a70e60","F1","batch6","","551","tol_toboard","","","","tol_peg_1","551","551","0","[[2,0,0],[1,0],[3]]","11","[[2,3,0],[1,0],[0]]","15","0","","","","","","7","","","","","","","","",""
"","","","","","single-stim-button","251","433314","0.0-2.0-56.11-0.11","5b476e05f2c50b0001a70e60","F1","batch6","","628","tol_tohand","","","","tol_peg_3","628","628","0","[[2,0,0],[1,0],[0]]","12","[[2,3,0],[1,0],[0]]","15","0","","","","","","7","","","","","","","","",""
"","","","","","single-stim-button","252","433878","0.0-2.0-56.11-1.11","5b476e05f2c50b0001a70e60","F1","batch6","","562","tol_toboard","","","","tol_peg_1","562","562","0","[[2,3,0],[1,0],[0]]","12","[[2,3,0],[1,0],[0]]","15","0","","","","","","7","","","","","","","","",""
"","","","","","poldrack-single-stim","253","434887","0.0-2.0-57.0","5b476e05f2c50b0001a70e60","F1","batch6","","-1","tol_feedback","","","true","","1000","1000","500","","","","","","-1","none","true","12570","34709","","","","","","","","","",""
"","","","","","html-button-response","254","435515","0.0-2.0-58.0","5b476e05f2c50b0001a70e60","F1","batch6","","626.7000002861023","tol_trial_num","<div class = centerbox><p class = center-block-text>problem <strong>17</strong> out of 25 problems</p></div>","0","","","","","","","","","","","","","","","","","","","","","","","","",""
"","","","","","single-stim-button","255","438468","0.0-2.0-59.0-0.0","5b476e05f2c50b0001a70e60","F1","batch6","","2952","tol_tohand","","","","tol_peg_2","2952","2952","0","[[1,2,0],[0,0],[0]]","1","[[3,1,0],[2,0],[0]]","16","0","","","","","","5","","","","","","","","",""
"","","","","","single-stim-button","256","439137","0.0-2.0-59.0-1.0","5b476e05f2c50b0001a70e60","F1","batch6","","668","tol_toboard","","","","tol_peg_3","668","668","0","[[1,2,0],[0,0],[3]]","1","[[3,1,0],[2,0],[0]]","16","0","","","","","","5","","","","","","","","",""
"","","","","","single-stim-button","257","439785","0.0-2.0-59.1-0.1","5b476e05f2c50b0001a70e60","F1","batch6","","647","tol_tohand","","","","tol_peg_1","647","647","0","[[1,0,0],[0,0],[3]]","2","[[3,1,0],[2,0],[0]]","16","0","","","","","","5","","","","","","","","",""
"","","","","","single-stim-button","258","440461","0.0-2.0-59.1-1.1","5b476e05f2c50b0001a70e60","F1","batch6","","675","tol_toboard","","","","tol_peg_2","675","675","0","[[1,0,0],[2,0],[3]]","2","[[3,1,0],[2,0],[0]]","16","0","","","","","","5","","","","","","","","",""
"","","","","","single-stim-button","259","441711","0.0-2.0-59.2-0.2","5b476e05f2c50b0001a70e60","F1","batch6","","1248","tol_tohand","","","","tol_peg_1","1248","1248","0","[[0,0,0],[2,0],[3]]","3","[[3,1,0],[2,0],[0]]","16","0","","","","","","5","","","","","","","","",""
"","","","","","single-stim-button","260","442262","0.0-2.0-59.2-1.2","5b476e05f2c50b0001a70e60","F1","batch6","","551","tol_toboard","","","","tol_peg_2","551","551","0","[[0,0,0],[2,1],[3]]","3","[[3,1,0],[2,0],[0]]","16","0","","","","","","5","","","","","","","","",""
"","","","","","single-stim-button","261","442702","0.0-2.0-59.3-0.3","5b476e05f2c50b0001a70e60","F1","batch6","","438","tol_tohand","","","","tol_peg_3","438","438","0","[[0,0,0],[2,1],[0]]","4","[[3,1,0],[2,0],[0]]","16","0","","","","","","5","","","","","","","","",""
"","","","","","single-stim-button","262","443542","0.0-2.0-59.3-1.3","5b476e05f2c50b0001a70e60","F1","batch6","","840","tol_toboard","","","","tol_peg_1","840","840","0","[[3,0,0],[2,1],[0]]","4","[[3,1,0],[2,0],[0]]","16","0","","","","","","5","","","","","","","","",""
"","","","","","single-stim-button","263","444082","0.0-2.0-59.4-0.4","5b476e05f2c50b0001a70e60","F1","batch6","","539","tol_tohand","","","","tol_peg_2","539","539","0","[[3,0,0],[2,0],[0]]","5","[[3,1,0],[2,0],[0]]","16","0","","","","","","5","","","","","","","","",""
"","","","","","single-stim-button","264","444586","0.0-2.0-59.4-1.4","5b476e05f2c50b0001a70e60","F1","batch6","","503","tol_toboard","","","","tol_peg_1","503","503","0","[[3,1,0],[2,0],[0]]","5","[[3,1,0],[2,0],[0]]","16","0","","","","","","5","","","","","","","","",""
"","","","","","poldrack-single-stim","265","445591","0.0-2.0-60.0","5b476e05f2c50b0001a70e60","F1","batch6","","-1","tol_feedback","","","true","","1000","1000","500","","","","","","-1","none","true","2952","5824","","","","","","","","","",""
"","","","","","html-button-response","266","446052","0.0-2.0-61.0","5b476e05f2c50b0001a70e60","F1","batch6","","459.40000009536743","tol_trial_num","<div class = centerbox><p class = center-block-text>problem <strong>18</strong> out of 25 problems</p></div>","0","","","","","","","","","","","","","","","","","","","","","","","","",""
"","","","","","single-stim-button","267","448305","0.0-2.0-62.0-0.0","5b476e05f2c50b0001a70e60","F1","batch6","","2253","tol_tohand","","","","tol_peg_2","2253","2253","0","[[1,2,0],[0,0],[0]]","1","[[3,0,0],[2,0],[1]]","17","0","","","","","","5","","","","","","","","",""
"","","","","","single-stim-button","268","448874","0.0-2.0-62.0-1.0","5b476e05f2c50b0001a70e60","F1","batch6","","568","tol_toboard","","","","tol_peg_3","568","568","0","[[1,2,0],[0,0],[3]]","1","[[3,0,0],[2,0],[1]]","17","0","","","","","","5","","","","","","","","",""
"","","","","","single-stim-button","269","449506","0.0-2.0-62.1-0.1","5b476e05f2c50b0001a70e60","F1","batch6","","632","tol_tohand","","","","tol_peg_1","632","632","0","[[1,0,0],[0,0],[3]]","2","[[3,0,0],[2,0],[1]]","17","0","","","","","","5","","","","","","","","",""
"","","","","","single-stim-button","270","450030","0.0-2.0-62.1-1.1","5b476e05f2c50b0001a70e60","F1","batch6","","524","tol_toboard","","","","tol_peg_2","524","524","0","[[1,0,0],[2,0],[3]]","2","[[3,0,0],[2,0],[1]]","17","0","","","","","","5","","","","","","","","",""
"","","","","","single-stim-button","271","451843","0.0-2.0-62.2-0.2","5b476e05f2c50b0001a70e60","F1","batch6","","1812","tol_tohand","","","","tol_peg_3","1812","1812","0","[[1,0,0],[2,0],[0]]","3","[[3,0,0],[2,0],[1]]","17","0","","","","","","5","","","","","","","","",""
"","","","","","single-stim-button","272","452663","0.0-2.0-62.2-1.2","5b476e05f2c50b0001a70e60","F1","batch6","","820","tol_toboard","","","","tol_peg_2","820","820","0","[[1,0,0],[2,3],[0]]","3","[[3,0,0],[2,0],[1]]","17","0","","","","","","5","","","","","","","","",""
"","","","","","single-stim-button","273","453308","0.0-2.0-62.3-0.3","5b476e05f2c50b0001a70e60","F1","batch6","","644","tol_tohand","","","","tol_peg_1","644","644","0","[[0,0,0],[2,3],[0]]","4","[[3,0,0],[2,0],[1]]","17","0","","","","","","5","","","","","","","","",""
"","","","","","single-stim-button","274","453888","0.0-2.0-62.3-1.3","5b476e05f2c50b0001a70e60","F1","batch6","","579","tol_toboard","","","","tol_peg_3","579","579","0","[[0,0,0],[2,3],[1]]","4","[[3,0,0],[2,0],[1]]","17","0","","","","","","5","","","","","","","","",""
"","","","","","single-stim-button","275","454404","0.0-2.0-62.4-0.4","5b476e05f2c50b0001a70e60","F1","batch6","","515","tol_tohand","","","","tol_peg_2","515","515","0","[[0,0,0],[2,0],[1]]","5","[[3,0,0],[2,0],[1]]","17","0","","","","","","5","","","","","","","","",""
"","","","","","single-stim-button","276","454973","0.0-2.0-62.4-1.4","5b476e05f2c50b0001a70e60","F1","batch6","","568","tol_toboard","","","","tol_peg_1","568","568","0","[[3,0,0],[2,0],[1]]","5","[[3,0,0],[2,0],[1]]","17","0","","","","","","5","","","","","","","","",""
"","","","","","poldrack-single-stim","277","455983","0.0-2.0-63.0","5b476e05f2c50b0001a70e60","F1","batch6","","-1","tol_feedback","","","true","","1000","1000","500","","","","","","-1","none","true","2253","5856","","","","","","","","","",""
"","","","","","html-button-response","278","456497","0.0-2.0-64.0","5b476e05f2c50b0001a70e60","F1","batch6","","513.4000000953674","tol_trial_num","<div class = centerbox><p class = center-block-text>problem <strong>19</strong> out of 25 problems</p></div>","0","","","","","","","","","","","","","","","","","","","","","","","","",""
"","","","","","single-stim-button","279","465573","0.0-2.0-65.0-0.0","5b476e05f2c50b0001a70e60","F1","batch6","","9075","tol_tohand","","","","tol_peg_2","9075","9075","0","[[1,2,0],[0,0],[0]]","1","[[0,0,0],[1,2],[3]]","18","0","","","","","","7","","","","","","","","",""
"","","","","","single-stim-button","280","466319","0.0-2.0-65.0-1.0","5b476e05f2c50b0001a70e60","F1","batch6","","745","tol_toboard","","","","tol_peg_3","745","745","0","[[1,2,0],[0,0],[3]]","1","[[0,0,0],[1,2],[3]]","18","0","","","","","","7","","","","","","","","",""
"","","","","","single-stim-button","281","476216","0.0-2.0-65.1-0.1","5b476e05f2c50b0001a70e60","F1","batch6","","9896","tol_tohand","","","","tol_peg_1","9896","9896","0","[[1,0,0],[0,0],[3]]","2","[[0,0,0],[1,2],[3]]","18","0","","","","","","7","","","","","","","","",""
"","","","","","single-stim-button","282","477220","0.0-2.0-65.1-1.1","5b476e05f2c50b0001a70e60","F1","batch6","","1003","tol_toboard","","","","tol_peg_2","1003","1003","0","[[1,0,0],[2,0],[3]]","2","[[0,0,0],[1,2],[3]]","18","0","","","","","","7","","","","","","","","",""
"","","","","","single-stim-button","283","478445","0.0-2.0-65.2-0.2","5b476e05f2c50b0001a70e60","F1","batch6","","1224","tol_tohand","","","","tol_peg_3","1224","1224","0","[[1,0,0],[2,0],[0]]","3","[[0,0,0],[1,2],[3]]","18","0","","","","","","7","","","","","","","","",""
"","","","","","single-stim-button","284","479576","0.0-2.0-65.2-1.2","5b476e05f2c50b0001a70e60","F1","batch6","","1131","tol_toboard","","","","tol_peg_2","1131","1131","0","[[1,0,0],[2,3],[0]]","3","[[0,0,0],[1,2],[3]]","18","0","","","","","","7","","","","","","","","",""
"","","","","","single-stim-button","285","480486","0.0-2.0-65.3-0.3","5b476e05f2c50b0001a70e60","F1","batch6","","909","tol_tohand","","","","tol_peg_1","909","909","0","[[0,0,0],[2,3],[0]]","4","[[0,0,0],[1,2],[3]]","18","0","","","","","","7","","","","","","","","",""
"","","","","","single-stim-button","286","481477","0.0-2.0-65.3-1.3","5b476e05f2c50b0001a70e60","F1","batch6","","990","tol_toboard","","","","tol_peg_3","990","990","0","[[0,0,0],[2,3],[1]]","4","[[0,0,0],[1,2],[3]]","18","0","","","","","","7","","","","","","","","",""
"","","","","","single-stim-button","287","482675","0.0-2.0-65.4-0.4","5b476e05f2c50b0001a70e60","F1","batch6","","1197","tol_tohand","","","","tol_peg_2","1197","1197","0","[[0,0,0],[2,0],[1]]","5","[[0,0,0],[1,2],[3]]","18","0","","","","","","7","","","","","","","","",""
"","","","","","single-stim-button","288","483531","0.0-2.0-65.4-1.4","5b476e05f2c50b0001a70e60","F1","batch6","","856","tol_toboard","","","","tol_peg_1","856","856","0","[[3,0,0],[2,0],[1]]","5","[[0,0,0],[1,2],[3]]","18","0","","","","","","7","","","","","","","","",""
"","","","","","single-stim-button","289","485435","0.0-2.0-65.5-0.5","5b476e05f2c50b0001a70e60","F1","batch6","","1904","tol_tohand","","","","tol_peg_2","1904","1904","0","[[3,0,0],[0,0],[1]]","6","[[0,0,0],[1,2],[3]]","18","0","","","","","","7","","","","","","","","",""
"","","","","","single-stim-button","290","486608","0.0-2.0-65.5-1.5","5b476e05f2c50b0001a70e60","F1","batch6","","1172","tol_toboard","","","","tol_peg_1","1172","1172","0","[[3,2,0],[0,0],[1]]","6","[[0,0,0],[1,2],[3]]","18","0","","","","","","7","","","","","","","","",""
"","","","","","single-stim-button","291","487277","0.0-2.0-65.6-0.6","5b476e05f2c50b0001a70e60","F1","batch6","","667","tol_tohand","","","","tol_peg_3","667","667","0","[[3,2,0],[0,0],[0]]","7","[[0,0,0],[1,2],[3]]","18","0","","","","","","7","","","","","","","","",""
"","","","","","single-stim-button","292","487776","0.0-2.0-65.6-1.6","5b476e05f2c50b0001a70e60","F1","batch6","","499","tol_toboard","","","","tol_peg_2","499","499","0","[[3,2,0],[1,0],[0]]","7","[[0,0,0],[1,2],[3]]","18","0","","","","","","7","","","","","","","","",""
"","","","","","single-stim-button","293","488374","0.0-2.0-65.7-0.7","5b476e05f2c50b0001a70e60","F1","batch6","","597","tol_tohand","","","","tol_peg_1","597","597","0","[[3,0,0],[1,0],[0]]","8","[[0,0,0],[1,2],[3]]","18","0","","","","","","7","","","","","","","","",""
"","","","","","single-stim-button","294","488917","0.0-2.0-65.7-1.7","5b476e05f2c50b0001a70e60","F1","batch6","","542","tol_toboard","","","","tol_peg_2","542","542","0","[[3,0,0],[1,2],[0]]","8","[[0,0,0],[1,2],[3]]","18","0","","","","","","7","","","","","","","","",""
"","","","","","single-stim-button","295","489454","0.0-2.0-65.8-0.8","5b476e05f2c50b0001a70e60","F1","batch6","","536","tol_tohand","","","","tol_peg_1","536","536","0","[[0,0,0],[1,2],[0]]","9","[[0,0,0],[1,2],[3]]","18","0","","","","","","7","","","","","","","","",""
"","","","","","single-stim-button","296","490179","0.0-2.0-65.8-1.8","5b476e05f2c50b0001a70e60","F1","batch6","","723","tol_toboard","","","","tol_peg_3","723","723","0","[[0,0,0],[1,2],[3]]","9","[[0,0,0],[1,2],[3]]","18","0","","","","","","7","","","","","","","","",""
"","","","","","poldrack-single-stim","297","491197","0.0-2.0-66.0","5b476e05f2c50b0001a70e60","F1","batch6","","-1","tol_feedback","","","true","","1000","1000","500","","","","","","-1","none","true","9075","26005","","","","","","","","","",""
"","","","","","html-button-response","298","491595","0.0-2.0-67.0","5b476e05f2c50b0001a70e60","F1","batch6","","396.30000019073486","tol_trial_num","<div class = centerbox><p class = center-block-text>problem <strong>20</strong> out of 25 problems</p></div>","0","","","","","","","","","","","","","","","","","","","","","","","","",""
"","","","","","single-stim-button","299","497995","0.0-2.0-68.0-0.0","5b476e05f2c50b0001a70e60","F1","batch6","","6399","tol_tohand","","","","tol_peg_1","6399","6399","0","[[1,0,0],[3,0],[0]]","1","[[2,1,0],[0,0],[3]]","19","0","","","","","","5","","","","","","","","",""
"","","","","","single-stim-button","300","498799","0.0-2.0-68.0-1.0","5b476e05f2c50b0001a70e60","F1","batch6","","804","tol_toboard","","","","tol_peg_3","804","804","0","[[1,0,0],[3,0],[2]]","1","[[2,1,0],[0,0],[3]]","19","0","","","","","","5","","","","","","","","",""
"","","","","","single-stim-button","301","499483","0.0-2.0-68.1-0.1","5b476e05f2c50b0001a70e60","F1","batch6","","682","tol_tohand","","","","tol_peg_1","682","682","0","[[0,0,0],[3,0],[2]]","2","[[2,1,0],[0,0],[3]]","19","0","","","","","","5","","","","","","","","",""
"","","","","","single-stim-button","302","500136","0.0-2.0-68.1-1.1","5b476e05f2c50b0001a70e60","F1","batch6","","653","tol_toboard","","","","tol_peg_2","653","653","0","[[0,0,0],[3,1],[2]]","2","[[2,1,0],[0,0],[3]]","19","0","","","","","","5","","","","","","","","",""
"","","","","","single-stim-button","303","500932","0.0-2.0-68.2-0.2","5b476e05f2c50b0001a70e60","F1","batch6","","795","tol_tohand","","","","tol_peg_3","795","795","0","[[0,0,0],[3,1],[0]]","3","[[2,1,0],[0,0],[3]]","19","0","","","","","","5","","","","","","","","",""
"","","","","","single-stim-button","304","501549","0.0-2.0-68.2-1.2","5b476e05f2c50b0001a70e60","F1","batch6","","617","tol_toboard","","","","tol_peg_1","617","617","0","[[2,0,0],[3,1],[0]]","3","[[2,1,0],[0,0],[3]]","19","0","","","","","","5","","","","","","","","",""
"","","","","","single-stim-button","305","502169","0.0-2.0-68.3-0.3","5b476e05f2c50b0001a70e60","F1","batch6","","620","tol_tohand","","","","tol_peg_2","620","620","0","[[2,0,0],[3,0],[0]]","4","[[2,1,0],[0,0],[3]]","19","0","","","","","","5","","","","","","","","",""
"","","","","","single-stim-button","306","502737","0.0-2.0-68.3-1.3","5b476e05f2c50b0001a70e60","F1","batch6","","567","tol_toboard","","","","tol_peg_1","567","567","0","[[2,1,0],[3,0],[0]]","4","[[2,1,0],[0,0],[3]]","19","0","","","","","","5","","","","","","","","",""
"","","","","","single-stim-button","307","503261","0.0-2.0-68.4-0.4","5b476e05f2c50b0001a70e60","F1","batch6","","523","tol_tohand","","","","tol_peg_2","523","523","0","[[2,1,0],[0,0],[0]]","5","[[2,1,0],[0,0],[3]]","19","0","","","","","","5","","","","","","","","",""
"","","","","","single-stim-button","308","503710","0.0-2.0-68.4-1.4","5b476e05f2c50b0001a70e60","F1","batch6","","448","tol_toboard","","","","tol_peg_3","448","448","0","[[2,1,0],[0,0],[3]]","5","[[2,1,0],[0,0],[3]]","19","0","","","","","","5","","","","","","","","",""
"","","","","","poldrack-single-stim","309","504726","0.0-2.0-69.0","5b476e05f2c50b0001a70e60","F1","batch6","","-1","tol_feedback","","","true","","1000","1000","500","","","","","","-1","none","true","6399","9019","","","","","","","","","",""
"","","","","","html-button-response","310","505393","0.0-2.0-70.0","5b476e05f2c50b0001a70e60","F1","batch6","","666.0999999046326","tol_trial_num","<div class = centerbox><p class = center-block-text>problem <strong>21</strong> out of 25 problems</p></div>","0","","","","","","","","","","","","","","","","","","","","","","","","",""
"","","","","","single-stim-button","311","515424","0.0-2.0-71.0-0.0","5b476e05f2c50b0001a70e60","F1","batch6","","10029","tol_tohand","","","","tol_peg_2","10029","10029","0","[[1,2,0],[0,0],[0]]","1","[[3,2,0],[0,0],[1]]","20","0","","","","","","6","","","","","","","","",""
"","","","","","single-stim-button","312","516436","0.0-2.0-71.0-1.0","5b476e05f2c50b0001a70e60","F1","batch6","","1011","tol_toboard","","","","tol_peg_3","1011","1011","0","[[1,2,0],[0,0],[3]]","1","[[3,2,0],[0,0],[1]]","20","0","","","","","","6","","","","","","","","",""
"","","","","","single-stim-button","313","517112","0.0-2.0-71.1-0.1","5b476e05f2c50b0001a70e60","F1","batch6","","675","tol_tohand","","","","tol_peg_1","675","675","0","[[1,0,0],[0,0],[3]]","2","[[3,2,0],[0,0],[1]]","20","0","","","","","","6","","","","","","","","",""
"","","","","","single-stim-button","314","517697","0.0-2.0-71.1-1.1","5b476e05f2c50b0001a70e60","F1","batch6","","584","tol_toboard","","","","tol_peg_2","584","584","0","[[1,0,0],[2,0],[3]]","2","[[3,2,0],[0,0],[1]]","20","0","","","","","","6","","","","","","","","",""
"","","","","","single-stim-button","315","518560","0.0-2.0-71.2-0.2","5b476e05f2c50b0001a70e60","F1","batch6","","863","tol_tohand","","","","tol_peg_1","863","863","0","[[0,0,0],[2,0],[3]]","3","[[3,2,0],[0,0],[1]]","20","0","","","","","","6","","","","","","","","",""
"","","","","","single-stim-button","316","519140","0.0-2.0-71.2-1.2","5b476e05f2c50b0001a70e60","F1","batch6","","579","tol_toboard","","","","tol_peg_2","579","579","0","[[0,0,0],[2,1],[3]]","3","[[3,2,0],[0,0],[1]]","20","0","","","","","","6","","","","","","","","",""
"","","","","","single-stim-button","317","519818","0.0-2.0-71.3-0.3","5b476e05f2c50b0001a70e60","F1","batch6","","676","tol_tohand","","","","tol_peg_3","676","676","0","[[0,0,0],[2,1],[0]]","4","[[3,2,0],[0,0],[1]]","20","0","","","","","","6","","","","","","","","",""
"","","","","","single-stim-button","318","520617","0.0-2.0-71.3-1.3","5b476e05f2c50b0001a70e60","F1","batch6","","799","tol_toboard","","","","tol_peg_1","799","799","0","[[3,0,0],[2,1],[0]]","4","[[3,2,0],[0,0],[1]]","20","0","","","","","","6","","","","","","","","",""
"","","","","","single-stim-button","319","521146","0.0-2.0-71.4-0.4","5b476e05f2c50b0001a70e60","F1","batch6","","527","tol_tohand","","","","tol_peg_2","527","527","0","[[3,0,0],[2,0],[0]]","5","[[3,2,0],[0,0],[1]]","20","0","","","","","","6","","","","","","","","",""
"","","","","","single-stim-button","320","521627","0.0-2.0-71.4-1.4","5b476e05f2c50b0001a70e60","F1","batch6","","480","tol_toboard","","","","tol_peg_3","480","480","0","[[3,0,0],[2,0],[1]]","5","[[3,2,0],[0,0],[1]]","20","0","","","","","","6","","","","","","","","",""
"","","","","","single-stim-button","321","522083","0.0-2.0-71.5-0.5","5b476e05f2c50b0001a70e60","F1","batch6","","456","tol_tohand","","","","tol_peg_2","456","456","0","[[3,0,0],[0,0],[1]]","6","[[3,2,0],[0,0],[1]]","20","0","","","","","","6","","","","","","","","",""
"","","","","","single-stim-button","322","522463","0.0-2.0-71.5-1.5","5b476e05f2c50b0001a70e60","F1","batch6","","379","tol_toboard","","","","tol_peg_1","379","379","0","[[3,2,0],[0,0],[1]]","6","[[3,2,0],[0,0],[1]]","20","0","","","","","","6","","","","","","","","",""
"","","","","","poldrack-single-stim","323","523476","0.0-2.0-72.0","5b476e05f2c50b0001a70e60","F1","batch6","","-1","tol_feedback","","","true","","1000","1000","500","","","","","","-1","none","true","10029","13226","","","","","","","","","",""
"","","","","","html-button-response","324","524023","0.0-2.0-73.0","5b476e05f2c50b0001a70e60","F1","batch6","","545.7000002861023","tol_trial_num","<div class = centerbox><p class = center-block-text>problem <strong>22</strong> out of 25 problems</p></div>","0","","","","","","","","","","","","","","","","","","","","","","","","",""
"","","","","","single-stim-button","325","532252","0.0-2.0-74.0-0.0","5b476e05f2c50b0001a70e60","F1","batch6","","8227","tol_tohand","","","","tol_peg_1","8227","8227","0","[[0,0,0],[2,3],[0]]","1","[[0,0,0],[1,2],[3]]","21","0","","","","","","6","","","","","","","","",""
"","","","","","single-stim-button","326","533024","0.0-2.0-74.0-1.0","5b476e05f2c50b0001a70e60","F1","batch6","","772","tol_toboard","","","","tol_peg_3","772","772","0","[[0,0,0],[2,3],[1]]","1","[[0,0,0],[1,2],[3]]","21","0","","","","","","6","","","","","","","","",""
"","","","","","single-stim-button","327","534733","0.0-2.0-74.1-0.1","5b476e05f2c50b0001a70e60","F1","batch6","","1707","tol_tohand","","","","tol_peg_2","1707","1707","0","[[0,0,0],[2,0],[1]]","2","[[0,0,0],[1,2],[3]]","21","0","","","","","","6","","","","","","","","",""
"","","","","","single-stim-button","328","535365","0.0-2.0-74.1-1.1","5b476e05f2c50b0001a70e60","F1","batch6","","632","tol_toboard","","","","tol_peg_1","632","632","0","[[3,0,0],[2,0],[1]]","2","[[0,0,0],[1,2],[3]]","21","0","","","","","","6","","","","","","","","",""
"","","","","","single-stim-button","329","535921","0.0-2.0-74.2-0.2","5b476e05f2c50b0001a70e60","F1","batch6","","555","tol_tohand","","","","tol_peg_2","555","555","0","[[3,0,0],[0,0],[1]]","3","[[0,0,0],[1,2],[3]]","21","0","","","","","","6","","","","","","","","",""
"","","","","","single-stim-button","330","536362","0.0-2.0-74.2-1.2","5b476e05f2c50b0001a70e60","F1","batch6","","439","tol_toboard","","","","tol_peg_1","439","439","0","[[3,2,0],[0,0],[1]]","3","[[0,0,0],[1,2],[3]]","21","0","","","","","","6","","","","","","","","",""
"","","","","","single-stim-button","331","536863","0.0-2.0-74.3-0.3","5b476e05f2c50b0001a70e60","F1","batch6","","500","tol_tohand","","","","tol_peg_3","500","500","0","[[3,2,0],[0,0],[0]]","4","[[0,0,0],[1,2],[3]]","21","0","","","","","","6","","","","","","","","",""
"","","","","","single-stim-button","332","537467","0.0-2.0-74.3-1.3","5b476e05f2c50b0001a70e60","F1","batch6","","603","tol_toboard","","","","tol_peg_2","603","603","0","[[3,2,0],[1,0],[0]]","4","[[0,0,0],[1,2],[3]]","21","0","","","","","","6","","","","","","","","",""
"","","","","","single-stim-button","333","538375","0.0-2.0-74.4-0.4","5b476e05f2c50b0001a70e60","F1","batch6","","908","tol_tohand","","","","tol_peg_1","908","908","0","[[3,0,0],[1,0],[0]]","5","[[0,0,0],[1,2],[3]]","21","0","","","","","","6","","","","","","","","",""
"","","","","","single-stim-button","334","538786","0.0-2.0-74.4-1.4","5b476e05f2c50b0001a70e60","F1","batch6","","411","tol_toboard","","","","tol_peg_2","411","411","0","[[3,0,0],[1,2],[0]]","5","[[0,0,0],[1,2],[3]]","21","0","","","","","","6","","","","","","","","",""
"","","","","","single-stim-button","335","539151","0.0-2.0-74.5-0.5","5b476e05f2c50b0001a70e60","F1","batch6","","364","tol_tohand","","","","tol_peg_1","364","364","0","[[0,0,0],[1,2],[0]]","6","[[0,0,0],[1,2],[3]]","21","0","","","","","","6","","","","","","","","",""
"","","","","","single-stim-button","336","539564","0.0-2.0-74.5-1.5","5b476e05f2c50b0001a70e60","F1","batch6","","411","tol_toboard","","","","tol_peg_3","411","411","0","[[0,0,0],[1,2],[3]]","6","[[0,0,0],[1,2],[3]]","21","0","","","","","","6","","","","","","","","",""
"","","","","","poldrack-single-stim","337","540574","0.0-2.0-75.0","5b476e05f2c50b0001a70e60","F1","batch6","","-1","tol_feedback","","","true","","1000","1000","500","","","","","","-1","none","true","8227","12261","","","","","","","","","",""
"","","","","","html-button-response","338","541004","0.0-2.0-76.0","5b476e05f2c50b0001a70e60","F1","batch6","","429.5","tol_trial_num","<div class = centerbox><p class = center-block-text>problem <strong>23</strong> out of 25 problems</p></div>","0","","","","","","","","","","","","","","","","","","","","","","","","",""
"","","","","","single-stim-button","339","544162","0.0-2.0-77.0-0.0","5b476e05f2c50b0001a70e60","F1","batch6","","3156","tol_tohand","","","","tol_peg_1","3156","3156","0","[[1,0,0],[3,0],[0]]","1","[[1,3,2],[0,0],[0]]","22","0","","","","","","3","","","","","","","","",""
"","","","","","single-stim-button","340","544978","0.0-2.0-77.0-1.0","5b476e05f2c50b0001a70e60","F1","batch6","","816","tol_toboard","","","","tol_peg_3","816","816","0","[[1,0,0],[3,0],[2]]","1","[[1,3,2],[0,0],[0]]","22","0","","","","","","3","","","","","","","","",""
"","","","","","single-stim-button","341","545443","0.0-2.0-77.1-0.1","5b476e05f2c50b0001a70e60","F1","batch6","","463","tol_tohand","","","","tol_peg_2","463","463","0","[[1,0,0],[0,0],[2]]","2","[[1,3,2],[0,0],[0]]","22","0","","","","","","3","","","","","","","","",""
"","","","","","single-stim-button","342","545871","0.0-2.0-77.1-1.1","5b476e05f2c50b0001a70e60","F1","batch6","","427","tol_toboard","","","","tol_peg_1","427","427","0","[[1,3,0],[0,0],[2]]","2","[[1,3,2],[0,0],[0]]","22","0","","","","","","3","","","","","","","","",""
"","","","","","single-stim-button","343","546507","0.0-2.0-77.2-0.2","5b476e05f2c50b0001a70e60","F1","batch6","","635","tol_tohand","","","","tol_peg_3","635","635","0","[[1,3,0],[0,0],[0]]","3","[[1,3,2],[0,0],[0]]","22","0","","","","","","3","","","","","","","","",""
"","","","","","single-stim-button","344","547024","0.0-2.0-77.2-1.2","5b476e05f2c50b0001a70e60","F1","batch6","","516","tol_toboard","","","","tol_peg_1","516","516","0","[[1,3,2],[0,0],[0]]","3","[[1,3,2],[0,0],[0]]","22","0","","","","","","3","","","","","","","","",""
"","","","","","poldrack-single-stim","345","548039","0.0-2.0-78.0","5b476e05f2c50b0001a70e60","F1","batch6","","-1","tol_feedback","","","true","","1000","1000","500","","","","","","-1","none","true","3156","4254","","","","","","","","","",""
"","","","","","html-button-response","346","548623","0.0-2.0-79.0","5b476e05f2c50b0001a70e60","F1","batch6","","582.8000001907349","tol_trial_num","<div class = centerbox><p class = center-block-text>problem <strong>24</strong> out of 25 problems</p></div>","0","","","","","","","","","","","","","","","","","","","","","","","","",""
"","","","","","single-stim-button","347","560419","0.0-2.0-80.0-0.0","5b476e05f2c50b0001a70e60","F1","batch6","","11794","tol_tohand","","","","tol_peg_3","11794","11794","0","[[0,0,0],[2,3],[0]]","1","[[2,0,0],[3,0],[1]]","23","0","","","","","","7","","","","","","","","",""
"","","","","","single-stim-button","348","561631","0.0-2.0-80.0-1.0","5b476e05f2c50b0001a70e60","F1","batch6","","1211","tol_toboard","","","","tol_peg_1","1211","1211","0","[[1,0,0],[2,3],[0]]","1","[[2,0,0],[3,0],[1]]","23","0","","","","","","7","","","","","","","","",""
"","","","","","single-stim-button","349","562311","0.0-2.0-80.1-0.1","5b476e05f2c50b0001a70e60","F1","batch6","","679","tol_tohand","","","","tol_peg_2","679","679","0","[[1,0,0],[2,0],[0]]","2","[[2,0,0],[3,0],[1]]","23","0","","","","","","7","","","","","","","","",""
"","","","","","single-stim-button","350","563560","0.0-2.0-80.1-1.1","5b476e05f2c50b0001a70e60","F1","batch6","","1249","tol_toboard","","","","tol_peg_3","1249","1249","0","[[1,0,0],[2,0],[3]]","2","[[2,0,0],[3,0],[1]]","23","0","","","","","","7","","","","","","","","",""
"","","","","","single-stim-button","351","566125","0.0-2.0-80.2-0.2","5b476e05f2c50b0001a70e60","F1","batch6","","2564","tol_tohand","","","","tol_peg_2","2564","2564","0","[[1,0,0],[0,0],[3]]","3","[[2,0,0],[3,0],[1]]","23","0","","","","","","7","","","","","","","","",""
"","","","","","single-stim-button","352","566954","0.0-2.0-80.2-1.2","5b476e05f2c50b0001a70e60","F1","batch6","","828","tol_toboard","","","","tol_peg_1","828","828","0","[[1,2,0],[0,0],[3]]","3","[[2,0,0],[3,0],[1]]","23","0","","","","","","7","","","","","","","","",""
"","","","","","single-stim-button","353","567718","0.0-2.0-80.3-0.3","5b476e05f2c50b0001a70e60","F1","batch6","","763","tol_tohand","","","","tol_peg_3","763","763","0","[[1,2,0],[0,0],[0]]","4","[[2,0,0],[3,0],[1]]","23","0","","","","","","7","","","","","","","","",""
"","","","","","single-stim-button","354","568503","0.0-2.0-80.3-1.3","5b476e05f2c50b0001a70e60","F1","batch6","","784","tol_toboard","","","","tol_peg_2","784","784","0","[[1,2,0],[3,0],[0]]","4","[[2,0,0],[3,0],[1]]","23","0","","","","","","7","","","","","","","","",""
"","","","","","single-stim-button","355","569883","0.0-2.0-80.4-0.4","5b476e05f2c50b0001a70e60","F1","batch6","","1379","tol_tohand","","","","tol_peg_1","1379","1379","0","[[1,0,0],[3,0],[0]]","5","[[2,0,0],[3,0],[1]]","23","0","","","","","","7","","","","","","","","",""
"","","","","","single-stim-button","356","570752","0.0-2.0-80.4-1.4","5b476e05f2c50b0001a70e60","F1","batch6","","868","tol_toboard","","","","tol_peg_2","868","868","0","[[1,0,0],[3,2],[0]]","5","[[2,0,0],[3,0],[1]]","23","0","","","","","","7","","","","","","","","",""
