"success","timeout","failed_images","failed_audio","failed_video","trial_type","trial_index","time_elapsed","internal_node_id","subject_id","study_id","session_id","view_history","rt","stimulus","response","task","correct","answer","item","fiar_detect_rt","fiar_detect_correct","total_correct_fiar_detect","post_trial_gap","choices","spm_correct","spm_rt","mouse_click","stim_duration","block_duration","timing_post_trial","current_position","tol_num_moves_made","tol_target","tol_problem_id","tol_rt","key_press","possible_responses","tol_correct","preplanning","tol_rt_per_trial","tol_min_moves"
"true","false","[]","[]","[]","preload","0","19438","0.0-0.0","5b5c3b266b25590001778ea1","C3","batch3","","","","","","","","","","","","","","","","","","","","","","","","","","","","","",""
"true","","","","","fullscreen","1","23927","0.0-1.0-0.0","5b5c3b266b25590001778ea1","C3","batch3","","","","","","","","","","","","","","","","","","","","","","","","","","","","","",""
"true","","","","","fullscreen","2","27630","0.0-2.0-0.0","5b5c3b266b25590001778ea1","C3","batch3","","","","","","","","","","","","","","","","","","","","","","","","","","","","","",""
"","","","","","instructions","3","34283","0.0-2.0-1.0-0.0","5b5c3b266b25590001778ea1","C3","batch3","[{""page_index"":0,""viewing_time"":4557.89999999851},{""page_index"":1,""viewing_time"":2093.60000000149}]","6651.699999999255","","","","","","","","","","","","","","","","","","","","","","","","","","","",""
"","","","","","html-button-response","4","35388","0.0-2.0-1.0-1.0-0.0","5b5c3b266b25590001778ea1","C3","batch3","","1103.2999999988824","<p class=block-text> Let's answer a few questions <br>","0","pattern_enter_quiz","","","","","","","","","","","","","","","","","","","","","","","","",""
"","","","","","html-button-response","5","36947","0.0-2.0-1.0-1.0-1.0","5b5c3b266b25590001778ea1","C3","batch3","","1558.4000000003725","<p class = block-text>True or False: You will have as much time as you want to make each choice. <br></p>","1","pattern_quiz","true","","","","","","","","","","","","","","","","","","","","","","","",""
"","","","","","html-button-response","6","37829","0.0-2.0-1.0-1.0-2.0","5b5c3b266b25590001778ea1","C3","batch3","","880.8000000007451","<p class = block-text>Correct! You should make your choice <strong> as fast as you can</strong>.</p>","0","pattern_quiz_feedback","","","","","","","","","","","","","","","","","","","","","","","","",""
"","","","","","html-button-response","7","39831","0.0-2.0-1.0-1.0-3.0","5b5c3b266b25590001778ea1","C3","batch3","","2001.2000000011176","<p class = block-text>True or False: You will look for 4 pieces in black or white color connected in a row either horizontally, vertically or diagonally. <br></p>","0","pattern_quiz","true","","","","","","","","","","","","","","","","","","","","","","","",""
"","","","","","html-button-response","8","40545","0.0-2.0-1.0-1.0-4.0","5b5c3b266b25590001778ea1","C3","batch3","","712.8999999985099","<p class = block-text>Correct! </p>","0","pattern_quiz_feedback","","","","","","","","","","","","","","","","","","","","","","","","",""
"","","","","","html-button-response","9","42099","0.0-2.0-2.0","5b5c3b266b25590001778ea1","C3","batch3","","1553","<p class=block-text> Now that you've understood the game, let's do a few practice trials before we start!<br> <br>","0","pattern_enter_practice","","","","","","","","","","","","","","","","","","","","","","","","",""
"","","","","","image-keyboard-response","10","43842","0.0-2.0-3.0-0.0","5b5c3b266b25590001778ea1","C3","batch3","","1733.0999999996275","stim/prac_no_18_1.png","j","pattern_practice","true","j","","","","","","","","","","","","","","","","","","","","","","",""
"","","","","","html-keyboard-response","11","44849","0.0-2.0-3.0-1.0","5b5c3b266b25590001778ea1","C3","batch3","","null","<p style=""font-size:30px;color:green;"">Correct!</p>","null","pattern_feedback","","","","","","","","","","","","","","","","","","","","","","","","",""
"","","","","","image-keyboard-response","12","45647","0.0-2.0-3.0-0.1","5b5c3b266b25590001778ea1","C3","batch3","","795.3000000007451","stim/prac_yes_18_hor_w1.png","f","pattern_practice","true","f","","","","","","","","","","","","","","","","","","","","","","",""
"","","","","","html-keyboard-response","13","46675","0.0-2.0-3.0-1.1","5b5c3b266b25590001778ea1","C3","batch3","","null","<p style=""font-size:30px;color:green;"">Correct!</p>","null","pattern_feedback","","","","","","","","","","","","","","","","","","","","","","","","",""
"","","","","","image-keyboard-response","14","47339","0.0-2.0-3.0-0.2","5b5c3b266b25590001778ea1","C3","batch3","","661.6999999992549","stim/prac_yes_16_ver_w1.png","f","pattern_practice","true","f","","","","","","","","","","","","","","","","","","","","","","",""
"","","","","","html-keyboard-response","15","48354","0.0-2.0-3.0-1.2","5b5c3b266b25590001778ea1","C3","batch3","","null","<p style=""font-size:30px;color:green;"">Correct!</p>","null","pattern_feedback","","","","","","","","","","","","","","","","","","","","","","","","",""
"","","","","","image-keyboard-response","16","49711","0.0-2.0-3.0-0.3","5b5c3b266b25590001778ea1","C3","batch3","","1354.800000000745","stim/prac_no_16_1.png","j","pattern_practice","true","j","","","","","","","","","","","","","","","","","","","","","","",""
"","","","","","html-keyboard-response","17","50729","0.0-2.0-3.0-1.3","5b5c3b266b25590001778ea1","C3","batch3","","null","<p style=""font-size:30px;color:green;"">Correct!</p>","null","pattern_feedback","","","","","","","","","","","","","","","","","","","","","","","","",""
"","","","","","image-keyboard-response","18","51527","0.0-2.0-3.0-0.4","5b5c3b266b25590001778ea1","C3","batch3","","796.5","stim/prac_yes_20_dia_b1.png","f","pattern_practice","true","f","","","","","","","","","","","","","","","","","","","","","","",""
"","","","","","html-keyboard-response","19","52545","0.0-2.0-3.0-1.4","5b5c3b266b25590001778ea1","C3","batch3","","null","<p style=""font-size:30px;color:green;"">Correct!</p>","null","pattern_feedback","","","","","","","","","","","","","","","","","","","","","","","","",""
"","","","","","html-button-response","20","55771","0.0-2.0-4.0","5b5c3b266b25590001778ea1","C3","batch3","","3224.2999999988824","<p class=block-text> Good job! You are done with practice trials!<br>
        You responded correctly on 100% of the trials.<br>
        Press the button below to start official trials. Now you won't see any feedback about your response</p>","0","pattern_enter_official_trials","","","","","","","","","","","","","","","","","","","","","","","","",""
"","","","","","html-keyboard-response","21","56586","0.0-2.0-5.0-0.0","5b5c3b266b25590001778ea1","C3","batch3","","null","<p class=block-text>Trial 1 out of 78</p>","null","pattern_show_trial_num","","","","","","","","","","","","","","","","","","","","","","","","",""
"","","","","","image-keyboard-response","22","61916","0.0-2.0-5.0-1.0","5b5c3b266b25590001778ea1","C3","batch3","","5328","stim/no_53_1_b.png","j","pattern_response","true","j","pattern_33","5328","true","1","","","","","","","","","","","","","","","","","","",""
"","","","","","html-keyboard-response","23","63227","0.0-2.0-5.0-0.1","5b5c3b266b25590001778ea1","C3","batch3","","null","<p class=block-text>Trial 2 out of 78</p>","null","pattern_show_trial_num","","","","","","","","","","","","","","","","","","","","","","","","",""
"","","","","","image-keyboard-response","24","64109","0.0-2.0-5.0-1.1","5b5c3b266b25590001778ea1","C3","batch3","","879.8000000007451","stim/yes_70_ver_b1.png","f","pattern_response","true","f","pattern_80","879.8000000007451","true","2","","","","","","","","","","","","","","","","","","",""
"","","","","","html-keyboard-response","25","65420","0.0-2.0-5.0-0.2","5b5c3b266b25590001778ea1","C3","batch3","","null","<p class=block-text>Trial 3 out of 78</p>","null","pattern_show_trial_num","","","","","","","","","","","","","","","","","","","","","","","","",""
"","","","","","image-keyboard-response","26","66209","0.0-2.0-5.0-1.2","5b5c3b266b25590001778ea1","C3","batch3","","786.3000000007451","stim/yes_44_ver_w1_w.png","f","pattern_response","true","f","pattern_66","786.3000000007451","true","3","","","","","","","","","","","","","","","","","","",""
"","","","","","html-keyboard-response","27","67524","0.0-2.0-5.0-0.3","5b5c3b266b25590001778ea1","C3","batch3","","null","<p class=block-text>Trial 4 out of 78</p>","null","pattern_show_trial_num","","","","","","","","","","","","","","","","","","","","","","","","",""
"","","","","","image-keyboard-response","28","68421","0.0-2.0-5.0-1.3","5b5c3b266b25590001778ea1","C3","batch3","","893.8000000007451","stim/yes_29_hor_b1_b.png","f","pattern_response","true","f","pattern_52","893.8000000007451","true","4","","","","","","","","","","","","","","","","","","",""
"","","","","","html-keyboard-response","29","69734","0.0-2.0-5.0-0.4","5b5c3b266b25590001778ea1","C3","batch3","","null","<p class=block-text>Trial 5 out of 78</p>","null","pattern_show_trial_num","","","","","","","","","","","","","","","","","","","","","","","","",""
"","","","","","image-keyboard-response","30","72795","0.0-2.0-5.0-1.4","5b5c3b266b25590001778ea1","C3","batch3","","3059","stim/yes_63_dia_b1.png","f","pattern_response","true","f","pattern_78","3059","true","5","","","","","","","","","","","","","","","","","","",""
"","","","","","html-keyboard-response","31","74121","0.0-2.0-5.0-0.5","5b5c3b266b25590001778ea1","C3","batch3","","null","<p class=block-text>Trial 6 out of 78</p>","null","pattern_show_trial_num","","","","","","","","","","","","","","","","","","","","","","","","",""
"","","","","","image-keyboard-response","32","75011","0.0-2.0-5.0-1.5","5b5c3b266b25590001778ea1","C3","batch3","","887","stim/yes_12_hor_w1_w.png","f","pattern_response","true","f","pattern_42","887","true","6","","","","","","","","","","","","","","","","","","",""
"","","","","","html-keyboard-response","33","76326","0.0-2.0-5.0-0.6","5b5c3b266b25590001778ea1","C3","batch3","","null","<p class=block-text>Trial 7 out of 78</p>","null","pattern_show_trial_num","","","","","","","","","","","","","","","","","","","","","","","","",""
"","","","","","image-keyboard-response","34","77272","0.0-2.0-5.0-1.6","5b5c3b266b25590001778ea1","C3","batch3","","943.4000000003725","stim/no_12_1.png","j","pattern_response","true","j","pattern_01","943.4000000003725","true","7","","","","","","","","","","","","","","","","","","",""
"","","","","","html-keyboard-response","35","78588","0.0-2.0-5.0-0.7","5b5c3b266b25590001778ea1","C3","batch3","","null","<p class=block-text>Trial 8 out of 78</p>","null","pattern_show_trial_num","","","","","","","","","","","","","","","","","","","","","","","","",""
"","","","","","image-keyboard-response","36","79791","0.0-2.0-5.0-1.7","5b5c3b266b25590001778ea1","C3","batch3","","1201.0999999996275","stim/yes_46_ver_b1_b.png","f","pattern_response","true","f","pattern_68","1201.0999999996275","true","8","","","","","","","","","","","","","","","","","","",""
"","","","","","html-keyboard-response","37","81114","0.0-2.0-5.0-0.8","5b5c3b266b25590001778ea1","C3","batch3","","null","<p class=block-text>Trial 9 out of 78</p>","null","pattern_show_trial_num","","","","","","","","","","","","","","","","","","","","","","","","",""
"","","","","","image-keyboard-response","38","84406","0.0-2.0-5.0-1.8","5b5c3b266b25590001778ea1","C3","batch3","","3290.199999999255","stim/no_39_1_w.png","j","pattern_response","true","j","pattern_21","3290.199999999255","true","9","","","","","","","","","","","","","","","","","","",""
"","","","","","html-keyboard-response","39","85729","0.0-2.0-5.0-0.9","5b5c3b266b25590001778ea1","C3","batch3","","null","<p class=block-text>Trial 10 out of 78</p>","null","pattern_show_trial_num","","","","","","","","","","","","","","","","","","","","","","","","",""
"","","","","","image-keyboard-response","40","86497","0.0-2.0-5.0-1.9","5b5c3b266b25590001778ea1","C3","batch3","","764.8999999985099","stim/yes_36_ver_w1_w.png","f","pattern_response","true","f","pattern_58","764.8999999985099","true","10","","","","","","","","","","","","","","","","","","",""
"","","","","","html-keyboard-response","41","87814","0.0-2.0-5.0-0.10","5b5c3b266b25590001778ea1","C3","batch3","","null","<p class=block-text>Trial 11 out of 78</p>","null","pattern_show_trial_num","","","","","","","","","","","","","","","","","","","","","","","","",""
"","","","","","image-keyboard-response","42","90899","0.0-2.0-5.0-1.10","5b5c3b266b25590001778ea1","C3","batch3","","3082.5","stim/no_47_1_b.png","j","pattern_response","true","j","pattern_27","3082.5","true","11","","","","","","","","","","","","","","","","","","",""
"","","","","","html-keyboard-response","43","92211","0.0-2.0-5.0-0.11","5b5c3b266b25590001778ea1","C3","batch3","","null","<p class=block-text>Trial 12 out of 78</p>","null","pattern_show_trial_num","","","","","","","","","","","","","","","","","","","","","","","","",""
"","","","","","image-keyboard-response","44","94185","0.0-2.0-5.0-1.11","5b5c3b266b25590001778ea1","C3","batch3","","1970.300000000745","stim/no_33_1_b.png","j","pattern_response","true","j","pattern_15","1970.300000000745","true","12","","","","","","","","","","","","","","","","","","",""
"","","","","","html-keyboard-response","45","95506","0.0-2.0-5.0-0.12","5b5c3b266b25590001778ea1","C3","batch3","","null","<p class=block-text>Trial 13 out of 78</p>","null","pattern_show_trial_num","","","","","","","","","","","","","","","","","","","","","","","","",""
"","","","","","image-keyboard-response","46","97506","0.0-2.0-5.0-1.12","5b5c3b266b25590001778ea1","C3","batch3","","1997.300000000745","stim/no_30_1_b.png","j","pattern_response","true","j","pattern_13","1997.300000000745","true","13","","","","","","","","","","","","","","","","","","",""
"","","","","","html-keyboard-response","47","98816","0.0-2.0-5.0-0.13","5b5c3b266b25590001778ea1","C3","batch3","","null","<p class=block-text>Trial 14 out of 78</p>","null","pattern_show_trial_num","","","","","","","","","","","","","","","","","","","","","","","","",""
"","","","","","image-keyboard-response","48","102118","0.0-2.0-5.0-1.13","5b5c3b266b25590001778ea1","C3","batch3","","3299.0999999996275","stim/no_49_2_b.png","j","pattern_response","true","j","pattern_29","3299.0999999996275","true","14","","","","","","","","","","","","","","","","","","",""
"","","","","","html-keyboard-response","49","103446","0.0-2.0-5.0-0.14","5b5c3b266b25590001778ea1","C3","batch3","","null","<p class=block-text>Trial 15 out of 78</p>","null","pattern_show_trial_num","","","","","","","","","","","","","","","","","","","","","","","","",""
"","","","","","image-keyboard-response","50","104896","0.0-2.0-5.0-1.14","5b5c3b266b25590001778ea1","C3","batch3","","1447.6000000014901","stim/no_18_1_b.png","j","pattern_response","true","j","pattern_05","1447.6000000014901","true","15","","","","","","","","","","","","","","","","","","",""
"","","","","","html-keyboard-response","51","106213","0.0-2.0-5.0-0.15","5b5c3b266b25590001778ea1","C3","batch3","","null","<p class=block-text>Trial 16 out of 78</p>","null","pattern_show_trial_num","","","","","","","","","","","","","","","","","","","","","","","","",""
"","","","","","image-keyboard-response","52","106980","0.0-2.0-5.0-1.15","5b5c3b266b25590001778ea1","C3","batch3","","764.5999999996275","stim/yes_39_hor_w1_w.png","f","pattern_response","true","f","pattern_62","764.5999999996275","true","16","","","","","","","","","","","","","","","","","","",""
"","","","","","html-keyboard-response","53","108304","0.0-2.0-5.0-0.16","5b5c3b266b25590001778ea1","C3","batch3","","null","<p class=block-text>Trial 17 out of 78</p>","null","pattern_show_trial_num","","","","","","","","","","","","","","","","","","","","","","","","",""
"","","","","","image-keyboard-response","54","111477","0.0-2.0-5.0-1.16","5b5c3b266b25590001778ea1","C3","batch3","","3171.5","stim/yes_49_hor_w1_b.png","f","pattern_response","true","f","pattern_70","3171.5","true","17","","","","","","","","","","","","","","","","","","",""
"","","","","","html-keyboard-response","55","112792","0.0-2.0-5.0-0.17","5b5c3b266b25590001778ea1","C3","batch3","","null","<p class=block-text>Trial 18 out of 78</p>","null","pattern_show_trial_num","","","","","","","","","","","","","","","","","","","","","","","","",""
"","","","","","image-keyboard-response","56","115306","0.0-2.0-5.0-1.17","5b5c3b266b25590001778ea1","C3","batch3","","2510.2999999988824","stim/no_25_1_b.png","j","pattern_response","true","j","pattern_09","2510.2999999988824","true","18","","","","","","","","","","","","","","","","","","",""
"","","","","","html-keyboard-response","57","116622","0.0-2.0-5.0-0.18","5b5c3b266b25590001778ea1","C3","batch3","","null","<p class=block-text>Trial 19 out of 78</p>","null","pattern_show_trial_num","","","","","","","","","","","","","","","","","","","","","","","","",""
"","","","","","image-keyboard-response","58","119074","0.0-2.0-5.0-1.18","5b5c3b266b25590001778ea1","C3","batch3","","2449.7000000011176","stim/no_43_2_b.png","j","pattern_response","true","j","pattern_23","2449.7000000011176","true","19","","","","","","","","","","","","","","","","","","",""
"","","","","","html-keyboard-response","59","120392","0.0-2.0-5.0-0.19","5b5c3b266b25590001778ea1","C3","batch3","","null","<p class=block-text>Trial 20 out of 78</p>","null","pattern_show_trial_num","","","","","","","","","","","","","","","","","","","","","","","","",""
"","","","","","image-keyboard-response","60","123705","0.0-2.0-5.0-1.19","5b5c3b266b25590001778ea1","C3","batch3","","3310.5999999996275","stim/yes_53_ver_b1_b.png","j","pattern_response","false","f","pattern_74","3310.5999999996275","false","19","","","","","","","","","","","","","","","","","","",""
"","","","","","html-keyboard-response","61","125020","0.0-2.0-5.0-0.20","5b5c3b266b25590001778ea1","C3","batch3","","null","<p class=block-text>Trial 21 out of 78</p>","null","pattern_show_trial_num","","","","","","","","","","","","","","","","","","","","","","","","",""
"","","","","","image-keyboard-response","62","125948","0.0-2.0-5.0-1.20","5b5c3b266b25590001778ea1","C3","batch3","","925.7999999988824","stim/yes_26_dia_w2_w.png","f","pattern_response","true","f","pattern_50","925.7999999988824","true","20","","","","","","","","","","","","","","","","","","",""
"","","","","","html-keyboard-response","63","127266","0.0-2.0-5.0-0.21","5b5c3b266b25590001778ea1","C3","batch3","","null","<p class=block-text>Trial 22 out of 78</p>","null","pattern_show_trial_num","","","","","","","","","","","","","","","","","","","","","","","","",""
"","","","","","image-keyboard-response","64","128104","0.0-2.0-5.0-1.21","5b5c3b266b25590001778ea1","C3","batch3","","836","stim/yes_17_ver_b1_b.png","f","pattern_response","true","f","pattern_46","836","true","21","","","","","","","","","","","","","","","","","","",""
"","","","","","html-keyboard-response","65","129426","0.0-2.0-5.0-0.22","5b5c3b266b25590001778ea1","C3","batch3","","null","<p class=block-text>Trial 23 out of 78</p>","null","pattern_show_trial_num","","","","","","","","","","","","","","","","","","","","","","","","",""
"","","","","","image-keyboard-response","66","131188","0.0-2.0-5.0-1.22","5b5c3b266b25590001778ea1","C3","batch3","","1760","stim/yes_30_ver_b1_b.png","f","pattern_response","true","f","pattern_54","1760","true","22","","","","","","","","","","","","","","","","","","",""
"","","","","","html-keyboard-response","67","132504","0.0-2.0-5.0-0.23","5b5c3b266b25590001778ea1","C3","batch3","","null","<p class=block-text>Trial 24 out of 78</p>","null","pattern_show_trial_num","","","","","","","","","","","","","","","","","","","","","","","","",""
"","","","","","image-keyboard-response","68","133613","0.0-2.0-5.0-1.23","5b5c3b266b25590001778ea1","C3","batch3","","1106.0999999996275","stim/yes_33_dia_w1_w.png","f","pattern_response","true","f","pattern_56","1106.0999999996275","true","23","","","","","","","","","","","","","","","","","","",""
"","","","","","html-keyboard-response","69","134937","0.0-2.0-5.0-0.24","5b5c3b266b25590001778ea1","C3","batch3","","null","<p class=block-text>Trial 25 out of 78</p>","null","pattern_show_trial_num","","","","","","","","","","","","","","","","","","","","","","","","",""
"","","","","","image-keyboard-response","70","138735","0.0-2.0-5.0-1.24","5b5c3b266b25590001778ea1","C3","batch3","","3796.2000000011176","stim/no_37_2_w.png","j","pattern_response","true","j","pattern_19","3796.2000000011176","true","24","","","","","","","","","","","","","","","","","","",""
"","","","","","html-keyboard-response","71","140049","0.0-2.0-5.0-0.25","5b5c3b266b25590001778ea1","C3","batch3","","null","<p class=block-text>Trial 26 out of 78</p>","null","pattern_show_trial_num","","","","","","","","","","","","","","","","","","","","","","","","",""
"","","","","","image-keyboard-response","72","141051","0.0-2.0-5.0-1.25","5b5c3b266b25590001778ea1","C3","batch3","","999.4000000003725","stim/yes_37_hor_w1_w.png","f","pattern_response","true","f","pattern_60","999.4000000003725","true","25","","","","","","","","","","","","","","","","","","",""
"","","","","","html-keyboard-response","73","142368","0.0-2.0-5.0-0.26","5b5c3b266b25590001778ea1","C3","batch3","","null","<p class=block-text>Trial 27 out of 78</p>","null","pattern_show_trial_num","","","","","","","","","","","","","","","","","","","","","","","","",""
"","","","","","image-keyboard-response","74","143824","0.0-2.0-5.0-1.26","5b5c3b266b25590001778ea1","C3","batch3","","1454.4000000003725","stim/yes_51_dia_b1.png","f","pattern_response","true","f","pattern_72","1454.4000000003725","true","26","","","","","","","","","","","","","","","","","","",""
"","","","","","html-keyboard-response","75","145139","0.0-2.0-5.0-0.27","5b5c3b266b25590001778ea1","C3","batch3","","null","<p class=block-text>Trial 28 out of 78</p>","null","pattern_show_trial_num","","","","","","","","","","","","","","","","","","","","","","","","",""
"","","","","","image-keyboard-response","76","149727","0.0-2.0-5.0-1.27","5b5c3b266b25590001778ea1","C3","batch3","","4585.699999999255","stim/no_45_1_w.png","j","pattern_response","true","j","pattern_25","4585.699999999255","true","27","","","","","","","","","","","","","","","","","","",""
"","","","","","html-keyboard-response","77","151047","0.0-2.0-5.0-0.28","5b5c3b266b25590001778ea1","C3","batch3","","null","<p class=block-text>Trial 29 out of 78</p>","null","pattern_show_trial_num","","","","","","","","","","","","","","","","","","","","","","","","",""
"","","","","","image-keyboard-response","78","152230","0.0-2.0-5.0-1.28","5b5c3b266b25590001778ea1","C3","batch3","","1180.4000000003725","stim/no_15_1_w.png","j","pattern_response","true","j","pattern_03","1180.4000000003725","true","28","","","","","","","","","","","","","","","","","","",""
"","","","","","html-keyboard-response","79","153549","0.0-2.0-5.0-0.29","5b5c3b266b25590001778ea1","C3","batch3","","null","<p class=block-text>Trial 30 out of 78</p>","null","pattern_show_trial_num","","","","","","","","","","","","","","","","","","","","","","","","",""
"","","","","","image-keyboard-response","80","158342","0.0-2.0-5.0-1.29","5b5c3b266b25590001778ea1","C3","batch3","","4791.4000000003725","stim/yes_58_dia_w1_w.png","f","pattern_response","true","f","pattern_76","4791.4000000003725","true","29","","","","","","","","","","","","","","","","","","",""
"","","","","","html-keyboard-response","81","159653","0.0-2.0-5.0-0.30","5b5c3b266b25590001778ea1","C3","batch3","","null","<p class=block-text>Trial 31 out of 78</p>","null","pattern_show_trial_num","","","","","","","","","","","","","","","","","","","","","","","","",""
"","","","","","image-keyboard-response","82","161891","0.0-2.0-5.0-1.30","5b5c3b266b25590001778ea1","C3","batch3","","2235.300000000745","stim/yes_42_dia_w1_w.png","f","pattern_response","true","f","pattern_64","2235.300000000745","true","30","","","","","","","","","","","","","","","","","","",""
"","","","","","html-keyboard-response","83","163214","0.0-2.0-5.0-0.31","5b5c3b266b25590001778ea1","C3","batch3","","null","<p class=block-text>Trial 32 out of 78</p>","null","pattern_show_trial_num","","","","","","","","","","","","","","","","","","","","","","","","",""
"","","","","","image-keyboard-response","84","164164","0.0-2.0-5.0-1.31","5b5c3b266b25590001778ea1","C3","batch3","","946.8999999985099","stim/yes_15_dia_b1u_b.png","f","pattern_response","true","f","pattern_44","946.8999999985099","true","31","","","","","","","","","","","","","","","","","","",""
"","","","","","html-keyboard-response","85","165490","0.0-2.0-5.0-0.32","5b5c3b266b25590001778ea1","C3","batch3","","null","<p class=block-text>Trial 33 out of 78</p>","null","pattern_show_trial_num","","","","","","","","","","","","","","","","","","","","","","","","",""
"","","","","","image-keyboard-response","86","172311","0.0-2.0-5.0-1.32","5b5c3b266b25590001778ea1","C3","batch3","","6819.5999999996275","stim/no_58_1_w.png","j","pattern_response","true","j","pattern_35","6819.5999999996275","true","32","","","","","","","","","","","","","","","","","","",""
"","","","","","html-keyboard-response","87","173634","0.0-2.0-5.0-0.33","5b5c3b266b25590001778ea1","C3","batch3","","null","<p class=block-text>Trial 34 out of 78</p>","null","pattern_show_trial_num","","","","","","","","","","","","","","","","","","","","","","","","",""
"","","","","","image-keyboard-response","88","176500","0.0-2.0-5.0-1.33","5b5c3b266b25590001778ea1","C3","batch3","","2862.5","stim/no_28_2.png","j","pattern_response","true","j","pattern_11","2862.5","true","33","","","","","","","","","","","","","","","","","","",""
"","","","","","html-keyboard-response","89","177823","0.0-2.0-5.0-0.34","5b5c3b266b25590001778ea1","C3","batch3","","null","<p class=block-text>Trial 35 out of 78</p>","null","pattern_show_trial_num","","","","","","","","","","","","","","","","","","","","","","","","",""
"","","","","","image-keyboard-response","90","179362","0.0-2.0-5.0-1.34","5b5c3b266b25590001778ea1","C3","batch3","","1535.5999999996275","stim/no_22_1_b.png","j","pattern_response","true","j","pattern_07","1535.5999999996275","true","34","","","","","","","","","","","","","","","","","","",""
"","","","","","html-keyboard-response","91","180678","0.0-2.0-5.0-0.35","5b5c3b266b25590001778ea1","C3","batch3","","null","<p class=block-text>Trial 36 out of 78</p>","null","pattern_show_trial_num","","","","","","","","","","","","","","","","","","","","","","","","",""
"","","","","","image-keyboard-response","92","184922","0.0-2.0-5.0-1.35","5b5c3b266b25590001778ea1","C3","batch3","","4242.699999999255","stim/no_51_1.png","j","pattern_response","true","j","pattern_31","4242.699999999255","true","35","","","","","","","","","","","","","","","","","","",""
"","","","","","html-keyboard-response","93","186239","0.0-2.0-5.0-0.36","5b5c3b266b25590001778ea1","C3","batch3","","null","<p class=block-text>Trial 37 out of 78</p>","null","pattern_show_trial_num","","","","","","","","","","","","","","","","","","","","","","","","",""
"","","","","","image-keyboard-response","94","189527","0.0-2.0-5.0-1.36","5b5c3b266b25590001778ea1","C3","batch3","","3285.800000000745","stim/no_36_1_b.png","j","pattern_response","true","j","pattern_17","3285.800000000745","true","36","","","","","","","","","","","","","","","","","","",""
"","","","","","html-keyboard-response","95","190851","0.0-2.0-5.0-0.37","5b5c3b266b25590001778ea1","C3","batch3","","null","<p class=block-text>Trial 38 out of 78</p>","null","pattern_show_trial_num","","","","","","","","","","","","","","","","","","","","","","","","",""
"","","","","","image-keyboard-response","96","193117","0.0-2.0-5.0-1.37","5b5c3b266b25590001778ea1","C3","batch3","","2263.5","stim/yes_23_ver_b1.png","f","pattern_response","true","f","pattern_48","2263.5","true","37","","","","","","","","","","","","","","","","","","",""
"","","","","","html-keyboard-response","97","194439","0.0-2.0-5.0-0.38","5b5c3b266b25590001778ea1","C3","batch3","","null","<p class=block-text>Trial 39 out of 78</p>","null","pattern_show_trial_num","","","","","","","","","","","","","","","","","","","","","","","","",""
"","","","","","image-keyboard-response","98","201230","0.0-2.0-5.0-1.38","5b5c3b266b25590001778ea1","C3","batch3","","6788.799999998882","stim/no_67_1.png","j","pattern_response","true","j","pattern_39","6788.799999998882","true","38","","","","","","","","","","","","","","","","","","",""
"","","","","","image-keyboard-response","99","203279","0.0-2.0-6.0","5b5c3b266b25590001778ea1","C3","batch3","","1546.4000000003725","stim/empty_board.png","j","attention_check","true","j","","","","","500","[""f"",""j""]","","","","","","","","","","","","","","","","",""
"","","","","","html-keyboard-response","100","204087","0.0-2.0-7.0-0.0","5b5c3b266b25590001778ea1","C3","batch3","","null","<p class=block-text>Trial 40 out of 78</p>","null","pattern_show_trial_num","","","","","","","","","","","","","","","","","","","","","","","","",""
"","","","","","image-keyboard-response","101","205610","0.0-2.0-7.0-1.0","5b5c3b266b25590001778ea1","C3","batch3","","1520","stim/yes_55_hor_w1_w.png","f","pattern_response","true","f","pattern_75","1520","true","39","","","","","","","","","","","","","","","","","","",""
"","","","","","html-keyboard-response","102","206919","0.0-2.0-7.0-0.1","5b5c3b266b25590001778ea1","C3","batch3","","null","<p class=block-text>Trial 41 out of 78</p>","null","pattern_show_trial_num","","","","","","","","","","","","","","","","","","","","","","","","",""
"","","","","","image-keyboard-response","103","208457","0.0-2.0-7.0-1.1","5b5c3b266b25590001778ea1","C3","batch3","","1536.5","stim/no_20_1_w.png","j","pattern_response","true","j","pattern_06","1536.5","true","40","","","","","","","","","","","","","","","","","","",""
"","","","","","html-keyboard-response","104","209771","0.0-2.0-7.0-0.2","5b5c3b266b25590001778ea1","C3","batch3","","null","<p class=block-text>Trial 42 out of 78</p>","null","pattern_show_trial_num","","","","","","","","","","","","","","","","","","","","","","","","",""
"","","","","","image-keyboard-response","105","211668","0.0-2.0-7.0-1.2","5b5c3b266b25590001778ea1","C3","batch3","","1893.5","stim/yes_48_dia_w1_w.png","f","pattern_response","true","f","pattern_69","1893.5","true","41","","","","","","","","","","","","","","","","","","",""
"","","","","","html-keyboard-response","106","212997","0.0-2.0-7.0-0.3","5b5c3b266b25590001778ea1","C3","batch3","","null","<p class=block-text>Trial 43 out of 78</p>","null","pattern_show_trial_num","","","","","","","","","","","","","","","","","","","","","","","","",""
"","","","","","image-keyboard-response","107","214149","0.0-2.0-7.0-1.3","5b5c3b266b25590001778ea1","C3","batch3","","1150.4000000003725","stim/yes_40_dia_b1_b.png","f","pattern_response","true","f","pattern_63","1150.4000000003725","true","42","","","","","","","","","","","","","","","","","","",""
"","","","","","html-keyboard-response","108","215470","0.0-2.0-7.0-0.4","5b5c3b266b25590001778ea1","C3","batch3","","null","<p class=block-text>Trial 44 out of 78</p>","null","pattern_show_trial_num","","","","","","","","","","","","","","","","","","","","","","","","",""
"","","","","","image-keyboard-response","109","218145","0.0-2.0-7.0-1.4","5b5c3b266b25590001778ea1","C3","batch3","","2673","stim/no_23_1.png","j","pattern_response","true","j","pattern_08","2673","true","43","","","","","","","","","","","","","","","","","","",""
"","","","","","html-keyboard-response","110","219462","0.0-2.0-7.0-0.5","5b5c3b266b25590001778ea1","C3","batch3","","null","<p class=block-text>Trial 45 out of 78</p>","null","pattern_show_trial_num","","","","","","","","","","","","","","","","","","","","","","","","",""
"","","","","","image-keyboard-response","111","220575","0.0-2.0-7.0-1.5","5b5c3b266b25590001778ea1","C3","batch3","","1111.1000000014901","stim/yes_38_hor_b1_b.png","f","pattern_response","true","f","pattern_61","1111.1000000014901","true","44","","","","","","","","","","","","","","","","","","",""
"","","","","","html-keyboard-response","112","221892","0.0-2.0-7.0-0.6","5b5c3b266b25590001778ea1","C3","batch3","","null","<p class=block-text>Trial 46 out of 78</p>","null","pattern_show_trial_num","","","","","","","","","","","","","","","","","","","","","","","","",""
"","","","","","image-keyboard-response","113","224674","0.0-2.0-7.0-1.6","5b5c3b266b25590001778ea1","C3","batch3","","2779.0999999996275","stim/yes_50_dia_w1.png","f","pattern_response","true","f","pattern_71","2779.0999999996275","true","45","","","","","","","","","","","","","","","","","","",""
"","","","","","html-keyboard-response","114","225996","0.0-2.0-7.0-0.7","5b5c3b266b25590001778ea1","C3","batch3","","null","<p class=block-text>Trial 47 out of 78</p>","null","pattern_show_trial_num","","","","","","","","","","","","","","","","","","","","","","","","",""
"","","","","","image-keyboard-response","115","230909","0.0-2.0-7.0-1.7","5b5c3b266b25590001778ea1","C3","batch3","","4909.9000000003725","stim/no_48_1_w.png","j","pattern_response","true","j","pattern_28","4909.9000000003725","true","46","","","","","","","","","","","","","","","","","","",""
"","","","","","html-keyboard-response","116","232230","0.0-2.0-7.0-0.8","5b5c3b266b25590001778ea1","C3","batch3","","null","<p class=block-text>Trial 48 out of 78</p>","null","pattern_show_trial_num","","","","","","","","","","","","","","","","","","","","","","","","",""
"","","","","","image-keyboard-response","117","237606","0.0-2.0-7.0-1.8","5b5c3b266b25590001778ea1","C3","batch3","","5373","stim/no_52_1.png","j","pattern_response","true","j","pattern_32","5373","true","47","","","","","","","","","","","","","","","","","","",""
"","","","","","html-keyboard-response","118","238927","0.0-2.0-7.0-0.9","5b5c3b266b25590001778ea1","C3","batch3","","null","<p class=block-text>Trial 49 out of 78</p>","null","pattern_show_trial_num","","","","","","","","","","","","","","","","","","","","","","","","",""
"","","","","","image-keyboard-response","119","240017","0.0-2.0-7.0-1.9","5b5c3b266b25590001778ea1","C3","batch3","","1086.4000000003725","stim/no_13_2_b.png","j","pattern_response","true","j","pattern_02","1086.4000000003725","true","48","","","","","","","","","","","","","","","","","","",""
"","","","","","html-keyboard-response","120","241331","0.0-2.0-7.0-0.10","5b5c3b266b25590001778ea1","C3","batch3","","null","<p class=block-text>Trial 50 out of 78</p>","null","pattern_show_trial_num","","","","","","","","","","","","","","","","","","","","","","","","",""
"","","","","","image-keyboard-response","121","244605","0.0-2.0-7.0-1.10","5b5c3b266b25590001778ea1","C3","batch3","","3271.60000000149","stim/yes_14_hor_b1_w.png","f","pattern_response","true","f","pattern_43","3271.60000000149","true","49","","","","","","","","","","","","","","","","","","",""
"","","","","","html-keyboard-response","122","245917","0.0-2.0-7.0-0.11","5b5c3b266b25590001778ea1","C3","batch3","","null","<p class=block-text>Trial 51 out of 78</p>","null","pattern_show_trial_num","","","","","","","","","","","","","","","","","","","","","","","","",""
"","","","","","image-keyboard-response","123","247883","0.0-2.0-7.0-1.11","5b5c3b266b25590001778ea1","C3","batch3","","1947.199999999255","stim/yes_43_ver_w1_w.png","f","pattern_response","true","f","pattern_65","1947.199999999255","true","50","","","","","","","","","","","","","","","","","","",""
"","","","","","html-keyboard-response","124","249201","0.0-2.0-7.0-0.12","5b5c3b266b25590001778ea1","C3","batch3","","null","<p class=block-text>Trial 52 out of 78</p>","null","pattern_show_trial_num","","","","","","","","","","","","","","","","","","","","","","","","",""
"","","","","","image-keyboard-response","125","257515","0.0-2.0-7.0-1.12","5b5c3b266b25590001778ea1","C3","batch3","","8311.400000000373","stim/no_65_1_b.png","j","pattern_response","true","j","pattern_38","8311.400000000373","true","51","","","","","","","","","","","","","","","","","","",""
"","","","","","html-keyboard-response","126","258828","0.0-2.0-7.0-0.13","5b5c3b266b25590001778ea1","C3","batch3","","null","<p class=block-text>Trial 53 out of 78</p>","null","pattern_show_trial_num","","","","","","","","","","","","","","","","","","","","","","","","",""
"","","","","","image-keyboard-response","127","260672","0.0-2.0-7.0-1.13","5b5c3b266b25590001778ea1","C3","batch3","","1841","stim/yes_37_dia_w1.png","f","pattern_response","true","f","pattern_59","1841","true","52","","","","","","","","","","","","","","","","","","",""
"","","","","","html-keyboard-response","128","261985","0.0-2.0-7.0-0.14","5b5c3b266b25590001778ea1","C3","batch3","","null","<p class=block-text>Trial 54 out of 78</p>","null","pattern_show_trial_num","","","","","","","","","","","","","","","","","","","","","","","","",""
"","","","","","image-keyboard-response","129","266273","0.0-2.0-7.0-1.14","5b5c3b266b25590001778ea1","C3","batch3","","4285.4000000003725","stim/no_36_2_w.png","j","pattern_response","true","j","pattern_18","4285.4000000003725","true","53","","","","","","","","","","","","","","","","","","",""
"","","","","","html-keyboard-response","130","267586","0.0-2.0-7.0-0.15","5b5c3b266b25590001778ea1","C3","batch3","","null","<p class=block-text>Trial 55 out of 78</p>","null","pattern_show_trial_num","","","","","","","","","","","","","","","","","","","","","","","","",""
"","","","","","image-keyboard-response","131","268817","0.0-2.0-7.0-1.15","5b5c3b266b25590001778ea1","C3","batch3","","1227.4000000003725","stim/yes_35_dia_b1.png","f","pattern_response","true","f","pattern_57","1227.4000000003725","true","54","","","","","","","","","","","","","","","","","","",""
"","","","","","html-keyboard-response","132","270138","0.0-2.0-7.0-0.16","5b5c3b266b25590001778ea1","C3","batch3","","null","<p class=block-text>Trial 56 out of 78</p>","null","pattern_show_trial_num","","","","","","","","","","","","","","","","","","","","","","","","",""
"","","","","","image-keyboard-response","133","275505","0.0-2.0-7.0-1.16","5b5c3b266b25590001778ea1","C3","batch3","","5364.699999999255","stim/no_38_1_b.png","j","pattern_response","true","j","pattern_20","5364.699999999255","true","55","","","","","","","","","","","","","","","","","","",""
"","","","","","html-keyboard-response","134","276831","0.0-2.0-7.0-0.17","5b5c3b266b25590001778ea1","C3","batch3","","null","<p class=block-text>Trial 57 out of 78</p>","null","pattern_show_trial_num","","","","","","","","","","","","","","","","","","","","","","","","",""
"","","","","","image-keyboard-response","135","283033","0.0-2.0-7.0-1.17","5b5c3b266b25590001778ea1","C3","batch3","","6198.800000000745","stim/yes_67_hor_b1.png","j","pattern_response","false","f","pattern_79","6198.800000000745","false","55","","","","","","","","","","","","","","","","","","",""
"","","","","","html-keyboard-response","136","284343","0.0-2.0-7.0-0.18","5b5c3b266b25590001778ea1","C3","batch3","","null","<p class=block-text>Trial 58 out of 78</p>","null","pattern_show_trial_num","","","","","","","","","","","","","","","","","","","","","","","","",""
"","","","","","image-keyboard-response","137","286707","0.0-2.0-7.0-1.18","5b5c3b266b25590001778ea1","C3","batch3","","2361.2999999988824","stim/no_26_1_w.png","j","pattern_response","true","j","pattern_10","2361.2999999988824","true","56","","","","","","","","","","","","","","","","","","",""
"","","","","","html-keyboard-response","138","288034","0.0-2.0-7.0-0.19","5b5c3b266b25590001778ea1","C3","batch3","","null","<p class=block-text>Trial 59 out of 78</p>","null","pattern_show_trial_num","","","","","","","","","","","","","","","","","","","","","","","","",""
"","","","","","image-keyboard-response","139","291764","0.0-2.0-7.0-1.19","5b5c3b266b25590001778ea1","C3","batch3","","3728.800000000745","stim/yes_52_ver_w1.png","f","pattern_response","true","f","pattern_73","3728.800000000745","true","57","","","","","","","","","","","","","","","","","","",""
"","","","","","html-keyboard-response","140","293086","0.0-2.0-7.0-0.20","5b5c3b266b25590001778ea1","C3","batch3","","null","<p class=block-text>Trial 60 out of 78</p>","null","pattern_show_trial_num","","","","","","","","","","","","","","","","","","","","","","","","",""
"","","","","","image-keyboard-response","141","296610","0.0-2.0-7.0-1.20","5b5c3b266b25590001778ea1","C3","batch3","","3521.60000000149","stim/no_42_1_w.png","j","pattern_response","true","j","pattern_22","3521.60000000149","true","58","","","","","","","","","","","","","","","","","","",""
"","","","","","html-keyboard-response","142","297931","0.0-2.0-7.0-0.21","5b5c3b266b25590001778ea1","C3","batch3","","null","<p class=block-text>Trial 61 out of 78</p>","null","pattern_show_trial_num","","","","","","","","","","","","","","","","","","","","","","","","",""
"","","","","","image-keyboard-response","143","298803","0.0-2.0-7.0-1.21","5b5c3b266b25590001778ea1","C3","batch3","","868.5999999996275","stim/yes_28_ver_b1.png","f","pattern_response","true","f","pattern_51","868.5999999996275","true","59","","","","","","","","","","","","","","","","","","",""
"","","","","","html-keyboard-response","144","300112","0.0-2.0-7.0-0.22","5b5c3b266b25590001778ea1","C3","batch3","","null","<p class=block-text>Trial 62 out of 78</p>","null","pattern_show_trial_num","","","","","","","","","","","","","","","","","","","","","","","","",""
"","","","","","image-keyboard-response","145","301077","0.0-2.0-7.0-1.22","5b5c3b266b25590001778ea1","C3","batch3","","962.7999999988824","stim/yes_29_ver_w1.png","f","pattern_response","true","f","pattern_53","962.7999999988824","true","60","","","","","","","","","","","","","","","","","","",""
"","","","","","html-keyboard-response","146","302401","0.0-2.0-7.0-0.23","5b5c3b266b25590001778ea1","C3","batch3","","null","<p class=block-text>Trial 63 out of 78</p>","null","pattern_show_trial_num","","","","","","","","","","","","","","","","","","","","","","","","",""
"","","","","","image-keyboard-response","147","305042","0.0-2.0-7.0-1.23","5b5c3b266b25590001778ea1","C3","batch3","","2638.5","stim/yes_60_ver_b1_b.png","f","pattern_response","true","f","pattern_77","2638.5","true","61","","","","","","","","","","","","","","","","","","",""
"","","","","","html-keyboard-response","148","306360","0.0-2.0-7.0-0.24","5b5c3b266b25590001778ea1","C3","batch3","","null","<p class=block-text>Trial 64 out of 78</p>","null","pattern_show_trial_num","","","","","","","","","","","","","","","","","","","","","","","","",""
"","","","","","image-keyboard-response","149","310924","0.0-2.0-7.0-1.24","5b5c3b266b25590001778ea1","C3","batch3","","4561.700000001118","stim/no_34_1_b.png","j","pattern_response","true","j","pattern_16","4561.700000001118","true","62","","","","","","","","","","","","","","","","","","",""
"","","","","","html-keyboard-response","150","312248","0.0-2.0-7.0-0.25","5b5c3b266b25590001778ea1","C3","batch3","","null","<p class=block-text>Trial 65 out of 78</p>","null","pattern_show_trial_num","","","","","","","","","","","","","","","","","","","","","","","","",""
"","","","","","image-keyboard-response","151","314121","0.0-2.0-7.0-1.25","5b5c3b266b25590001778ea1","C3","batch3","","1870.800000000745","stim/yes_31_hor_b1.png","f","pattern_response","true","f","pattern_55","1870.800000000745","true","63","","","","","","","","","","","","","","","","","","",""
"","","","","","html-keyboard-response","152","315447","0.0-2.0-7.0-0.26","5b5c3b266b25590001778ea1","C3","batch3","","null","<p class=block-text>Trial 66 out of 78</p>","null","pattern_show_trial_num","","","","","","","","","","","","","","","","","","","","","","","","",""
"","","","","","image-keyboard-response","153","316469","0.0-2.0-7.0-1.26","5b5c3b266b25590001778ea1","C3","batch3","","1019.9000000003725","stim/yes_17_dia_w1.png","f","pattern_response","true","f","pattern_45","1019.9000000003725","true","64","","","","","","","","","","","","","","","","","","",""
"","","","","","html-keyboard-response","154","317789","0.0-2.0-7.0-0.27","5b5c3b266b25590001778ea1","C3","batch3","","null","<p class=block-text>Trial 67 out of 78</p>","null","pattern_show_trial_num","","","","","","","","","","","","","","","","","","","","","","","","",""
"","","","","","image-keyboard-response","155","324964","0.0-2.0-7.0-1.27","5b5c3b266b25590001778ea1","C3","batch3","","7172.699999999255","stim/no_55_1_w.png","j","pattern_response","true","j","pattern_34","7172.699999999255","true","65","","","","","","","","","","","","","","","","","","",""
"","","","","","html-keyboard-response","156","326287","0.0-2.0-7.0-0.28","5b5c3b266b25590001778ea1","C3","batch3","","null","<p class=block-text>Trial 68 out of 78</p>","null","pattern_show_trial_num","","","","","","","","","","","","","","","","","","","","","","","","",""
"","","","","","image-keyboard-response","157","332617","0.0-2.0-7.0-1.28","5b5c3b266b25590001778ea1","C3","batch3","","6327.5","stim/no_50_1.png","j","pattern_response","true","j","pattern_30","6327.5","true","66","","","","","","","","","","","","","","","","","","",""
"","","","","","html-keyboard-response","158","333931","0.0-2.0-7.0-0.29","5b5c3b266b25590001778ea1","C3","batch3","","null","<p class=block-text>Trial 69 out of 78</p>","null","pattern_show_trial_num","","","","","","","","","","","","","","","","","","","","","","","","",""
"","","","","","image-keyboard-response","159","338070","0.0-2.0-7.0-1.29","5b5c3b266b25590001778ea1","C3","batch3","","4135.4000000003725","stim/no_44_1.png","j","pattern_response","true","j","pattern_24","4135.4000000003725","true","67","","","","","","","","","","","","","","","","","","",""
"","","","","","html-keyboard-response","160","339396","0.0-2.0-7.0-0.30","5b5c3b266b25590001778ea1","C3","batch3","","null","<p class=block-text>Trial 70 out of 78</p>","null","pattern_show_trial_num","","","","","","","","","","","","","","","","","","","","","","","","",""
"","","","","","image-keyboard-response","161","346195","0.0-2.0-7.0-1.30","5b5c3b266b25590001778ea1","C3","batch3","","6795.9000000003725","stim/no_62_1_w.png","j","pattern_response","true","j","pattern_36","6795.9000000003725","true","68","","","","","","","","","","","","","","","","","","",""
"","","","","","html-keyboard-response","162","347522","0.0-2.0-7.0-0.31","5b5c3b266b25590001778ea1","C3","batch3","","null","<p class=block-text>Trial 71 out of 78</p>","null","pattern_show_trial_num","","","","","","","","","","","","","","","","","","","","","","","","",""
"","","","","","image-keyboard-response","163","348388","0.0-2.0-7.0-1.31","5b5c3b266b25590001778ea1","C3","batch3","","863.0999999996275","stim/yes_25_hor_b1_b.png","f","pattern_response","true","f","pattern_49","863.0999999996275","true","69","","","","","","","","","","","","","","","","","","",""
"","","","","","html-keyboard-response","164","349712","0.0-2.0-7.0-0.32","5b5c3b266b25590001778ea1","C3","batch3","","null","<p class=block-text>Trial 72 out of 78</p>","null","pattern_show_trial_num","","","","","","","","","","","","","","","","","","","","","","","","",""
"","","","","","image-keyboard-response","165","350879","0.0-2.0-7.0-1.32","5b5c3b266b25590001778ea1","C3","batch3","","1165.300000000745","stim/yes_45_hor_b2_b.png","f","pattern_response","true","f","pattern_67","1165.300000000745","true","70","","","","","","","","","","","","","","","","","","",""
"","","","","","html-keyboard-response","166","352205","0.0-2.0-7.0-0.33","5b5c3b266b25590001778ea1","C3","batch3","","null","<p class=block-text>Trial 73 out of 78</p>","null","pattern_show_trial_num","","","","","","","","","","","","","","","","","","","","","","","","",""
"","","","","","image-keyboard-response","167","359783","0.0-2.0-7.0-1.33","5b5c3b266b25590001778ea1","C3","batch3","","7576.39999999851","stim/no_70_2.png","j","pattern_response","true","j","pattern_40","7576.39999999851","true","71","","","","","","","","","","","","","","","","","","",""
"","","","","","html-keyboard-response","168","361114","0.0-2.0-7.0-0.34","5b5c3b266b25590001778ea1","C3","batch3","","null","<p class=block-text>Trial 74 out of 78</p>","null","pattern_show_trial_num","","","","","","","","","","","","","","","","","","","","","","","","",""
"","","","","","image-keyboard-response","169","364959","0.0-2.0-7.0-1.34","5b5c3b266b25590001778ea1","C3","batch3","","3842.5999999996275","stim/no_46_1_b.png","j","pattern_response","true","j","pattern_26","3842.5999999996275","true","72","","","","","","","","","","","","","","","","","","",""
"","","","","","html-keyboard-response","170","366276","0.0-2.0-7.0-0.35","5b5c3b266b25590001778ea1","C3","batch3","","null","<p class=block-text>Trial 75 out of 78</p>","null","pattern_show_trial_num","","","","","","","","","","","","","","","","","","","","","","","","",""
"","","","","","image-keyboard-response","171","368011","0.0-2.0-7.0-1.35","5b5c3b266b25590001778ea1","C3","batch3","","1732.800000000745","stim/no_17_1_w.png","j","pattern_response","true","j","pattern_04","1732.800000000745","true","73","","","","","","","","","","","","","","","","","","",""
"","","","","","html-keyboard-response","172","369325","0.0-2.0-7.0-0.36","5b5c3b266b25590001778ea1","C3","batch3","","null","<p class=block-text>Trial 76 out of 78</p>","null","pattern_show_trial_num","","","","","","","","","","","","","","","","","","","","","","","","",""
"","","","","","image-keyboard-response","173","373691","0.0-2.0-7.0-1.36","5b5c3b266b25590001778ea1","C3","batch3","","4363.9000000003725","stim/no_29_1_b.png","j","pattern_response","true","j","pattern_12","4363.9000000003725","true","74","","","","","","","","","","","","","","","","","","",""
"","","","","","html-keyboard-response","174","375020","0.0-2.0-7.0-0.37","5b5c3b266b25590001778ea1","C3","batch3","","null","<p class=block-text>Trial 77 out of 78</p>","null","pattern_show_trial_num","","","","","","","","","","","","","","","","","","","","","","","","",""
"","","","","","image-keyboard-response","175","375915","0.0-2.0-7.0-1.37","5b5c3b266b25590001778ea1","C3","batch3","","877.7000000011176","stim/yes_22_ver_w1.png","f","pattern_response","true","f","pattern_47","877.7000000011176","true","75","","","","","","","","","","","","","","","","","","",""
"","","","","","html-keyboard-response","176","377239","0.0-2.0-7.0-0.38","5b5c3b266b25590001778ea1","C3","batch3","","null","<p class=block-text>Trial 78 out of 78</p>","null","pattern_show_trial_num","","","","","","","","","","","","","","","","","","","","","","","","",""
"","","","","","image-keyboard-response","177","379847","0.0-2.0-7.0-1.38","5b5c3b266b25590001778ea1","C3","batch3","","2606.7000000011176","stim/no_32_1_w.png","j","pattern_response","true","j","pattern_14","2606.7000000011176","true","76","","","","","","","","","","","","","","","","","","",""
"","","","","","html-button-response","178","384111","0.0-2.0-8.0","5b5c3b266b25590001778ea1","C3","batch3","","3747.300000000745","<p class = block-text>This concludes the 4-in-a-row detection game.Thank you for your responses!<br>
            You responded correctly on 97% of the trials.<br>
            When you are ready, press ""Continue"" button to continue </p>","0","","","","","","","","","","","","","","","","","","","","","","","","","",""
"true","","","","","fullscreen","179","387527","0.0-3.0-0.0","5b5c3b266b25590001778ea1","C3","batch3","","","","","spm_fullscreen","","","","","","","","","","","","","","","","","","","","","","","","",""
"","","","","","html-button-response","180","398291","0.0-3.0-1.0","5b5c3b266b25590001778ea1","C3","batch3","","10761.60000000149","<p class = block-text><b>Instructions</b> <br>This is a widely used intelligence test in research. <br>In this test, a figure with a missing piece will be presented.<br>Below the figure are alternative pieces to complete the figure, only one of which is correct.<br> Different figures might involve different principles for obtaining the missing piece<br>Your job is to select the most logical piece to complete the figure.</p>","0","","","","","","","","","","","","","","","","","","","","","","","","","",""
"","","","","","html-keyboard-response","181","399104","0.0-3.0-2.0-0.0","5b5c3b266b25590001778ea1","C3","batch3","","null","<p class=block-text>Trial 1 out of 60</p>","null","spm_show_trial_num","","","","","","","","","","","","","","","","","","","","","","","","",""
"","","","","","image-button-response","182","403027","0.0-3.0-2.0-1.0","5b5c3b266b25590001778ea1","C3","batch3","","3918.800000000745","img/question_1_1.jpeg","3","spm_respsonse","1","4","mat_01","","","","","","1","3918.800000000745","","","","","","","","","","","","","","",""
"","","","","","html-keyboard-response","183","404085","0.0-3.0-2.0-0.1","5b5c3b266b25590001778ea1","C3","batch3","","null","<p class=block-text>Trial 2 out of 60</p>","null","spm_show_trial_num","","","","","","","","","","","","","","","","","","","","","","","","",""
"","","","","","image-button-response","184","406523","0.0-3.0-2.0-1.1","5b5c3b266b25590001778ea1","C3","batch3","","2435","img/question_1_2.jpeg","4","spm_respsonse","1","5","mat_02","","","","","","1","2435","","","","","","","","","","","","","","",""
"","","","","","html-keyboard-response","185","407579","0.0-3.0-2.0-0.2","5b5c3b266b25590001778ea1","C3","batch3","","null","<p class=block-text>Trial 3 out of 60</p>","null","spm_show_trial_num","","","","","","","","","","","","","","","","","","","","","","","","",""
"","","","","","image-button-response","186","410292","0.0-3.0-2.0-1.2","5b5c3b266b25590001778ea1","C3","batch3","","2709.7000000011176","img/question_1_3.jpeg","0","spm_respsonse","1","1","mat_03","","","","","","1","2709.7000000011176","","","","","","","","","","","","","","",""
"","","","","","html-keyboard-response","187","411343","0.0-3.0-2.0-0.3","5b5c3b266b25590001778ea1","C3","batch3","","null","<p class=block-text>Trial 4 out of 60</p>","null","spm_show_trial_num","","","","","","","","","","","","","","","","","","","","","","","","",""
"","","","","","image-button-response","188","416373","0.0-3.0-2.0-1.3","5b5c3b266b25590001778ea1","C3","batch3","","5026.0999999996275","img/question_1_4.jpeg","1","spm_respsonse","1","2","mat_04","","","","","","1","5026.0999999996275","","","","","","","","","","","","","","",""
"","","","","","html-keyboard-response","189","417430","0.0-3.0-2.0-0.4","5b5c3b266b25590001778ea1","C3","batch3","","null","<p class=block-text>Trial 5 out of 60</p>","null","spm_show_trial_num","","","","","","","","","","","","","","","","","","","","","","","","",""
"","","","","","image-button-response","190","420807","0.0-3.0-2.0-1.4","5b5c3b266b25590001778ea1","C3","batch3","","3373","img/question_1_5.jpeg","5","spm_respsonse","1","6","mat_05","","","","","","1","3373","","","","","","","","","","","","","","",""
"","","","","","html-keyboard-response","191","421882","0.0-3.0-2.0-0.5","5b5c3b266b25590001778ea1","C3","batch3","","null","<p class=block-text>Trial 6 out of 60</p>","null","spm_show_trial_num","","","","","","","","","","","","","","","","","","","","","","","","",""
"","","","","","image-button-response","192","425584","0.0-3.0-2.0-1.5","5b5c3b266b25590001778ea1","C3","batch3","","3698.300000000745","img/question_1_6.jpeg","2","spm_respsonse","1","3","mat_06","","","","","","1","3698.300000000745","","","","","","","","","","","","","","",""
"","","","","","html-keyboard-response","193","426639","0.0-3.0-2.0-0.6","5b5c3b266b25590001778ea1","C3","batch3","","null","<p class=block-text>Trial 7 out of 60</p>","null","spm_show_trial_num","","","","","","","","","","","","","","","","","","","","","","","","",""
"","","","","","image-button-response","194","429693","0.0-3.0-2.0-1.6","5b5c3b266b25590001778ea1","C3","batch3","","3049.89999999851","img/question_1_7.jpeg","5","spm_respsonse","1","6","mat_07","","","","","","1","3049.89999999851","","","","","","","","","","","","","","",""
"","","","","","html-keyboard-response","195","430765","0.0-3.0-2.0-0.7","5b5c3b266b25590001778ea1","C3","batch3","","null","<p class=block-text>Trial 8 out of 60</p>","null","spm_show_trial_num","","","","","","","","","","","","","","","","","","","","","","","","",""
"","","","","","image-button-response","196","435618","0.0-3.0-2.0-1.7","5b5c3b266b25590001778ea1","C3","batch3","","4850.300000000745","img/question_1_8.jpeg","1","spm_respsonse","1","2","mat_08","","","","","","1","4850.300000000745","","","","","","","","","","","","","","",""
"","","","","","html-keyboard-response","197","436685","0.0-3.0-2.0-0.8","5b5c3b266b25590001778ea1","C3","batch3","","null","<p class=block-text>Trial 9 out of 60</p>","null","spm_show_trial_num","","","","","","","","","","","","","","","","","","","","","","","","",""
"","","","","","image-button-response","198","439964","0.0-3.0-2.0-1.8","5b5c3b266b25590001778ea1","C3","batch3","","3276.10000000149","img/question_1_9.jpeg","0","spm_respsonse","1","1","mat_09","","","","","","1","3276.10000000149","","","","","","","","","","","","","","",""
"","","","","","html-keyboard-response","199","441030","0.0-3.0-2.0-0.9","5b5c3b266b25590001778ea1","C3","batch3","","null","<p class=block-text>Trial 10 out of 60</p>","null","spm_show_trial_num","","","","","","","","","","","","","","","","","","","","","","","","",""
"","","","","","image-button-response","200","444050","0.0-3.0-2.0-1.9","5b5c3b266b25590001778ea1","C3","batch3","","3016.9000000003725","img/question_1_10.jpeg","2","spm_respsonse","1","3","mat_10","","","","","","1","3016.9000000003725","","","","","","","","","","","","","","",""
"","","","","","html-keyboard-response","201","445124","0.0-3.0-2.0-0.10","5b5c3b266b25590001778ea1","C3","batch3","","null","<p class=block-text>Trial 11 out of 60</p>","null","spm_show_trial_num","","","","","","","","","","","","","","","","","","","","","","","","",""
"","","","","","image-button-response","202","454192","0.0-3.0-2.0-1.10","5b5c3b266b25590001778ea1","C3","batch3","","9064.700000001118","img/question_1_11.jpeg","3","spm_respsonse","1","4","mat_11","","","","","","1","9064.700000001118","","","","","","","","","","","","","","",""
"","","","","","html-keyboard-response","203","455267","0.0-3.0-2.0-0.11","5b5c3b266b25590001778ea1","C3","batch3","","null","<p class=block-text>Trial 12 out of 60</p>","null","spm_show_trial_num","","","","","","","","","","","","","","","","","","","","","","","","",""
"","","","","","image-button-response","204","460105","0.0-3.0-2.0-1.11","5b5c3b266b25590001778ea1","C3","batch3","","4835.700000001118","img/question_1_12.jpeg","4","spm_respsonse","1","5","mat_12","","","","","","1","4835.700000001118","","","","","","","","","","","","","","",""
"","","","","","html-keyboard-response","205","461162","0.0-3.0-2.0-0.12","5b5c3b266b25590001778ea1","C3","batch3","","null","<p class=block-text>Trial 13 out of 60</p>","null","spm_show_trial_num","","","","","","","","","","","","","","","","","","","","","","","","",""
"","","","","","image-button-response","206","463650","0.0-3.0-2.0-1.12","5b5c3b266b25590001778ea1","C3","batch3","","2485.0999999996275","img/question_2_1.jpeg","1","spm_respsonse","1","2","mat_13","","","","","","1","2485.0999999996275","","","","","","","","","","","","","","",""
"","","","","","html-keyboard-response","207","464709","0.0-3.0-2.0-0.13","5b5c3b266b25590001778ea1","C3","batch3","","null","<p class=block-text>Trial 14 out of 60</p>","null","spm_show_trial_num","","","","","","","","","","","","","","","","","","","","","","","","",""
"","","","","","image-button-response","208","468826","0.0-3.0-2.0-1.13","5b5c3b266b25590001778ea1","C3","batch3","","4115","img/question_2_2.jpeg","5","spm_respsonse","1","6","mat_14","","","","","","1","4115","","","","","","","","","","","","","","",""
"","","","","","html-keyboard-response","209","469889","0.0-3.0-2.0-0.14","5b5c3b266b25590001778ea1","C3","batch3","","null","<p class=block-text>Trial 15 out of 60</p>","null","spm_show_trial_num","","","","","","","","","","","","","","","","","","","","","","","","",""
"","","","","","image-button-response","210","471996","0.0-3.0-2.0-1.14","5b5c3b266b25590001778ea1","C3","batch3","","2103.9000000003725","img/question_2_3.jpeg","0","spm_respsonse","1","1","mat_15","","","","","","1","2103.9000000003725","","","","","","","","","","","","","","",""
"","","","","","html-keyboard-response","211","473073","0.0-3.0-2.0-0.15","5b5c3b266b25590001778ea1","C3","batch3","","null","<p class=block-text>Trial 16 out of 60</p>","null","spm_show_trial_num","","","","","","","","","","","","","","","","","","","","","","","","",""
"","","","","","image-button-response","212","476150","0.0-3.0-2.0-1.15","5b5c3b266b25590001778ea1","C3","batch3","","3074.4000000003725","img/question_2_4.jpeg","1","spm_respsonse","1","2","mat_16","","","","","","1","3074.4000000003725","","","","","","","","","","","","","","",""
"","","","","","html-keyboard-response","213","477228","0.0-3.0-2.0-0.16","5b5c3b266b25590001778ea1","C3","batch3","","null","<p class=block-text>Trial 17 out of 60</p>","null","spm_show_trial_num","","","","","","","","","","","","","","","","","","","","","","","","",""
"","","","","","image-button-response","214","479554","0.0-3.0-2.0-1.16","5b5c3b266b25590001778ea1","C3","batch3","","2323","img/question_2_5.jpeg","0","spm_respsonse","1","1","mat_17","","","","","","1","2323","","","","","","","","","","","","","","",""
"","","","","","html-keyboard-response","215","480622","0.0-3.0-2.0-0.17","5b5c3b266b25590001778ea1","C3","batch3","","null","<p class=block-text>Trial 18 out of 60</p>","null","spm_show_trial_num","","","","","","","","","","","","","","","","","","","","","","","","",""
"","","","","","image-button-response","216","482852","0.0-3.0-2.0-1.17","5b5c3b266b25590001778ea1","C3","batch3","","2226.300000000745","img/question_2_6.jpeg","2","spm_respsonse","1","3","mat_18","","","","","","1","2226.300000000745","","","","","","","","","","","","","","",""
"","","","","","html-keyboard-response","217","483915","0.0-3.0-2.0-0.18","5b5c3b266b25590001778ea1","C3","batch3","","null","<p class=block-text>Trial 19 out of 60</p>","null","spm_show_trial_num","","","","","","","","","","","","","","","","","","","","","","","","",""
"","","","","","image-button-response","218","486667","0.0-3.0-2.0-1.18","5b5c3b266b25590001778ea1","C3","batch3","","2750","img/question_2_7.jpeg","4","spm_respsonse","1","5","mat_19","","","","","","1","2750","","","","","","","","","","","","","","",""
"","","","","","html-keyboard-response","219","487728","0.0-3.0-2.0-0.19","5b5c3b266b25590001778ea1","C3","batch3","","null","<p class=block-text>Trial 20 out of 60</p>","null","spm_show_trial_num","","","","","","","","","","","","","","","","","","","","","","","","",""
"","","","","","image-button-response","220","492000","0.0-3.0-2.0-1.19","5b5c3b266b25590001778ea1","C3","batch3","","4268","img/question_2_8.jpeg","5","spm_respsonse","1","6","mat_20","","","","","","1","4268","","","","","","","","","","","","","","",""
"","","","","","html-keyboard-response","221","493062","0.0-3.0-2.0-0.20","5b5c3b266b25590001778ea1","C3","batch3","","null","<p class=block-text>Trial 21 out of 60</p>","null","spm_show_trial_num","","","","","","","","","","","","","","","","","","","","","","","","",""
"","","","","","image-button-response","222","497071","0.0-3.0-2.0-1.20","5b5c3b266b25590001778ea1","C3","batch3","","4006.199999999255","img/question_2_9.jpeg","3","spm_respsonse","1","4","mat_21","","","","","","1","4006.199999999255","","","","","","","","","","","","","","",""
"","","","","","html-keyboard-response","223","498138","0.0-3.0-2.0-0.21","5b5c3b266b25590001778ea1","C3","batch3","","null","<p class=block-text>Trial 22 out of 60</p>","null","spm_show_trial_num","","","","","","","","","","","","","","","","","","","","","","","","",""
"","","","","","image-button-response","224","502231","0.0-3.0-2.0-1.21","5b5c3b266b25590001778ea1","C3","batch3","","4089","img/question_2_10.jpeg","2","spm_respsonse","1","3","mat_22","","","","","","1","4089","","","","","","","","","","","","","","",""
"","","","","","html-keyboard-response","225","503305","0.0-3.0-2.0-0.22","5b5c3b266b25590001778ea1","C3","batch3","","null","<p class=block-text>Trial 23 out of 60</p>","null","spm_show_trial_num","","","","","","","","","","","","","","","","","","","","","","","","",""
"","","","","","image-button-response","226","508651","0.0-3.0-2.0-1.22","5b5c3b266b25590001778ea1","C3","batch3","","5342.699999999255","img/question_2_11.jpeg","3","spm_respsonse","1","4","mat_23","","","","","","1","5342.699999999255","","","","","","","","","","","","","","",""
"","","","","","html-keyboard-response","227","509724","0.0-3.0-2.0-0.23","5b5c3b266b25590001778ea1","C3","batch3","","null","<p class=block-text>Trial 24 out of 60</p>","null","spm_show_trial_num","","","","","","","","","","","","","","","","","","","","","","","","",""
"","","","","","image-button-response","228","519869","0.0-3.0-2.0-1.23","5b5c3b266b25590001778ea1","C3","batch3","","10141.89999999851","img/question_2_12.jpeg","4","spm_respsonse","1","5","mat_24","","","","","","1","10141.89999999851","","","","","","","","","","","","","","",""
"","","","","","html-button-response","229","521847","0.0-3.0-3.0","5b5c3b266b25590001778ea1","C3","batch3","","1718.6000000014901","<p class = block-text>Attention check: Please choose 1<br></p>","0","attention_check","true","","","","","","","","","","","","","","","","","","","","","","","",""
"","","","","","html-keyboard-response","230","522648","0.0-3.0-4.0-0.0","5b5c3b266b25590001778ea1","C3","batch3","","null","<p class=block-text>Trial 25 out of 60</p>","null","spm_show_trial_num","","","","","","","","","","","","","","","","","","","","","","","","",""
"","","","","","image-button-response","231","527783","0.0-3.0-4.0-1.0","5b5c3b266b25590001778ea1","C3","batch3","","5131.60000000149","img/question_3_1.jpeg","7","spm_respsonse","1","8","mat_25","","","","","","1","5131.60000000149","","","","","","","","","","","","","","",""
"","","","","","html-keyboard-response","232","528848","0.0-3.0-4.0-0.1","5b5c3b266b25590001778ea1","C3","batch3","","null","<p class=block-text>Trial 26 out of 60</p>","null","spm_show_trial_num","","","","","","","","","","","","","","","","","","","","","","","","",""
"","","","","","image-button-response","233","536931","0.0-3.0-4.0-1.1","5b5c3b266b25590001778ea1","C3","batch3","","8079","img/question_3_2.jpeg","1","spm_respsonse","1","2","mat_26","","","","","","1","8079","","","","","","","","","","","","","","",""
"","","","","","html-keyboard-response","234","538008","0.0-3.0-4.0-0.2","5b5c3b266b25590001778ea1","C3","batch3","","null","<p class=block-text>Trial 27 out of 60</p>","null","spm_show_trial_num","","","","","","","","","","","","","","","","","","","","","","","","",""
"","","","","","image-button-response","235","542615","0.0-3.0-4.0-1.2","5b5c3b266b25590001778ea1","C3","batch3","","4603.199999999255","img/question_3_3.jpeg","2","spm_respsonse","1","3","mat_27","","","","","","1","4603.199999999255","","","","","","","","","","","","","","",""
"","","","","","html-keyboard-response","236","543688","0.0-3.0-4.0-0.3","5b5c3b266b25590001778ea1","C3","batch3","","null","<p class=block-text>Trial 28 out of 60</p>","null","spm_show_trial_num","","","","","","","","","","","","","","","","","","","","","","","","",""
"","","","","","image-button-response","237","555891","0.0-3.0-4.0-1.3","5b5c3b266b25590001778ea1","C3","batch3","","12199.300000000745","img/question_3_4.jpeg","3","spm_respsonse","0","8","mat_28","","","","","","0","12199.300000000745","","","","","","","","","","","","","","",""
"","","","","","html-keyboard-response","238","556950","0.0-3.0-4.0-0.4","5b5c3b266b25590001778ea1","C3","batch3","","null","<p class=block-text>Trial 29 out of 60</p>","null","spm_show_trial_num","","","","","","","","","","","","","","","","","","","","","","","","",""
"","","","","","image-button-response","239","565213","0.0-3.0-4.0-1.4","5b5c3b266b25590001778ea1","C3","batch3","","8259.39999999851","img/question_3_5.jpeg","6","spm_respsonse","1","7","mat_29","","","","","","1","8259.39999999851","","","","","","","","","","","","","","",""
"","","","","","html-keyboard-response","240","566289","0.0-3.0-4.0-0.5","5b5c3b266b25590001778ea1","C3","batch3","","null","<p class=block-text>Trial 30 out of 60</p>","null","spm_show_trial_num","","","","","","","","","","","","","","","","","","","","","","","","",""
"","","","","","image-button-response","241","571783","0.0-3.0-4.0-1.5","5b5c3b266b25590001778ea1","C3","batch3","","5490.699999999255","img/question_3_6.jpeg","3","spm_respsonse","1","4","mat_30","","","","","","1","5490.699999999255","","","","","","","","","","","","","","",""
"","","","","","html-keyboard-response","242","572851","0.0-3.0-4.0-0.6","5b5c3b266b25590001778ea1","C3","batch3","","null","<p class=block-text>Trial 31 out of 60</p>","null","spm_show_trial_num","","","","","","","","","","","","","","","","","","","","","","","","",""
"","","","","","image-button-response","243","579797","0.0-3.0-4.0-1.6","5b5c3b266b25590001778ea1","C3","batch3","","6942.300000000745","img/question_3_7.jpeg","4","spm_respsonse","1","5","mat_31","","","","","","1","6942.300000000745","","","","","","","","","","","","","","",""
"","","","","","html-keyboard-response","244","580869","0.0-3.0-4.0-0.7","5b5c3b266b25590001778ea1","C3","batch3","","null","<p class=block-text>Trial 32 out of 60</p>","null","spm_show_trial_num","","","","","","","","","","","","","","","","","","","","","","","","",""
"","","","","","image-button-response","245","593578","0.0-3.0-4.0-1.7","5b5c3b266b25590001778ea1","C3","batch3","","12705.400000002235","img/question_3_8.jpeg","0","spm_respsonse","1","1","mat_32","","","","","","1","12705.400000002235","","","","","","","","","","","","","","",""
"","","","","","html-keyboard-response","246","594635","0.0-3.0-4.0-0.8","5b5c3b266b25590001778ea1","C3","batch3","","null","<p class=block-text>Trial 33 out of 60</p>","null","spm_show_trial_num","","","","","","","","","","","","","","","","","","","","","","","","",""
"","","","","","image-button-response","247","602738","0.0-3.0-4.0-1.8","5b5c3b266b25590001778ea1","C3","batch3","","8100.300000000745","img/question_3_9.jpeg","6","spm_respsonse","1","7","mat_33","","","","","","1","8100.300000000745","","","","","","","","","","","","","","",""
"","","","","","html-keyboard-response","248","603814","0.0-3.0-4.0-0.9","5b5c3b266b25590001778ea1","C3","batch3","","null","<p class=block-text>Trial 34 out of 60</p>","null","spm_show_trial_num","","","","","","","","","","","","","","","","","","","","","","","","",""
"","","","","","image-button-response","249","607573","0.0-3.0-4.0-1.9","5b5c3b266b25590001778ea1","C3","batch3","","3754.300000000745","img/question_3_10.jpeg","5","spm_respsonse","1","6","mat_34","","","","","","1","3754.300000000745","","","","","","","","","","","","","","",""
"","","","","","html-keyboard-response","250","608635","0.0-3.0-4.0-0.10","5b5c3b266b25590001778ea1","C3","batch3","","null","<p class=block-text>Trial 35 out of 60</p>","null","spm_show_trial_num","","","","","","","","","","","","","","","","","","","","","","","","",""
"","","","","","image-button-response","251","633614","0.0-3.0-4.0-1.10","5b5c3b266b25590001778ea1","C3","batch3","","24976.10000000149","img/question_3_11.jpeg","0","spm_respsonse","1","1","mat_35","","","","","","1","24976.10000000149","","","","","","","","","","","","","","",""
"","","","","","html-keyboard-response","252","634677","0.0-3.0-4.0-0.11","5b5c3b266b25590001778ea1","C3","batch3","","null","<p class=block-text>Trial 36 out of 60</p>","null","spm_show_trial_num","","","","","","","","","","","","","","","","","","","","","","","","",""
"","","","","","image-button-response","253","646752","0.0-3.0-4.0-1.11","5b5c3b266b25590001778ea1","C3","batch3","","12072.60000000149","img/question_3_12.jpeg","1","spm_respsonse","1","2","mat_36","","","","","","1","12072.60000000149","","","","","","","","","","","","","","",""
"","","","","","html-keyboard-response","254","647816","0.0-3.0-4.0-0.12","5b5c3b266b25590001778ea1","C3","batch3","","null","<p class=block-text>Trial 37 out of 60</p>","null","spm_show_trial_num","","","","","","","","","","","","","","","","","","","","","","","","",""
"","","","","","image-button-response","255","650387","0.0-3.0-4.0-1.12","5b5c3b266b25590001778ea1","C3","batch3","","2566.699999999255","img/question_4_1.jpeg","2","spm_respsonse","1","3","mat_37","","","","","","1","2566.699999999255","","","","","","","","","","","","","","",""
"","","","","","html-keyboard-response","256","651461","0.0-3.0-4.0-0.13","5b5c3b266b25590001778ea1","C3","batch3","","null","<p class=block-text>Trial 38 out of 60</p>","null","spm_show_trial_num","","","","","","","","","","","","","","","","","","","","","","","","",""
"","","","","","image-button-response","257","655656","0.0-3.0-4.0-1.13","5b5c3b266b25590001778ea1","C3","batch3","","4192","img/question_4_2.jpeg","3","spm_respsonse","1","4","mat_38","","","","","","1","4192","","","","","","","","","","","","","","",""
"","","","","","html-keyboard-response","258","656718","0.0-3.0-4.0-0.14","5b5c3b266b25590001778ea1","C3","batch3","","null","<p class=block-text>Trial 39 out of 60</p>","null","spm_show_trial_num","","","","","","","","","","","","","","","","","","","","","","","","",""
"","","","","","image-button-response","259","662246","0.0-3.0-4.0-1.14","5b5c3b266b25590001778ea1","C3","batch3","","5525.5","img/question_4_3.jpeg","2","spm_respsonse","1","3","mat_39","","","","","","1","5525.5","","","","","","","","","","","","","","",""
"","","","","","html-keyboard-response","260","663298","0.0-3.0-4.0-0.15","5b5c3b266b25590001778ea1","C3","batch3","","null","<p class=block-text>Trial 40 out of 60</p>","null","spm_show_trial_num","","","","","","","","","","","","","","","","","","","","","","","","",""
"","","","","","image-button-response","261","668940","0.0-3.0-4.0-1.15","5b5c3b266b25590001778ea1","C3","batch3","","5638.5","img/question_4_4.jpeg","6","spm_respsonse","1","7","mat_40","","","","","","1","5638.5","","","","","","","","","","","","","","",""
"","","","","","html-keyboard-response","262","670004","0.0-3.0-4.0-0.16","5b5c3b266b25590001778ea1","C3","batch3","","null","<p class=block-text>Trial 41 out of 60</p>","null","spm_show_trial_num","","","","","","","","","","","","","","","","","","","","","","","","",""
"","","","","","image-button-response","263","677521","0.0-3.0-4.0-1.16","5b5c3b266b25590001778ea1","C3","batch3","","7514.70000000298","img/question_4_5.jpeg","7","spm_respsonse","1","8","mat_41","","","","","","1","7514.70000000298","","","","","","","","","","","","","","",""
"","","","","","html-keyboard-response","264","678575","0.0-3.0-4.0-0.17","5b5c3b266b25590001778ea1","C3","batch3","","null","<p class=block-text>Trial 42 out of 60</p>","null","spm_show_trial_num","","","","","","","","","","","","","","","","","","","","","","","","",""
"","","","","","image-button-response","265","686277","0.0-3.0-4.0-1.17","5b5c3b266b25590001778ea1","C3","batch3","","7698.79999999702","img/question_4_6.jpeg","5","spm_respsonse","1","6","mat_42","","","","","","1","7698.79999999702","","","","","","","","","","","","","","",""
"","","","","","html-keyboard-response","266","687340","0.0-3.0-4.0-0.18","5b5c3b266b25590001778ea1","C3","batch3","","null","<p class=block-text>Trial 43 out of 60</p>","null","spm_show_trial_num","","","","","","","","","","","","","","","","","","","","","","","","",""
"","","","","","image-button-response","267","696167","0.0-3.0-4.0-1.18","5b5c3b266b25590001778ea1","C3","batch3","","8823.60000000149","img/question_4_7.jpeg","4","spm_respsonse","1","5","mat_43","","","","","","1","8823.60000000149","","","","","","","","","","","","","","",""
"","","","","","html-keyboard-response","268","697221","0.0-3.0-4.0-0.19","5b5c3b266b25590001778ea1","C3","batch3","","null","<p class=block-text>Trial 44 out of 60</p>","null","spm_show_trial_num","","","","","","","","","","","","","","","","","","","","","","","","",""
"","","","","","image-button-response","269","706021","0.0-3.0-4.0-1.19","5b5c3b266b25590001778ea1","C3","batch3","","8797.300000000745","img/question_4_8.jpeg","3","spm_respsonse","1","4","mat_44","","","","","","1","8797.300000000745","","","","","","","","","","","","","","",""
"","","","","","html-keyboard-response","270","707092","0.0-3.0-4.0-0.20","5b5c3b266b25590001778ea1","C3","batch3","","null","<p class=block-text>Trial 45 out of 60</p>","null","spm_show_trial_num","","","","","","","","","","","","","","","","","","","","","","","","",""
"","","","","","image-button-response","271","721649","0.0-3.0-4.0-1.20","5b5c3b266b25590001778ea1","C3","batch3","","14553.400000002235","img/question_4_9.jpeg","1","spm_respsonse","0","1","mat_45","","","","","","0","14553.400000002235","","","","","","","","","","","","","","",""
"","","","","","html-keyboard-response","272","722709","0.0-3.0-4.0-0.21","5b5c3b266b25590001778ea1","C3","batch3","","null","<p class=block-text>Trial 46 out of 60</p>","null","spm_show_trial_num","","","","","","","","","","","","","","","","","","","","","","","","",""
"","","","","","image-button-response","273","733744","0.0-3.0-4.0-1.21","5b5c3b266b25590001778ea1","C3","batch3","","11032.60000000149","img/question_4_10.jpeg","1","spm_respsonse","1","2","mat_46","","","","","","1","11032.60000000149","","","","","","","","","","","","","","",""
"","","","","","html-keyboard-response","274","734801","0.0-3.0-4.0-0.22","5b5c3b266b25590001778ea1","C3","batch3","","null","<p class=block-text>Trial 47 out of 60</p>","null","spm_show_trial_num","","","","","","","","","","","","","","","","","","","","","","","","",""
"","","","","","image-button-response","275","778254","0.0-3.0-4.0-1.22","5b5c3b266b25590001778ea1","C3","batch3","","43449.099999997765","img/question_4_11.jpeg","4","spm_respsonse","1","5","mat_47","","","","","","1","43449.099999997765","","","","","","","","","","","","","","",""
"","","","","","html-keyboard-response","276","779306","0.0-3.0-4.0-0.23","5b5c3b266b25590001778ea1","C3","batch3","","null","<p class=block-text>Trial 48 out of 60</p>","null","spm_show_trial_num","","","","","","","","","","","","","","","","","","","","","","","","",""
"","","","","","image-button-response","277","794914","0.0-3.0-4.0-1.23","5b5c3b266b25590001778ea1","C3","batch3","","15604.39999999851","img/question_4_12.jpeg","5","spm_respsonse","1","6","mat_48","","","","","","1","15604.39999999851","","","","","","","","","","","","","","",""
"","","","","","html-keyboard-response","278","795967","0.0-3.0-4.0-0.24","5b5c3b266b25590001778ea1","C3","batch3","","null","<p class=block-text>Trial 49 out of 60</p>","null","spm_show_trial_num","","","","","","","","","","","","","","","","","","","","","","","","",""
"","","","","","image-button-response","279","801102","0.0-3.0-4.0-1.24","5b5c3b266b25590001778ea1","C3","batch3","","5131.5","img/question_5_1.jpeg","6","spm_respsonse","1","7","mat_49","","","","","","1","5131.5","","","","","","","","","","","","","","",""
"","","","","","html-keyboard-response","280","802155","0.0-3.0-4.0-0.25","5b5c3b266b25590001778ea1","C3","batch3","","null","<p class=block-text>Trial 50 out of 60</p>","null","spm_show_trial_num","","","","","","","","","","","","","","","","","","","","","","","","",""
"","","","","","image-button-response","281","814686","0.0-3.0-4.0-1.25","5b5c3b266b25590001778ea1","C3","batch3","","12528.5","img/question_5_2.jpeg","5","spm_respsonse","1","6","mat_50","","","","","","1","12528.5","","","","","","","","","","","","","","",""
"","","","","","html-keyboard-response","282","815738","0.0-3.0-4.0-0.26","5b5c3b266b25590001778ea1","C3","batch3","","null","<p class=block-text>Trial 51 out of 60</p>","null","spm_show_trial_num","","","","","","","","","","","","","","","","","","","","","","","","",""
"","","","","","image-button-response","283","822224","0.0-3.0-4.0-1.26","5b5c3b266b25590001778ea1","C3","batch3","","6482.699999999255","img/question_5_3.jpeg","7","spm_respsonse","1","8","mat_51","","","","","","1","6482.699999999255","","","","","","","","","","","","","","",""
"","","","","","html-keyboard-response","284","823290","0.0-3.0-4.0-0.27","5b5c3b266b25590001778ea1","C3","batch3","","null","<p class=block-text>Trial 52 out of 60</p>","null","spm_show_trial_num","","","","","","","","","","","","","","","","","","","","","","","","",""
"","","","","","image-button-response","285","829312","0.0-3.0-4.0-1.27","5b5c3b266b25590001778ea1","C3","batch3","","6018.099999997765","img/question_5_4.jpeg","1","spm_respsonse","1","2","mat_52","","","","","","1","6018.099999997765","","","","","","","","","","","","","","",""
"","","","","","html-keyboard-response","286","830376","0.0-3.0-4.0-0.28","5b5c3b266b25590001778ea1","C3","batch3","","null","<p class=block-text>Trial 53 out of 60</p>","null","spm_show_trial_num","","","","","","","","","","","","","","","","","","","","","","","","",""
"","","","","","image-button-response","287","838178","0.0-3.0-4.0-1.28","5b5c3b266b25590001778ea1","C3","batch3","","7799","img/question_5_5.jpeg","0","spm_respsonse","1","1","mat_53","","","","","","1","7799","","","","","","","","","","","","","","",""
"","","","","","html-keyboard-response","288","839245","0.0-3.0-4.0-0.29","5b5c3b266b25590001778ea1","C3","batch3","","null","<p class=block-text>Trial 54 out of 60</p>","null","spm_show_trial_num","","","","","","","","","","","","","","","","","","","","","","","","",""
"","","","","","image-button-response","289","861402","0.0-3.0-4.0-1.29","5b5c3b266b25590001778ea1","C3","batch3","","22153.300000000745","img/question_5_6.jpeg","4","spm_respsonse","1","5","mat_54","","","","","","1","22153.300000000745","","","","","","","","","","","","","","",""
"","","","","","html-keyboard-response","290","862455","0.0-3.0-4.0-0.30","5b5c3b266b25590001778ea1","C3","batch3","","null","<p class=block-text>Trial 55 out of 60</p>","null","spm_show_trial_num","","","","","","","","","","","","","","","","","","","","","","","","",""
"","","","","","image-button-response","291","874633","0.0-3.0-4.0-1.30","5b5c3b266b25590001778ea1","C3","batch3","","12175.60000000149","img/question_5_7.jpeg","0","spm_respsonse","1","1","mat_55","","","","","","1","12175.60000000149","","","","","","","","","","","","","","",""
"","","","","","html-keyboard-response","292","875692","0.0-3.0-4.0-0.31","5b5c3b266b25590001778ea1","C3","batch3","","null","<p class=block-text>Trial 56 out of 60</p>","null","spm_show_trial_num","","","","","","","","","","","","","","","","","","","","","","","","",""
"","","","","","image-button-response","293","883051","0.0-3.0-4.0-1.31","5b5c3b266b25590001778ea1","C3","batch3","","7355.39999999851","img/question_5_8.jpeg","5","spm_respsonse","1","6","mat_56","","","","","","1","7355.39999999851","","","","","","","","","","","","","","",""
"","","","","","html-keyboard-response","294","884117","0.0-3.0-4.0-0.32","5b5c3b266b25590001778ea1","C3","batch3","","null","<p class=block-text>Trial 57 out of 60</p>","null","spm_show_trial_num","","","","","","","","","","","","","","","","","","","","","","","","",""
"","","","","","image-button-response","295","894673","0.0-3.0-4.0-1.32","5b5c3b266b25590001778ea1","C3","batch3","","10552.5","img/question_5_9.jpeg","2","spm_respsonse","1","3","mat_57","","","","","","1","10552.5","","","","","","","","","","","","","","",""
"","","","","","html-keyboard-response","296","895729","0.0-3.0-4.0-0.33","5b5c3b266b25590001778ea1","C3","batch3","","null","<p class=block-text>Trial 58 out of 60</p>","null","spm_show_trial_num","","","","","","","","","","","","","","","","","","","","","","","","",""
"","","","","","image-button-response","297","905663","0.0-3.0-4.0-1.33","5b5c3b266b25590001778ea1","C3","batch3","","9931.60000000149","img/question_5_10.jpeg","1","spm_respsonse","1","2","mat_58","","","","","","1","9931.60000000149","","","","","","","","","","","","","","",""
"","","","","","html-keyboard-response","298","906718","0.0-3.0-4.0-0.34","5b5c3b266b25590001778ea1","C3","batch3","","null","<p class=block-text>Trial 59 out of 60</p>","null","spm_show_trial_num","","","","","","","","","","","","","","","","","","","","","","","","",""
"","","","","","image-button-response","299","921938","0.0-3.0-4.0-1.34","5b5c3b266b25590001778ea1","C3","batch3","","15218","img/question_5_11.jpeg","3","spm_respsonse","1","4","mat_59","","","","","","1","15218","","","","","","","","","","","","","","",""
"","","","","","html-keyboard-response","300","923005","0.0-3.0-4.0-0.35","5b5c3b266b25590001778ea1","C3","batch3","","null","<p class=block-text>Trial 60 out of 60</p>","null","spm_show_trial_num","","","","","","","","","","","","","","","","","","","","","","","","",""
"","","","","","image-button-response","301","999906","0.0-3.0-4.0-1.35","5b5c3b266b25590001778ea1","C3","batch3","","76897","img/question_5_12.jpeg","4","spm_respsonse","1","5","mat_60","","","","","","1","76897","","","","","","","","","","","","","","",""
"","","","","","html-button-response","302","1002194","0.0-3.0-5.0","5b5c3b266b25590001778ea1","C3","batch3","","2030.2999999970198","<p class= block-text>This concludes the Standard Progressive Matrix game. Thank you for your responses!<br> When you are ready, click the button continue</p>","0","spm_goodbye","","","","","","","","","","","","","","","","","","","","","","","","",""
"true","","","","","fullscreen","303","1004725","0.0-4.0-0.0","5b5c3b266b25590001778ea1","C3","batch3","","","","","","","","","","","","","","","","","","","","","","","","","","","","","",""
"","","","","","instructions","304","1041803","0.0-4.0-1.0-0.0-0.0","5b5c3b266b25590001778ea1","C3","batch3","[{""page_index"":0,""viewing_time"":10167.199999999255},{""page_index"":1,""viewing_time"":6654.10000000149},{""page_index"":2,""viewing_time"":2820.300000000745},{""page_index"":3,""viewing_time"":4191.39999999851},{""page_index"":4,""viewing_time"":3782.10000000149},{""page_index"":5,""viewing_time"":7284},{""page_index"":6,""viewing_time"":2177.7999999970198}]","37077.199999999255","","","tol-instructions","","","","","","","","","","","","","","","","","","","","","","","","",""
"","","","","","html-button-response","305","1042915","0.0-4.0-1.0-1.0-0.0","5b5c3b266b25590001778ea1","C3","batch3","","1110.699999999255","<p class=block-text> Let's answer a few questions <br>","0","tol_enter_quiz","","","","","","","","","","","","","","","","","","","","","","","","",""
"","","","","","html-button-response","306","1046593","0.0-4.0-1.0-1.0-1.0","5b5c3b266b25590001778ea1","C3","batch3","","3677.300000000745","<p class = block-text>True or False: You can only move the ball on top of a peg. <br></p>","0","tol_quiz","true","","","","","","","","","","","","","","","","","","","","","","","",""
"","","","","","html-button-response","307","1047511","0.0-4.0-1.0-1.0-2.0","5b5c3b266b25590001778ea1","C3","batch3","","916.3999999985099","<p class = block-text>Correct! You can only move the ball on top of a peg.</p>","0","tol_quiz_feedback","","","","","","","","","","","","","","","","","","","","","","","","",""
"","","","","","html-button-response","308","1049449","0.0-4.0-1.0-1.0-3.0","5b5c3b266b25590001778ea1","C3","batch3","","1937.1000000014901","<p class = block-text>True or False: You should try to match your board with the target board with fewest moves possible. <br></p>","0","tol_quiz","true","","","","","","","","","","","","","","","","","","","","","","","",""
"","","","","","html-button-response","309","1050069","0.0-4.0-1.0-1.0-4.0","5b5c3b266b25590001778ea1","C3","batch3","","619.0999999977648","<p class = block-text>Correct! </p>","0","tol_quiz_feedback","","","","","","","","","","","","","","","","","","","","","","","","",""
"","","","","","html-button-response","310","1051649","0.0-4.0-2.0","5b5c3b266b25590001778ea1","C3","batch3","","1578.3999999985099","<p class=block-text> Now that you've understood the game, let's practice a few easier examples before we start!<br> <br>","0","","","","","","","","","","","","","","","","","","","","","","","","","",""
"","","","","","single-stim-button","311","1056218","0.0-4.0-3.0-0.0","5b5c3b266b25590001778ea1","C3","batch3","","4567","","","tol_practice","","","","","","","","","","","tol_peg_2","4567","4567","0","[[1,2,0],[0,0],[0]]","1","[[1,2,0],[0,0],[3]]","practice","4567","","","","","",""
"","","","","","single-stim-button","312","1057433","0.0-4.0-3.0-1.0","5b5c3b266b25590001778ea1","C3","batch3","","1214","","","tol_practice","","","","","","","","","","","tol_peg_3","1214","1214","0","[[1,2,0],[0,0],[3]]","1","[[1,2,0],[0,0],[3]]","practice","1214","","","","","",""
"","","","","","poldrack-single-stim","313","1058435","0.0-4.0-4.0","5b5c3b266b25590001778ea1","C3","batch3","","-1","","","tol_feedback","true","","","","","","","","","","","1000","1000","500","","","","","","-1","none","true","","0",""
"","","","","","single-stim-button","314","1061615","0.0-4.0-5.0-0.0","5b5c3b266b25590001778ea1","C3","batch3","","3179","","","tol_practice","","","","","","","","","","","tol_peg_1","3179","3179","0","[[1,0,0],[3,0],[0]]","2","[[0,0,0],[3,1],[2]]","practice","3179","","","","","",""
"","","","","","single-stim-button","315","1062463","0.0-4.0-5.0-1.0","5b5c3b266b25590001778ea1","C3","batch3","","848","","","tol_practice","","","","","","","","","","","tol_peg_3","848","848","0","[[1,0,0],[3,0],[2]]","2","[[0,0,0],[3,1],[2]]","practice","848","","","","","",""
"","","","","","single-stim-button","316","1063289","0.0-4.0-5.1-0.1","5b5c3b266b25590001778ea1","C3","batch3","","826","","","tol_practice","","","","","","","","","","","tol_peg_1","826","826","0","[[0,0,0],[3,0],[2]]","3","[[0,0,0],[3,1],[2]]","practice","826","","","","","",""
"","","","","","single-stim-button","317","1064111","0.0-4.0-5.1-1.1","5b5c3b266b25590001778ea1","C3","batch3","","822","","","tol_practice","","","","","","","","","","","tol_peg_2","822","822","0","[[0,0,0],[3,1],[2]]","3","[[0,0,0],[3,1],[2]]","practice","822","","","","","",""
"","","","","","poldrack-single-stim","318","1065112","0.0-4.0-6.0","5b5c3b266b25590001778ea1","C3","batch3","","-1","","","tol_feedback","true","","","","","","","","","","","1000","1000","500","","","","","","-1","none","true","","0",""
"","","","","","single-stim-button","319","1067343","0.0-4.0-7.0-0.0","5b5c3b266b25590001778ea1","C3","batch3","","2230","","","tol_practice","","","","","","","","","","","tol_peg_2","2230","2230","0","[[1,2,0],[0,0],[0]]","4","[[1,0,0],[2,0],[3]]","practice","2230","","","","","",""
"","","","","","single-stim-button","320","1067963","0.0-4.0-7.0-1.0","5b5c3b266b25590001778ea1","C3","batch3","","620","","","tol_practice","","","","","","","","","","","tol_peg_3","620","620","0","[[1,2,0],[0,0],[3]]","4","[[1,0,0],[2,0],[3]]","practice","620","","","","","",""
"","","","","","single-stim-button","321","1068925","0.0-4.0-7.1-0.1","5b5c3b266b25590001778ea1","C3","batch3","","961","","","tol_practice","","","","","","","","","","","tol_peg_1","961","961","0","[[1,0,0],[0,0],[3]]","5","[[1,0,0],[2,0],[3]]","practice","961","","","","","",""
"","","","","","single-stim-button","322","1069643","0.0-4.0-7.1-1.1","5b5c3b266b25590001778ea1","C3","batch3","","717","","","tol_practice","","","","","","","","","","","tol_peg_2","717","717","0","[[1,0,0],[2,0],[3]]","5","[[1,0,0],[2,0],[3]]","practice","717","","","","","",""
"","","","","","poldrack-single-stim","323","1070654","0.0-4.0-8.0","5b5c3b266b25590001778ea1","C3","batch3","","-1","","","tol_feedback","true","","","","","","","","","","","1000","1000","500","","","","","","-1","none","true","","0",""
"","","","","","html-button-response","324","1072355","0.0-4.0-9.0","5b5c3b266b25590001778ea1","C3","batch3","","1700.0999999977648","<div class = centerbox><p class = center-block-text>Great job! You are done with practice trials<br>You are about to start official trials.<br> <br> Problem <strong>1</strong> out of 25 problems</p></div>","0","tol_instruction","","","","","","","","","","","","","","","","","","","","","","","","",""
"","","","","","single-stim-button","325","1078447","0.0-4.0-10.0-0.0","5b5c3b266b25590001778ea1","C3","batch3","","5088","","","tol_tohand","","","","","","","","","","","tol_peg_2","5088","5088","0","[[1,2,0],[0,0],[0]]","1","[[1,3,0],[2,0],[0]]","0","0","","","","","","3"
"","","","","","single-stim-button","326","1079403","0.0-4.0-10.0-1.0","5b5c3b266b25590001778ea1","C3","batch3","","955","","","tol_toboard","","","","","","","","","","","tol_peg_3","955","955","0","[[1,2,0],[0,0],[3]]","1","[[1,3,0],[2,0],[0]]","0","0","","","","","","3"
"","","","","","single-stim-button","327","1080187","0.0-4.0-10.1-0.1","5b5c3b266b25590001778ea1","C3","batch3","","783","","","tol_tohand","","","","","","","","","","","tol_peg_1","783","783","0","[[1,0,0],[0,0],[3]]","2","[[1,3,0],[2,0],[0]]","0","0","","","","","","3"
"","","","","","single-stim-button","328","1080941","0.0-4.0-10.1-1.1","5b5c3b266b25590001778ea1","C3","batch3","","753","","","tol_toboard","","","","","","","","","","","tol_peg_2","753","753","0","[[1,0,0],[2,0],[3]]","2","[[1,3,0],[2,0],[0]]","0","0","","","","","","3"
"","","","","","single-stim-button","329","1081601","0.0-4.0-10.2-0.2","5b5c3b266b25590001778ea1","C3","batch3","","659","","","tol_tohand","","","","","","","","","","","tol_peg_3","659","659","0","[[1,0,0],[2,0],[0]]","3","[[1,3,0],[2,0],[0]]","0","0","","","","","","3"
"","","","","","single-stim-button","330","1082585","0.0-4.0-10.2-1.2","5b5c3b266b25590001778ea1","C3","batch3","","983","","","tol_toboard","","","","","","","","","","","tol_peg_1","983","983","0","[[1,3,0],[2,0],[0]]","3","[[1,3,0],[2,0],[0]]","0","0","","","","","","3"
"","","","","","poldrack-single-stim","331","1083588","0.0-4.0-11.0","5b5c3b266b25590001778ea1","C3","batch3","","-1","","","tol_feedback","true","","","","","","","","","","","1000","1000","500","","","","","","-1","none","true","5088","6530",""
"","","","","","html-button-response","332","1084679","0.0-4.0-12.0","5b5c3b266b25590001778ea1","C3","batch3","","1089.9000000022352","<div class = centerbox><p class = center-block-text>problem <strong>2</strong> out of 25 problems</p></div>","0","tol_trial_num","","","","","","","","","","","","","","","","","","","","","","","","",""
"","","","","","single-stim-button","333","1096217","0.0-4.0-13.0-0.0","5b5c3b266b25590001778ea1","C3","batch3","","11537","","","tol_tohand","","","","","","","","","","","tol_peg_1","11537","11537","0","[[1,0,0],[3,0],[0]]","1","[[2,1,3],[0,0],[0]]","1","0","","","","","","5"
"","","","","","single-stim-button","334","1097642","0.0-4.0-13.0-1.0","5b5c3b266b25590001778ea1","C3","batch3","","1425","","","tol_toboard","","","","","","","","","","","tol_peg_3","1425","1425","0","[[1,0,0],[3,0],[2]]","1","[[2,1,3],[0,0],[0]]","1","0","","","","","","5"
"","","","","","single-stim-button","335","1098254","0.0-4.0-13.1-0.1","5b5c3b266b25590001778ea1","C3","batch3","","611","","","tol_tohand","","","","","","","","","","","tol_peg_1","611","611","0","[[0,0,0],[3,0],[2]]","2","[[2,1,3],[0,0],[0]]","1","0","","","","","","5"
"","","","","","single-stim-button","336","1099072","0.0-4.0-13.1-1.1","5b5c3b266b25590001778ea1","C3","batch3","","817","","","tol_toboard","","","","","","","","","","","tol_peg_2","817","817","0","[[0,0,0],[3,1],[2]]","2","[[2,1,3],[0,0],[0]]","1","0","","","","","","5"
"","","","","","single-stim-button","337","1099700","0.0-4.0-13.2-0.2","5b5c3b266b25590001778ea1","C3","batch3","","627","","","tol_tohand","","","","","","","","","","","tol_peg_3","627","627","0","[[0,0,0],[3,1],[0]]","3","[[2,1,3],[0,0],[0]]","1","0","","","","","","5"
"","","","","","single-stim-button","338","1100372","0.0-4.0-13.2-1.2","5b5c3b266b25590001778ea1","C3","batch3","","671","","","tol_toboard","","","","","","","","","","","tol_peg_1","671","671","0","[[2,0,0],[3,1],[0]]","3","[[2,1,3],[0,0],[0]]","1","0","","","","","","5"
"","","","","","single-stim-button","339","1100993","0.0-4.0-13.3-0.3","5b5c3b266b25590001778ea1","C3","batch3","","620","","","tol_tohand","","","","","","","","","","","tol_peg_2","620","620","0","[[2,0,0],[3,0],[0]]","4","[[2,1,3],[0,0],[0]]","1","0","","","","","","5"
"","","","","","single-stim-button","340","1101536","0.0-4.0-13.3-1.3","5b5c3b266b25590001778ea1","C3","batch3","","543","","","tol_toboard","","","","","","","","","","","tol_peg_1","543","543","0","[[2,1,0],[3,0],[0]]","4","[[2,1,3],[0,0],[0]]","1","0","","","","","","5"
"","","","","","single-stim-button","341","1102152","0.0-4.0-13.4-0.4","5b5c3b266b25590001778ea1","C3","batch3","","615","","","tol_tohand","","","","","","","","","","","tol_peg_2","615","615","0","[[2,1,0],[0,0],[0]]","5","[[2,1,3],[0,0],[0]]","1","0","","","","","","5"
"","","","","","single-stim-button","342","1102734","0.0-4.0-13.4-1.4","5b5c3b266b25590001778ea1","C3","batch3","","581","","","tol_toboard","","","","","","","","","","","tol_peg_1","581","581","0","[[2,1,3],[0,0],[0]]","5","[[2,1,3],[0,0],[0]]","1","0","","","","","","5"
"","","","","","poldrack-single-stim","343","1103748","0.0-4.0-14.0","5b5c3b266b25590001778ea1","C3","batch3","","-1","","","tol_feedback","true","","","","","","","","","","","1000","1000","500","","","","","","-1","none","true","11537","14010",""
"","","","","","html-button-response","344","1104750","0.0-4.0-15.0","5b5c3b266b25590001778ea1","C3","batch3","","1001.3000000007451","<div class = centerbox><p class = center-block-text>problem <strong>3</strong> out of 25 problems</p></div>","0","tol_trial_num","","","","","","","","","","","","","","","","","","","","","","","","",""
"","","","","","single-stim-button","345","1112014","0.0-4.0-16.0-0.0","5b5c3b266b25590001778ea1","C3","batch3","","7263","","","tol_tohand","","","","","","","","","","","tol_peg_1","7263","7263","0","[[2,0,0],[0,0],[1]]","1","[[1,2,0],[3,0],[0]]","2","0","","","","","","4"
"","","","","","single-stim-button","346","1112650","0.0-4.0-16.0-1.0","5b5c3b266b25590001778ea1","C3","batch3","","635","","","tol_toboard","","","","","","","","","","","tol_peg_2","635","635","0","[[2,0,0],[3,0],[1]]","1","[[1,2,0],[3,0],[0]]","2","0","","","","","","4"
"","","","","","single-stim-button","347","1113408","0.0-4.0-16.1-0.1","5b5c3b266b25590001778ea1","C3","batch3","","757","","","tol_tohand","","","","","","","","","","","tol_peg_1","757","757","0","[[0,0,0],[3,0],[1]]","2","[[1,2,0],[3,0],[0]]","2","0","","","","","","4"
"","","","","","single-stim-button","348","1113891","0.0-4.0-16.1-1.1","5b5c3b266b25590001778ea1","C3","batch3","","482","","","tol_toboard","","","","","","","","","","","tol_peg_2","482","482","0","[[0,0,0],[3,2],[1]]","2","[[1,2,0],[3,0],[0]]","2","0","","","","","","4"
