"success","timeout","failed_images","failed_audio","failed_video","trial_type","trial_index","time_elapsed","internal_node_id","subject_id","study_id","session_id","view_history","rt","stimulus","response","task","correct","answer","item","fiar_detect_rt","fiar_detect_correct","total_correct_fiar_detect","post_trial_gap","choices","mouse_click","stim_duration","block_duration","timing_post_trial","current_position","tol_num_moves_made","tol_target","tol_problem_id","tol_rt","key_press","possible_responses","tol_correct","preplanning","tol_rt_per_trial","tol_min_moves","spm_correct","spm_rt"
"true","false","[]","[]","[]","preload","0","12236","0.0-0.0","5b666901f7798c000182c01c","C3","batch3","","","","","","","","","","","","","","","","","","","","","","","","","","","","","",""
"true","","","","","fullscreen","1","29056","0.0-1.0-0.0","5b666901f7798c000182c01c","C3","batch3","","","","","","","","","","","","","","","","","","","","","","","","","","","","","",""
"true","","","","","fullscreen","2","32791","0.0-2.0-0.0","5b666901f7798c000182c01c","C3","batch3","","","","","","","","","","","","","","","","","","","","","","","","","","","","","",""
"","","","","","instructions","3","49740","0.0-2.0-1.0-0.0","5b666901f7798c000182c01c","C3","batch3","[{""page_index"":0,""viewing_time"":10589.200000047684},{""page_index"":1,""viewing_time"":6357.600000023842}]","16947.200000047684","","","","","","","","","","","","","","","","","","","","","","","","","","","",""
"","","","","","html-button-response","4","50998","0.0-2.0-1.0-1.0-0.0","5b666901f7798c000182c01c","C3","batch3","","1256.3999999761581","<p class=block-text> Let's answer a few questions <br>","0","pattern_enter_quiz","","","","","","","","","","","","","","","","","","","","","","","","",""
"","","","","","html-button-response","5","53754","0.0-2.0-1.0-1.0-1.0","5b666901f7798c000182c01c","C3","batch3","","2755.1999999284744","<p class = block-text>True or False: You will have as much time as you want to make each choice. <br></p>","1","pattern_quiz","true","","","","","","","","","","","","","","","","","","","","","","","",""
"","","","","","html-button-response","6","54820","0.0-2.0-1.0-1.0-2.0","5b666901f7798c000182c01c","C3","batch3","","1064.5","<p class = block-text>Correct! You should make your choice <strong> as fast as you can</strong>.</p>","0","pattern_quiz_feedback","","","","","","","","","","","","","","","","","","","","","","","","",""
"","","","","","html-button-response","7","59379","0.0-2.0-1.0-1.0-3.0","5b666901f7798c000182c01c","C3","batch3","","4558.200000047684","<p class = block-text>True or False: You will look for 4 pieces in black or white color connected in a row either horizontally, vertically or diagonally. <br></p>","0","pattern_quiz","true","","","","","","","","","","","","","","","","","","","","","","","",""
"","","","","","html-button-response","8","60267","0.0-2.0-1.0-1.0-4.0","5b666901f7798c000182c01c","C3","batch3","","886.7999999523163","<p class = block-text>Correct! </p>","0","pattern_quiz_feedback","","","","","","","","","","","","","","","","","","","","","","","","",""
"","","","","","html-button-response","9","62151","0.0-2.0-2.0","5b666901f7798c000182c01c","C3","batch3","","1882.5","<p class=block-text> Now that you've understood the game, let's do a few practice trials before we start!<br> <br>","0","pattern_enter_practice","","","","","","","","","","","","","","","","","","","","","","","","",""
"","","","","","image-keyboard-response","10","64196","0.0-2.0-3.0-0.0","5b666901f7798c000182c01c","C3","batch3","","2041.2999999523163","stim/prac_no_16_1.png","f","pattern_practice","false","j","","","","","","","","","","","","","","","","","","","","","","",""
"","","","","","html-keyboard-response","11","65223","0.0-2.0-3.0-1.0","5b666901f7798c000182c01c","C3","batch3","","null","<p style=""font-size:30px;color:red;"">Wrong.</p>","null","pattern_feedback","","","","","","","","","","","","","","","","","","","","","","","","",""
"","","","","","image-keyboard-response","12","67032","0.0-2.0-3.0-0.1","5b666901f7798c000182c01c","C3","batch3","","1807.3000000715256","stim/prac_yes_20_dia_b1.png","j","pattern_practice","false","f","","","","","","","","","","","","","","","","","","","","","","",""
"","","","","","html-keyboard-response","13","68058","0.0-2.0-3.0-1.1","5b666901f7798c000182c01c","C3","batch3","","null","<p style=""font-size:30px;color:red;"">Wrong.</p>","null","pattern_feedback","","","","","","","","","","","","","","","","","","","","","","","","",""
"","","","","","image-keyboard-response","14","70000","0.0-2.0-3.0-0.2","5b666901f7798c000182c01c","C3","batch3","","1939.8999999761581","stim/prac_yes_18_hor_w1.png","f","pattern_practice","true","f","","","","","","","","","","","","","","","","","","","","","","",""
"","","","","","html-keyboard-response","15","71021","0.0-2.0-3.0-1.2","5b666901f7798c000182c01c","C3","batch3","","null","<p style=""font-size:30px;color:green;"">Correct!</p>","null","pattern_feedback","","","","","","","","","","","","","","","","","","","","","","","","",""
"","","","","","image-keyboard-response","16","73294","0.0-2.0-3.0-0.3","5b666901f7798c000182c01c","C3","batch3","","2271.2999999523163","stim/prac_no_18_1.png","j","pattern_practice","true","j","","","","","","","","","","","","","","","","","","","","","","",""
"","","","","","html-keyboard-response","17","74324","0.0-2.0-3.0-1.3","5b666901f7798c000182c01c","C3","batch3","","null","<p style=""font-size:30px;color:green;"">Correct!</p>","null","pattern_feedback","","","","","","","","","","","","","","","","","","","","","","","","",""
"","","","","","image-keyboard-response","18","75688","0.0-2.0-3.0-0.4","5b666901f7798c000182c01c","C3","batch3","","1361.8999999761581","stim/prac_yes_16_ver_w1.png","f","pattern_practice","true","f","","","","","","","","","","","","","","","","","","","","","","",""
"","","","","","html-keyboard-response","19","76709","0.0-2.0-3.0-1.4","5b666901f7798c000182c01c","C3","batch3","","null","<p style=""font-size:30px;color:green;"">Correct!</p>","null","pattern_feedback","","","","","","","","","","","","","","","","","","","","","","","","",""
"","","","","","html-button-response","20","80337","0.0-2.0-4.0","5b666901f7798c000182c01c","C3","batch3","","3626.2999999523163","<p class=block-text> Good job! You are done with practice trials!<br>
        You responded correctly on 60% of the trials.<br>
        Press the button below to start official trials. Now you won't see any feedback about your response</p>","0","pattern_enter_official_trials","","","","","","","","","","","","","","","","","","","","","","","","",""
"","","","","","html-keyboard-response","21","81139","0.0-2.0-5.0-0.0","5b666901f7798c000182c01c","C3","batch3","","null","<p class=block-text>Trial 1 out of 78</p>","null","pattern_show_trial_num","","","","","","","","","","","","","","","","","","","","","","","","",""
"","","","","","image-keyboard-response","22","81815","0.0-2.0-5.0-1.0","5b666901f7798c000182c01c","C3","batch3","","673.8000000715256","stim/yes_17_ver_b1_b.png","f","pattern_response","true","f","pattern_46","673.8000000715256","true","1","","","","","","","","","","","","","","","","","","",""
"","","","","","html-keyboard-response","23","83130","0.0-2.0-5.0-0.1","5b666901f7798c000182c01c","C3","batch3","","null","<p class=block-text>Trial 2 out of 78</p>","null","pattern_show_trial_num","","","","","","","","","","","","","","","","","","","","","","","","",""
"","","","","","image-keyboard-response","24","84012","0.0-2.0-5.0-1.1","5b666901f7798c000182c01c","C3","batch3","","880.5999999046326","stim/yes_39_hor_w1_w.png","f","pattern_response","true","f","pattern_62","880.5999999046326","true","2","","","","","","","","","","","","","","","","","","",""
"","","","","","html-keyboard-response","25","85329","0.0-2.0-5.0-0.2","5b666901f7798c000182c01c","C3","batch3","","null","<p class=block-text>Trial 3 out of 78</p>","null","pattern_show_trial_num","","","","","","","","","","","","","","","","","","","","","","","","",""
"","","","","","image-keyboard-response","26","86264","0.0-2.0-5.0-1.2","5b666901f7798c000182c01c","C3","batch3","","932.1999999284744","stim/yes_46_ver_b1_b.png","f","pattern_response","true","f","pattern_68","932.1999999284744","true","3","","","","","","","","","","","","","","","","","","",""
"","","","","","html-keyboard-response","27","87582","0.0-2.0-5.0-0.3","5b666901f7798c000182c01c","C3","batch3","","null","<p class=block-text>Trial 4 out of 78</p>","null","pattern_show_trial_num","","","","","","","","","","","","","","","","","","","","","","","","",""
"","","","","","image-keyboard-response","28","89264","0.0-2.0-5.0-1.3","5b666901f7798c000182c01c","C3","batch3","","1679.3999999761581","stim/no_22_1_b.png","j","pattern_response","true","j","pattern_07","1679.3999999761581","true","4","","","","","","","","","","","","","","","","","","",""
"","","","","","html-keyboard-response","29","90581","0.0-2.0-5.0-0.4","5b666901f7798c000182c01c","C3","batch3","","null","<p class=block-text>Trial 5 out of 78</p>","null","pattern_show_trial_num","","","","","","","","","","","","","","","","","","","","","","","","",""
"","","","","","image-keyboard-response","30","91467","0.0-2.0-5.0-1.4","5b666901f7798c000182c01c","C3","batch3","","884.5999999046326","stim/yes_53_ver_b1_b.png","f","pattern_response","true","f","pattern_74","884.5999999046326","true","5","","","","","","","","","","","","","","","","","","",""
"","","","","","html-keyboard-response","31","92794","0.0-2.0-5.0-0.5","5b666901f7798c000182c01c","C3","batch3","","null","<p class=block-text>Trial 6 out of 78</p>","null","pattern_show_trial_num","","","","","","","","","","","","","","","","","","","","","","","","",""
"","","","","","image-keyboard-response","32","95193","0.0-2.0-5.0-1.5","5b666901f7798c000182c01c","C3","batch3","","2397.2000000476837","stim/no_53_1_b.png","f","pattern_response","false","j","pattern_33","2397.2000000476837","false","5","","","","","","","","","","","","","","","","","","",""
"","","","","","html-keyboard-response","33","96505","0.0-2.0-5.0-0.6","5b666901f7798c000182c01c","C3","batch3","","null","<p class=block-text>Trial 7 out of 78</p>","null","pattern_show_trial_num","","","","","","","","","","","","","","","","","","","","","","","","",""
"","","","","","image-keyboard-response","34","97459","0.0-2.0-5.0-1.6","5b666901f7798c000182c01c","C3","batch3","","950.8999999761581","stim/yes_23_ver_b1.png","f","pattern_response","true","f","pattern_48","950.8999999761581","true","6","","","","","","","","","","","","","","","","","","",""
"","","","","","html-keyboard-response","35","98784","0.0-2.0-5.0-0.7","5b666901f7798c000182c01c","C3","batch3","","null","<p class=block-text>Trial 8 out of 78</p>","null","pattern_show_trial_num","","","","","","","","","","","","","","","","","","","","","","","","",""
"","","","","","image-keyboard-response","36","100083","0.0-2.0-5.0-1.7","5b666901f7798c000182c01c","C3","batch3","","1297.2000000476837","stim/no_15_1_w.png","j","pattern_response","true","j","pattern_03","1297.2000000476837","true","7","","","","","","","","","","","","","","","","","","",""
"","","","","","html-keyboard-response","37","101386","0.0-2.0-5.0-0.8","5b666901f7798c000182c01c","C3","batch3","","null","<p class=block-text>Trial 9 out of 78</p>","null","pattern_show_trial_num","","","","","","","","","","","","","","","","","","","","","","","","",""
"","","","","","image-keyboard-response","38","104065","0.0-2.0-5.0-1.8","5b666901f7798c000182c01c","C3","batch3","","2675.7999999523163","stim/no_28_2.png","j","pattern_response","true","j","pattern_11","2675.7999999523163","true","8","","","","","","","","","","","","","","","","","","",""
"","","","","","html-keyboard-response","39","105386","0.0-2.0-5.0-0.9","5b666901f7798c000182c01c","C3","batch3","","null","<p class=block-text>Trial 10 out of 78</p>","null","pattern_show_trial_num","","","","","","","","","","","","","","","","","","","","","","","","",""
"","","","","","image-keyboard-response","40","106969","0.0-2.0-5.0-1.9","5b666901f7798c000182c01c","C3","batch3","","1580.3999999761581","stim/yes_49_hor_w1_b.png","f","pattern_response","true","f","pattern_70","1580.3999999761581","true","9","","","","","","","","","","","","","","","","","","",""
"","","","","","html-keyboard-response","41","108286","0.0-2.0-5.0-0.10","5b666901f7798c000182c01c","C3","batch3","","null","<p class=block-text>Trial 11 out of 78</p>","null","pattern_show_trial_num","","","","","","","","","","","","","","","","","","","","","","","","",""
"","","","","","image-keyboard-response","42","111268","0.0-2.0-5.0-1.10","5b666901f7798c000182c01c","C3","batch3","","2979.5","stim/no_39_1_w.png","j","pattern_response","true","j","pattern_21","2979.5","true","10","","","","","","","","","","","","","","","","","","",""
"","","","","","html-keyboard-response","43","112573","0.0-2.0-5.0-0.11","5b666901f7798c000182c01c","C3","batch3","","null","<p class=block-text>Trial 12 out of 78</p>","null","pattern_show_trial_num","","","","","","","","","","","","","","","","","","","","","","","","",""
"","","","","","image-keyboard-response","44","116201","0.0-2.0-5.0-1.11","5b666901f7798c000182c01c","C3","batch3","","3636.600000023842","stim/yes_29_hor_b1_b.png","j","pattern_response","false","f","pattern_52","3636.600000023842","false","10","","","","","","","","","","","","","","","","","","",""
"","","","","","html-keyboard-response","45","117514","0.0-2.0-5.0-0.12","5b666901f7798c000182c01c","C3","batch3","","null","<p class=block-text>Trial 13 out of 78</p>","null","pattern_show_trial_num","","","","","","","","","","","","","","","","","","","","","","","","",""
"","","","","","image-keyboard-response","46","120957","0.0-2.0-5.0-1.12","5b666901f7798c000182c01c","C3","batch3","","3440.899999976158","stim/yes_51_dia_b1.png","f","pattern_response","true","f","pattern_72","3440.899999976158","true","11","","","","","","","","","","","","","","","","","","",""
"","","","","","html-keyboard-response","47","122269","0.0-2.0-5.0-0.13","5b666901f7798c000182c01c","C3","batch3","","null","<p class=block-text>Trial 14 out of 78</p>","null","pattern_show_trial_num","","","","","","","","","","","","","","","","","","","","","","","","",""
"","","","","","image-keyboard-response","48","123550","0.0-2.0-5.0-1.13","5b666901f7798c000182c01c","C3","batch3","","1279","stim/yes_36_ver_w1_w.png","f","pattern_response","true","f","pattern_58","1279","true","12","","","","","","","","","","","","","","","","","","",""
"","","","","","html-keyboard-response","49","124867","0.0-2.0-5.0-0.14","5b666901f7798c000182c01c","C3","batch3","","null","<p class=block-text>Trial 15 out of 78</p>","null","pattern_show_trial_num","","","","","","","","","","","","","","","","","","","","","","","","",""
"","","","","","image-keyboard-response","50","129524","0.0-2.0-5.0-1.14","5b666901f7798c000182c01c","C3","batch3","","4655.700000047684","stim/no_49_2_b.png","j","pattern_response","true","j","pattern_29","4655.700000047684","true","13","","","","","","","","","","","","","","","","","","",""
"","","","","","html-keyboard-response","51","130850","0.0-2.0-5.0-0.15","5b666901f7798c000182c01c","C3","batch3","","null","<p class=block-text>Trial 16 out of 78</p>","null","pattern_show_trial_num","","","","","","","","","","","","","","","","","","","","","","","","",""
"","","","","","image-keyboard-response","52","134486","0.0-2.0-5.0-1.15","5b666901f7798c000182c01c","C3","batch3","","3633.399999976158","stim/no_36_1_b.png","j","pattern_response","true","j","pattern_17","3633.399999976158","true","14","","","","","","","","","","","","","","","","","","",""
"","","","","","html-keyboard-response","53","135804","0.0-2.0-5.0-0.16","5b666901f7798c000182c01c","C3","batch3","","null","<p class=block-text>Trial 17 out of 78</p>","null","pattern_show_trial_num","","","","","","","","","","","","","","","","","","","","","","","","",""
"","","","","","image-keyboard-response","54","139245","0.0-2.0-5.0-1.16","5b666901f7798c000182c01c","C3","batch3","","3438.7000000476837","stim/no_25_1_b.png","j","pattern_response","true","j","pattern_09","3438.7000000476837","true","15","","","","","","","","","","","","","","","","","","",""
"","","","","","html-keyboard-response","55","140561","0.0-2.0-5.0-0.17","5b666901f7798c000182c01c","C3","batch3","","null","<p class=block-text>Trial 18 out of 78</p>","null","pattern_show_trial_num","","","","","","","","","","","","","","","","","","","","","","","","",""
"","","","","","image-keyboard-response","56","141735","0.0-2.0-5.0-1.17","5b666901f7798c000182c01c","C3","batch3","","1171","stim/no_12_1.png","j","pattern_response","true","j","pattern_01","1171","true","16","","","","","","","","","","","","","","","","","","",""
"","","","","","html-keyboard-response","57","143055","0.0-2.0-5.0-0.18","5b666901f7798c000182c01c","C3","batch3","","null","<p class=block-text>Trial 19 out of 78</p>","null","pattern_show_trial_num","","","","","","","","","","","","","","","","","","","","","","","","",""
"","","","","","image-keyboard-response","58","146457","0.0-2.0-5.0-1.18","5b666901f7798c000182c01c","C3","batch3","","3400.5","stim/no_18_1_b.png","j","pattern_response","true","j","pattern_05","3400.5","true","17","","","","","","","","","","","","","","","","","","",""
"","","","","","html-keyboard-response","59","147776","0.0-2.0-5.0-0.19","5b666901f7798c000182c01c","C3","batch3","","null","<p class=block-text>Trial 20 out of 78</p>","null","pattern_show_trial_num","","","","","","","","","","","","","","","","","","","","","","","","",""
"","","","","","image-keyboard-response","60","148861","0.0-2.0-5.0-1.19","5b666901f7798c000182c01c","C3","batch3","","1083.1999999284744","stim/yes_12_hor_w1_w.png","f","pattern_response","true","f","pattern_42","1083.1999999284744","true","18","","","","","","","","","","","","","","","","","","",""
"","","","","","html-keyboard-response","61","150190","0.0-2.0-5.0-0.20","5b666901f7798c000182c01c","C3","batch3","","null","<p class=block-text>Trial 21 out of 78</p>","null","pattern_show_trial_num","","","","","","","","","","","","","","","","","","","","","","","","",""
"","","","","","image-keyboard-response","62","154015","0.0-2.0-5.0-1.20","5b666901f7798c000182c01c","C3","batch3","","3823.3000000715256","stim/no_30_1_b.png","j","pattern_response","true","j","pattern_13","3823.3000000715256","true","19","","","","","","","","","","","","","","","","","","",""
"","","","","","html-keyboard-response","63","155333","0.0-2.0-5.0-0.21","5b666901f7798c000182c01c","C3","batch3","","null","<p class=block-text>Trial 22 out of 78</p>","null","pattern_show_trial_num","","","","","","","","","","","","","","","","","","","","","","","","",""
"","","","","","image-keyboard-response","64","157531","0.0-2.0-5.0-1.21","5b666901f7798c000182c01c","C3","batch3","","2195.600000023842","stim/yes_37_hor_w1_w.png","f","pattern_response","true","f","pattern_60","2195.600000023842","true","20","","","","","","","","","","","","","","","","","","",""
"","","","","","html-keyboard-response","65","158861","0.0-2.0-5.0-0.22","5b666901f7798c000182c01c","C3","batch3","","null","<p class=block-text>Trial 23 out of 78</p>","null","pattern_show_trial_num","","","","","","","","","","","","","","","","","","","","","","","","",""
"","","","","","image-keyboard-response","66","164750","0.0-2.0-5.0-1.22","5b666901f7798c000182c01c","C3","batch3","","5887.200000047684","stim/no_67_1.png","j","pattern_response","true","j","pattern_39","5887.200000047684","true","21","","","","","","","","","","","","","","","","","","",""
"","","","","","html-keyboard-response","67","166063","0.0-2.0-5.0-0.23","5b666901f7798c000182c01c","C3","batch3","","null","<p class=block-text>Trial 24 out of 78</p>","null","pattern_show_trial_num","","","","","","","","","","","","","","","","","","","","","","","","",""
"","","","","","image-keyboard-response","68","170609","0.0-2.0-5.0-1.23","5b666901f7798c000182c01c","C3","batch3","","4542.799999952316","stim/no_43_2_b.png","j","pattern_response","true","j","pattern_23","4542.799999952316","true","22","","","","","","","","","","","","","","","","","","",""
"","","","","","html-keyboard-response","69","171933","0.0-2.0-5.0-0.24","5b666901f7798c000182c01c","C3","batch3","","null","<p class=block-text>Trial 25 out of 78</p>","null","pattern_show_trial_num","","","","","","","","","","","","","","","","","","","","","","","","",""
"","","","","","image-keyboard-response","70","172959","0.0-2.0-5.0-1.24","5b666901f7798c000182c01c","C3","batch3","","1023.2999999523163","stim/yes_26_dia_w2_w.png","f","pattern_response","true","f","pattern_50","1023.2999999523163","true","23","","","","","","","","","","","","","","","","","","",""
"","","","","","html-keyboard-response","71","174268","0.0-2.0-5.0-0.25","5b666901f7798c000182c01c","C3","batch3","","null","<p class=block-text>Trial 26 out of 78</p>","null","pattern_show_trial_num","","","","","","","","","","","","","","","","","","","","","","","","",""
"","","","","","image-keyboard-response","72","179265","0.0-2.0-5.0-1.25","5b666901f7798c000182c01c","C3","batch3","","4987.900000095367","stim/no_37_2_w.png","j","pattern_response","true","j","pattern_19","4987.900000095367","true","24","","","","","","","","","","","","","","","","","","",""
"","","","","","html-keyboard-response","73","180584","0.0-2.0-5.0-0.26","5b666901f7798c000182c01c","C3","batch3","","null","<p class=block-text>Trial 27 out of 78</p>","null","pattern_show_trial_num","","","","","","","","","","","","","","","","","","","","","","","","",""
"","","","","","image-keyboard-response","74","187528","0.0-2.0-5.0-1.26","5b666901f7798c000182c01c","C3","batch3","","6941.300000071526","stim/no_58_1_w.png","j","pattern_response","true","j","pattern_35","6941.300000071526","true","25","","","","","","","","","","","","","","","","","","",""
"","","","","","html-keyboard-response","75","188852","0.0-2.0-5.0-0.27","5b666901f7798c000182c01c","C3","batch3","","null","<p class=block-text>Trial 28 out of 78</p>","null","pattern_show_trial_num","","","","","","","","","","","","","","","","","","","","","","","","",""
"","","","","","image-keyboard-response","76","194927","0.0-2.0-5.0-1.27","5b666901f7798c000182c01c","C3","batch3","","6072.100000023842","stim/yes_63_dia_b1.png","f","pattern_response","true","f","pattern_78","6072.100000023842","true","26","","","","","","","","","","","","","","","","","","",""
"","","","","","html-keyboard-response","77","196245","0.0-2.0-5.0-0.28","5b666901f7798c000182c01c","C3","batch3","","null","<p class=block-text>Trial 29 out of 78</p>","null","pattern_show_trial_num","","","","","","","","","","","","","","","","","","","","","","","","",""
"","","","","","image-keyboard-response","78","199044","0.0-2.0-5.0-1.28","5b666901f7798c000182c01c","C3","batch3","","2796.600000023842","stim/yes_33_dia_w1_w.png","f","pattern_response","true","f","pattern_56","2796.600000023842","true","27","","","","","","","","","","","","","","","","","","",""
"","","","","","html-keyboard-response","79","200368","0.0-2.0-5.0-0.29","5b666901f7798c000182c01c","C3","batch3","","null","<p class=block-text>Trial 30 out of 78</p>","null","pattern_show_trial_num","","","","","","","","","","","","","","","","","","","","","","","","",""
"","","","","","image-keyboard-response","80","206700","0.0-2.0-5.0-1.29","5b666901f7798c000182c01c","C3","batch3","","6329.100000023842","stim/yes_58_dia_w1_w.png","f","pattern_response","true","f","pattern_76","6329.100000023842","true","28","","","","","","","","","","","","","","","","","","",""
"","","","","","html-keyboard-response","81","208025","0.0-2.0-5.0-0.30","5b666901f7798c000182c01c","C3","batch3","","null","<p class=block-text>Trial 31 out of 78</p>","null","pattern_show_trial_num","","","","","","","","","","","","","","","","","","","","","","","","",""
"","","","","","image-keyboard-response","82","213289","0.0-2.0-5.0-1.30","5b666901f7798c000182c01c","C3","batch3","","5261.200000047684","stim/yes_44_ver_w1_w.png","j","pattern_response","false","f","pattern_66","5261.200000047684","false","28","","","","","","","","","","","","","","","","","","",""
"","","","","","html-keyboard-response","83","214611","0.0-2.0-5.0-0.31","5b666901f7798c000182c01c","C3","batch3","","null","<p class=block-text>Trial 32 out of 78</p>","null","pattern_show_trial_num","","","","","","","","","","","","","","","","","","","","","","","","",""
"","","","","","image-keyboard-response","84","219905","0.0-2.0-5.0-1.31","5b666901f7798c000182c01c","C3","batch3","","5291.199999928474","stim/no_47_1_b.png","j","pattern_response","true","j","pattern_27","5291.199999928474","true","29","","","","","","","","","","","","","","","","","","",""
"","","","","","html-keyboard-response","85","221216","0.0-2.0-5.0-0.32","5b666901f7798c000182c01c","C3","batch3","","null","<p class=block-text>Trial 33 out of 78</p>","null","pattern_show_trial_num","","","","","","","","","","","","","","","","","","","","","","","","",""
"","","","","","image-keyboard-response","86","222219","0.0-2.0-5.0-1.32","5b666901f7798c000182c01c","C3","batch3","","1000.5","stim/yes_70_ver_b1.png","f","pattern_response","true","f","pattern_80","1000.5","true","30","","","","","","","","","","","","","","","","","","",""
"","","","","","html-keyboard-response","87","223535","0.0-2.0-5.0-0.33","5b666901f7798c000182c01c","C3","batch3","","null","<p class=block-text>Trial 34 out of 78</p>","null","pattern_show_trial_num","","","","","","","","","","","","","","","","","","","","","","","","",""
"","","","","","image-keyboard-response","88","229149","0.0-2.0-5.0-1.33","5b666901f7798c000182c01c","C3","batch3","","5612.100000023842","stim/no_45_1_w.png","j","pattern_response","true","j","pattern_25","5612.100000023842","true","31","","","","","","","","","","","","","","","","","","",""
"","","","","","html-keyboard-response","89","230467","0.0-2.0-5.0-0.34","5b666901f7798c000182c01c","C3","batch3","","null","<p class=block-text>Trial 35 out of 78</p>","null","pattern_show_trial_num","","","","","","","","","","","","","","","","","","","","","","","","",""
"","","","","","image-keyboard-response","90","235047","0.0-2.0-5.0-1.34","5b666901f7798c000182c01c","C3","batch3","","4576.399999976158","stim/no_33_1_b.png","j","pattern_response","true","j","pattern_15","4576.399999976158","true","32","","","","","","","","","","","","","","","","","","",""
"","","","","","html-keyboard-response","91","236370","0.0-2.0-5.0-0.35","5b666901f7798c000182c01c","C3","batch3","","null","<p class=block-text>Trial 36 out of 78</p>","null","pattern_show_trial_num","","","","","","","","","","","","","","","","","","","","","","","","",""
"","","","","","image-keyboard-response","92","238203","0.0-2.0-5.0-1.35","5b666901f7798c000182c01c","C3","batch3","","1830.1000000238419","stim/yes_30_ver_b1_b.png","f","pattern_response","true","f","pattern_54","1830.1000000238419","true","33","","","","","","","","","","","","","","","","","","",""
"","","","","","html-keyboard-response","93","239537","0.0-2.0-5.0-0.36","5b666901f7798c000182c01c","C3","batch3","","null","<p class=block-text>Trial 37 out of 78</p>","null","pattern_show_trial_num","","","","","","","","","","","","","","","","","","","","","","","","",""
"","","","","","image-keyboard-response","94","243947","0.0-2.0-5.0-1.36","5b666901f7798c000182c01c","C3","batch3","","4408","stim/yes_42_dia_w1_w.png","j","pattern_response","false","f","pattern_64","4408","false","33","","","","","","","","","","","","","","","","","","",""
"","","","","","html-keyboard-response","95","245272","0.0-2.0-5.0-0.37","5b666901f7798c000182c01c","C3","batch3","","null","<p class=block-text>Trial 38 out of 78</p>","null","pattern_show_trial_num","","","","","","","","","","","","","","","","","","","","","","","","",""
"","","","","","image-keyboard-response","96","249860","0.0-2.0-5.0-1.37","5b666901f7798c000182c01c","C3","batch3","","4584.800000071526","stim/no_51_1.png","j","pattern_response","true","j","pattern_31","4584.800000071526","true","34","","","","","","","","","","","","","","","","","","",""
"","","","","","html-keyboard-response","97","251173","0.0-2.0-5.0-0.38","5b666901f7798c000182c01c","C3","batch3","","null","<p class=block-text>Trial 39 out of 78</p>","null","pattern_show_trial_num","","","","","","","","","","","","","","","","","","","","","","","","",""
"","","","","","image-keyboard-response","98","252158","0.0-2.0-5.0-1.38","5b666901f7798c000182c01c","C3","batch3","","982.6000000238419","stim/yes_15_dia_b1u_b.png","f","pattern_response","true","f","pattern_44","982.6000000238419","true","35","","","","","","","","","","","","","","","","","","",""
"","","","","","image-keyboard-response","99","254917","0.0-2.0-6.0","5b666901f7798c000182c01c","C3","batch3","","2242.2999999523163","stim/empty_board.png","j","attention_check","true","j","","","","","500","[""f"",""j""]","","","","","","","","","","","","","","","","",""
"","","","","","html-keyboard-response","100","255728","0.0-2.0-7.0-0.0","5b666901f7798c000182c01c","C3","batch3","","null","<p class=block-text>Trial 40 out of 78</p>","null","pattern_show_trial_num","","","","","","","","","","","","","","","","","","","","","","","","",""
"","","","","","image-keyboard-response","101","260238","0.0-2.0-7.0-1.0","5b666901f7798c000182c01c","C3","batch3","","4507.600000023842","stim/no_36_2_w.png","j","pattern_response","true","j","pattern_18","4507.600000023842","true","36","","","","","","","","","","","","","","","","","","",""
"","","","","","html-keyboard-response","102","261559","0.0-2.0-7.0-0.1","5b666901f7798c000182c01c","C3","batch3","","null","<p class=block-text>Trial 41 out of 78</p>","null","pattern_show_trial_num","","","","","","","","","","","","","","","","","","","","","","","","",""
"","","","","","image-keyboard-response","103","268556","0.0-2.0-7.0-1.1","5b666901f7798c000182c01c","C3","batch3","","6994.099999904633","stim/no_70_2.png","j","pattern_response","true","j","pattern_40","6994.099999904633","true","37","","","","","","","","","","","","","","","","","","",""
"","","","","","html-keyboard-response","104","269880","0.0-2.0-7.0-0.2","5b666901f7798c000182c01c","C3","batch3","","null","<p class=block-text>Trial 42 out of 78</p>","null","pattern_show_trial_num","","","","","","","","","","","","","","","","","","","","","","","","",""
"","","","","","image-keyboard-response","105","271110","0.0-2.0-7.0-1.2","5b666901f7798c000182c01c","C3","batch3","","1227.9000000953674","stim/yes_38_hor_b1_b.png","f","pattern_response","true","f","pattern_61","1227.9000000953674","true","38","","","","","","","","","","","","","","","","","","",""
"","","","","","html-keyboard-response","106","272420","0.0-2.0-7.0-0.3","5b666901f7798c000182c01c","C3","batch3","","null","<p class=block-text>Trial 43 out of 78</p>","null","pattern_show_trial_num","","","","","","","","","","","","","","","","","","","","","","","","",""
"","","","","","image-keyboard-response","107","273460","0.0-2.0-7.0-1.3","5b666901f7798c000182c01c","C3","batch3","","1038.2000000476837","stim/yes_28_ver_b1.png","f","pattern_response","true","f","pattern_51","1038.2000000476837","true","39","","","","","","","","","","","","","","","","","","",""
"","","","","","html-keyboard-response","108","274788","0.0-2.0-7.0-0.4","5b666901f7798c000182c01c","C3","batch3","","null","<p class=block-text>Trial 44 out of 78</p>","null","pattern_show_trial_num","","","","","","","","","","","","","","","","","","","","","","","","",""
"","","","","","image-keyboard-response","109","279190","0.0-2.0-7.0-1.4","5b666901f7798c000182c01c","C3","batch3","","4400.5","stim/no_34_1_b.png","j","pattern_response","true","j","pattern_16","4400.5","true","40","","","","","","","","","","","","","","","","","","",""
"","","","","","html-keyboard-response","110","280501","0.0-2.0-7.0-0.5","5b666901f7798c000182c01c","C3","batch3","","null","<p class=block-text>Trial 45 out of 78</p>","null","pattern_show_trial_num","","","","","","","","","","","","","","","","","","","","","","","","",""
"","","","","","image-keyboard-response","111","281368","0.0-2.0-7.0-1.5","5b666901f7798c000182c01c","C3","batch3","","864.6000000238419","stim/yes_45_hor_b2_b.png","f","pattern_response","true","f","pattern_67","864.6000000238419","true","41","","","","","","","","","","","","","","","","","","",""
"","","","","","html-keyboard-response","112","282684","0.0-2.0-7.0-0.6","5b666901f7798c000182c01c","C3","batch3","","null","<p class=block-text>Trial 46 out of 78</p>","null","pattern_show_trial_num","","","","","","","","","","","","","","","","","","","","","","","","",""
"","","","","","image-keyboard-response","113","288161","0.0-2.0-7.0-1.6","5b666901f7798c000182c01c","C3","batch3","","5475","stim/no_48_1_w.png","j","pattern_response","true","j","pattern_28","5475","true","42","","","","","","","","","","","","","","","","","","",""
"","","","","","html-keyboard-response","114","289477","0.0-2.0-7.0-0.7","5b666901f7798c000182c01c","C3","batch3","","null","<p class=block-text>Trial 47 out of 78</p>","null","pattern_show_trial_num","","","","","","","","","","","","","","","","","","","","","","","","",""
"","","","","","image-keyboard-response","115","290828","0.0-2.0-7.0-1.7","5b666901f7798c000182c01c","C3","batch3","","1348","stim/yes_31_hor_b1.png","f","pattern_response","true","f","pattern_55","1348","true","43","","","","","","","","","","","","","","","","","","",""
"","","","","","html-keyboard-response","116","292155","0.0-2.0-7.0-0.8","5b666901f7798c000182c01c","C3","batch3","","null","<p class=block-text>Trial 48 out of 78</p>","null","pattern_show_trial_num","","","","","","","","","","","","","","","","","","","","","","","","",""
"","","","","","image-keyboard-response","117","298176","0.0-2.0-7.0-1.8","5b666901f7798c000182c01c","C3","batch3","","6018.599999904633","stim/no_44_1.png","j","pattern_response","true","j","pattern_24","6018.599999904633","true","44","","","","","","","","","","","","","","","","","","",""
"","","","","","html-keyboard-response","118","299492","0.0-2.0-7.0-0.9","5b666901f7798c000182c01c","C3","batch3","","null","<p class=block-text>Trial 49 out of 78</p>","null","pattern_show_trial_num","","","","","","","","","","","","","","","","","","","","","","","","",""
"","","","","","image-keyboard-response","119","306357","0.0-2.0-7.0-1.9","5b666901f7798c000182c01c","C3","batch3","","6866.899999976158","stim/yes_48_dia_w1_w.png","f","pattern_response","true","f","pattern_69","6866.899999976158","true","45","","","","","","","","","","","","","","","","","","",""
"","","","","","html-keyboard-response","120","307663","0.0-2.0-7.0-0.10","5b666901f7798c000182c01c","C3","batch3","","null","<p class=block-text>Trial 50 out of 78</p>","null","pattern_show_trial_num","","","","","","","","","","","","","","","","","","","","","","","","",""
"","","","","","image-keyboard-response","121","313284","0.0-2.0-7.0-1.10","5b666901f7798c000182c01c","C3","batch3","","5618.699999928474","stim/no_42_1_w.png","j","pattern_response","true","j","pattern_22","5618.699999928474","true","46","","","","","","","","","","","","","","","","","","",""
"","","","","","html-keyboard-response","122","314609","0.0-2.0-7.0-0.11","5b666901f7798c000182c01c","C3","batch3","","null","<p class=block-text>Trial 51 out of 78</p>","null","pattern_show_trial_num","","","","","","","","","","","","","","","","","","","","","","","","",""
"","","","","","image-keyboard-response","123","315934","0.0-2.0-7.0-1.11","5b666901f7798c000182c01c","C3","batch3","","1322.3000000715256","stim/yes_67_hor_b1.png","f","pattern_response","true","f","pattern_79","1322.3000000715256","true","47","","","","","","","","","","","","","","","","","","",""
"","","","","","html-keyboard-response","124","317245","0.0-2.0-7.0-0.12","5b666901f7798c000182c01c","C3","batch3","","null","<p class=block-text>Trial 52 out of 78</p>","null","pattern_show_trial_num","","","","","","","","","","","","","","","","","","","","","","","","",""
"","","","","","image-keyboard-response","125","318624","0.0-2.0-7.0-1.12","5b666901f7798c000182c01c","C3","batch3","","1377.1000000238419","stim/yes_35_dia_b1.png","f","pattern_response","true","f","pattern_57","1377.1000000238419","true","48","","","","","","","","","","","","","","","","","","",""
"","","","","","html-keyboard-response","126","319945","0.0-2.0-7.0-0.13","5b666901f7798c000182c01c","C3","batch3","","null","<p class=block-text>Trial 53 out of 78</p>","null","pattern_show_trial_num","","","","","","","","","","","","","","","","","","","","","","","","",""
"","","","","","image-keyboard-response","127","329243","0.0-2.0-7.0-1.13","5b666901f7798c000182c01c","C3","batch3","","9296.900000095367","stim/no_65_1_b.png","j","pattern_response","true","j","pattern_38","9296.900000095367","true","49","","","","","","","","","","","","","","","","","","",""
"","","","","","html-keyboard-response","128","330566","0.0-2.0-7.0-0.14","5b666901f7798c000182c01c","C3","batch3","","null","<p class=block-text>Trial 54 out of 78</p>","null","pattern_show_trial_num","","","","","","","","","","","","","","","","","","","","","","","","",""
"","","","","","image-keyboard-response","129","335874","0.0-2.0-7.0-1.14","5b666901f7798c000182c01c","C3","batch3","","5305.399999976158","stim/yes_29_ver_w1.png","j","pattern_response","false","f","pattern_53","5305.399999976158","false","49","","","","","","","","","","","","","","","","","","",""
"","","","","","html-keyboard-response","130","337187","0.0-2.0-7.0-0.15","5b666901f7798c000182c01c","C3","batch3","","null","<p class=block-text>Trial 55 out of 78</p>","null","pattern_show_trial_num","","","","","","","","","","","","","","","","","","","","","","","","",""
"","","","","","image-keyboard-response","131","340513","0.0-2.0-7.0-1.15","5b666901f7798c000182c01c","C3","batch3","","3323.600000023842","stim/no_38_1_b.png","j","pattern_response","true","j","pattern_20","3323.600000023842","true","50","","","","","","","","","","","","","","","","","","",""
"","","","","","html-keyboard-response","132","341837","0.0-2.0-7.0-0.16","5b666901f7798c000182c01c","C3","batch3","","null","<p class=block-text>Trial 56 out of 78</p>","null","pattern_show_trial_num","","","","","","","","","","","","","","","","","","","","","","","","",""
"","","","","","image-keyboard-response","133","342715","0.0-2.0-7.0-1.16","5b666901f7798c000182c01c","C3","batch3","","875.3000000715256","stim/yes_22_ver_w1.png","f","pattern_response","true","f","pattern_47","875.3000000715256","true","51","","","","","","","","","","","","","","","","","","",""
"","","","","","html-keyboard-response","134","344038","0.0-2.0-7.0-0.17","5b666901f7798c000182c01c","C3","batch3","","null","<p class=block-text>Trial 57 out of 78</p>","null","pattern_show_trial_num","","","","","","","","","","","","","","","","","","","","","","","","",""
"","","","","","image-keyboard-response","135","350748","0.0-2.0-7.0-1.17","5b666901f7798c000182c01c","C3","batch3","","6707.299999952316","stim/no_50_1.png","j","pattern_response","true","j","pattern_30","6707.299999952316","true","52","","","","","","","","","","","","","","","","","","",""
"","","","","","html-keyboard-response","136","352063","0.0-2.0-7.0-0.18","5b666901f7798c000182c01c","C3","batch3","","null","<p class=block-text>Trial 58 out of 78</p>","null","pattern_show_trial_num","","","","","","","","","","","","","","","","","","","","","","","","",""
"","","","","","image-keyboard-response","137","353158","0.0-2.0-7.0-1.18","5b666901f7798c000182c01c","C3","batch3","","1092.5","stim/yes_17_dia_w1.png","f","pattern_response","true","f","pattern_45","1092.5","true","53","","","","","","","","","","","","","","","","","","",""
"","","","","","html-keyboard-response","138","354478","0.0-2.0-7.0-0.19","5b666901f7798c000182c01c","C3","batch3","","null","<p class=block-text>Trial 59 out of 78</p>","null","pattern_show_trial_num","","","","","","","","","","","","","","","","","","","","","","","","",""
"","","","","","image-keyboard-response","139","357186","0.0-2.0-7.0-1.19","5b666901f7798c000182c01c","C3","batch3","","2706.100000023842","stim/yes_50_dia_w1.png","f","pattern_response","true","f","pattern_71","2706.100000023842","true","54","","","","","","","","","","","","","","","","","","",""
"","","","","","html-keyboard-response","140","358506","0.0-2.0-7.0-0.20","5b666901f7798c000182c01c","C3","batch3","","null","<p class=block-text>Trial 60 out of 78</p>","null","pattern_show_trial_num","","","","","","","","","","","","","","","","","","","","","","","","",""
"","","","","","image-keyboard-response","141","362511","0.0-2.0-7.0-1.20","5b666901f7798c000182c01c","C3","batch3","","4002.5","stim/no_32_1_w.png","j","pattern_response","true","j","pattern_14","4002.5","true","55","","","","","","","","","","","","","","","","","","",""
"","","","","","html-keyboard-response","142","363828","0.0-2.0-7.0-0.21","5b666901f7798c000182c01c","C3","batch3","","null","<p class=block-text>Trial 61 out of 78</p>","null","pattern_show_trial_num","","","","","","","","","","","","","","","","","","","","","","","","",""
"","","","","","image-keyboard-response","143","372092","0.0-2.0-7.0-1.21","5b666901f7798c000182c01c","C3","batch3","","8264.600000023842","stim/yes_55_hor_w1_w.png","j","pattern_response","false","f","pattern_75","8264.600000023842","false","55","","","","","","","","","","","","","","","","","","",""
"","","","","","html-keyboard-response","144","373400","0.0-2.0-7.0-0.22","5b666901f7798c000182c01c","C3","batch3","","null","<p class=block-text>Trial 62 out of 78</p>","null","pattern_show_trial_num","","","","","","","","","","","","","","","","","","","","","","","","",""
"","","","","","image-keyboard-response","145","382206","0.0-2.0-7.0-1.22","5b666901f7798c000182c01c","C3","batch3","","8804.200000047684","stim/no_55_1_w.png","j","pattern_response","true","j","pattern_34","8804.200000047684","true","56","","","","","","","","","","","","","","","","","","",""
"","","","","","html-keyboard-response","146","383516","0.0-2.0-7.0-0.23","5b666901f7798c000182c01c","C3","batch3","","null","<p class=block-text>Trial 63 out of 78</p>","null","pattern_show_trial_num","","","","","","","","","","","","","","","","","","","","","","","","",""
"","","","","","image-keyboard-response","147","391770","0.0-2.0-7.0-1.23","5b666901f7798c000182c01c","C3","batch3","","8251.100000023842","stim/no_52_1.png","j","pattern_response","true","j","pattern_32","8251.100000023842","true","57","","","","","","","","","","","","","","","","","","",""
"","","","","","html-keyboard-response","148","393098","0.0-2.0-7.0-0.24","5b666901f7798c000182c01c","C3","batch3","","null","<p class=block-text>Trial 64 out of 78</p>","null","pattern_show_trial_num","","","","","","","","","","","","","","","","","","","","","","","","",""
"","","","","","image-keyboard-response","149","394207","0.0-2.0-7.0-1.24","5b666901f7798c000182c01c","C3","batch3","","1106.2000000476837","stim/yes_60_ver_b1_b.png","f","pattern_response","true","f","pattern_77","1106.2000000476837","true","58","","","","","","","","","","","","","","","","","","",""
"","","","","","html-keyboard-response","150","395533","0.0-2.0-7.0-0.25","5b666901f7798c000182c01c","C3","batch3","","null","<p class=block-text>Trial 65 out of 78</p>","null","pattern_show_trial_num","","","","","","","","","","","","","","","","","","","","","","","","",""
"","","","","","image-keyboard-response","151","397965","0.0-2.0-7.0-1.25","5b666901f7798c000182c01c","C3","batch3","","2430.5","stim/no_17_1_w.png","j","pattern_response","true","j","pattern_04","2430.5","true","59","","","","","","","","","","","","","","","","","","",""
"","","","","","html-keyboard-response","152","399277","0.0-2.0-7.0-0.26","5b666901f7798c000182c01c","C3","batch3","","null","<p class=block-text>Trial 66 out of 78</p>","null","pattern_show_trial_num","","","","","","","","","","","","","","","","","","","","","","","","",""
"","","","","","image-keyboard-response","153","405247","0.0-2.0-7.0-1.26","5b666901f7798c000182c01c","C3","batch3","","5968.100000023842","stim/yes_37_dia_w1.png","j","pattern_response","false","f","pattern_59","5968.100000023842","false","59","","","","","","","","","","","","","","","","","","",""
"","","","","","html-keyboard-response","154","406571","0.0-2.0-7.0-0.27","5b666901f7798c000182c01c","C3","batch3","","null","<p class=block-text>Trial 67 out of 78</p>","null","pattern_show_trial_num","","","","","","","","","","","","","","","","","","","","","","","","",""
"","","","","","image-keyboard-response","155","407458","0.0-2.0-7.0-1.27","5b666901f7798c000182c01c","C3","batch3","","884.5","stim/yes_25_hor_b1_b.png","f","pattern_response","true","f","pattern_49","884.5","true","60","","","","","","","","","","","","","","","","","","",""
"","","","","","html-keyboard-response","156","408764","0.0-2.0-7.0-0.28","5b666901f7798c000182c01c","C3","batch3","","null","<p class=block-text>Trial 68 out of 78</p>","null","pattern_show_trial_num","","","","","","","","","","","","","","","","","","","","","","","","",""
"","","","","","image-keyboard-response","157","410074","0.0-2.0-7.0-1.28","5b666901f7798c000182c01c","C3","batch3","","1307.2999999523163","stim/yes_43_ver_w1_w.png","f","pattern_response","true","f","pattern_65","1307.2999999523163","true","61","","","","","","","","","","","","","","","","","","",""
"","","","","","html-keyboard-response","158","411379","0.0-2.0-7.0-0.29","5b666901f7798c000182c01c","C3","batch3","","null","<p class=block-text>Trial 69 out of 78</p>","null","pattern_show_trial_num","","","","","","","","","","","","","","","","","","","","","","","","",""
"","","","","","image-keyboard-response","159","413512","0.0-2.0-7.0-1.29","5b666901f7798c000182c01c","C3","batch3","","2130.8000000715256","stim/no_26_1_w.png","j","pattern_response","true","j","pattern_10","2130.8000000715256","true","62","","","","","","","","","","","","","","","","","","",""
"","","","","","html-keyboard-response","160","414830","0.0-2.0-7.0-0.30","5b666901f7798c000182c01c","C3","batch3","","null","<p class=block-text>Trial 70 out of 78</p>","null","pattern_show_trial_num","","","","","","","","","","","","","","","","","","","","","","","","",""
"","","","","","image-keyboard-response","161","422275","0.0-2.0-7.0-1.30","5b666901f7798c000182c01c","C3","batch3","","7443.100000023842","stim/no_62_1_w.png","f","pattern_response","false","j","pattern_36","7443.100000023842","false","62","","","","","","","","","","","","","","","","","","",""
"","","","","","html-keyboard-response","162","423601","0.0-2.0-7.0-0.31","5b666901f7798c000182c01c","C3","batch3","","null","<p class=block-text>Trial 71 out of 78</p>","null","pattern_show_trial_num","","","","","","","","","","","","","","","","","","","","","","","","",""
"","","","","","image-keyboard-response","163","425483","0.0-2.0-7.0-1.31","5b666901f7798c000182c01c","C3","batch3","","1880","stim/no_13_2_b.png","j","pattern_response","true","j","pattern_02","1880","true","63","","","","","","","","","","","","","","","","","","",""
"","","","","","html-keyboard-response","164","426800","0.0-2.0-7.0-0.32","5b666901f7798c000182c01c","C3","batch3","","null","<p class=block-text>Trial 72 out of 78</p>","null","pattern_show_trial_num","","","","","","","","","","","","","","","","","","","","","","","","",""
"","","","","","image-keyboard-response","165","429356","0.0-2.0-7.0-1.32","5b666901f7798c000182c01c","C3","batch3","","2553.5","stim/no_20_1_w.png","j","pattern_response","true","j","pattern_06","2553.5","true","64","","","","","","","","","","","","","","","","","","",""
"","","","","","html-keyboard-response","166","430683","0.0-2.0-7.0-0.33","5b666901f7798c000182c01c","C3","batch3","","null","<p class=block-text>Trial 73 out of 78</p>","null","pattern_show_trial_num","","","","","","","","","","","","","","","","","","","","","","","","",""
"","","","","","image-keyboard-response","167","432055","0.0-2.0-7.0-1.33","5b666901f7798c000182c01c","C3","batch3","","1370","stim/yes_52_ver_w1.png","f","pattern_response","true","f","pattern_73","1370","true","65","","","","","","","","","","","","","","","","","","",""
"","","","","","html-keyboard-response","168","433377","0.0-2.0-7.0-0.34","5b666901f7798c000182c01c","C3","batch3","","null","<p class=block-text>Trial 74 out of 78</p>","null","pattern_show_trial_num","","","","","","","","","","","","","","","","","","","","","","","","",""
"","","","","","image-keyboard-response","169","438707","0.0-2.0-7.0-1.34","5b666901f7798c000182c01c","C3","batch3","","5327.399999976158","stim/no_46_1_b.png","j","pattern_response","true","j","pattern_26","5327.399999976158","true","66","","","","","","","","","","","","","","","","","","",""
"","","","","","html-keyboard-response","170","440027","0.0-2.0-7.0-0.35","5b666901f7798c000182c01c","C3","batch3","","null","<p class=block-text>Trial 75 out of 78</p>","null","pattern_show_trial_num","","","","","","","","","","","","","","","","","","","","","","","","",""
"","","","","","image-keyboard-response","171","446706","0.0-2.0-7.0-1.35","5b666901f7798c000182c01c","C3","batch3","","6676.299999952316","stim/yes_40_dia_b1_b.png","j","pattern_response","false","f","pattern_63","6676.299999952316","false","66","","","","","","","","","","","","","","","","","","",""
"","","","","","html-keyboard-response","172","448029","0.0-2.0-7.0-0.36","5b666901f7798c000182c01c","C3","batch3","","null","<p class=block-text>Trial 76 out of 78</p>","null","pattern_show_trial_num","","","","","","","","","","","","","","","","","","","","","","","","",""
"","","","","","image-keyboard-response","173","449030","0.0-2.0-7.0-1.36","5b666901f7798c000182c01c","C3","batch3","","998.5999999046326","stim/yes_14_hor_b1_w.png","f","pattern_response","true","f","pattern_43","998.5999999046326","true","67","","","","","","","","","","","","","","","","","","",""
"","","","","","html-keyboard-response","174","450353","0.0-2.0-7.0-0.37","5b666901f7798c000182c01c","C3","batch3","","null","<p class=block-text>Trial 77 out of 78</p>","null","pattern_show_trial_num","","","","","","","","","","","","","","","","","","","","","","","","",""
"","","","","","image-keyboard-response","175","453275","0.0-2.0-7.0-1.37","5b666901f7798c000182c01c","C3","batch3","","2920.100000023842","stim/no_29_1_b.png","j","pattern_response","true","j","pattern_12","2920.100000023842","true","68","","","","","","","","","","","","","","","","","","",""
"","","","","","html-keyboard-response","176","454598","0.0-2.0-7.0-0.38","5b666901f7798c000182c01c","C3","batch3","","null","<p class=block-text>Trial 78 out of 78</p>","null","pattern_show_trial_num","","","","","","","","","","","","","","","","","","","","","","","","",""
"","","","","","image-keyboard-response","177","456757","0.0-2.0-7.0-1.38","5b666901f7798c000182c01c","C3","batch3","","2156.2000000476837","stim/no_23_1.png","j","pattern_response","true","j","pattern_08","2156.2000000476837","true","69","","","","","","","","","","","","","","","","","","",""
"","","","","","html-button-response","178","461400","0.0-2.0-8.0","5b666901f7798c000182c01c","C3","batch3","","4129.200000047684","<p class = block-text>This concludes the 4-in-a-row detection game.Thank you for your responses!<br>
            You responded correctly on 88% of the trials.<br>
            When you are ready, press ""Continue"" button to continue </p>","0","","","","","","","","","","","","","","","","","","","","","","","","","",""
"true","","","","","fullscreen","179","463809","0.0-3.0-0.0","5b666901f7798c000182c01c","C3","batch3","","","","","","","","","","","","","","","","","","","","","","","","","","","","","",""
"","","","","","instructions","180","504604","0.0-3.0-1.0-0.0-0.0","5b666901f7798c000182c01c","C3","batch3","[{""page_index"":0,""viewing_time"":6922.100000023842},{""page_index"":1,""viewing_time"":7487.5},{""page_index"":2,""viewing_time"":5092.699999928474},{""page_index"":3,""viewing_time"":6365.5},{""page_index"":4,""viewing_time"":5564},{""page_index"":5,""viewing_time"":6381.600000023842},{""page_index"":6,""viewing_time"":2980.3000000715256}]","40793.89999997616","","","tol-instructions","","","","","","","","","","","","","","","","","","","","","","","","",""
"","","","","","html-button-response","181","505620","0.0-3.0-1.0-1.0-0.0","5b666901f7798c000182c01c","C3","batch3","","1014.8000000715256","<p class=block-text> Let's answer a few questions <br>","0","tol_enter_quiz","","","","","","","","","","","","","","","","","","","","","","","","",""
"","","","","","html-button-response","182","509323","0.0-3.0-1.0-1.0-1.0","5b666901f7798c000182c01c","C3","batch3","","3701.399999976158","<p class = block-text>True or False: You can only move the ball on top of a peg. <br></p>","1","tol_quiz","false","","","","","","","","","","","","","","","","","","","","","","","",""
"","","","","","html-button-response","183","510413","0.0-3.0-1.0-1.0-2.0","5b666901f7798c000182c01c","C3","batch3","","1088.3999999761581","<p class = block-text>Incorrect. Remember, you can only move the ball on top of a peg.</p>","0","tol_quiz_feedback","","","","","","","","","","","","","","","","","","","","","","","","",""
"","","","","","html-button-response","184","513440","0.0-3.0-1.0-1.0-3.0","5b666901f7798c000182c01c","C3","batch3","","3026.3000000715256","<p class = block-text>True or False: You should try to match your board with the target board with fewest moves possible. <br></p>","0","tol_quiz","true","","","","","","","","","","","","","","","","","","","","","","","",""
"","","","","","html-button-response","185","514082","0.0-3.0-1.0-1.0-4.0","5b666901f7798c000182c01c","C3","batch3","","640.3999999761581","<p class = block-text>Correct! </p>","0","tol_quiz_feedback","","","","","","","","","","","","","","","","","","","","","","","","",""
"","","","","","html-button-response","186","516542","0.0-3.0-1.0-2.0-0.0","5b666901f7798c000182c01c","C3","batch3","","2459.100000023842","<p class = block-text>You made too many incorrect choices.</p><p class = block-text>You will now repeat the instructions and quiz</p>","0","","","","","","","","","","","","","","","","","","","","","","","","","",""
"","","","","","instructions","187","549820","0.0-3.0-1.1-0.1-0.1","5b666901f7798c000182c01c","C3","batch3","[{""page_index"":0,""viewing_time"":13444.899999976158},{""page_index"":1,""viewing_time"":5458.300000071526},{""page_index"":2,""viewing_time"":2079},{""page_index"":3,""viewing_time"":3677.399999976158},{""page_index"":4,""viewing_time"":3013.899999976158},{""page_index"":5,""viewing_time"":2293.2999999523163},{""page_index"":6,""viewing_time"":3310.100000023842}]","33277.10000002384","","","tol-instructions","","","","","","","","","","","","","","","","","","","","","","","","",""
"","","","","","html-button-response","188","550902","0.0-3.0-1.1-1.1-0.1","5b666901f7798c000182c01c","C3","batch3","","1081.1000000238419","<p class=block-text> Let's answer a few questions <br>","0","tol_enter_quiz","","","","","","","","","","","","","","","","","","","","","","","","",""
"","","","","","html-button-response","189","556488","0.0-3.0-1.1-1.1-1.1","5b666901f7798c000182c01c","C3","batch3","","5585.100000023842","<p class = block-text>True or False: You can only move the ball on top of a peg. <br></p>","0","tol_quiz","true","","","","","","","","","","","","","","","","","","","","","","","",""
"","","","","","html-button-response","190","557578","0.0-3.0-1.1-1.1-2.1","5b666901f7798c000182c01c","C3","batch3","","1089.1000000238419","<p class = block-text>Correct! You can only move the ball on top of a peg.</p>","0","tol_quiz_feedback","","","","","","","","","","","","","","","","","","","","","","","","",""
"","","","","","html-button-response","191","559949","0.0-3.0-1.1-1.1-3.1","5b666901f7798c000182c01c","C3","batch3","","2370.2000000476837","<p class = block-text>True or False: You should try to match your board with the target board with fewest moves possible. <br></p>","0","tol_quiz","true","","","","","","","","","","","","","","","","","","","","","","","",""
"","","","","","html-button-response","192","560701","0.0-3.0-1.1-1.1-4.1","5b666901f7798c000182c01c","C3","batch3","","751","<p class = block-text>Correct! </p>","0","tol_quiz_feedback","","","","","","","","","","","","","","","","","","","","","","","","",""
"","","","","","html-button-response","193","563306","0.0-3.0-2.0","5b666901f7798c000182c01c","C3","batch3","","2603.5","<p class=block-text> Now that you've understood the game, let's practice a few easier examples before we start!<br> <br>","0","","","","","","","","","","","","","","","","","","","","","","","","","",""
"","","","","","single-stim-button","194","577656","0.0-3.0-3.0-0.0","5b666901f7798c000182c01c","C3","batch3","","14348","","","tol_practice","","","","","","","","","tol_peg_2","14348","14348","0","[[1,2,0],[0,0],[0]]","1","[[1,2,0],[0,0],[3]]","practice","14348","","","","","","","",""
"","","","","","single-stim-button","195","579818","0.0-3.0-3.0-1.0","5b666901f7798c000182c01c","C3","batch3","","2161","","","tol_practice","","","","","","","","","tol_peg_3","2161","2161","0","[[1,2,0],[0,0],[3]]","1","[[1,2,0],[0,0],[3]]","practice","2161","","","","","","","",""
"","","","","","poldrack-single-stim","196","580820","0.0-3.0-4.0","5b666901f7798c000182c01c","C3","batch3","","-1","","","tol_feedback","true","","","","","","","","","1000","1000","500","","","","","","-1","none","true","","0","","",""
"","","","","","single-stim-button","197","585923","0.0-3.0-5.0-0.0","5b666901f7798c000182c01c","C3","batch3","","5101","","","tol_practice","","","","","","","","","tol_peg_1","5101","5101","0","[[1,0,0],[3,0],[0]]","2","[[0,0,0],[3,1],[2]]","practice","5101","","","","","","","",""
"","","","","","single-stim-button","198","586964","0.0-3.0-5.0-1.0","5b666901f7798c000182c01c","C3","batch3","","1040","","","tol_practice","","","","","","","","","tol_peg_3","1040","1040","0","[[1,0,0],[3,0],[2]]","2","[[0,0,0],[3,1],[2]]","practice","1040","","","","","","","",""
"","","","","","single-stim-button","199","588254","0.0-3.0-5.1-0.1","5b666901f7798c000182c01c","C3","batch3","","1289","","","tol_practice","","","","","","","","","tol_peg_1","1289","1289","0","[[0,0,0],[3,0],[2]]","3","[[0,0,0],[3,1],[2]]","practice","1289","","","","","","","",""
"","","","","","single-stim-button","200","589214","0.0-3.0-5.1-1.1","5b666901f7798c000182c01c","C3","batch3","","959","","","tol_practice","","","","","","","","","tol_peg_2","959","959","0","[[0,0,0],[3,1],[2]]","3","[[0,0,0],[3,1],[2]]","practice","959","","","","","","","",""
"","","","","","poldrack-single-stim","201","590225","0.0-3.0-6.0","5b666901f7798c000182c01c","C3","batch3","","-1","","","tol_feedback","true","","","","","","","","","1000","1000","500","","","","","","-1","none","true","","0","","",""
"","","","","","single-stim-button","202","593768","0.0-3.0-7.0-0.0","5b666901f7798c000182c01c","C3","batch3","","3542","","","tol_practice","","","","","","","","","tol_peg_2","3542","3542","0","[[1,2,0],[0,0],[0]]","4","[[1,0,0],[2,0],[3]]","practice","3542","","","","","","","",""
"","","","","","single-stim-button","203","594544","0.0-3.0-7.0-1.0","5b666901f7798c000182c01c","C3","batch3","","774","","","tol_practice","","","","","","","","","tol_peg_3","774","774","0","[[1,2,0],[0,0],[3]]","4","[[1,0,0],[2,0],[3]]","practice","774","","","","","","","",""
"","","","","","single-stim-button","204","595497","0.0-3.0-7.1-0.1","5b666901f7798c000182c01c","C3","batch3","","953","","","tol_practice","","","","","","","","","tol_peg_1","953","953","0","[[1,0,0],[0,0],[3]]","5","[[1,0,0],[2,0],[3]]","practice","953","","","","","","","",""
"","","","","","single-stim-button","205","596090","0.0-3.0-7.1-1.1","5b666901f7798c000182c01c","C3","batch3","","592","","","tol_practice","","","","","","","","","tol_peg_2","592","592","0","[[1,0,0],[2,0],[3]]","5","[[1,0,0],[2,0],[3]]","practice","592","","","","","","","",""
"","","","","","poldrack-single-stim","206","597106","0.0-3.0-8.0","5b666901f7798c000182c01c","C3","batch3","","-1","","","tol_feedback","true","","","","","","","","","1000","1000","500","","","","","","-1","none","true","","0","","",""
"","","","","","html-button-response","207","599528","0.0-3.0-9.0","5b666901f7798c000182c01c","C3","batch3","","2421","<div class = centerbox><p class = center-block-text>Great job! You are done with practice trials<br>You are about to start official trials.<br> <br> Problem <strong>1</strong> out of 25 problems</p></div>","0","tol_instruction","","","","","","","","","","","","","","","","","","","","","","","","",""
"","","","","","single-stim-button","208","607024","0.0-3.0-10.0-0.0","5b666901f7798c000182c01c","C3","batch3","","6479","","","tol_tohand","","","","","","","","","tol_peg_1","6479","6479","0","[[1,0,0],[3,0],[0]]","1","[[1,3,0],[2,0],[0]]","0","0","","","","","","3","",""
"","","","","","single-stim-button","209","609324","0.0-3.0-10.0-1.0","5b666901f7798c000182c01c","C3","batch3","","2299","","","tol_toboard","","","","","","","","","tol_peg_3","2299","2299","0","[[1,0,0],[3,0],[2]]","1","[[1,3,0],[2,0],[0]]","0","0","","","","","","3","",""
"","","","","","single-stim-button","210","609931","0.0-3.0-10.1-0.1","5b666901f7798c000182c01c","C3","batch3","","606","","","tol_tohand","","","","","","","","","tol_peg_2","606","606","0","[[1,0,0],[0,0],[2]]","2","[[1,3,0],[2,0],[0]]","0","0","","","","","","3","",""
"","","","","","single-stim-button","211","610469","0.0-3.0-10.1-1.1","5b666901f7798c000182c01c","C3","batch3","","537","","","tol_toboard","","","","","","","","","tol_peg_1","537","537","0","[[1,3,0],[0,0],[2]]","2","[[1,3,0],[2,0],[0]]","0","0","","","","","","3","",""
"","","","","","single-stim-button","212","611293","0.0-3.0-10.2-0.2","5b666901f7798c000182c01c","C3","batch3","","824","","","tol_tohand","","","","","","","","","tol_peg_3","824","824","0","[[1,3,0],[0,0],[0]]","3","[[1,3,0],[2,0],[0]]","0","0","","","","","","3","",""
"","","","","","single-stim-button","213","611718","0.0-3.0-10.2-1.2","5b666901f7798c000182c01c","C3","batch3","","423","","","tol_toboard","","","","","","","","","tol_peg_2","423","423","0","[[1,3,0],[2,0],[0]]","3","[[1,3,0],[2,0],[0]]","0","0","","","","","","3","",""
"","","","","","poldrack-single-stim","214","612720","0.0-3.0-11.0","5b666901f7798c000182c01c","C3","batch3","","-1","","","tol_feedback","true","","","","","","","","","1000","1000","500","","","","","","-1","none","true","6479","7909","","",""
"","","","","","html-button-response","215","614026","0.0-3.0-12.0","5b666901f7798c000182c01c","C3","batch3","","1304.8999999761581","<div class = centerbox><p class = center-block-text>problem <strong>2</strong> out of 25 problems</p></div>","0","tol_trial_num","","","","","","","","","","","","","","","","","","","","","","","","",""
"","","","","","single-stim-button","216","617126","0.0-3.0-13.0-0.0","5b666901f7798c000182c01c","C3","batch3","","3100","","","tol_tohand","","","","","","","","","tol_peg_1","3100","3100","0","[[1,0,0],[3,0],[0]]","1","[[2,1,3],[0,0],[0]]","1","0","","","","","","5","",""
"","","","","","single-stim-button","217","618759","0.0-3.0-13.0-1.0","5b666901f7798c000182c01c","C3","batch3","","1632","","","tol_toboard","","","","","","","","","tol_peg_3","1632","1632","0","[[1,0,0],[3,0],[2]]","1","[[2,1,3],[0,0],[0]]","1","0","","","","","","5","",""
"","","","","","single-stim-button","218","620314","0.0-3.0-13.1-0.1","5b666901f7798c000182c01c","C3","batch3","","1553","","","tol_tohand","","","","","","","","","tol_peg_1","1553","1553","0","[[0,0,0],[3,0],[2]]","2","[[2,1,3],[0,0],[0]]","1","0","","","","","","5","",""
"","","","","","single-stim-button","219","624064","0.0-3.0-13.1-1.1","5b666901f7798c000182c01c","C3","batch3","","3750","","","tol_toboard","","","","","","","","","tol_peg_2","3750","3750","0","[[0,0,0],[3,1],[2]]","2","[[2,1,3],[0,0],[0]]","1","0","","","","","","5","",""
"","","","","","single-stim-button","220","624968","0.0-3.0-13.2-0.2","5b666901f7798c000182c01c","C3","batch3","","902","","","tol_tohand","","","","","","","","","tol_peg_3","902","902","0","[[0,0,0],[3,1],[0]]","3","[[2,1,3],[0,0],[0]]","1","0","","","","","","5","",""
"","","","","","single-stim-button","221","625841","0.0-3.0-13.2-1.2","5b666901f7798c000182c01c","C3","batch3","","873","","","tol_toboard","","","","","","","","","tol_peg_1","873","873","0","[[2,0,0],[3,1],[0]]","3","[[2,1,3],[0,0],[0]]","1","0","","","","","","5","",""
"","","","","","single-stim-button","222","626442","0.0-3.0-13.3-0.3","5b666901f7798c000182c01c","C3","batch3","","601","","","tol_tohand","","","","","","","","","tol_peg_2","601","601","0","[[2,0,0],[3,0],[0]]","4","[[2,1,3],[0,0],[0]]","1","0","","","","","","5","",""
"","","","","","single-stim-button","223","626810","0.0-3.0-13.3-1.3","5b666901f7798c000182c01c","C3","batch3","","367","","","tol_toboard","","","","","","","","","tol_peg_1","367","367","0","[[2,1,0],[3,0],[0]]","4","[[2,1,3],[0,0],[0]]","1","0","","","","","","5","",""
"","","","","","single-stim-button","224","627348","0.0-3.0-13.4-0.4","5b666901f7798c000182c01c","C3","batch3","","537","","","tol_tohand","","","","","","","","","tol_peg_2","537","537","0","[[2,1,0],[0,0],[0]]","5","[[2,1,3],[0,0],[0]]","1","0","","","","","","5","",""
"","","","","","single-stim-button","225","627764","0.0-3.0-13.4-1.4","5b666901f7798c000182c01c","C3","batch3","","415","","","tol_toboard","","","","","","","","","tol_peg_1","415","415","0","[[2,1,3],[0,0],[0]]","5","[[2,1,3],[0,0],[0]]","1","0","","","","","","5","",""
"","","","","","poldrack-single-stim","226","628765","0.0-3.0-14.0","5b666901f7798c000182c01c","C3","batch3","","-1","","","tol_feedback","true","","","","","","","","","1000","1000","500","","","","","","-1","none","true","3100","6693","","",""
"","","","","","html-button-response","227","629414","0.0-3.0-15.0","5b666901f7798c000182c01c","C3","batch3","","647.8000000715256","<div class = centerbox><p class = center-block-text>problem <strong>3</strong> out of 25 problems</p></div>","0","tol_trial_num","","","","","","","","","","","","","","","","","","","","","","","","",""
"","","","","","single-stim-button","228","632786","0.0-3.0-16.0-0.0","5b666901f7798c000182c01c","C3","batch3","","3371","","","tol_tohand","","","","","","","","","tol_peg_1","3371","3371","0","[[2,0,0],[0,0],[1]]","1","[[1,2,0],[3,0],[0]]","2","0","","","","","","4","",""
"","","","","","single-stim-button","229","633436","0.0-3.0-16.0-1.0","5b666901f7798c000182c01c","C3","batch3","","649","","","tol_toboard","","","","","","","","","tol_peg_2","649","649","0","[[2,0,0],[3,0],[1]]","1","[[1,2,0],[3,0],[0]]","2","0","","","","","","4","",""
"","","","","","single-stim-button","230","635430","0.0-3.0-16.1-0.1","5b666901f7798c000182c01c","C3","batch3","","1994","","","tol_tohand","","","","","","","","","tol_peg_1","1994","1994","0","[[0,0,0],[3,0],[1]]","2","[[1,2,0],[3,0],[0]]","2","0","","","","","","4","",""
"","","","","","single-stim-button","231","636111","0.0-3.0-16.1-1.1","5b666901f7798c000182c01c","C3","batch3","","680","","","tol_toboard","","","","","","","","","tol_peg_2","680","680","0","[[0,0,0],[3,2],[1]]","2","[[1,2,0],[3,0],[0]]","2","0","","","","","","4","",""
"","","","","","single-stim-button","232","636480","0.0-3.0-16.2-0.2","5b666901f7798c000182c01c","C3","batch3","","368","","","tol_tohand","","","","","","","","","tol_peg_3","368","368","0","[[0,0,0],[3,2],[0]]","3","[[1,2,0],[3,0],[0]]","2","0","","","","","","4","",""
"","","","","","single-stim-button","233","637167","0.0-3.0-16.2-1.2","5b666901f7798c000182c01c","C3","batch3","","686","","","tol_toboard","","","","","","","","","tol_peg_1","686","686","0","[[1,0,0],[3,2],[0]]","3","[[1,2,0],[3,0],[0]]","2","0","","","","","","4","",""
"","","","","","single-stim-button","234","637666","0.0-3.0-16.3-0.3","5b666901f7798c000182c01c","C3","batch3","","497","","","tol_tohand","","","","","","","","","tol_peg_2","497","497","0","[[1,0,0],[3,0],[0]]","4","[[1,2,0],[3,0],[0]]","2","0","","","","","","4","",""
"","","","","","single-stim-button","235","638114","0.0-3.0-16.3-1.3","5b666901f7798c000182c01c","C3","batch3","","447","","","tol_toboard","","","","","","","","","tol_peg_1","447","447","0","[[1,2,0],[3,0],[0]]","4","[[1,2,0],[3,0],[0]]","2","0","","","","","","4","",""
"","","","","","poldrack-single-stim","236","639116","0.0-3.0-17.0","5b666901f7798c000182c01c","C3","batch3","","-1","","","tol_feedback","true","","","","","","","","","1000","1000","500","","","","","","-1","none","true","3371","6230","","",""
"","","","","","html-button-response","237","639979","0.0-3.0-18.0","5b666901f7798c000182c01c","C3","batch3","","862.5","<div class = centerbox><p class = center-block-text>problem <strong>4</strong> out of 25 problems</p></div>","0","tol_trial_num","","","","","","","","","","","","","","","","","","","","","","","","",""
"","","","","","single-stim-button","238","643263","0.0-3.0-19.0-0.0","5b666901f7798c000182c01c","C3","batch3","","3283","","","tol_tohand","","","","","","","","","tol_peg_2","3283","3283","0","[[3,0,0],[2,0],[0]]","1","[[3,0,0],[1,0],[2]]","3","0","","","","","","3","",""
"","","","","","single-stim-button","239","645099","0.0-3.0-19.0-1.0","5b666901f7798c000182c01c","C3","batch3","","1835","","","tol_toboard","","","","","","","","","tol_peg_3","1835","1835","0","[[3,0,0],[2,0],[1]]","1","[[3,0,0],[1,0],[2]]","3","0","","","","","","3","",""
"","","","","","single-stim-button","240","645540","0.0-3.0-19.1-0.1","5b666901f7798c000182c01c","C3","batch3","","440","","","tol_tohand","","","","","","","","","tol_peg_2","440","440","0","[[3,0,0],[0,0],[1]]","2","[[3,0,0],[1,0],[2]]","3","0","","","","","","3","",""
"","","","","","single-stim-button","241","647502","0.0-3.0-19.1-1.1","5b666901f7798c000182c01c","C3","batch3","","1960","","","tol_toboard","","","","","","","","","tol_peg_1","1960","1960","0","[[3,2,0],[0,0],[1]]","2","[[3,0,0],[1,0],[2]]","3","0","","","","","","3","",""
"","","","","","single-stim-button","242","648616","0.0-3.0-19.2-0.2","5b666901f7798c000182c01c","C3","batch3","","1113","","","tol_tohand","","","","","","","","","tol_peg_3","1113","1113","0","[[3,2,0],[0,0],[0]]","3","[[3,0,0],[1,0],[2]]","3","0","","","","","","3","",""
"","","","","","single-stim-button","243","649279","0.0-3.0-19.2-1.2","5b666901f7798c000182c01c","C3","batch3","","663","","","tol_toboard","","","","","","","","","tol_peg_2","663","663","0","[[3,2,0],[1,0],[0]]","3","[[3,0,0],[1,0],[2]]","3","0","","","","","","3","",""
"","","","","","single-stim-button","244","649994","0.0-3.0-19.3-0.3","5b666901f7798c000182c01c","C3","batch3","","714","","","tol_tohand","","","","","","","","","tol_peg_1","714","714","0","[[3,0,0],[1,0],[0]]","4","[[3,0,0],[1,0],[2]]","3","0","","","","","","3","",""
"","","","","","single-stim-button","245","651188","0.0-3.0-19.3-1.3","5b666901f7798c000182c01c","C3","batch3","","1193","","","tol_toboard","","","","","","","","","tol_peg_3","1193","1193","0","[[3,0,0],[1,0],[2]]","4","[[3,0,0],[1,0],[2]]","3","0","","","","","","3","",""
"","","","","","poldrack-single-stim","246","652189","0.0-3.0-20.0","5b666901f7798c000182c01c","C3","batch3","","-1","","","tol_feedback","true","","","","","","","","","1000","1000","500","","","","","","-1","none","true","3283","5550","","",""
"","","","","","html-button-response","247","653117","0.0-3.0-21.0","5b666901f7798c000182c01c","C3","batch3","","927.5999999046326","<div class = centerbox><p class = center-block-text>problem <strong>5</strong> out of 25 problems</p></div>","0","tol_trial_num","","","","","","","","","","","","","","","","","","","","","","","","",""
"","","","","","single-stim-button","248","655810","0.0-3.0-22.0-0.0","5b666901f7798c000182c01c","C3","batch3","","2692","","","tol_tohand","","","","","","","","","tol_peg_2","2692","2692","0","[[1,0,0],[0,0],[3]]","1","[[0,0,0],[1,2],[3]]","4","0","","","","","","7","",""
"","","","","","single-stim-button","249","659038","0.0-3.0-22.0-1.0","5b666901f7798c000182c01c","C3","batch3","","3228","","","tol_toboard","","","","","","","","","tol_peg_1","3228","3228","0","[[1,2,0],[0,0],[3]]","1","[[0,0,0],[1,2],[3]]","4","0","","","","","","7","",""
"","","","","","single-stim-button","250","664654","0.0-3.0-22.1-0.1","5b666901f7798c000182c01c","C3","batch3","","5615","","","tol_tohand","","","","","","","","","tol_peg_3","5615","5615","0","[[1,2,0],[0,0],[0]]","2","[[0,0,0],[1,2],[3]]","4","0","","","","","","7","",""
"","","","","","single-stim-button","251","665584","0.0-3.0-22.1-1.1","5b666901f7798c000182c01c","C3","batch3","","928","","","tol_toboard","","","","","","","","","tol_peg_1","928","928","0","[[1,2,3],[0,0],[0]]","2","[[0,0,0],[1,2],[3]]","4","0","","","","","","7","",""
"","","","","","single-stim-button","252","666434","0.0-3.0-22.2-0.2","5b666901f7798c000182c01c","C3","batch3","","849","","","tol_tohand","","","","","","","","","tol_peg_1","849","849","0","[[1,2,0],[0,0],[0]]","3","[[0,0,0],[1,2],[3]]","4","0","","","","","","7","",""
"","","","","","single-stim-button","253","667538","0.0-3.0-22.2-1.2","5b666901f7798c000182c01c","C3","batch3","","1103","","","tol_toboard","","","","","","","","","tol_peg_2","1103","1103","0","[[1,2,0],[3,0],[0]]","3","[[0,0,0],[1,2],[3]]","4","0","","","","","","7","",""
"","","","","","single-stim-button","254","667996","0.0-3.0-22.3-0.3","5b666901f7798c000182c01c","C3","batch3","","457","","","tol_tohand","","","","","","","","","tol_peg_1","457","457","0","[[1,0,0],[3,0],[0]]","4","[[0,0,0],[1,2],[3]]","4","0","","","","","","7","",""
"","","","","","single-stim-button","255","669052","0.0-3.0-22.3-1.3","5b666901f7798c000182c01c","C3","batch3","","1056","","","tol_toboard","","","","","","","","","tol_peg_3","1056","1056","0","[[1,0,0],[3,0],[2]]","4","[[0,0,0],[1,2],[3]]","4","0","","","","","","7","",""
"","","","","","single-stim-button","256","669981","0.0-3.0-22.4-0.4","5b666901f7798c000182c01c","C3","batch3","","928","","","tol_tohand","","","","","","","","","tol_peg_2","928","928","0","[[1,0,0],[0,0],[2]]","5","[[0,0,0],[1,2],[3]]","4","0","","","","","","7","",""
"","","","","","single-stim-button","257","671496","0.0-3.0-22.4-1.4","5b666901f7798c000182c01c","C3","batch3","","1513","","","tol_toboard","","","","","","","","","tol_peg_2","1513","1513","0","[[1,0,0],[3,0],[2]]","5","[[0,0,0],[1,2],[3]]","4","0","","","","","","7","",""
"","","","","","single-stim-button","258","672104","0.0-3.0-22.5-0.5","5b666901f7798c000182c01c","C3","batch3","","607","","","tol_tohand","","","","","","","","","tol_peg_1","607","607","0","[[0,0,0],[3,0],[2]]","6","[[0,0,0],[1,2],[3]]","4","0","","","","","","7","",""
"","","","","","single-stim-button","259","674555","0.0-3.0-22.5-1.5","5b666901f7798c000182c01c","C3","batch3","","2451","","","tol_toboard","","","","","","","","","tol_peg_2","2451","2451","0","[[0,0,0],[3,1],[2]]","6","[[0,0,0],[1,2],[3]]","4","0","","","","","","7","",""
"","","","","","single-stim-button","260","675462","0.0-3.0-22.6-0.6","5b666901f7798c000182c01c","C3","batch3","","905","","","tol_tohand","","","","","","","","","tol_peg_2","905","905","0","[[0,0,0],[3,0],[2]]","7","[[0,0,0],[1,2],[3]]","4","0","","","","","","7","",""
"","","","","","single-stim-button","261","676117","0.0-3.0-22.6-1.6","5b666901f7798c000182c01c","C3","batch3","","655","","","tol_toboard","","","","","","","","","tol_peg_1","655","655","0","[[1,0,0],[3,0],[2]]","7","[[0,0,0],[1,2],[3]]","4","0","","","","","","7","",""
"","","","","","single-stim-button","262","680340","0.0-3.0-22.7-0.7","5b666901f7798c000182c01c","C3","batch3","","4222","","","tol_tohand","","","","","","","","","tol_peg_3","4222","4222","0","[[1,0,0],[3,0],[0]]","8","[[0,0,0],[1,2],[3]]","4","0","","","","","","7","",""
"","","","","","single-stim-button","263","682231","0.0-3.0-22.7-1.7","5b666901f7798c000182c01c","C3","batch3","","1890","","","tol_toboard","","","","","","","","","tol_peg_1","1890","1890","0","[[1,2,0],[3,0],[0]]","8","[[0,0,0],[1,2],[3]]","4","0","","","","","","7","",""
"","","","","","single-stim-button","264","683399","0.0-3.0-22.8-0.8","5b666901f7798c000182c01c","C3","batch3","","1167","","","tol_tohand","","","","","","","","","tol_peg_2","1167","1167","0","[[1,2,0],[0,0],[0]]","9","[[0,0,0],[1,2],[3]]","4","0","","","","","","7","",""
"","","","","","single-stim-button","265","684201","0.0-3.0-22.8-1.8","5b666901f7798c000182c01c","C3","batch3","","801","","","tol_toboard","","","","","","","","","tol_peg_3","801","801","0","[[1,2,0],[0,0],[3]]","9","[[0,0,0],[1,2],[3]]","4","0","","","","","","7","",""
"","","","","","single-stim-button","266","689321","0.0-3.0-22.9-0.9","5b666901f7798c000182c01c","C3","batch3","","5119","","","tol_tohand","","","","","","","","","tol_peg_1","5119","5119","0","[[1,0,0],[0,0],[3]]","10","[[0,0,0],[1,2],[3]]","4","0","","","","","","7","",""
"","","","","","single-stim-button","267","691467","0.0-3.0-22.9-1.9","5b666901f7798c000182c01c","C3","batch3","","2145","","","tol_toboard","","","","","","","","","tol_peg_1","2145","2145","0","[[1,2,0],[0,0],[3]]","10","[[0,0,0],[1,2],[3]]","4","0","","","","","","7","",""
"","","","","","single-stim-button","268","693463","0.0-3.0-22.10-0.10","5b666901f7798c000182c01c","C3","batch3","","1994","","","tol_tohand","","","","","","","","","tol_peg_1","1994","1994","0","[[1,0,0],[0,0],[3]]","11","[[0,0,0],[1,2],[3]]","4","0","","","","","","7","",""
"","","","","","single-stim-button","269","697091","0.0-3.0-22.10-1.10","5b666901f7798c000182c01c","C3","batch3","","3628","","","tol_toboard","","","","","","","","","tol_peg_1","3628","3628","0","[[1,2,0],[0,0],[3]]","11","[[0,0,0],[1,2],[3]]","4","0","","","","","","7","",""
"","","","","","single-stim-button","270","697989","0.0-3.0-22.11-0.11","5b666901f7798c000182c01c","C3","batch3","","897","","","tol_tohand","","","","","","","","","tol_peg_3","897","897","0","[[1,2,0],[0,0],[0]]","12","[[0,0,0],[1,2],[3]]","4","0","","","","","","7","",""
"","","","","","single-stim-button","271","699703","0.0-3.0-22.11-1.11","5b666901f7798c000182c01c","C3","batch3","","1713","","","tol_toboard","","","","","","","","","tol_peg_2","1713","1713","0","[[1,2,0],[3,0],[0]]","12","[[0,0,0],[1,2],[3]]","4","0","","","","","","7","",""
"","","","","","single-stim-button","272","700785","0.0-3.0-22.12-0.12","5b666901f7798c000182c01c","C3","batch3","","1081","","","tol_tohand","","","","","","","","","tol_peg_1","1081","1081","0","[[1,0,0],[3,0],[0]]","13","[[0,0,0],[1,2],[3]]","4","0","","","","","","7","",""
"","","","","","single-stim-button","273","702798","0.0-3.0-22.12-1.12","5b666901f7798c000182c01c","C3","batch3","","2012","","","tol_toboard","","","","","","","","","tol_peg_3","2012","2012","0","[[1,0,0],[3,0],[2]]","13","[[0,0,0],[1,2],[3]]","4","0","","","","","","7","",""
"","","","","","single-stim-button","274","704511","0.0-3.0-22.13-0.13","5b666901f7798c000182c01c","C3","batch3","","1713","","","tol_tohand","","","","","","","","","tol_peg_1","1713","1713","0","[[0,0,0],[3,0],[2]]","14","[[0,0,0],[1,2],[3]]","4","0","","","","","","7","",""
"","","","","","single-stim-button","275","708734","0.0-3.0-22.13-1.13","5b666901f7798c000182c01c","C3","batch3","","4222","","","tol_toboard","","","","","","","","","tol_peg_2","4222","4222","0","[[0,0,0],[3,1],[2]]","14","[[0,0,0],[1,2],[3]]","4","0","","","","","","7","",""
"","","","","","single-stim-button","276","711009","0.0-3.0-22.14-0.14","5b666901f7798c000182c01c","C3","batch3","","2275","","","tol_tohand","","","","","","","","","tol_peg_3","2275","2275","0","[[0,0,0],[3,1],[0]]","15","[[0,0,0],[1,2],[3]]","4","0","","","","","","7","",""
"","","","","","single-stim-button","277","713572","0.0-3.0-22.14-1.14","5b666901f7798c000182c01c","C3","batch3","","2561","","","tol_toboard","","","","","","","","","tol_peg_1","2561","2561","0","[[2,0,0],[3,1],[0]]","15","[[0,0,0],[1,2],[3]]","4","0","","","","","","7","",""
"","","","","","single-stim-button","278","714093","0.0-3.0-22.15-0.15","5b666901f7798c000182c01c","C3","batch3","","521","","","tol_tohand","","","","","","","","","tol_peg_2","521","521","0","[[2,0,0],[3,0],[0]]","16","[[0,0,0],[1,2],[3]]","4","0","","","","","","7","",""
"","","","","","single-stim-button","279","714645","0.0-3.0-22.15-1.15","5b666901f7798c000182c01c","C3","batch3","","552","","","tol_toboard","","","","","","","","","tol_peg_3","552","552","0","[[2,0,0],[3,0],[1]]","16","[[0,0,0],[1,2],[3]]","4","0","","","","","","7","",""
"","","","","","single-stim-button","280","717916","0.0-3.0-22.16-0.16","5b666901f7798c000182c01c","C3","batch3","","3269","","","tol_tohand","","","","","","","","","tol_peg_2","3269","3269","0","[[2,0,0],[0,0],[1]]","17","[[0,0,0],[1,2],[3]]","4","0","","","","","","7","",""
"","","","","","single-stim-button","281","718467","0.0-3.0-22.16-1.16","5b666901f7798c000182c01c","C3","batch3","","551","","","tol_toboard","","","","","","","","","tol_peg_1","551","551","0","[[2,3,0],[0,0],[1]]","17","[[0,0,0],[1,2],[3]]","4","0","","","","","","7","",""
"","","","","","single-stim-button","282","719197","0.0-3.0-22.17-0.17","5b666901f7798c000182c01c","C3","batch3","","729","","","tol_tohand","","","","","","","","","tol_peg_3","729","729","0","[[2,3,0],[0,0],[0]]","18","[[0,0,0],[1,2],[3]]","4","0","","","","","","7","",""
"","","","","","single-stim-button","283","719653","0.0-3.0-22.17-1.17","5b666901f7798c000182c01c","C3","batch3","","455","","","tol_toboard","","","","","","","","","tol_peg_2","455","455","0","[[2,3,0],[1,0],[0]]","18","[[0,0,0],[1,2],[3]]","4","0","","","","","","7","",""
"","","","","","single-stim-button","284","720351","0.0-3.0-22.18-0.18","5b666901f7798c000182c01c","C3","batch3","","697","","","tol_tohand","","","","","","","","","tol_peg_1","697","697","0","[[2,0,0],[1,0],[0]]","19","[[0,0,0],[1,2],[3]]","4","0","","","","","","7","",""
"","","","","","single-stim-button","285","721223","0.0-3.0-22.18-1.18","5b666901f7798c000182c01c","C3","batch3","","872","","","tol_toboard","","","","","","","","","tol_peg_3","872","872","0","[[2,0,0],[1,0],[3]]","19","[[0,0,0],[1,2],[3]]","4","0","","","","","","7","",""
"","","","","","single-stim-button","286","721873","0.0-3.0-22.19-0.19","5b666901f7798c000182c01c","C3","batch3","","648","","","tol_tohand","","","","","","","","","tol_peg_1","648","648","0","[[0,0,0],[1,0],[3]]","20","[[0,0,0],[1,2],[3]]","4","0","","","","","","7","",""
"","","","","","single-stim-button","287","722385","0.0-3.0-22.19-1.19","5b666901f7798c000182c01c","C3","batch3","","512","","","tol_toboard","","","","","","","","","tol_peg_2","512","512","0","[[0,0,0],[1,2],[3]]","20","[[0,0,0],[1,2],[3]]","4","0","","","","","","7","",""
"","","","","","poldrack-single-stim","288","723386","0.0-3.0-23.0","5b666901f7798c000182c01c","C3","batch3","","-1","","","tol_feedback","true","","","","","","","","","1000","1000","500","","","","","","-1","none","true","2692","36385","","",""
"","","","","","html-button-response","289","723995","0.0-3.0-24.0","5b666901f7798c000182c01c","C3","batch3","","607.5","<div class = centerbox><p class = center-block-text>problem <strong>6</strong> out of 25 problems</p></div>","0","tol_trial_num","","","","","","","","","","","","","","","","","","","","","","","","",""
"","","","","","single-stim-button","290","731040","0.0-3.0-25.0-0.0","5b666901f7798c000182c01c","C3","batch3","","7044","","","tol_tohand","","","","","","","","","tol_peg_3","7044","7044","0","[[0,0,0],[1,2],[0]]","1","[[1,0,0],[2,3],[0]]","5","0","","","","","","6","",""
"","","","","","single-stim-button","291","732158","0.0-3.0-25.0-1.0","5b666901f7798c000182c01c","C3","batch3","","1118","","","tol_toboard","","","","","","","","","tol_peg_1","1118","1118","0","[[3,0,0],[1,2],[0]]","1","[[1,0,0],[2,3],[0]]","5","0","","","","","","6","",""
"","","","","","single-stim-button","292","735486","0.0-3.0-25.1-0.1","5b666901f7798c000182c01c","C3","batch3","","3327","","","tol_tohand","","","","","","","","","tol_peg_2","3327","3327","0","[[3,0,0],[1,0],[0]]","2","[[1,0,0],[2,3],[0]]","5","0","","","","","","6","",""
"","","","","","single-stim-button","293","736263","0.0-3.0-25.1-1.1","5b666901f7798c000182c01c","C3","batch3","","776","","","tol_toboard","","","","","","","","","tol_peg_3","776","776","0","[[3,0,0],[1,0],[2]]","2","[[1,0,0],[2,3],[0]]","5","0","","","","","","6","",""
"","","","","","single-stim-button","294","740960","0.0-3.0-25.2-0.2","5b666901f7798c000182c01c","C3","batch3","","4697","","","tol_tohand","","","","","","","","","tol_peg_2","4697","4697","0","[[3,0,0],[0,0],[2]]","3","[[1,0,0],[2,3],[0]]","5","0","","","","","","6","",""
"","","","","","single-stim-button","295","744812","0.0-3.0-25.2-1.2","5b666901f7798c000182c01c","C3","batch3","","3851","","","tol_toboard","","","","","","","","","tol_peg_1","3851","3851","0","[[3,1,0],[0,0],[2]]","3","[[1,0,0],[2,3],[0]]","5","0","","","","","","6","",""
"","","","","","single-stim-button","296","745526","0.0-3.0-25.3-0.3","5b666901f7798c000182c01c","C3","batch3","","713","","","tol_tohand","","","","","","","","","tol_peg_1","713","713","0","[[3,0,0],[0,0],[2]]","4","[[1,0,0],[2,3],[0]]","5","0","","","","","","6","",""
"","","","","","single-stim-button","297","746621","0.0-3.0-25.3-1.3","5b666901f7798c000182c01c","C3","batch3","","1095","","","tol_toboard","","","","","","","","","tol_peg_2","1095","1095","0","[[3,0,0],[1,0],[2]]","4","[[1,0,0],[2,3],[0]]","5","0","","","","","","6","",""
"","","","","","single-stim-button","298","751126","0.0-3.0-25.4-0.4","5b666901f7798c000182c01c","C3","batch3","","4504","","","tol_tohand","","","","","","","","","tol_peg_1","4504","4504","0","[[0,0,0],[1,0],[2]]","5","[[1,0,0],[2,3],[0]]","5","0","","","","","","6","",""
"","","","","","single-stim-button","299","754225","0.0-3.0-25.4-1.4","5b666901f7798c000182c01c","C3","batch3","","3099","","","tol_toboard","","","","","","","","","tol_peg_1","3099","3099","0","[[3,0,0],[1,0],[2]]","5","[[1,0,0],[2,3],[0]]","5","0","","","","","","6","",""
"","","","","","single-stim-button","300","756718","0.0-3.0-25.5-0.5","5b666901f7798c000182c01c","C3","batch3","","2492","","","tol_tohand","","","","","","","","","tol_peg_2","2492","2492","0","[[3,0,0],[0,0],[2]]","6","[[1,0,0],[2,3],[0]]","5","0","","","","","","6","",""
"","","","","","single-stim-button","301","757871","0.0-3.0-25.5-1.5","5b666901f7798c000182c01c","C3","batch3","","1153","","","tol_toboard","","","","","","","","","tol_peg_2","1153","1153","0","[[3,0,0],[1,0],[2]]","6","[[1,0,0],[2,3],[0]]","5","0","","","","","","6","",""
"","","","","","single-stim-button","302","758575","0.0-3.0-25.6-0.6","5b666901f7798c000182c01c","C3","batch3","","704","","","tol_tohand","","","","","","","","","tol_peg_3","704","704","0","[[3,0,0],[1,0],[0]]","7","[[1,0,0],[2,3],[0]]","5","0","","","","","","6","",""
"","","","","","single-stim-button","303","759345","0.0-3.0-25.6-1.6","5b666901f7798c000182c01c","C3","batch3","","769","","","tol_toboard","","","","","","","","","tol_peg_1","769","769","0","[[3,2,0],[1,0],[0]]","7","[[1,0,0],[2,3],[0]]","5","0","","","","","","6","",""
"","","","","","single-stim-button","304","760041","0.0-3.0-25.7-0.7","5b666901f7798c000182c01c","C3","batch3","","695","","","tol_tohand","","","","","","","","","tol_peg_2","695","695","0","[[3,2,0],[0,0],[0]]","8","[[1,0,0],[2,3],[0]]","5","0","","","","","","6","",""
"","","","","","single-stim-button","305","760819","0.0-3.0-25.7-1.7","5b666901f7798c000182c01c","C3","batch3","","777","","","tol_toboard","","","","","","","","","tol_peg_1","777","777","0","[[3,2,1],[0,0],[0]]","8","[[1,0,0],[2,3],[0]]","5","0","","","","","","6","",""
"","","","","","single-stim-button","306","761803","0.0-3.0-25.8-0.8","5b666901f7798c000182c01c","C3","batch3","","983","","","tol_tohand","","","","","","","","","tol_peg_1","983","983","0","[[3,2,0],[0,0],[0]]","9","[[1,0,0],[2,3],[0]]","5","0","","","","","","6","",""
"","","","","","single-stim-button","307","764202","0.0-3.0-25.8-1.8","5b666901f7798c000182c01c","C3","batch3","","2398","","","tol_toboard","","","","","","","","","tol_peg_3","2398","2398","0","[[3,2,0],[0,0],[1]]","9","[[1,0,0],[2,3],[0]]","5","0","","","","","","6","",""
"","","","","","single-stim-button","308","764745","0.0-3.0-25.9-0.9","5b666901f7798c000182c01c","C3","batch3","","543","","","tol_tohand","","","","","","","","","tol_peg_1","543","543","0","[[3,0,0],[0,0],[1]]","10","[[1,0,0],[2,3],[0]]","5","0","","","","","","6","",""
"","","","","","single-stim-button","309","765505","0.0-3.0-25.9-1.9","5b666901f7798c000182c01c","C3","batch3","","759","","","tol_toboard","","","","","","","","","tol_peg_2","759","759","0","[[3,0,0],[2,0],[1]]","10","[[1,0,0],[2,3],[0]]","5","0","","","","","","6","",""
"","","","","","single-stim-button","310","766075","0.0-3.0-25.10-0.10","5b666901f7798c000182c01c","C3","batch3","","568","","","tol_tohand","","","","","","","","","tol_peg_1","568","568","0","[[0,0,0],[2,0],[1]]","11","[[1,0,0],[2,3],[0]]","5","0","","","","","","6","",""
"","","","","","single-stim-button","311","766788","0.0-3.0-25.10-1.10","5b666901f7798c000182c01c","C3","batch3","","713","","","tol_toboard","","","","","","","","","tol_peg_2","713","713","0","[[0,0,0],[2,3],[1]]","11","[[1,0,0],[2,3],[0]]","5","0","","","","","","6","",""
"","","","","","single-stim-button","312","767654","0.0-3.0-25.11-0.11","5b666901f7798c000182c01c","C3","batch3","","864","","","tol_tohand","","","","","","","","","tol_peg_3","864","864","0","[[0,0,0],[2,3],[0]]","12","[[1,0,0],[2,3],[0]]","5","0","","","","","","6","",""
"","","","","","single-stim-button","313","768445","0.0-3.0-25.11-1.11","5b666901f7798c000182c01c","C3","batch3","","791","","","tol_toboard","","","","","","","","","tol_peg_1","791","791","0","[[1,0,0],[2,3],[0]]","12","[[1,0,0],[2,3],[0]]","5","0","","","","","","6","",""
"","","","","","poldrack-single-stim","314","769457","0.0-3.0-26.0","5b666901f7798c000182c01c","C3","batch3","","-1","","","tol_feedback","true","","","","","","","","","1000","1000","500","","","","","","-1","none","true","7044","27134","","",""
"","","","","","html-button-response","315","769975","0.0-3.0-27.0","5b666901f7798c000182c01c","C3","batch3","","516.5","<div class = centerbox><p class = center-block-text>problem <strong>7</strong> out of 25 problems</p></div>","0","tol_trial_num","","","","","","","","","","","","","","","","","","","","","","","","",""
"","","","","","single-stim-button","316","777736","0.0-3.0-28.0-0.0","5b666901f7798c000182c01c","C3","batch3","","7760","","","tol_tohand","","","","","","","","","tol_peg_1","7760","7760","0","[[2,0,0],[0,0],[3]]","1","[[1,2,0],[3,0],[0]]","6","0","","","","","","5","",""
"","","","","","single-stim-button","317","778704","0.0-3.0-28.0-1.0","5b666901f7798c000182c01c","C3","batch3","","966","","","tol_toboard","","","","","","","","","tol_peg_2","966","966","0","[[2,0,0],[1,0],[3]]","1","[[1,2,0],[3,0],[0]]","6","0","","","","","","5","",""
"","","","","","single-stim-button","318","780122","0.0-3.0-28.1-0.1","5b666901f7798c000182c01c","C3","batch3","","1418","","","tol_tohand","","","","","","","","","tol_peg_1","1418","1418","0","[[0,0,0],[1,0],[3]]","2","[[1,2,0],[3,0],[0]]","6","0","","","","","","5","",""
"","","","","","single-stim-button","319","782581","0.0-3.0-28.1-1.1","5b666901f7798c000182c01c","C3","batch3","","2458","","","tol_toboard","","","","","","","","","tol_peg_2","2458","2458","0","[[0,0,0],[1,2],[3]]","2","[[1,2,0],[3,0],[0]]","6","0","","","","","","5","",""
"","","","","","single-stim-button","320","783094","0.0-3.0-28.2-0.2","5b666901f7798c000182c01c","C3","batch3","","513","","","tol_tohand","","","","","","","","","tol_peg_3","513","513","0","[[0,0,0],[1,2],[0]]","3","[[1,2,0],[3,0],[0]]","6","0","","","","","","5","",""
"","","","","","single-stim-button","321","785545","0.0-3.0-28.2-1.2","5b666901f7798c000182c01c","C3","batch3","","2451","","","tol_toboard","","","","","","","","","tol_peg_3","2451","2451","0","[[0,0,0],[1,2],[3]]","3","[[1,2,0],[3,0],[0]]","6","0","","","","","","5","",""
"","","","","","single-stim-button","322","786411","0.0-3.0-28.3-0.3","5b666901f7798c000182c01c","C3","batch3","","864","","","tol_tohand","","","","","","","","","tol_peg_2","864","864","0","[[0,0,0],[1,0],[3]]","4","[[1,2,0],[3,0],[0]]","6","0","","","","","","5","",""
"","","","","","single-stim-button","323","787075","0.0-3.0-28.3-1.3","5b666901f7798c000182c01c","C3","batch3","","664","","","tol_toboard","","","","","","","","","tol_peg_1","664","664","0","[[2,0,0],[1,0],[3]]","4","[[1,2,0],[3,0],[0]]","6","0","","","","","","5","",""
"","","","","","single-stim-button","324","788813","0.0-3.0-28.4-0.4","5b666901f7798c000182c01c","C3","batch3","","1737","","","tol_tohand","","","","","","","","","tol_peg_3","1737","1737","0","[[2,0,0],[1,0],[0]]","5","[[1,2,0],[3,0],[0]]","6","0","","","","","","5","",""
"","","","","","single-stim-button","325","789261","0.0-3.0-28.4-1.4","5b666901f7798c000182c01c","C3","batch3","","448","","","tol_toboard","","","","","","","","","tol_peg_2","448","448","0","[[2,0,0],[1,3],[0]]","5","[[1,2,0],[3,0],[0]]","6","0","","","","","","5","",""
"","","","","","single-stim-button","326","790023","0.0-3.0-28.5-0.5","5b666901f7798c000182c01c","C3","batch3","","762","","","tol_tohand","","","","","","","","","tol_peg_1","762","762","0","[[0,0,0],[1,3],[0]]","6","[[1,2,0],[3,0],[0]]","6","0","","","","","","5","",""
"","","","","","single-stim-button","327","790938","0.0-3.0-28.5-1.5","5b666901f7798c000182c01c","C3","batch3","","913","","","tol_toboard","","","","","","","","","tol_peg_3","913","913","0","[[0,0,0],[1,3],[2]]","6","[[1,2,0],[3,0],[0]]","6","0","","","","","","5","",""
"","","","","","single-stim-button","328","793581","0.0-3.0-28.6-0.6","5b666901f7798c000182c01c","C3","batch3","","2643","","","tol_tohand","","","","","","","","","tol_peg_2","2643","2643","0","[[0,0,0],[1,0],[2]]","7","[[1,2,0],[3,0],[0]]","6","0","","","","","","5","",""
"","","","","","single-stim-button","329","793965","0.0-3.0-28.6-1.6","5b666901f7798c000182c01c","C3","batch3","","382","","","tol_toboard","","","","","","","","","tol_peg_2","382","382","0","[[0,0,0],[1,3],[2]]","7","[[1,2,0],[3,0],[0]]","6","0","","","","","","5","",""
"","","","","","single-stim-button","330","794951","0.0-3.0-28.7-0.7","5b666901f7798c000182c01c","C3","batch3","","985","","","tol_tohand","","","","","","","","","tol_peg_2","985","985","0","[[0,0,0],[1,0],[2]]","8","[[1,2,0],[3,0],[0]]","6","0","","","","","","5","",""
"","","","","","single-stim-button","331","795734","0.0-3.0-28.7-1.7","5b666901f7798c000182c01c","C3","batch3","","783","","","tol_toboard","","","","","","","","","tol_peg_1","783","783","0","[[3,0,0],[1,0],[2]]","8","[[1,2,0],[3,0],[0]]","6","0","","","","","","5","",""
"","","","","","single-stim-button","332","796289","0.0-3.0-28.8-0.8","5b666901f7798c000182c01c","C3","batch3","","553","","","tol_tohand","","","","","","","","","tol_peg_2","553","553","0","[[3,0,0],[0,0],[2]]","9","[[1,2,0],[3,0],[0]]","6","0","","","","","","5","",""
"","","","","","single-stim-button","333","796681","0.0-3.0-28.8-1.8","5b666901f7798c000182c01c","C3","batch3","","392","","","tol_toboard","","","","","","","","","tol_peg_1","392","392","0","[[3,1,0],[0,0],[2]]","9","[[1,2,0],[3,0],[0]]","6","0","","","","","","5","",""
"","","","","","single-stim-button","334","799108","0.0-3.0-28.9-0.9","5b666901f7798c000182c01c","C3","batch3","","2427","","","tol_tohand","","","","","","","","","tol_peg_1","2427","2427","0","[[3,0,0],[0,0],[2]]","10","[[1,2,0],[3,0],[0]]","6","0","","","","","","5","",""
"","","","","","single-stim-button","335","800324","0.0-3.0-28.9-1.9","5b666901f7798c000182c01c","C3","batch3","","1215","","","tol_toboard","","","","","","","","","tol_peg_2","1215","1215","0","[[3,0,0],[1,0],[2]]","10","[[1,2,0],[3,0],[0]]","6","0","","","","","","5","",""
"","","","","","single-stim-button","336","801214","0.0-3.0-28.10-0.10","5b666901f7798c000182c01c","C3","batch3","","889","","","tol_tohand","","","","","","","","","tol_peg_1","889","889","0","[[0,0,0],[1,0],[2]]","11","[[1,2,0],[3,0],[0]]","6","0","","","","","","5","",""
"","","","","","single-stim-button","337","802817","0.0-3.0-28.10-1.10","5b666901f7798c000182c01c","C3","batch3","","1601","","","tol_toboard","","","","","","","","","tol_peg_2","1601","1601","0","[[0,0,0],[1,3],[2]]","11","[[1,2,0],[3,0],[0]]","6","0","","","","","","5","",""
"","","","","","single-stim-button","338","803827","0.0-3.0-28.11-0.11","5b666901f7798c000182c01c","C3","batch3","","1009","","","tol_tohand","","","","","","","","","tol_peg_3","1009","1009","0","[[0,0,0],[1,3],[0]]","12","[[1,2,0],[3,0],[0]]","6","0","","","","","","5","",""
"","","","","","single-stim-button","339","805045","0.0-3.0-28.11-1.11","5b666901f7798c000182c01c","C3","batch3","","1217","","","tol_toboard","","","","","","","","","tol_peg_3","1217","1217","0","[[0,0,0],[1,3],[2]]","12","[[1,2,0],[3,0],[0]]","6","0","","","","","","5","",""
"","","","","","single-stim-button","340","805772","0.0-3.0-28.12-0.12","5b666901f7798c000182c01c","C3","batch3","","727","","","tol_tohand","","","","","","","","","tol_peg_2","727","727","0","[[0,0,0],[1,0],[2]]","13","[[1,2,0],[3,0],[0]]","6","0","","","","","","5","",""
"","","","","","single-stim-button","341","806647","0.0-3.0-28.12-1.12","5b666901f7798c000182c01c","C3","batch3","","873","","","tol_toboard","","","","","","","","","tol_peg_1","873","873","0","[[3,0,0],[1,0],[2]]","13","[[1,2,0],[3,0],[0]]","6","0","","","","","","5","",""
"","","","","","single-stim-button","342","807375","0.0-3.0-28.13-0.13","5b666901f7798c000182c01c","C3","batch3","","727","","","tol_tohand","","","","","","","","","tol_peg_3","727","727","0","[[3,0,0],[1,0],[0]]","14","[[1,2,0],[3,0],[0]]","6","0","","","","","","5","",""
"","","","","","single-stim-button","343","809081","0.0-3.0-28.13-1.13","5b666901f7798c000182c01c","C3","batch3","","1706","","","tol_toboard","","","","","","","","","tol_peg_2","1706","1706","0","[[3,0,0],[1,2],[0]]","14","[[1,2,0],[3,0],[0]]","6","0","","","","","","5","",""
"","","","","","single-stim-button","344","809603","0.0-3.0-28.14-0.14","5b666901f7798c000182c01c","C3","batch3","","520","","","tol_tohand","","","","","","","","","tol_peg_1","520","520","0","[[0,0,0],[1,2],[0]]","15","[[1,2,0],[3,0],[0]]","6","0","","","","","","5","",""
"","","","","","single-stim-button","345","810315","0.0-3.0-28.14-1.14","5b666901f7798c000182c01c","C3","batch3","","711","","","tol_toboard","","","","","","","","","tol_peg_3","711","711","0","[[0,0,0],[1,2],[3]]","15","[[1,2,0],[3,0],[0]]","6","0","","","","","","5","",""
"","","","","","single-stim-button","346","811869","0.0-3.0-28.15-0.15","5b666901f7798c000182c01c","C3","batch3","","1554","","","tol_tohand","","","","","","","","","tol_peg_2","1554","1554","0","[[0,0,0],[1,0],[3]]","16","[[1,2,0],[3,0],[0]]","6","0","","","","","","5","",""
"","","","","","single-stim-button","347","813815","0.0-3.0-28.15-1.15","5b666901f7798c000182c01c","C3","batch3","","1944","","","tol_toboard","","","","","","","","","tol_peg_1","1944","1944","0","[[2,0,0],[1,0],[3]]","16","[[1,2,0],[3,0],[0]]","6","0","","","","","","5","",""
