"success","timeout","failed_images","failed_audio","failed_video","trial_type","trial_index","time_elapsed","internal_node_id","subject_id","study_id","session_id","task","rt","stimulus","response","item","answer","correct","spm_correct","spm_rt","view_history","mouse_click","stim_duration","block_duration","timing_post_trial","current_position","tol_num_moves_made","tol_target","tol_problem_id","tol_rt","key_press","possible_responses","tol_correct","preplanning","tol_rt_per_trial","tol_min_moves","fiar_detect_rt","fiar_detect_correct","total_correct_fiar_detect","post_trial_gap","choices"
"true","false","[]","[]","[]","preload","0","7490","0.0-0.0","5b6cd50f9ee1a50001c5f481","B2","batch2","","","","","","","","","","","","","","","","","","","","","","","","","","","","","",""
"true","","","","","fullscreen","1","23377","0.0-1.0-0.0","5b6cd50f9ee1a50001c5f481","B2","batch2","","","","","","","","","","","","","","","","","","","","","","","","","","","","","",""
"true","","","","","fullscreen","2","27981","0.0-2.0-0.0","5b6cd50f9ee1a50001c5f481","B2","batch2","spm_fullscreen","","","","","","","","","","","","","","","","","","","","","","","","","","","","",""
"","","","","","html-button-response","3","41326","0.0-2.0-1.0","5b6cd50f9ee1a50001c5f481","B2","batch2","","13344","<p class = block-text><b>Instructions</b> <br>This is a widely used intelligence test in research. <br>In this test, a figure with a missing piece will be presented.<br>Below the figure are alternative pieces to complete the figure, only one of which is correct.<br> Different figures might involve different principles for obtaining the missing piece<br>Your job is to select the most logical piece to complete the figure.</p>","0","","","","","","","","","","","","","","","","","","","","","","","","","",""
"","","","","","html-keyboard-response","4","42128","0.0-2.0-2.0-0.0","5b6cd50f9ee1a50001c5f481","B2","batch2","spm_show_trial_num","null","<p class=block-text>Trial 1 out of 60</p>","null","","","","","","","","","","","","","","","","","","","","","","","","","",""
"","","","","","image-button-response","5","54222","0.0-2.0-2.0-1.0","5b6cd50f9ee1a50001c5f481","B2","batch2","spm_respsonse","12089","img/question_1_1.jpeg","3","mat_01","4","1","1","12089","","","","","","","","","","","","","","","","","","","","",""
"","","","","","html-keyboard-response","6","55293","0.0-2.0-2.0-0.1","5b6cd50f9ee1a50001c5f481","B2","batch2","spm_show_trial_num","null","<p class=block-text>Trial 2 out of 60</p>","null","","","","","","","","","","","","","","","","","","","","","","","","","",""
"","","","","","image-button-response","7","60606","0.0-2.0-2.0-1.1","5b6cd50f9ee1a50001c5f481","B2","batch2","spm_respsonse","5309","img/question_1_2.jpeg","4","mat_02","5","1","1","5309","","","","","","","","","","","","","","","","","","","","",""
"","","","","","html-keyboard-response","8","61667","0.0-2.0-2.0-0.2","5b6cd50f9ee1a50001c5f481","B2","batch2","spm_show_trial_num","null","<p class=block-text>Trial 3 out of 60</p>","null","","","","","","","","","","","","","","","","","","","","","","","","","",""
"","","","","","image-button-response","9","66711","0.0-2.0-2.0-1.2","5b6cd50f9ee1a50001c5f481","B2","batch2","spm_respsonse","5040","img/question_1_3.jpeg","0","mat_03","1","1","1","5040","","","","","","","","","","","","","","","","","","","","",""
"","","","","","html-keyboard-response","10","67763","0.0-2.0-2.0-0.3","5b6cd50f9ee1a50001c5f481","B2","batch2","spm_show_trial_num","null","<p class=block-text>Trial 4 out of 60</p>","null","","","","","","","","","","","","","","","","","","","","","","","","","",""
"","","","","","image-button-response","11","78566","0.0-2.0-2.0-1.3","5b6cd50f9ee1a50001c5f481","B2","batch2","spm_respsonse","10800","img/question_1_4.jpeg","1","mat_04","2","1","1","10800","","","","","","","","","","","","","","","","","","","","",""
"","","","","","html-keyboard-response","12","79653","0.0-2.0-2.0-0.4","5b6cd50f9ee1a50001c5f481","B2","batch2","spm_show_trial_num","null","<p class=block-text>Trial 5 out of 60</p>","null","","","","","","","","","","","","","","","","","","","","","","","","","",""
"","","","","","image-button-response","13","88038","0.0-2.0-2.0-1.4","5b6cd50f9ee1a50001c5f481","B2","batch2","spm_respsonse","8379","img/question_1_5.jpeg","5","mat_05","6","1","1","8379","","","","","","","","","","","","","","","","","","","","",""
"","","","","","html-keyboard-response","14","89104","0.0-2.0-2.0-0.5","5b6cd50f9ee1a50001c5f481","B2","batch2","spm_show_trial_num","null","<p class=block-text>Trial 6 out of 60</p>","null","","","","","","","","","","","","","","","","","","","","","","","","","",""
"","","","","","image-button-response","15","93246","0.0-2.0-2.0-1.5","5b6cd50f9ee1a50001c5f481","B2","batch2","spm_respsonse","4138","img/question_1_6.jpeg","2","mat_06","3","1","1","4138","","","","","","","","","","","","","","","","","","","","",""
"","","","","","html-keyboard-response","16","94298","0.0-2.0-2.0-0.6","5b6cd50f9ee1a50001c5f481","B2","batch2","spm_show_trial_num","null","<p class=block-text>Trial 7 out of 60</p>","null","","","","","","","","","","","","","","","","","","","","","","","","","",""
"","","","","","image-button-response","17","101422","0.0-2.0-2.0-1.6","5b6cd50f9ee1a50001c5f481","B2","batch2","spm_respsonse","7121","img/question_1_7.jpeg","5","mat_07","6","1","1","7121","","","","","","","","","","","","","","","","","","","","",""
"","","","","","html-keyboard-response","18","102484","0.0-2.0-2.0-0.7","5b6cd50f9ee1a50001c5f481","B2","batch2","spm_show_trial_num","null","<p class=block-text>Trial 8 out of 60</p>","null","","","","","","","","","","","","","","","","","","","","","","","","","",""
"","","","","","image-button-response","19","109086","0.0-2.0-2.0-1.7","5b6cd50f9ee1a50001c5f481","B2","batch2","spm_respsonse","6600","img/question_1_8.jpeg","1","mat_08","2","1","1","6600","","","","","","","","","","","","","","","","","","","","",""
"","","","","","html-keyboard-response","20","110155","0.0-2.0-2.0-0.8","5b6cd50f9ee1a50001c5f481","B2","batch2","spm_show_trial_num","null","<p class=block-text>Trial 9 out of 60</p>","null","","","","","","","","","","","","","","","","","","","","","","","","","",""
"","","","","","image-button-response","21","117798","0.0-2.0-2.0-1.8","5b6cd50f9ee1a50001c5f481","B2","batch2","spm_respsonse","7638","img/question_1_9.jpeg","0","mat_09","1","1","1","7638","","","","","","","","","","","","","","","","","","","","",""
"","","","","","html-keyboard-response","22","118853","0.0-2.0-2.0-0.9","5b6cd50f9ee1a50001c5f481","B2","batch2","spm_show_trial_num","null","<p class=block-text>Trial 10 out of 60</p>","null","","","","","","","","","","","","","","","","","","","","","","","","","",""
"","","","","","image-button-response","23","127438","0.0-2.0-2.0-1.9","5b6cd50f9ee1a50001c5f481","B2","batch2","spm_respsonse","8581","img/question_1_10.jpeg","2","mat_10","3","1","1","8581","","","","","","","","","","","","","","","","","","","","",""
"","","","","","html-keyboard-response","24","128510","0.0-2.0-2.0-0.10","5b6cd50f9ee1a50001c5f481","B2","batch2","spm_show_trial_num","null","<p class=block-text>Trial 11 out of 60</p>","null","","","","","","","","","","","","","","","","","","","","","","","","","",""
"","","","","","image-button-response","25","139350","0.0-2.0-2.0-1.10","5b6cd50f9ee1a50001c5f481","B2","batch2","spm_respsonse","10839","img/question_1_11.jpeg","3","mat_11","4","1","1","10839","","","","","","","","","","","","","","","","","","","","",""
"","","","","","html-keyboard-response","26","140426","0.0-2.0-2.0-0.11","5b6cd50f9ee1a50001c5f481","B2","batch2","spm_show_trial_num","null","<p class=block-text>Trial 12 out of 60</p>","null","","","","","","","","","","","","","","","","","","","","","","","","","",""
"","","","","","image-button-response","27","157119","0.0-2.0-2.0-1.11","5b6cd50f9ee1a50001c5f481","B2","batch2","spm_respsonse","16690","img/question_1_12.jpeg","5","mat_12","5","0","0","16690","","","","","","","","","","","","","","","","","","","","",""
"","","","","","html-keyboard-response","28","158187","0.0-2.0-2.0-0.12","5b6cd50f9ee1a50001c5f481","B2","batch2","spm_show_trial_num","null","<p class=block-text>Trial 13 out of 60</p>","null","","","","","","","","","","","","","","","","","","","","","","","","","",""
"","","","","","image-button-response","29","161862","0.0-2.0-2.0-1.12","5b6cd50f9ee1a50001c5f481","B2","batch2","spm_respsonse","3672","img/question_2_1.jpeg","1","mat_13","2","1","1","3672","","","","","","","","","","","","","","","","","","","","",""
"","","","","","html-keyboard-response","30","162918","0.0-2.0-2.0-0.13","5b6cd50f9ee1a50001c5f481","B2","batch2","spm_show_trial_num","null","<p class=block-text>Trial 14 out of 60</p>","null","","","","","","","","","","","","","","","","","","","","","","","","","",""
"","","","","","image-button-response","31","170574","0.0-2.0-2.0-1.13","5b6cd50f9ee1a50001c5f481","B2","batch2","spm_respsonse","7653","img/question_2_2.jpeg","5","mat_14","6","1","1","7653","","","","","","","","","","","","","","","","","","","","",""
"","","","","","html-keyboard-response","32","171640","0.0-2.0-2.0-0.14","5b6cd50f9ee1a50001c5f481","B2","batch2","spm_show_trial_num","null","<p class=block-text>Trial 15 out of 60</p>","null","","","","","","","","","","","","","","","","","","","","","","","","","",""
"","","","","","image-button-response","33","175422","0.0-2.0-2.0-1.14","5b6cd50f9ee1a50001c5f481","B2","batch2","spm_respsonse","3780","img/question_2_3.jpeg","0","mat_15","1","1","1","3780","","","","","","","","","","","","","","","","","","","","",""
"","","","","","html-keyboard-response","34","176481","0.0-2.0-2.0-0.15","5b6cd50f9ee1a50001c5f481","B2","batch2","spm_show_trial_num","null","<p class=block-text>Trial 16 out of 60</p>","null","","","","","","","","","","","","","","","","","","","","","","","","","",""
"","","","","","image-button-response","35","182223","0.0-2.0-2.0-1.15","5b6cd50f9ee1a50001c5f481","B2","batch2","spm_respsonse","5739","img/question_2_4.jpeg","1","mat_16","2","1","1","5739","","","","","","","","","","","","","","","","","","","","",""
"","","","","","html-keyboard-response","36","183289","0.0-2.0-2.0-0.16","5b6cd50f9ee1a50001c5f481","B2","batch2","spm_show_trial_num","null","<p class=block-text>Trial 17 out of 60</p>","null","","","","","","","","","","","","","","","","","","","","","","","","","",""
"","","","","","image-button-response","37","190295","0.0-2.0-2.0-1.16","5b6cd50f9ee1a50001c5f481","B2","batch2","spm_respsonse","7004","img/question_2_5.jpeg","0","mat_17","1","1","1","7004","","","","","","","","","","","","","","","","","","","","",""
"","","","","","html-keyboard-response","38","191368","0.0-2.0-2.0-0.17","5b6cd50f9ee1a50001c5f481","B2","batch2","spm_show_trial_num","null","<p class=block-text>Trial 18 out of 60</p>","null","","","","","","","","","","","","","","","","","","","","","","","","","",""
"","","","","","image-button-response","39","205382","0.0-2.0-2.0-1.17","5b6cd50f9ee1a50001c5f481","B2","batch2","spm_respsonse","14012","img/question_2_6.jpeg","2","mat_18","3","1","1","14012","","","","","","","","","","","","","","","","","","","","",""
"","","","","","html-keyboard-response","40","206451","0.0-2.0-2.0-0.18","5b6cd50f9ee1a50001c5f481","B2","batch2","spm_show_trial_num","null","<p class=block-text>Trial 19 out of 60</p>","null","","","","","","","","","","","","","","","","","","","","","","","","","",""
"","","","","","image-button-response","41","216942","0.0-2.0-2.0-1.18","5b6cd50f9ee1a50001c5f481","B2","batch2","spm_respsonse","10490","img/question_2_7.jpeg","4","mat_19","5","1","1","10490","","","","","","","","","","","","","","","","","","","","",""
"","","","","","html-keyboard-response","42","218005","0.0-2.0-2.0-0.19","5b6cd50f9ee1a50001c5f481","B2","batch2","spm_show_trial_num","null","<p class=block-text>Trial 20 out of 60</p>","null","","","","","","","","","","","","","","","","","","","","","","","","","",""
"","","","","","image-button-response","43","226830","0.0-2.0-2.0-1.19","5b6cd50f9ee1a50001c5f481","B2","batch2","spm_respsonse","8823","img/question_2_8.jpeg","5","mat_20","6","1","1","8823","","","","","","","","","","","","","","","","","","","","",""
"","","","","","html-keyboard-response","44","227894","0.0-2.0-2.0-0.20","5b6cd50f9ee1a50001c5f481","B2","batch2","spm_show_trial_num","null","<p class=block-text>Trial 21 out of 60</p>","null","","","","","","","","","","","","","","","","","","","","","","","","","",""
"","","","","","image-button-response","45","233846","0.0-2.0-2.0-1.20","5b6cd50f9ee1a50001c5f481","B2","batch2","spm_respsonse","5951","img/question_2_9.jpeg","3","mat_21","4","1","1","5951","","","","","","","","","","","","","","","","","","","","",""
"","","","","","html-keyboard-response","46","234909","0.0-2.0-2.0-0.21","5b6cd50f9ee1a50001c5f481","B2","batch2","spm_show_trial_num","null","<p class=block-text>Trial 22 out of 60</p>","null","","","","","","","","","","","","","","","","","","","","","","","","","",""
"","","","","","image-button-response","47","240806","0.0-2.0-2.0-1.21","5b6cd50f9ee1a50001c5f481","B2","batch2","spm_respsonse","5895","img/question_2_10.jpeg","2","mat_22","3","1","1","5895","","","","","","","","","","","","","","","","","","","","",""
"","","","","","html-keyboard-response","48","241870","0.0-2.0-2.0-0.22","5b6cd50f9ee1a50001c5f481","B2","batch2","spm_show_trial_num","null","<p class=block-text>Trial 23 out of 60</p>","null","","","","","","","","","","","","","","","","","","","","","","","","","",""
"","","","","","image-button-response","49","258062","0.0-2.0-2.0-1.22","5b6cd50f9ee1a50001c5f481","B2","batch2","spm_respsonse","16189","img/question_2_11.jpeg","3","mat_23","4","1","1","16189","","","","","","","","","","","","","","","","","","","","",""
"","","","","","html-keyboard-response","50","259148","0.0-2.0-2.0-0.23","5b6cd50f9ee1a50001c5f481","B2","batch2","spm_show_trial_num","null","<p class=block-text>Trial 24 out of 60</p>","null","","","","","","","","","","","","","","","","","","","","","","","","","",""
"","","","","","image-button-response","51","325910","0.0-2.0-2.0-1.23","5b6cd50f9ee1a50001c5f481","B2","batch2","spm_respsonse","66760","img/question_2_12.jpeg","4","mat_24","5","1","1","66760","","","","","","","","","","","","","","","","","","","","",""
"","","","","","html-button-response","52","328798","0.0-2.0-3.0","5b6cd50f9ee1a50001c5f481","B2","batch2","attention_check","2618","<p class = block-text>Attention check: Please choose 1<br></p>","0","","","true","","","","","","","","","","","","","","","","","","","","","","",""
"","","","","","html-keyboard-response","53","329602","0.0-2.0-4.0-0.0","5b6cd50f9ee1a50001c5f481","B2","batch2","spm_show_trial_num","null","<p class=block-text>Trial 25 out of 60</p>","null","","","","","","","","","","","","","","","","","","","","","","","","","",""
"","","","","","image-button-response","54","339678","0.0-2.0-4.0-1.0","5b6cd50f9ee1a50001c5f481","B2","batch2","spm_respsonse","10073","img/question_3_1.jpeg","7","mat_25","8","1","1","10073","","","","","","","","","","","","","","","","","","","","",""
"","","","","","html-keyboard-response","55","340738","0.0-2.0-4.0-0.1","5b6cd50f9ee1a50001c5f481","B2","batch2","spm_show_trial_num","null","<p class=block-text>Trial 26 out of 60</p>","null","","","","","","","","","","","","","","","","","","","","","","","","","",""
"","","","","","image-button-response","56","353438","0.0-2.0-4.0-1.1","5b6cd50f9ee1a50001c5f481","B2","batch2","spm_respsonse","12697","img/question_3_2.jpeg","1","mat_26","2","1","1","12697","","","","","","","","","","","","","","","","","","","","",""
"","","","","","html-keyboard-response","57","354494","0.0-2.0-4.0-0.2","5b6cd50f9ee1a50001c5f481","B2","batch2","spm_show_trial_num","null","<p class=block-text>Trial 27 out of 60</p>","null","","","","","","","","","","","","","","","","","","","","","","","","","",""
"","","","","","image-button-response","58","402398","0.0-2.0-4.0-1.2","5b6cd50f9ee1a50001c5f481","B2","batch2","spm_respsonse","47901","img/question_3_3.jpeg","2","mat_27","3","1","1","47901","","","","","","","","","","","","","","","","","","","","",""
"","","","","","html-keyboard-response","59","403469","0.0-2.0-4.0-0.3","5b6cd50f9ee1a50001c5f481","B2","batch2","spm_show_trial_num","null","<p class=block-text>Trial 28 out of 60</p>","null","","","","","","","","","","","","","","","","","","","","","","","","","",""
"","","","","","image-button-response","60","430007","0.0-2.0-4.0-1.3","5b6cd50f9ee1a50001c5f481","B2","batch2","spm_respsonse","26535","img/question_3_4.jpeg","7","mat_28","8","1","1","26535","","","","","","","","","","","","","","","","","","","","",""
"","","","","","html-keyboard-response","61","431063","0.0-2.0-4.0-0.4","5b6cd50f9ee1a50001c5f481","B2","batch2","spm_show_trial_num","null","<p class=block-text>Trial 29 out of 60</p>","null","","","","","","","","","","","","","","","","","","","","","","","","","",""
"","","","","","image-button-response","62","448615","0.0-2.0-4.0-1.4","5b6cd50f9ee1a50001c5f481","B2","batch2","spm_respsonse","17550","img/question_3_5.jpeg","6","mat_29","7","1","1","17550","","","","","","","","","","","","","","","","","","","","",""
"","","","","","html-keyboard-response","63","449670","0.0-2.0-4.0-0.5","5b6cd50f9ee1a50001c5f481","B2","batch2","spm_show_trial_num","null","<p class=block-text>Trial 30 out of 60</p>","null","","","","","","","","","","","","","","","","","","","","","","","","","",""
"","","","","","image-button-response","64","470087","0.0-2.0-4.0-1.5","5b6cd50f9ee1a50001c5f481","B2","batch2","spm_respsonse","20415","img/question_3_6.jpeg","3","mat_30","4","1","1","20415","","","","","","","","","","","","","","","","","","","","",""
"","","","","","html-keyboard-response","65","471151","0.0-2.0-4.0-0.6","5b6cd50f9ee1a50001c5f481","B2","batch2","spm_show_trial_num","null","<p class=block-text>Trial 31 out of 60</p>","null","","","","","","","","","","","","","","","","","","","","","","","","","",""
"","","","","","image-button-response","66","494102","0.0-2.0-4.0-1.6","5b6cd50f9ee1a50001c5f481","B2","batch2","spm_respsonse","22950","img/question_3_7.jpeg","4","mat_31","5","1","1","22950","","","","","","","","","","","","","","","","","","","","",""
"","","","","","html-keyboard-response","67","495155","0.0-2.0-4.0-0.7","5b6cd50f9ee1a50001c5f481","B2","batch2","spm_show_trial_num","null","<p class=block-text>Trial 32 out of 60</p>","null","","","","","","","","","","","","","","","","","","","","","","","","","",""
"","","","","","image-button-response","68","551807","0.0-2.0-4.0-1.7","5b6cd50f9ee1a50001c5f481","B2","batch2","spm_respsonse","56650","img/question_3_8.jpeg","0","mat_32","1","1","1","56650","","","","","","","","","","","","","","","","","","","","",""
"","","","","","html-keyboard-response","69","552862","0.0-2.0-4.0-0.8","5b6cd50f9ee1a50001c5f481","B2","batch2","spm_show_trial_num","null","<p class=block-text>Trial 33 out of 60</p>","null","","","","","","","","","","","","","","","","","","","","","","","","","",""
"","","","","","image-button-response","70","565999","0.0-2.0-4.0-1.8","5b6cd50f9ee1a50001c5f481","B2","batch2","spm_respsonse","13134","img/question_3_9.jpeg","6","mat_33","7","1","1","13134","","","","","","","","","","","","","","","","","","","","",""
"","","","","","html-keyboard-response","71","567059","0.0-2.0-4.0-0.9","5b6cd50f9ee1a50001c5f481","B2","batch2","spm_show_trial_num","null","<p class=block-text>Trial 34 out of 60</p>","null","","","","","","","","","","","","","","","","","","","","","","","","","",""
"","","","","","image-button-response","72","634047","0.0-2.0-4.0-1.9","5b6cd50f9ee1a50001c5f481","B2","batch2","spm_respsonse","66985","img/question_3_10.jpeg","5","mat_34","6","1","1","66985","","","","","","","","","","","","","","","","","","","","",""
"","","","","","html-keyboard-response","73","635110","0.0-2.0-4.0-0.10","5b6cd50f9ee1a50001c5f481","B2","batch2","spm_show_trial_num","null","<p class=block-text>Trial 35 out of 60</p>","null","","","","","","","","","","","","","","","","","","","","","","","","","",""
"","","","","","image-button-response","74","688959","0.0-2.0-4.0-1.10","5b6cd50f9ee1a50001c5f481","B2","batch2","spm_respsonse","53847","img/question_3_11.jpeg","0","mat_35","1","1","1","53847","","","","","","","","","","","","","","","","","","","","",""
"","","","","","html-keyboard-response","75","690022","0.0-2.0-4.0-0.11","5b6cd50f9ee1a50001c5f481","B2","batch2","spm_show_trial_num","null","<p class=block-text>Trial 36 out of 60</p>","null","","","","","","","","","","","","","","","","","","","","","","","","","",""
"","","","","","image-button-response","76","722143","0.0-2.0-4.0-1.11","5b6cd50f9ee1a50001c5f481","B2","batch2","spm_respsonse","32119","img/question_3_12.jpeg","2","mat_36","2","0","0","32119","","","","","","","","","","","","","","","","","","","","",""
"","","","","","html-keyboard-response","77","723194","0.0-2.0-4.0-0.12","5b6cd50f9ee1a50001c5f481","B2","batch2","spm_show_trial_num","null","<p class=block-text>Trial 37 out of 60</p>","null","","","","","","","","","","","","","","","","","","","","","","","","","",""
"","","","","","image-button-response","78","731175","0.0-2.0-4.0-1.12","5b6cd50f9ee1a50001c5f481","B2","batch2","spm_respsonse","7977","img/question_4_1.jpeg","2","mat_37","3","1","1","7977","","","","","","","","","","","","","","","","","","","","",""
"","","","","","html-keyboard-response","79","732233","0.0-2.0-4.0-0.13","5b6cd50f9ee1a50001c5f481","B2","batch2","spm_show_trial_num","null","<p class=block-text>Trial 38 out of 60</p>","null","","","","","","","","","","","","","","","","","","","","","","","","","",""
"","","","","","image-button-response","80","745063","0.0-2.0-4.0-1.13","5b6cd50f9ee1a50001c5f481","B2","batch2","spm_respsonse","12827","img/question_4_2.jpeg","3","mat_38","4","1","1","12827","","","","","","","","","","","","","","","","","","","","",""
"","","","","","html-keyboard-response","81","746131","0.0-2.0-4.0-0.14","5b6cd50f9ee1a50001c5f481","B2","batch2","spm_show_trial_num","null","<p class=block-text>Trial 39 out of 60</p>","null","","","","","","","","","","","","","","","","","","","","","","","","","",""
"","","","","","image-button-response","82","783008","0.0-2.0-4.0-1.14","5b6cd50f9ee1a50001c5f481","B2","batch2","spm_respsonse","36875","img/question_4_3.jpeg","2","mat_39","3","1","1","36875","","","","","","","","","","","","","","","","","","","","",""
"","","","","","html-keyboard-response","83","784069","0.0-2.0-4.0-0.15","5b6cd50f9ee1a50001c5f481","B2","batch2","spm_show_trial_num","null","<p class=block-text>Trial 40 out of 60</p>","null","","","","","","","","","","","","","","","","","","","","","","","","","",""
"","","","","","image-button-response","84","795743","0.0-2.0-4.0-1.15","5b6cd50f9ee1a50001c5f481","B2","batch2","spm_respsonse","11671","img/question_4_4.jpeg","6","mat_40","7","1","1","11671","","","","","","","","","","","","","","","","","","","","",""
"","","","","","html-keyboard-response","85","796796","0.0-2.0-4.0-0.16","5b6cd50f9ee1a50001c5f481","B2","batch2","spm_show_trial_num","null","<p class=block-text>Trial 41 out of 60</p>","null","","","","","","","","","","","","","","","","","","","","","","","","","",""
"","","","","","image-button-response","86","810552","0.0-2.0-4.0-1.16","5b6cd50f9ee1a50001c5f481","B2","batch2","spm_respsonse","13753","img/question_4_5.jpeg","7","mat_41","8","1","1","13753","","","","","","","","","","","","","","","","","","","","",""
"","","","","","html-keyboard-response","87","811612","0.0-2.0-4.0-0.17","5b6cd50f9ee1a50001c5f481","B2","batch2","spm_show_trial_num","null","<p class=block-text>Trial 42 out of 60</p>","null","","","","","","","","","","","","","","","","","","","","","","","","","",""
"","","","","","image-button-response","88","826671","0.0-2.0-4.0-1.17","5b6cd50f9ee1a50001c5f481","B2","batch2","spm_respsonse","15057","img/question_4_6.jpeg","5","mat_42","6","1","1","15057","","","","","","","","","","","","","","","","","","","","",""
"","","","","","html-keyboard-response","89","827727","0.0-2.0-4.0-0.18","5b6cd50f9ee1a50001c5f481","B2","batch2","spm_show_trial_num","null","<p class=block-text>Trial 43 out of 60</p>","null","","","","","","","","","","","","","","","","","","","","","","","","","",""
"","","","","","image-button-response","90","864256","0.0-2.0-4.0-1.18","5b6cd50f9ee1a50001c5f481","B2","batch2","spm_respsonse","36525","img/question_4_7.jpeg","4","mat_43","5","1","1","36525","","","","","","","","","","","","","","","","","","","","",""
"","","","","","html-keyboard-response","91","865335","0.0-2.0-4.0-0.19","5b6cd50f9ee1a50001c5f481","B2","batch2","spm_show_trial_num","null","<p class=block-text>Trial 44 out of 60</p>","null","","","","","","","","","","","","","","","","","","","","","","","","","",""
"","","","","","image-button-response","92","885255","0.0-2.0-4.0-1.19","5b6cd50f9ee1a50001c5f481","B2","batch2","spm_respsonse","19918","img/question_4_8.jpeg","3","mat_44","4","1","1","19918","","","","","","","","","","","","","","","","","","","","",""
"","","","","","html-keyboard-response","93","886318","0.0-2.0-4.0-0.20","5b6cd50f9ee1a50001c5f481","B2","batch2","spm_show_trial_num","null","<p class=block-text>Trial 45 out of 60</p>","null","","","","","","","","","","","","","","","","","","","","","","","","","",""
"","","","","","image-button-response","94","918831","0.0-2.0-4.0-1.20","5b6cd50f9ee1a50001c5f481","B2","batch2","spm_respsonse","32511","img/question_4_9.jpeg","0","mat_45","1","1","1","32511","","","","","","","","","","","","","","","","","","","","",""
"","","","","","html-keyboard-response","95","919895","0.0-2.0-4.0-0.21","5b6cd50f9ee1a50001c5f481","B2","batch2","spm_show_trial_num","null","<p class=block-text>Trial 46 out of 60</p>","null","","","","","","","","","","","","","","","","","","","","","","","","","",""
"","","","","","image-button-response","96","969535","0.0-2.0-4.0-1.21","5b6cd50f9ee1a50001c5f481","B2","batch2","spm_respsonse","49638","img/question_4_10.jpeg","1","mat_46","2","1","1","49638","","","","","","","","","","","","","","","","","","","","",""
"","","","","","html-keyboard-response","97","970599","0.0-2.0-4.0-0.22","5b6cd50f9ee1a50001c5f481","B2","batch2","spm_show_trial_num","null","<p class=block-text>Trial 47 out of 60</p>","null","","","","","","","","","","","","","","","","","","","","","","","","","",""
"","","","","","image-button-response","98","1089464","0.0-2.0-4.0-1.22","5b6cd50f9ee1a50001c5f481","B2","batch2","spm_respsonse","118861","img/question_4_11.jpeg","4","mat_47","5","1","1","118861","","","","","","","","","","","","","","","","","","","","",""
"","","","","","html-keyboard-response","99","1090528","0.0-2.0-4.0-0.23","5b6cd50f9ee1a50001c5f481","B2","batch2","spm_show_trial_num","null","<p class=block-text>Trial 48 out of 60</p>","null","","","","","","","","","","","","","","","","","","","","","","","","","",""
"","","","","","image-button-response","100","1196343","0.0-2.0-4.0-1.23","5b6cd50f9ee1a50001c5f481","B2","batch2","spm_respsonse","105812","img/question_4_12.jpeg","4","mat_48","6","0","0","105812","","","","","","","","","","","","","","","","","","","","",""
"","","","","","html-keyboard-response","101","1197414","0.0-2.0-4.0-0.24","5b6cd50f9ee1a50001c5f481","B2","batch2","spm_show_trial_num","null","<p class=block-text>Trial 49 out of 60</p>","null","","","","","","","","","","","","","","","","","","","","","","","","","",""
"","","","","","image-button-response","102","1216127","0.0-2.0-4.0-1.24","5b6cd50f9ee1a50001c5f481","B2","batch2","spm_respsonse","18710","img/question_5_1.jpeg","6","mat_49","7","1","1","18710","","","","","","","","","","","","","","","","","","","","",""
"","","","","","html-keyboard-response","103","1217187","0.0-2.0-4.0-0.25","5b6cd50f9ee1a50001c5f481","B2","batch2","spm_show_trial_num","null","<p class=block-text>Trial 50 out of 60</p>","null","","","","","","","","","","","","","","","","","","","","","","","","","",""
"","","","","","image-button-response","104","1246952","0.0-2.0-4.0-1.25","5b6cd50f9ee1a50001c5f481","B2","batch2","spm_respsonse","29763","img/question_5_2.jpeg","5","mat_50","6","1","1","29763","","","","","","","","","","","","","","","","","","","","",""
"","","","","","html-keyboard-response","105","1248004","0.0-2.0-4.0-0.26","5b6cd50f9ee1a50001c5f481","B2","batch2","spm_show_trial_num","null","<p class=block-text>Trial 51 out of 60</p>","null","","","","","","","","","","","","","","","","","","","","","","","","","",""
"","","","","","image-button-response","106","1277983","0.0-2.0-4.0-1.26","5b6cd50f9ee1a50001c5f481","B2","batch2","spm_respsonse","29978","img/question_5_3.jpeg","7","mat_51","8","1","1","29978","","","","","","","","","","","","","","","","","","","","",""
"","","","","","html-keyboard-response","107","1279039","0.0-2.0-4.0-0.27","5b6cd50f9ee1a50001c5f481","B2","batch2","spm_show_trial_num","null","<p class=block-text>Trial 52 out of 60</p>","null","","","","","","","","","","","","","","","","","","","","","","","","","",""
"","","","","","image-button-response","108","1299768","0.0-2.0-4.0-1.27","5b6cd50f9ee1a50001c5f481","B2","batch2","spm_respsonse","20725","img/question_5_4.jpeg","1","mat_52","2","1","1","20725","","","","","","","","","","","","","","","","","","","","",""
"","","","","","html-keyboard-response","109","1300833","0.0-2.0-4.0-0.28","5b6cd50f9ee1a50001c5f481","B2","batch2","spm_show_trial_num","null","<p class=block-text>Trial 53 out of 60</p>","null","","","","","","","","","","","","","","","","","","","","","","","","","",""
"","","","","","image-button-response","110","1313135","0.0-2.0-4.0-1.28","5b6cd50f9ee1a50001c5f481","B2","batch2","spm_respsonse","12301","img/question_5_5.jpeg","0","mat_53","1","1","1","12301","","","","","","","","","","","","","","","","","","","","",""
"","","","","","html-keyboard-response","111","1314192","0.0-2.0-4.0-0.29","5b6cd50f9ee1a50001c5f481","B2","batch2","spm_show_trial_num","null","<p class=block-text>Trial 54 out of 60</p>","null","","","","","","","","","","","","","","","","","","","","","","","","","",""
"","","","","","image-button-response","112","1369192","0.0-2.0-4.0-1.29","5b6cd50f9ee1a50001c5f481","B2","batch2","spm_respsonse","54997","img/question_5_6.jpeg","4","mat_54","5","1","1","54997","","","","","","","","","","","","","","","","","","","","",""
"","","","","","html-keyboard-response","113","1370249","0.0-2.0-4.0-0.30","5b6cd50f9ee1a50001c5f481","B2","batch2","spm_show_trial_num","null","<p class=block-text>Trial 55 out of 60</p>","null","","","","","","","","","","","","","","","","","","","","","","","","","",""
"","","","","","image-button-response","114","1439888","0.0-2.0-4.0-1.30","5b6cd50f9ee1a50001c5f481","B2","batch2","spm_respsonse","69637","img/question_5_7.jpeg","0","mat_55","1","1","1","69637","","","","","","","","","","","","","","","","","","","","",""
"","","","","","html-keyboard-response","115","1440961","0.0-2.0-4.0-0.31","5b6cd50f9ee1a50001c5f481","B2","batch2","spm_show_trial_num","null","<p class=block-text>Trial 56 out of 60</p>","null","","","","","","","","","","","","","","","","","","","","","","","","","",""
"","","","","","image-button-response","116","1466065","0.0-2.0-4.0-1.31","5b6cd50f9ee1a50001c5f481","B2","batch2","spm_respsonse","25101","img/question_5_8.jpeg","5","mat_56","6","1","1","25101","","","","","","","","","","","","","","","","","","","","",""
"","","","","","html-keyboard-response","117","1467139","0.0-2.0-4.0-0.32","5b6cd50f9ee1a50001c5f481","B2","batch2","spm_show_trial_num","null","<p class=block-text>Trial 57 out of 60</p>","null","","","","","","","","","","","","","","","","","","","","","","","","","",""
"","","","","","image-button-response","118","1620960","0.0-2.0-4.0-1.32","5b6cd50f9ee1a50001c5f481","B2","batch2","spm_respsonse","153820","img/question_5_9.jpeg","0","mat_57","3","0","0","153820","","","","","","","","","","","","","","","","","","","","",""
"","","","","","html-keyboard-response","119","1622020","0.0-2.0-4.0-0.33","5b6cd50f9ee1a50001c5f481","B2","batch2","spm_show_trial_num","null","<p class=block-text>Trial 58 out of 60</p>","null","","","","","","","","","","","","","","","","","","","","","","","","","",""
"","","","","","image-button-response","120","1821697","0.0-2.0-4.0-1.33","5b6cd50f9ee1a50001c5f481","B2","batch2","spm_respsonse","199674","img/question_5_10.jpeg","3","mat_58","2","0","0","199674","","","","","","","","","","","","","","","","","","","","",""
"","","","","","html-keyboard-response","121","1822763","0.0-2.0-4.0-0.34","5b6cd50f9ee1a50001c5f481","B2","batch2","spm_show_trial_num","null","<p class=block-text>Trial 59 out of 60</p>","null","","","","","","","","","","","","","","","","","","","","","","","","","",""
"","","","","","image-button-response","122","1936936","0.0-2.0-4.0-1.34","5b6cd50f9ee1a50001c5f481","B2","batch2","spm_respsonse","114171","img/question_5_11.jpeg","4","mat_59","4","0","0","114171","","","","","","","","","","","","","","","","","","","","",""
"","","","","","html-keyboard-response","123","1937998","0.0-2.0-4.0-0.35","5b6cd50f9ee1a50001c5f481","B2","batch2","spm_show_trial_num","null","<p class=block-text>Trial 60 out of 60</p>","null","","","","","","","","","","","","","","","","","","","","","","","","","",""
"","","","","","image-button-response","124","1964609","0.0-2.0-4.0-1.35","5b6cd50f9ee1a50001c5f481","B2","batch2","spm_respsonse","26608","img/question_5_12.jpeg","4","mat_60","5","1","1","26608","","","","","","","","","","","","","","","","","","","","",""
"","","","","","html-button-response","125","1968960","0.0-2.0-5.0","5b6cd50f9ee1a50001c5f481","B2","batch2","spm_goodbye","4088","<p class= block-text>This concludes the Standard Progressive Matrix game. Thank you for your responses!<br> When you are ready, click the button continue</p>","0","","","","","","","","","","","","","","","","","","","","","","","","","",""
"true","","","","","fullscreen","126","1973790","0.0-3.0-0.0","5b6cd50f9ee1a50001c5f481","B2","batch2","","","","","","","","","","","","","","","","","","","","","","","","","","","","","",""
"","","","","","instructions","127","2078537","0.0-3.0-1.0-0.0-0.0","5b6cd50f9ee1a50001c5f481","B2","batch2","tol-instructions","104747","","","","","","","","[{""page_index"":0,""viewing_time"":24898},{""page_index"":1,""viewing_time"":9785},{""page_index"":2,""viewing_time"":6847},{""page_index"":3,""viewing_time"":25065},{""page_index"":4,""viewing_time"":21656},{""page_index"":5,""viewing_time"":12440},{""page_index"":6,""viewing_time"":4056}]","","","","","","","","","","","","","","","","","","","",""
"","","","","","html-button-response","128","2080600","0.0-3.0-1.0-1.0-0.0","5b6cd50f9ee1a50001c5f481","B2","batch2","tol_enter_quiz","2063","<p class=block-text> Let's answer a few questions <br>","0","","","","","","","","","","","","","","","","","","","","","","","","","",""
"","","","","","html-button-response","129","2088456","0.0-3.0-1.0-1.0-1.0","5b6cd50f9ee1a50001c5f481","B2","batch2","tol_quiz","7856","<p class = block-text>True or False: You can only move the ball on top of a peg. <br></p>","0","","","true","","","","","","","","","","","","","","","","","","","","","","",""
"","","","","","html-button-response","130","2090992","0.0-3.0-1.0-1.0-2.0","5b6cd50f9ee1a50001c5f481","B2","batch2","tol_quiz_feedback","2535","<p class = block-text>Correct! You can only move the ball on top of a peg.</p>","0","","","","","","","","","","","","","","","","","","","","","","","","","",""
"","","","","","html-button-response","131","2095873","0.0-3.0-1.0-1.0-3.0","5b6cd50f9ee1a50001c5f481","B2","batch2","tol_quiz","4880","<p class = block-text>True or False: You should try to match your board with the target board with fewest moves possible. <br></p>","0","","","true","","","","","","","","","","","","","","","","","","","","","","",""
"","","","","","html-button-response","132","2097224","0.0-3.0-1.0-1.0-4.0","5b6cd50f9ee1a50001c5f481","B2","batch2","tol_quiz_feedback","1351","<p class = block-text>Correct! </p>","0","","","","","","","","","","","","","","","","","","","","","","","","","",""
"","","","","","html-button-response","133","2100889","0.0-3.0-2.0","5b6cd50f9ee1a50001c5f481","B2","batch2","","3663","<p class=block-text> Now that you've understood the game, let's practice a few easier examples before we start!<br> <br>","0","","","","","","","","","","","","","","","","","","","","","","","","","",""
"","","","","","single-stim-button","134","2117897","0.0-3.0-3.0-0.0","5b6cd50f9ee1a50001c5f481","B2","batch2","tol_practice","17007","","","","","","","","","tol_peg_2","17007","17007","0","[[1,2,0],[0,0],[0]]","1","[[1,2,0],[0,0],[3]]","practice","17007","","","","","","","","","","",""
"","","","","","single-stim-button","135","2122281","0.0-3.0-3.0-1.0","5b6cd50f9ee1a50001c5f481","B2","batch2","tol_practice","4384","","","","","","","","","tol_peg_3","4384","4384","0","[[1,2,0],[0,0],[3]]","1","[[1,2,0],[0,0],[3]]","practice","4384","","","","","","","","","","",""
"","","","","","poldrack-single-stim","136","2123293","0.0-3.0-4.0","5b6cd50f9ee1a50001c5f481","B2","batch2","tol_feedback","-1","","","","","true","","","","","1000","1000","500","","","","","","-1","none","true","","0","","","","","",""
"","","","","","single-stim-button","137","2139465","0.0-3.0-5.0-0.0","5b6cd50f9ee1a50001c5f481","B2","batch2","tol_practice","16172","","","","","","","","","tol_peg_1","16172","16172","0","[[1,0,0],[3,0],[0]]","2","[[0,0,0],[3,1],[2]]","practice","16172","","","","","","","","","","",""
"","","","","","single-stim-button","138","2144041","0.0-3.0-5.0-1.0","5b6cd50f9ee1a50001c5f481","B2","batch2","tol_practice","4576","","","","","","","","","tol_peg_3","4576","4576","0","[[1,0,0],[3,0],[2]]","2","[[0,0,0],[3,1],[2]]","practice","4576","","","","","","","","","","",""
"","","","","","single-stim-button","139","2145617","0.0-3.0-5.1-0.1","5b6cd50f9ee1a50001c5f481","B2","batch2","tol_practice","1574","","","","","","","","","tol_peg_1","1574","1574","0","[[0,0,0],[3,0],[2]]","3","[[0,0,0],[3,1],[2]]","practice","1574","","","","","","","","","","",""
"","","","","","single-stim-button","140","2147481","0.0-3.0-5.1-1.1","5b6cd50f9ee1a50001c5f481","B2","batch2","tol_practice","1863","","","","","","","","","tol_peg_2","1863","1863","0","[[0,0,0],[3,1],[2]]","3","[[0,0,0],[3,1],[2]]","practice","1863","","","","","","","","","","",""
"","","","","","poldrack-single-stim","141","2148496","0.0-3.0-6.0","5b6cd50f9ee1a50001c5f481","B2","batch2","tol_feedback","-1","","","","","true","","","","","1000","1000","500","","","","","","-1","none","true","","0","","","","","",""
"","","","","","single-stim-button","142","2155633","0.0-3.0-7.0-0.0","5b6cd50f9ee1a50001c5f481","B2","batch2","tol_practice","7136","","","","","","","","","tol_peg_2","7136","7136","0","[[1,2,0],[0,0],[0]]","4","[[1,0,0],[2,0],[3]]","practice","7136","","","","","","","","","","",""
"","","","","","single-stim-button","143","2157113","0.0-3.0-7.0-1.0","5b6cd50f9ee1a50001c5f481","B2","batch2","tol_practice","1480","","","","","","","","","tol_peg_3","1480","1480","0","[[1,2,0],[0,0],[3]]","4","[[1,0,0],[2,0],[3]]","practice","1480","","","","","","","","","","",""
"","","","","","single-stim-button","144","2158634","0.0-3.0-7.1-0.1","5b6cd50f9ee1a50001c5f481","B2","batch2","tol_practice","1520","","","","","","","","","tol_peg_1","1520","1520","0","[[1,0,0],[0,0],[3]]","5","[[1,0,0],[2,0],[3]]","practice","1520","","","","","","","","","","",""
"","","","","","single-stim-button","145","2159705","0.0-3.0-7.1-1.1","5b6cd50f9ee1a50001c5f481","B2","batch2","tol_practice","1071","","","","","","","","","tol_peg_2","1071","1071","0","[[1,0,0],[2,0],[3]]","5","[[1,0,0],[2,0],[3]]","practice","1071","","","","","","","","","","",""
"","","","","","poldrack-single-stim","146","2160707","0.0-3.0-8.0","5b6cd50f9ee1a50001c5f481","B2","batch2","tol_feedback","-1","","","","","true","","","","","1000","1000","500","","","","","","-1","none","true","","0","","","","","",""
"","","","","","html-button-response","147","2166968","0.0-3.0-9.0","5b6cd50f9ee1a50001c5f481","B2","batch2","tol_instruction","6260","<div class = centerbox><p class = center-block-text>Great job! You are done with practice trials<br>You are about to start official trials.<br> <br> Problem <strong>1</strong> out of 25 problems</p></div>","0","","","","","","","","","","","","","","","","","","","","","","","","","",""
"","","","","","single-stim-button","148","2174865","0.0-3.0-10.0-0.0","5b6cd50f9ee1a50001c5f481","B2","batch2","tol_tohand","6887","","","","","","","","","tol_peg_1","6887","6887","0","[[1,0,0],[3,0],[0]]","1","[[1,3,0],[2,0],[0]]","0","0","","","","","","3","","","","",""
"","","","","","single-stim-button","149","2177297","0.0-3.0-10.0-1.0","5b6cd50f9ee1a50001c5f481","B2","batch2","tol_toboard","2432","","","","","","","","","tol_peg_3","2432","2432","0","[[1,0,0],[3,0],[2]]","1","[[1,3,0],[2,0],[0]]","0","0","","","","","","3","","","","",""
"","","","","","single-stim-button","150","2180521","0.0-3.0-10.1-0.1","5b6cd50f9ee1a50001c5f481","B2","batch2","tol_tohand","3223","","","","","","","","","tol_peg_2","3223","3223","0","[[1,0,0],[0,0],[2]]","2","[[1,3,0],[2,0],[0]]","0","0","","","","","","3","","","","",""
"","","","","","single-stim-button","151","2181321","0.0-3.0-10.1-1.1","5b6cd50f9ee1a50001c5f481","B2","batch2","tol_toboard","800","","","","","","","","","tol_peg_1","800","800","0","[[1,3,0],[0,0],[2]]","2","[[1,3,0],[2,0],[0]]","0","0","","","","","","3","","","","",""
"","","","","","single-stim-button","152","2189465","0.0-3.0-10.2-0.2","5b6cd50f9ee1a50001c5f481","B2","batch2","tol_tohand","8143","","","","","","","","","tol_peg_3","8143","8143","0","[[1,3,0],[0,0],[0]]","3","[[1,3,0],[2,0],[0]]","0","0","","","","","","3","","","","",""
"","","","","","single-stim-button","153","2190553","0.0-3.0-10.2-1.2","5b6cd50f9ee1a50001c5f481","B2","batch2","tol_toboard","1088","","","","","","","","","tol_peg_2","1088","1088","0","[[1,3,0],[2,0],[0]]","3","[[1,3,0],[2,0],[0]]","0","0","","","","","","3","","","","",""
"","","","","","poldrack-single-stim","154","2191560","0.0-3.0-11.0","5b6cd50f9ee1a50001c5f481","B2","batch2","tol_feedback","-1","","","","","true","","","","","1000","1000","500","","","","","","-1","none","true","6887","18253","","","","","",""
"","","","","","html-button-response","155","2194417","0.0-3.0-12.0","5b6cd50f9ee1a50001c5f481","B2","batch2","tol_trial_num","2857","<div class = centerbox><p class = center-block-text>problem <strong>2</strong> out of 25 problems</p></div>","0","","","","","","","","","","","","","","","","","","","","","","","","","",""
"","","","","","single-stim-button","156","2213401","0.0-3.0-13.0-0.0","5b6cd50f9ee1a50001c5f481","B2","batch2","tol_tohand","18982","","","","","","","","","tol_peg_1","18982","18982","0","[[1,0,0],[3,0],[0]]","1","[[2,1,3],[0,0],[0]]","1","0","","","","","","5","","","","",""
"","","","","","single-stim-button","157","2215274","0.0-3.0-13.0-1.0","5b6cd50f9ee1a50001c5f481","B2","batch2","tol_toboard","1873","","","","","","","","","tol_peg_3","1873","1873","0","[[1,0,0],[3,0],[2]]","1","[[2,1,3],[0,0],[0]]","1","0","","","","","","5","","","","",""
"","","","","","single-stim-button","158","2227137","0.0-3.0-13.1-0.1","5b6cd50f9ee1a50001c5f481","B2","batch2","tol_tohand","11863","","","","","","","","","tol_peg_1","11863","11863","0","[[0,0,0],[3,0],[2]]","2","[[2,1,3],[0,0],[0]]","1","0","","","","","","5","","","","",""
"","","","","","single-stim-button","159","2229145","0.0-3.0-13.1-1.1","5b6cd50f9ee1a50001c5f481","B2","batch2","tol_toboard","2008","","","","","","","","","tol_peg_2","2008","2008","0","[[0,0,0],[3,1],[2]]","2","[[2,1,3],[0,0],[0]]","1","0","","","","","","5","","","","",""
"","","","","","single-stim-button","160","2230345","0.0-3.0-13.2-0.2","5b6cd50f9ee1a50001c5f481","B2","batch2","tol_tohand","1200","","","","","","","","","tol_peg_3","1200","1200","0","[[0,0,0],[3,1],[0]]","3","[[2,1,3],[0,0],[0]]","1","0","","","","","","5","","","","",""
"","","","","","single-stim-button","161","2231344","0.0-3.0-13.2-1.2","5b6cd50f9ee1a50001c5f481","B2","batch2","tol_toboard","999","","","","","","","","","tol_peg_1","999","999","0","[[2,0,0],[3,1],[0]]","3","[[2,1,3],[0,0],[0]]","1","0","","","","","","5","","","","",""
"","","","","","single-stim-button","162","2234632","0.0-3.0-13.3-0.3","5b6cd50f9ee1a50001c5f481","B2","batch2","tol_tohand","3287","","","","","","","","","tol_peg_2","3287","3287","0","[[2,0,0],[3,0],[0]]","4","[[2,1,3],[0,0],[0]]","1","0","","","","","","5","","","","",""
"","","","","","single-stim-button","163","2235529","0.0-3.0-13.3-1.3","5b6cd50f9ee1a50001c5f481","B2","batch2","tol_toboard","896","","","","","","","","","tol_peg_3","896","896","0","[[2,0,0],[3,0],[1]]","4","[[2,1,3],[0,0],[0]]","1","0","","","","","","5","","","","",""
"","","","","","single-stim-button","164","2237401","0.0-3.0-13.4-0.4","5b6cd50f9ee1a50001c5f481","B2","batch2","tol_tohand","1872","","","","","","","","","tol_peg_3","1872","1872","0","[[2,0,0],[3,0],[0]]","5","[[2,1,3],[0,0],[0]]","1","0","","","","","","5","","","","",""
"","","","","","single-stim-button","165","2239297","0.0-3.0-13.4-1.4","5b6cd50f9ee1a50001c5f481","B2","batch2","tol_toboard","1896","","","","","","","","","tol_peg_1","1896","1896","0","[[2,1,0],[3,0],[0]]","5","[[2,1,3],[0,0],[0]]","1","0","","","","","","5","","","","",""
"","","","","","single-stim-button","166","2240256","0.0-3.0-13.5-0.5","5b6cd50f9ee1a50001c5f481","B2","batch2","tol_tohand","959","","","","","","","","","tol_peg_2","959","959","0","[[2,1,0],[0,0],[0]]","6","[[2,1,3],[0,0],[0]]","1","0","","","","","","5","","","","",""
"","","","","","single-stim-button","167","2241250","0.0-3.0-13.5-1.5","5b6cd50f9ee1a50001c5f481","B2","batch2","tol_toboard","993","","","","","","","","","tol_peg_1","993","993","0","[[2,1,3],[0,0],[0]]","6","[[2,1,3],[0,0],[0]]","1","0","","","","","","5","","","","",""
"","","","","","poldrack-single-stim","168","2242263","0.0-3.0-14.0","5b6cd50f9ee1a50001c5f481","B2","batch2","tol_feedback","-1","","","","","true","","","","","1000","1000","500","","","","","","-1","none","true","18982","38163","","","","","",""
"","","","","","html-button-response","169","2243793","0.0-3.0-15.0","5b6cd50f9ee1a50001c5f481","B2","batch2","tol_trial_num","1529","<div class = centerbox><p class = center-block-text>problem <strong>3</strong> out of 25 problems</p></div>","0","","","","","","","","","","","","","","","","","","","","","","","","","",""
"","","","","","single-stim-button","170","2254522","0.0-3.0-16.0-0.0","5b6cd50f9ee1a50001c5f481","B2","batch2","tol_tohand","10728","","","","","","","","","tol_peg_1","10728","10728","0","[[2,0,0],[0,0],[1]]","1","[[1,2,0],[3,0],[0]]","2","0","","","","","","4","","","","",""
"","","","","","single-stim-button","171","2256201","0.0-3.0-16.0-1.0","5b6cd50f9ee1a50001c5f481","B2","batch2","tol_toboard","1679","","","","","","","","","tol_peg_2","1679","1679","0","[[2,0,0],[3,0],[1]]","1","[[1,2,0],[3,0],[0]]","2","0","","","","","","4","","","","",""
"","","","","","single-stim-button","172","2267753","0.0-3.0-16.1-0.1","5b6cd50f9ee1a50001c5f481","B2","batch2","tol_tohand","11552","","","","","","","","","tol_peg_1","11552","11552","0","[[0,0,0],[3,0],[1]]","2","[[1,2,0],[3,0],[0]]","2","0","","","","","","4","","","","",""
"","","","","","single-stim-button","173","2268849","0.0-3.0-16.1-1.1","5b6cd50f9ee1a50001c5f481","B2","batch2","tol_toboard","1096","","","","","","","","","tol_peg_2","1096","1096","0","[[0,0,0],[3,2],[1]]","2","[[1,2,0],[3,0],[0]]","2","0","","","","","","4","","","","",""
"","","","","","single-stim-button","174","2269898","0.0-3.0-16.2-0.2","5b6cd50f9ee1a50001c5f481","B2","batch2","tol_tohand","1048","","","","","","","","","tol_peg_3","1048","1048","0","[[0,0,0],[3,2],[0]]","3","[[1,2,0],[3,0],[0]]","2","0","","","","","","4","","","","",""
"","","","","","single-stim-button","175","2270722","0.0-3.0-16.2-1.2","5b6cd50f9ee1a50001c5f481","B2","batch2","tol_toboard","823","","","","","","","","","tol_peg_1","823","823","0","[[1,0,0],[3,2],[0]]","3","[[1,2,0],[3,0],[0]]","2","0","","","","","","4","","","","",""
"","","","","","single-stim-button","176","2271673","0.0-3.0-16.3-0.3","5b6cd50f9ee1a50001c5f481","B2","batch2","tol_tohand","951","","","","","","","","","tol_peg_2","951","951","0","[[1,0,0],[3,0],[0]]","4","[[1,2,0],[3,0],[0]]","2","0","","","","","","4","","","","",""
"","","","","","single-stim-button","177","2272353","0.0-3.0-16.3-1.3","5b6cd50f9ee1a50001c5f481","B2","batch2","tol_toboard","680","","","","","","","","","tol_peg_1","680","680","0","[[1,2,0],[3,0],[0]]","4","[[1,2,0],[3,0],[0]]","2","0","","","","","","4","","","","",""
"","","","","","poldrack-single-stim","178","2273361","0.0-3.0-17.0","5b6cd50f9ee1a50001c5f481","B2","batch2","tol_feedback","-1","","","","","true","","","","","1000","1000","500","","","","","","-1","none","true","10728","24279","","","","","",""
"","","","","","html-button-response","179","2274656","0.0-3.0-18.0","5b6cd50f9ee1a50001c5f481","B2","batch2","tol_trial_num","1296","<div class = centerbox><p class = center-block-text>problem <strong>4</strong> out of 25 problems</p></div>","0","","","","","","","","","","","","","","","","","","","","","","","","","",""
"","","","","","single-stim-button","180","2288745","0.0-3.0-19.0-0.0","5b6cd50f9ee1a50001c5f481","B2","batch2","tol_tohand","14088","","","","","","","","","tol_peg_2","14088","14088","0","[[3,0,0],[2,0],[0]]","1","[[3,0,0],[1,0],[2]]","3","0","","","","","","3","","","","",""
"","","","","","single-stim-button","181","2291897","0.0-3.0-19.0-1.0","5b6cd50f9ee1a50001c5f481","B2","batch2","tol_toboard","3151","","","","","","","","","tol_peg_1","3151","3151","0","[[3,1,0],[2,0],[0]]","1","[[3,0,0],[1,0],[2]]","3","0","","","","","","3","","","","",""
"","","","","","single-stim-button","182","2293153","0.0-3.0-19.1-0.1","5b6cd50f9ee1a50001c5f481","B2","batch2","tol_tohand","1256","","","","","","","","","tol_peg_2","1256","1256","0","[[3,1,0],[0,0],[0]]","2","[[3,0,0],[1,0],[2]]","3","0","","","","","","3","","","","",""
"","","","","","single-stim-button","183","2293962","0.0-3.0-19.1-1.1","5b6cd50f9ee1a50001c5f481","B2","batch2","tol_toboard","808","","","","","","","","","tol_peg_3","808","808","0","[[3,1,0],[0,0],[2]]","2","[[3,0,0],[1,0],[2]]","3","0","","","","","","3","","","","",""
"","","","","","single-stim-button","184","2295553","0.0-3.0-19.2-0.2","5b6cd50f9ee1a50001c5f481","B2","batch2","tol_tohand","1591","","","","","","","","","tol_peg_1","1591","1591","0","[[3,0,0],[0,0],[2]]","3","[[3,0,0],[1,0],[2]]","3","0","","","","","","3","","","","",""
"","","","","","single-stim-button","185","2296242","0.0-3.0-19.2-1.2","5b6cd50f9ee1a50001c5f481","B2","batch2","tol_toboard","689","","","","","","","","","tol_peg_2","689","689","0","[[3,0,0],[1,0],[2]]","3","[[3,0,0],[1,0],[2]]","3","0","","","","","","3","","","","",""
"","","","","","poldrack-single-stim","186","2297251","0.0-3.0-20.0","5b6cd50f9ee1a50001c5f481","B2","batch2","tol_feedback","-1","","","","","true","","","","","1000","1000","500","","","","","","-1","none","true","14088","16935","","","","","",""
"","","","","","html-button-response","187","2298512","0.0-3.0-21.0","5b6cd50f9ee1a50001c5f481","B2","batch2","tol_trial_num","1261","<div class = centerbox><p class = center-block-text>problem <strong>5</strong> out of 25 problems</p></div>","0","","","","","","","","","","","","","","","","","","","","","","","","","",""
"","","","","","single-stim-button","188","2314306","0.0-3.0-22.0-0.0","5b6cd50f9ee1a50001c5f481","B2","batch2","tol_tohand","15792","","","","","","","","","tol_peg_2","15792","15792","0","[[1,0,0],[0,0],[3]]","1","[[0,0,0],[1,2],[3]]","4","0","","","","","","7","","","","",""
"","","","","","single-stim-button","189","2320481","0.0-3.0-22.0-1.0","5b6cd50f9ee1a50001c5f481","B2","batch2","tol_toboard","6175","","","","","","","","","tol_peg_1","6175","6175","0","[[1,2,0],[0,0],[3]]","1","[[0,0,0],[1,2],[3]]","4","0","","","","","","7","","","","",""
"","","","","","single-stim-button","190","2323106","0.0-3.0-22.1-0.1","5b6cd50f9ee1a50001c5f481","B2","batch2","tol_tohand","2624","","","","","","","","","tol_peg_1","2624","2624","0","[[1,0,0],[0,0],[3]]","2","[[0,0,0],[1,2],[3]]","4","0","","","","","","7","","","","",""
"","","","","","single-stim-button","191","2325305","0.0-3.0-22.1-1.1","5b6cd50f9ee1a50001c5f481","B2","batch2","tol_toboard","2199","","","","","","","","","tol_peg_1","2199","2199","0","[[1,2,0],[0,0],[3]]","2","[[0,0,0],[1,2],[3]]","4","0","","","","","","7","","","","",""
"","","","","","single-stim-button","192","2338497","0.0-3.0-22.2-0.2","5b6cd50f9ee1a50001c5f481","B2","batch2","tol_tohand","13192","","","","","","","","","tol_peg_1","13192","13192","0","[[1,0,0],[0,0],[3]]","3","[[0,0,0],[1,2],[3]]","4","0","","","","","","7","","","","",""
"","","","","","single-stim-button","193","2345240","0.0-3.0-22.2-1.2","5b6cd50f9ee1a50001c5f481","B2","batch2","tol_toboard","6743","","","","","","","","","tol_peg_1","6743","6743","0","[[1,2,0],[0,0],[3]]","3","[[0,0,0],[1,2],[3]]","4","0","","","","","","7","","","","",""
"","","","","","single-stim-button","194","2352721","0.0-3.0-22.3-0.3","5b6cd50f9ee1a50001c5f481","B2","batch2","tol_tohand","7480","","","","","","","","","tol_peg_1","7480","7480","0","[[1,0,0],[0,0],[3]]","4","[[0,0,0],[1,2],[3]]","4","0","","","","","","7","","","","",""
"","","","","","single-stim-button","195","2353953","0.0-3.0-22.3-1.3","5b6cd50f9ee1a50001c5f481","B2","batch2","tol_toboard","1232","","","","","","","","","tol_peg_2","1232","1232","0","[[1,0,0],[2,0],[3]]","4","[[0,0,0],[1,2],[3]]","4","0","","","","","","7","","","","",""
"","","","","","single-stim-button","196","2358986","0.0-3.0-22.4-0.4","5b6cd50f9ee1a50001c5f481","B2","batch2","tol_tohand","5032","","","","","","","","","tol_peg_1","5032","5032","0","[[0,0,0],[2,0],[3]]","5","[[0,0,0],[1,2],[3]]","4","0","","","","","","7","","","","",""
"","","","","","single-stim-button","197","2360585","0.0-3.0-22.4-1.4","5b6cd50f9ee1a50001c5f481","B2","batch2","tol_toboard","1599","","","","","","","","","tol_peg_2","1599","1599","0","[[0,0,0],[2,1],[3]]","5","[[0,0,0],[1,2],[3]]","4","0","","","","","","7","","","","",""
"","","","","","single-stim-button","198","2370761","0.0-3.0-22.5-0.5","5b6cd50f9ee1a50001c5f481","B2","batch2","tol_tohand","10176","","","","","","","","","tol_peg_2","10176","10176","0","[[0,0,0],[2,0],[3]]","6","[[0,0,0],[1,2],[3]]","4","0","","","","","","7","","","","",""
"","","","","","single-stim-button","199","2380145","0.0-3.0-22.5-1.5","5b6cd50f9ee1a50001c5f481","B2","batch2","tol_toboard","9384","","","","","","","","","tol_peg_1","9384","9384","0","[[1,0,0],[2,0],[3]]","6","[[0,0,0],[1,2],[3]]","4","0","","","","","","7","","","","",""
"","","","","","single-stim-button","200","2418305","0.0-3.0-22.6-0.6","5b6cd50f9ee1a50001c5f481","B2","batch2","tol_tohand","38160","","","","","","","","","tol_peg_1","38160","38160","0","[[0,0,0],[2,0],[3]]","7","[[0,0,0],[1,2],[3]]","4","0","","","","","","7","","","","",""
"","","","","","single-stim-button","201","2420810","0.0-3.0-22.6-1.6","5b6cd50f9ee1a50001c5f481","B2","batch2","tol_toboard","2504","","","","","","","","","tol_peg_2","2504","2504","0","[[0,0,0],[2,1],[3]]","7","[[0,0,0],[1,2],[3]]","4","0","","","","","","7","","","","",""
"","","","","","single-stim-button","202","2422017","0.0-3.0-22.7-0.7","5b6cd50f9ee1a50001c5f481","B2","batch2","tol_tohand","1207","","","","","","","","","tol_peg_3","1207","1207","0","[[0,0,0],[2,1],[0]]","8","[[0,0,0],[1,2],[3]]","4","0","","","","","","7","","","","",""
"","","","","","single-stim-button","203","2423233","0.0-3.0-22.7-1.7","5b6cd50f9ee1a50001c5f481","B2","batch2","tol_toboard","1216","","","","","","","","","tol_peg_1","1216","1216","0","[[3,0,0],[2,1],[0]]","8","[[0,0,0],[1,2],[3]]","4","0","","","","","","7","","","","",""
"","","","","","single-stim-button","204","2424962","0.0-3.0-22.8-0.8","5b6cd50f9ee1a50001c5f481","B2","batch2","tol_tohand","1727","","","","","","","","","tol_peg_2","1727","1727","0","[[3,0,0],[2,0],[0]]","9","[[0,0,0],[1,2],[3]]","4","0","","","","","","7","","","","",""
"","","","","","single-stim-button","205","2426697","0.0-3.0-22.8-1.8","5b6cd50f9ee1a50001c5f481","B2","batch2","tol_toboard","1735","","","","","","","","","tol_peg_3","1735","1735","0","[[3,0,0],[2,0],[1]]","9","[[0,0,0],[1,2],[3]]","4","0","","","","","","7","","","","",""
"","","","","","single-stim-button","206","2430617","0.0-3.0-22.9-0.9","5b6cd50f9ee1a50001c5f481","B2","batch2","tol_tohand","3920","","","","","","","","","tol_peg_2","3920","3920","0","[[3,0,0],[0,0],[1]]","10","[[0,0,0],[1,2],[3]]","4","0","","","","","","7","","","","",""
"","","","","","single-stim-button","207","2431833","0.0-3.0-22.9-1.9","5b6cd50f9ee1a50001c5f481","B2","batch2","tol_toboard","1215","","","","","","","","","tol_peg_1","1215","1215","0","[[3,2,0],[0,0],[1]]","10","[[0,0,0],[1,2],[3]]","4","0","","","","","","7","","","","",""
"","","","","","single-stim-button","208","2435137","0.0-3.0-22.10-0.10","5b6cd50f9ee1a50001c5f481","B2","batch2","tol_tohand","3304","","","","","","","","","tol_peg_3","3304","3304","0","[[3,2,0],[0,0],[0]]","11","[[0,0,0],[1,2],[3]]","4","0","","","","","","7","","","","",""
"","","","","","single-stim-button","209","2436361","0.0-3.0-22.10-1.10","5b6cd50f9ee1a50001c5f481","B2","batch2","tol_toboard","1224","","","","","","","","","tol_peg_2","1224","1224","0","[[3,2,0],[1,0],[0]]","11","[[0,0,0],[1,2],[3]]","4","0","","","","","","7","","","","",""
"","","","","","single-stim-button","210","2437610","0.0-3.0-22.11-0.11","5b6cd50f9ee1a50001c5f481","B2","batch2","tol_tohand","1249","","","","","","","","","tol_peg_1","1249","1249","0","[[3,0,0],[1,0],[0]]","12","[[0,0,0],[1,2],[3]]","4","0","","","","","","7","","","","",""
"","","","","","single-stim-button","211","2438857","0.0-3.0-22.11-1.11","5b6cd50f9ee1a50001c5f481","B2","batch2","tol_toboard","1247","","","","","","","","","tol_peg_2","1247","1247","0","[[3,0,0],[1,2],[0]]","12","[[0,0,0],[1,2],[3]]","4","0","","","","","","7","","","","",""
"","","","","","single-stim-button","212","2440185","0.0-3.0-22.12-0.12","5b6cd50f9ee1a50001c5f481","B2","batch2","tol_tohand","1327","","","","","","","","","tol_peg_1","1327","1327","0","[[0,0,0],[1,2],[0]]","13","[[0,0,0],[1,2],[3]]","4","0","","","","","","7","","","","",""
"","","","","","single-stim-button","213","2441505","0.0-3.0-22.12-1.12","5b6cd50f9ee1a50001c5f481","B2","batch2","tol_toboard","1320","","","","","","","","","tol_peg_3","1320","1320","0","[[0,0,0],[1,2],[3]]","13","[[0,0,0],[1,2],[3]]","4","0","","","","","","7","","","","",""
"","","","","","poldrack-single-stim","214","2442520","0.0-3.0-23.0","5b6cd50f9ee1a50001c5f481","B2","batch2","tol_feedback","-1","","","","","true","","","","","1000","1000","500","","","","","","-1","none","true","15792","105190","","","","","",""
"","","","","","html-button-response","215","2443601","0.0-3.0-24.0","5b6cd50f9ee1a50001c5f481","B2","batch2","tol_trial_num","1080","<div class = centerbox><p class = center-block-text>problem <strong>6</strong> out of 25 problems</p></div>","0","","","","","","","","","","","","","","","","","","","","","","","","","",""
"","","","","","single-stim-button","216","2472289","0.0-3.0-25.0-0.0","5b6cd50f9ee1a50001c5f481","B2","batch2","tol_tohand","28687","","","","","","","","","tol_peg_3","28687","28687","0","[[0,0,0],[1,2],[0]]","1","[[1,0,0],[2,3],[0]]","5","0","","","","","","6","","","","",""
"","","","","","single-stim-button","217","2473177","0.0-3.0-25.0-1.0","5b6cd50f9ee1a50001c5f481","B2","batch2","tol_toboard","888","","","","","","","","","tol_peg_1","888","888","0","[[3,0,0],[1,2],[0]]","1","[[1,0,0],[2,3],[0]]","5","0","","","","","","6","","","","",""
"","","","","","single-stim-button","218","2478281","0.0-3.0-25.1-0.1","5b6cd50f9ee1a50001c5f481","B2","batch2","tol_tohand","5104","","","","","","","","","tol_peg_2","5104","5104","0","[[3,0,0],[1,0],[0]]","2","[[1,0,0],[2,3],[0]]","5","0","","","","","","6","","","","",""
"","","","","","single-stim-button","219","2479769","0.0-3.0-25.1-1.1","5b6cd50f9ee1a50001c5f481","B2","batch2","tol_toboard","1488","","","","","","","","","tol_peg_3","1488","1488","0","[[3,0,0],[1,0],[2]]","2","[[1,0,0],[2,3],[0]]","5","0","","","","","","6","","","","",""
"","","","","","single-stim-button","220","2495979","0.0-3.0-25.2-0.2","5b6cd50f9ee1a50001c5f481","B2","batch2","tol_tohand","16208","","","","","","","","","tol_peg_2","16208","16208","0","[[3,0,0],[0,0],[2]]","3","[[1,0,0],[2,3],[0]]","5","0","","","","","","6","","","","",""
"","","","","","single-stim-button","221","2497073","0.0-3.0-25.2-1.2","5b6cd50f9ee1a50001c5f481","B2","batch2","tol_toboard","1094","","","","","","","","","tol_peg_1","1094","1094","0","[[3,1,0],[0,0],[2]]","3","[[1,0,0],[2,3],[0]]","5","0","","","","","","6","","","","",""
"","","","","","single-stim-button","222","2502329","0.0-3.0-25.3-0.3","5b6cd50f9ee1a50001c5f481","B2","batch2","tol_tohand","5256","","","","","","","","","tol_peg_3","5256","5256","0","[[3,1,0],[0,0],[0]]","4","[[1,0,0],[2,3],[0]]","5","0","","","","","","6","","","","",""
"","","","","","single-stim-button","223","2503257","0.0-3.0-25.3-1.3","5b6cd50f9ee1a50001c5f481","B2","batch2","tol_toboard","928","","","","","","","","","tol_peg_2","928","928","0","[[3,1,0],[2,0],[0]]","4","[[1,0,0],[2,3],[0]]","5","0","","","","","","6","","","","",""
"","","","","","single-stim-button","224","2504282","0.0-3.0-25.4-0.4","5b6cd50f9ee1a50001c5f481","B2","batch2","tol_tohand","1024","","","","","","","","","tol_peg_1","1024","1024","0","[[3,0,0],[2,0],[0]]","5","[[1,0,0],[2,3],[0]]","5","0","","","","","","6","","","","",""
"","","","","","single-stim-button","225","2505169","0.0-3.0-25.4-1.4","5b6cd50f9ee1a50001c5f481","B2","batch2","tol_toboard","887","","","","","","","","","tol_peg_3","887","887","0","[[3,0,0],[2,0],[1]]","5","[[1,0,0],[2,3],[0]]","5","0","","","","","","6","","","","",""
"","","","","","single-stim-button","226","2507210","0.0-3.0-25.5-0.5","5b6cd50f9ee1a50001c5f481","B2","batch2","tol_tohand","2041","","","","","","","","","tol_peg_1","2041","2041","0","[[0,0,0],[2,0],[1]]","6","[[1,0,0],[2,3],[0]]","5","0","","","","","","6","","","","",""
"","","","","","single-stim-button","227","2508802","0.0-3.0-25.5-1.5","5b6cd50f9ee1a50001c5f481","B2","batch2","tol_toboard","1592","","","","","","","","","tol_peg_2","1592","1592","0","[[0,0,0],[2,3],[1]]","6","[[1,0,0],[2,3],[0]]","5","0","","","","","","6","","","","",""
"","","","","","single-stim-button","228","2510193","0.0-3.0-25.6-0.6","5b6cd50f9ee1a50001c5f481","B2","batch2","tol_tohand","1391","","","","","","","","","tol_peg_3","1391","1391","0","[[0,0,0],[2,3],[0]]","7","[[1,0,0],[2,3],[0]]","5","0","","","","","","6","","","","",""
"","","","","","single-stim-button","229","2511330","0.0-3.0-25.6-1.6","5b6cd50f9ee1a50001c5f481","B2","batch2","tol_toboard","1135","","","","","","","","","tol_peg_1","1135","1135","0","[[1,0,0],[2,3],[0]]","7","[[1,0,0],[2,3],[0]]","5","0","","","","","","6","","","","",""
"","","","","","poldrack-single-stim","230","2512334","0.0-3.0-26.0","5b6cd50f9ee1a50001c5f481","B2","batch2","tol_feedback","-1","","","","","true","","","","","1000","1000","500","","","","","","-1","none","true","28687","59711","","","","","",""
"","","","","","html-button-response","231","2514033","0.0-3.0-27.0","5b6cd50f9ee1a50001c5f481","B2","batch2","tol_trial_num","1697","<div class = centerbox><p class = center-block-text>problem <strong>7</strong> out of 25 problems</p></div>","0","","","","","","","","","","","","","","","","","","","","","","","","","",""
"","","","","","single-stim-button","232","2533145","0.0-3.0-28.0-0.0","5b6cd50f9ee1a50001c5f481","B2","batch2","tol_tohand","19111","","","","","","","","","tol_peg_3","19111","19111","0","[[2,1,0],[0,0],[0]]","1","[[1,2,0],[3,0],[0]]","6","0","","","","","","5","","","","",""
"","","","","","single-stim-button","233","2536618","0.0-3.0-28.0-1.0","5b6cd50f9ee1a50001c5f481","B2","batch2","tol_toboard","3473","","","","","","","","","tol_peg_2","3473","3473","0","[[2,1,0],[3,0],[0]]","1","[[1,2,0],[3,0],[0]]","6","0","","","","","","5","","","","",""
"","","","","","single-stim-button","234","2538130","0.0-3.0-28.1-0.1","5b6cd50f9ee1a50001c5f481","B2","batch2","tol_tohand","1512","","","","","","","","","tol_peg_1","1512","1512","0","[[2,0,0],[3,0],[0]]","2","[[1,2,0],[3,0],[0]]","6","0","","","","","","5","","","","",""
"","","","","","single-stim-button","235","2539618","0.0-3.0-28.1-1.1","5b6cd50f9ee1a50001c5f481","B2","batch2","tol_toboard","1488","","","","","","","","","tol_peg_3","1488","1488","0","[[2,0,0],[3,0],[1]]","2","[[1,2,0],[3,0],[0]]","6","0","","","","","","5","","","","",""
"","","","","","single-stim-button","236","2543689","0.0-3.0-28.2-0.2","5b6cd50f9ee1a50001c5f481","B2","batch2","tol_tohand","4071","","","","","","","","","tol_peg_1","4071","4071","0","[[0,0,0],[3,0],[1]]","3","[[1,2,0],[3,0],[0]]","6","0","","","","","","5","","","","",""
"","","","","","single-stim-button","237","2544977","0.0-3.0-28.2-1.2","5b6cd50f9ee1a50001c5f481","B2","batch2","tol_toboard","1288","","","","","","","","","tol_peg_2","1288","1288","0","[[0,0,0],[3,2],[1]]","3","[[1,2,0],[3,0],[0]]","6","0","","","","","","5","","","","",""
"","","","","","single-stim-button","238","2545906","0.0-3.0-28.3-0.3","5b6cd50f9ee1a50001c5f481","B2","batch2","tol_tohand","929","","","","","","","","","tol_peg_3","929","929","0","[[0,0,0],[3,2],[0]]","4","[[1,2,0],[3,0],[0]]","6","0","","","","","","5","","","","",""
"","","","","","single-stim-button","239","2546737","0.0-3.0-28.3-1.3","5b6cd50f9ee1a50001c5f481","B2","batch2","tol_toboard","831","","","","","","","","","tol_peg_1","831","831","0","[[1,0,0],[3,2],[0]]","4","[[1,2,0],[3,0],[0]]","6","0","","","","","","5","","","","",""
"","","","","","single-stim-button","240","2547641","0.0-3.0-28.4-0.4","5b6cd50f9ee1a50001c5f481","B2","batch2","tol_tohand","904","","","","","","","","","tol_peg_2","904","904","0","[[1,0,0],[3,0],[0]]","5","[[1,2,0],[3,0],[0]]","6","0","","","","","","5","","","","",""
"","","","","","single-stim-button","241","2548554","0.0-3.0-28.4-1.4","5b6cd50f9ee1a50001c5f481","B2","batch2","tol_toboard","912","","","","","","","","","tol_peg_1","912","912","0","[[1,2,0],[3,0],[0]]","5","[[1,2,0],[3,0],[0]]","6","0","","","","","","5","","","","",""
"","","","","","poldrack-single-stim","242","2549560","0.0-3.0-29.0","5b6cd50f9ee1a50001c5f481","B2","batch2","tol_feedback","-1","","","","","true","","","","","1000","1000","500","","","","","","-1","none","true","19111","26527","","","","","",""
"","","","","","html-button-response","243","2550857","0.0-3.0-30.0","5b6cd50f9ee1a50001c5f481","B2","batch2","tol_trial_num","1295","<div class = centerbox><p class = center-block-text>problem <strong>8</strong> out of 25 problems</p></div>","0","","","","","","","","","","","","","","","","","","","","","","","","","",""
"","","","","","single-stim-button","244","2557777","0.0-3.0-31.0-0.0","5b6cd50f9ee1a50001c5f481","B2","batch2","tol_tohand","6919","","","","","","","","","tol_peg_3","6919","6919","0","[[0,0,0],[2,3],[0]]","1","[[1,2,0],[3,0],[0]]","7","0","","","","","","4","","","","",""
"","","","","","single-stim-button","245","2559506","0.0-3.0-31.0-1.0","5b6cd50f9ee1a50001c5f481","B2","batch2","tol_toboard","1727","","","","","","","","","tol_peg_1","1727","1727","0","[[1,0,0],[2,3],[0]]","1","[[1,2,0],[3,0],[0]]","7","0","","","","","","4","","","","",""
"","","","","","single-stim-button","246","2560617","0.0-3.0-31.1-0.1","5b6cd50f9ee1a50001c5f481","B2","batch2","tol_tohand","1111","","","","","","","","","tol_peg_2","1111","1111","0","[[1,0,0],[2,0],[0]]","2","[[1,2,0],[3,0],[0]]","7","0","","","","","","4","","","","",""
"","","","","","single-stim-button","247","2562354","0.0-3.0-31.1-1.1","5b6cd50f9ee1a50001c5f481","B2","batch2","tol_toboard","1737","","","","","","","","","tol_peg_3","1737","1737","0","[[1,0,0],[2,0],[3]]","2","[[1,2,0],[3,0],[0]]","7","0","","","","","","4","","","","",""
"","","","","","single-stim-button","248","2563562","0.0-3.0-31.2-0.2","5b6cd50f9ee1a50001c5f481","B2","batch2","tol_tohand","1207","","","","","","","","","tol_peg_2","1207","1207","0","[[1,0,0],[0,0],[3]]","3","[[1,2,0],[3,0],[0]]","7","0","","","","","","4","","","","",""
"","","","","","single-stim-button","249","2565713","0.0-3.0-31.2-1.2","5b6cd50f9ee1a50001c5f481","B2","batch2","tol_toboard","2151","","","","","","","","","tol_peg_1","2151","2151","0","[[1,2,0],[0,0],[3]]","3","[[1,2,0],[3,0],[0]]","7","0","","","","","","4","","","","",""
"","","","","","single-stim-button","250","2566546","0.0-3.0-31.3-0.3","5b6cd50f9ee1a50001c5f481","B2","batch2","tol_tohand","831","","","","","","","","","tol_peg_3","831","831","0","[[1,2,0],[0,0],[0]]","4","[[1,2,0],[3,0],[0]]","7","0","","","","","","4","","","","",""
"","","","","","single-stim-button","251","2567530","0.0-3.0-31.3-1.3","5b6cd50f9ee1a50001c5f481","B2","batch2","tol_toboard","983","","","","","","","","","tol_peg_2","983","983","0","[[1,2,0],[3,0],[0]]","4","[[1,2,0],[3,0],[0]]","7","0","","","","","","4","","","","",""
"","","","","","poldrack-single-stim","252","2568539","0.0-3.0-32.0","5b6cd50f9ee1a50001c5f481","B2","batch2","tol_feedback","-1","","","","","true","","","","","1000","1000","500","","","","","","-1","none","true","6919","10068","","","","","",""
"","","","","","html-button-response","253","2569881","0.0-3.0-33.0","5b6cd50f9ee1a50001c5f481","B2","batch2","tol_trial_num","1341","<div class = centerbox><p class = center-block-text>problem <strong>9</strong> out of 25 problems</p></div>","0","","","","","","","","","","","","","","","","","","","","","","","","","",""
"","","","","","single-stim-button","254","2585594","0.0-3.0-34.0-0.0","5b6cd50f9ee1a50001c5f481","B2","batch2","tol_tohand","15711","","","","","","","","","tol_peg_1","15711","15711","0","[[3,0,0],[0,0],[1]]","1","[[2,1,0],[3,0],[0]]","8","0","","","","","","6","","","","",""
"","","","","","single-stim-button","255","2587401","0.0-3.0-34.0-1.0","5b6cd50f9ee1a50001c5f481","B2","batch2","tol_toboard","1807","","","","","","","","","tol_peg_2","1807","1807","0","[[3,0,0],[2,0],[1]]","1","[[2,1,0],[3,0],[0]]","8","0","","","","","","6","","","","",""
"","","","","","single-stim-button","256","2615433","0.0-3.0-34.1-0.1","5b6cd50f9ee1a50001c5f481","B2","batch2","tol_tohand","28032","","","","","","","","","tol_peg_3","28032","28032","0","[[3,0,0],[2,0],[0]]","2","[[2,1,0],[3,0],[0]]","8","0","","","","","","6","","","","",""
"","","","","","single-stim-button","257","2616817","0.0-3.0-34.1-1.1","5b6cd50f9ee1a50001c5f481","B2","batch2","tol_toboard","1383","","","","","","","","","tol_peg_2","1383","1383","0","[[3,0,0],[2,1],[0]]","2","[[2,1,0],[3,0],[0]]","8","0","","","","","","6","","","","",""
"","","","","","single-stim-button","258","2619249","0.0-3.0-34.2-0.2","5b6cd50f9ee1a50001c5f481","B2","batch2","tol_tohand","2432","","","","","","","","","tol_peg_1","2432","2432","0","[[0,0,0],[2,1],[0]]","3","[[2,1,0],[3,0],[0]]","8","0","","","","","","6","","","","",""
"","","","","","single-stim-button","259","2620562","0.0-3.0-34.2-1.2","5b6cd50f9ee1a50001c5f481","B2","batch2","tol_toboard","1313","","","","","","","","","tol_peg_3","1313","1313","0","[[0,0,0],[2,1],[3]]","3","[[2,1,0],[3,0],[0]]","8","0","","","","","","6","","","","",""
"","","","","","single-stim-button","260","2627817","0.0-3.0-34.3-0.3","5b6cd50f9ee1a50001c5f481","B2","batch2","tol_tohand","7255","","","","","","","","","tol_peg_2","7255","7255","0","[[0,0,0],[2,0],[3]]","4","[[2,1,0],[3,0],[0]]","8","0","","","","","","6","","","","",""
"","","","","","single-stim-button","261","2629858","0.0-3.0-34.3-1.3","5b6cd50f9ee1a50001c5f481","B2","batch2","tol_toboard","2041","","","","","","","","","tol_peg_1","2041","2041","0","[[1,0,0],[2,0],[3]]","4","[[2,1,0],[3,0],[0]]","8","0","","","","","","6","","","","",""
"","","","","","single-stim-button","262","2632882","0.0-3.0-34.4-0.4","5b6cd50f9ee1a50001c5f481","B2","batch2","tol_tohand","3023","","","","","","","","","tol_peg_2","3023","3023","0","[[1,0,0],[0,0],[3]]","5","[[2,1,0],[3,0],[0]]","8","0","","","","","","6","","","","",""
"","","","","","single-stim-button","263","2634122","0.0-3.0-34.4-1.4","5b6cd50f9ee1a50001c5f481","B2","batch2","tol_toboard","1240","","","","","","","","","tol_peg_1","1240","1240","0","[[1,2,0],[0,0],[3]]","5","[[2,1,0],[3,0],[0]]","8","0","","","","","","6","","","","",""
"","","","","","single-stim-button","264","2639523","0.0-3.0-34.5-0.5","5b6cd50f9ee1a50001c5f481","B2","batch2","tol_tohand","5400","","","","","","","","","tol_peg_3","5400","5400","0","[[1,2,0],[0,0],[0]]","6","[[2,1,0],[3,0],[0]]","8","0","","","","","","6","","","","",""
"","","","","","single-stim-button","265","2640433","0.0-3.0-34.5-1.5","5b6cd50f9ee1a50001c5f481","B2","batch2","tol_toboard","910","","","","","","","","","tol_peg_2","910","910","0","[[1,2,0],[3,0],[0]]","6","[[2,1,0],[3,0],[0]]","8","0","","","","","","6","","","","",""
"","","","","","single-stim-button","266","2641338","0.0-3.0-34.6-0.6","5b6cd50f9ee1a50001c5f481","B2","batch2","tol_tohand","904","","","","","","","","","tol_peg_1","904","904","0","[[1,0,0],[3,0],[0]]","7","[[2,1,0],[3,0],[0]]","8","0","","","","","","6","","","","",""
"","","","","","single-stim-button","267","2642385","0.0-3.0-34.6-1.6","5b6cd50f9ee1a50001c5f481","B2","batch2","tol_toboard","1047","","","","","","","","","tol_peg_3","1047","1047","0","[[1,0,0],[3,0],[2]]","7","[[2,1,0],[3,0],[0]]","8","0","","","","","","6","","","","",""
"","","","","","single-stim-button","268","2643545","0.0-3.0-34.7-0.7","5b6cd50f9ee1a50001c5f481","B2","batch2","tol_tohand","1160","","","","","","","","","tol_peg_1","1160","1160","0","[[0,0,0],[3,0],[2]]","8","[[2,1,0],[3,0],[0]]","8","0","","","","","","6","","","","",""
"","","","","","single-stim-button","269","2644618","0.0-3.0-34.7-1.7","5b6cd50f9ee1a50001c5f481","B2","batch2","tol_toboard","1073","","","","","","","","","tol_peg_2","1073","1073","0","[[0,0,0],[3,1],[2]]","8","[[2,1,0],[3,0],[0]]","8","0","","","","","","6","","","","",""
"","","","","","single-stim-button","270","2645314","0.0-3.0-34.8-0.8","5b6cd50f9ee1a50001c5f481","B2","batch2","tol_tohand","696","","","","","","","","","tol_peg_3","696","696","0","[[0,0,0],[3,1],[0]]","9","[[2,1,0],[3,0],[0]]","8","0","","","","","","6","","","","",""
"","","","","","single-stim-button","271","2646290","0.0-3.0-34.8-1.8","5b6cd50f9ee1a50001c5f481","B2","batch2","tol_toboard","974","","","","","","","","","tol_peg_1","974","974","0","[[2,0,0],[3,1],[0]]","9","[[2,1,0],[3,0],[0]]","8","0","","","","","","6","","","","",""
"","","","","","single-stim-button","272","2646962","0.0-3.0-34.9-0.9","5b6cd50f9ee1a50001c5f481","B2","batch2","tol_tohand","671","","","","","","","","","tol_peg_2","671","671","0","[[2,0,0],[3,0],[0]]","10","[[2,1,0],[3,0],[0]]","8","0","","","","","","6","","","","",""
"","","","","","single-stim-button","273","2647850","0.0-3.0-34.9-1.9","5b6cd50f9ee1a50001c5f481","B2","batch2","tol_toboard","888","","","","","","","","","tol_peg_1","888","888","0","[[2,1,0],[3,0],[0]]","10","[[2,1,0],[3,0],[0]]","8","0","","","","","","6","","","","",""
"","","","","","poldrack-single-stim","274","2648858","0.0-3.0-35.0","5b6cd50f9ee1a50001c5f481","B2","batch2","tol_feedback","-1","","","","","true","","","","","1000","1000","500","","","","","","-1","none","true","15711","65284","","","","","",""
"","","","","","html-button-response","275","2653257","0.0-3.0-36.0","5b6cd50f9ee1a50001c5f481","B2","batch2","tol_trial_num","4398","<div class = centerbox><p class = center-block-text>problem <strong>10</strong> out of 25 problems</p></div>","0","","","","","","","","","","","","","","","","","","","","","","","","","",""
"","","","","","single-stim-button","276","2669426","0.0-3.0-37.0-0.0","5b6cd50f9ee1a50001c5f481","B2","batch2","tol_tohand","16168","","","","","","","","","tol_peg_2","16168","16168","0","[[3,0,0],[0,0],[2]]","1","[[3,0,0],[2,1],[0]]","9","0","","","","","","3","","","","",""
"","","","","","single-stim-button","277","2670362","0.0-3.0-37.0-1.0","5b6cd50f9ee1a50001c5f481","B2","batch2","tol_toboard","935","","","","","","","","","tol_peg_1","935","935","0","[[3,1,0],[0,0],[2]]","1","[[3,0,0],[2,1],[0]]","9","0","","","","","","3","","","","",""
"","","","","","single-stim-button","278","2671370","0.0-3.0-37.1-0.1","5b6cd50f9ee1a50001c5f481","B2","batch2","tol_tohand","1007","","","","","","","","","tol_peg_3","1007","1007","0","[[3,1,0],[0,0],[0]]","2","[[3,0,0],[2,1],[0]]","9","0","","","","","","3","","","","",""
"","","","","","single-stim-button","279","2672378","0.0-3.0-37.1-1.1","5b6cd50f9ee1a50001c5f481","B2","batch2","tol_toboard","1007","","","","","","","","","tol_peg_2","1007","1007","0","[[3,1,0],[2,0],[0]]","2","[[3,0,0],[2,1],[0]]","9","0","","","","","","3","","","","",""
"","","","","","single-stim-button","280","2673257","0.0-3.0-37.2-0.2","5b6cd50f9ee1a50001c5f481","B2","batch2","tol_tohand","879","","","","","","","","","tol_peg_1","879","879","0","[[3,0,0],[2,0],[0]]","3","[[3,0,0],[2,1],[0]]","9","0","","","","","","3","","","","",""
"","","","","","single-stim-button","281","2674162","0.0-3.0-37.2-1.2","5b6cd50f9ee1a50001c5f481","B2","batch2","tol_toboard","905","","","","","","","","","tol_peg_2","905","905","0","[[3,0,0],[2,1],[0]]","3","[[3,0,0],[2,1],[0]]","9","0","","","","","","3","","","","",""
"","","","","","poldrack-single-stim","282","2675167","0.0-3.0-38.0","5b6cd50f9ee1a50001c5f481","B2","batch2","tol_feedback","-1","","","","","true","","","","","1000","1000","500","","","","","","-1","none","true","16168","18054","","","","","",""
"","","","","","html-button-response","283","2676945","0.0-3.0-39.0","5b6cd50f9ee1a50001c5f481","B2","batch2","tol_trial_num","1778","<div class = centerbox><p class = center-block-text>problem <strong>11</strong> out of 25 problems</p></div>","0","","","","","","","","","","","","","","","","","","","","","","","","","",""
"","","","","","single-stim-button","284","2690450","0.0-3.0-40.0-0.0","5b6cd50f9ee1a50001c5f481","B2","batch2","tol_tohand","13504","","","","","","","","","tol_peg_1","13504","13504","0","[[1,0,0],[3,0],[0]]","1","[[2,0,0],[1,3],[0]]","10","0","","","","","","6","","","","",""
"","","","","","single-stim-button","285","2699410","0.0-3.0-40.0-1.0","5b6cd50f9ee1a50001c5f481","B2","batch2","tol_toboard","8960","","","","","","","","","tol_peg_3","8960","8960","0","[[1,0,0],[3,0],[2]]","1","[[2,0,0],[1,3],[0]]","10","0","","","","","","6","","","","",""
"","","","","","single-stim-button","286","2704490","0.0-3.0-40.1-0.1","5b6cd50f9ee1a50001c5f481","B2","batch2","tol_tohand","5079","","","","","","","","","tol_peg_1","5079","5079","0","[[0,0,0],[3,0],[2]]","2","[[2,0,0],[1,3],[0]]","10","0","","","","","","6","","","","",""
"","","","","","single-stim-button","287","2707922","0.0-3.0-40.1-1.1","5b6cd50f9ee1a50001c5f481","B2","batch2","tol_toboard","3432","","","","","","","","","tol_peg_2","3432","3432","0","[[0,0,0],[3,1],[2]]","2","[[2,0,0],[1,3],[0]]","10","0","","","","","","6","","","","",""
"","","","","","single-stim-button","288","2709865","0.0-3.0-40.2-0.2","5b6cd50f9ee1a50001c5f481","B2","batch2","tol_tohand","1943","","","","","","","","","tol_peg_3","1943","1943","0","[[0,0,0],[3,1],[0]]","3","[[2,0,0],[1,3],[0]]","10","0","","","","","","6","","","","",""
"","","","","","single-stim-button","289","2710994","0.0-3.0-40.2-1.2","5b6cd50f9ee1a50001c5f481","B2","batch2","tol_toboard","1129","","","","","","","","","tol_peg_1","1129","1129","0","[[2,0,0],[3,1],[0]]","3","[[2,0,0],[1,3],[0]]","10","0","","","","","","6","","","","",""
"","","","","","single-stim-button","290","2717425","0.0-3.0-40.3-0.3","5b6cd50f9ee1a50001c5f481","B2","batch2","tol_tohand","6431","","","","","","","","","tol_peg_2","6431","6431","0","[[2,0,0],[3,0],[0]]","4","[[2,0,0],[1,3],[0]]","10","0","","","","","","6","","","","",""
"","","","","","single-stim-button","291","2718250","0.0-3.0-40.3-1.3","5b6cd50f9ee1a50001c5f481","B2","batch2","tol_toboard","824","","","","","","","","","tol_peg_1","824","824","0","[[2,1,0],[3,0],[0]]","4","[[2,0,0],[1,3],[0]]","10","0","","","","","","6","","","","",""
"","","","","","single-stim-button","292","2719714","0.0-3.0-40.4-0.4","5b6cd50f9ee1a50001c5f481","B2","batch2","tol_tohand","1464","","","","","","","","","tol_peg_2","1464","1464","0","[[2,1,0],[0,0],[0]]","5","[[2,0,0],[1,3],[0]]","10","0","","","","","","6","","","","",""
"","","","","","single-stim-button","293","2720730","0.0-3.0-40.4-1.4","5b6cd50f9ee1a50001c5f481","B2","batch2","tol_toboard","1016","","","","","","","","","tol_peg_3","1016","1016","0","[[2,1,0],[0,0],[3]]","5","[[2,0,0],[1,3],[0]]","10","0","","","","","","6","","","","",""
"","","","","","single-stim-button","294","2721714","0.0-3.0-40.5-0.5","5b6cd50f9ee1a50001c5f481","B2","batch2","tol_tohand","983","","","","","","","","","tol_peg_1","983","983","0","[[2,0,0],[0,0],[3]]","6","[[2,0,0],[1,3],[0]]","10","0","","","","","","6","","","","",""
"","","","","","single-stim-button","295","2722697","0.0-3.0-40.5-1.5","5b6cd50f9ee1a50001c5f481","B2","batch2","tol_toboard","983","","","","","","","","","tol_peg_2","983","983","0","[[2,0,0],[1,0],[3]]","6","[[2,0,0],[1,3],[0]]","10","0","","","","","","6","","","","",""
"","","","","","single-stim-button","296","2723857","0.0-3.0-40.6-0.6","5b6cd50f9ee1a50001c5f481","B2","batch2","tol_tohand","1160","","","","","","","","","tol_peg_3","1160","1160","0","[[2,0,0],[1,0],[0]]","7","[[2,0,0],[1,3],[0]]","10","0","","","","","","6","","","","",""
"","","","","","single-stim-button","297","2724770","0.0-3.0-40.6-1.6","5b6cd50f9ee1a50001c5f481","B2","batch2","tol_toboard","912","","","","","","","","","tol_peg_2","912","912","0","[[2,0,0],[1,3],[0]]","7","[[2,0,0],[1,3],[0]]","10","0","","","","","","6","","","","",""
"","","","","","poldrack-single-stim","298","2725779","0.0-3.0-41.0","5b6cd50f9ee1a50001c5f481","B2","batch2","tol_feedback","-1","","","","","true","","","","","1000","1000","500","","","","","","-1","none","true","13504","30564","","","","","",""
"","","","","","html-button-response","299","2727050","0.0-3.0-42.0","5b6cd50f9ee1a50001c5f481","B2","batch2","tol_trial_num","1271","<div class = centerbox><p class = center-block-text>problem <strong>12</strong> out of 25 problems</p></div>","0","","","","","","","","","","","","","","","","","","","","","","","","","",""
"","","","","","single-stim-button","300","2736785","0.0-3.0-43.0-0.0","5b6cd50f9ee1a50001c5f481","B2","batch2","tol_tohand","9735","","","","","","","","","tol_peg_1","9735","9735","0","[[1,0,0],[3,0],[0]]","1","[[2,3,0],[0,0],[1]]","11","0","","","","","","4","","","","",""
"","","","","","single-stim-button","301","2737722","0.0-3.0-43.0-1.0","5b6cd50f9ee1a50001c5f481","B2","batch2","tol_toboard","937","","","","","","","","","tol_peg_2","937","937","0","[[1,0,0],[3,2],[0]]","1","[[2,3,0],[0,0],[1]]","11","0","","","","","","4","","","","",""
"","","","","","single-stim-button","302","2738970","0.0-3.0-43.1-0.1","5b6cd50f9ee1a50001c5f481","B2","batch2","tol_tohand","1248","","","","","","","","","tol_peg_1","1248","1248","0","[[0,0,0],[3,2],[0]]","2","[[2,3,0],[0,0],[1]]","11","0","","","","","","4","","","","",""
"","","","","","single-stim-button","303","2740625","0.0-3.0-43.1-1.1","5b6cd50f9ee1a50001c5f481","B2","batch2","tol_toboard","1655","","","","","","","","","tol_peg_3","1655","1655","0","[[0,0,0],[3,2],[1]]","2","[[2,3,0],[0,0],[1]]","11","0","","","","","","4","","","","",""
"","","","","","single-stim-button","304","2746417","0.0-3.0-43.2-0.2","5b6cd50f9ee1a50001c5f481","B2","batch2","tol_tohand","5791","","","","","","","","","tol_peg_2","5791","5791","0","[[0,0,0],[3,0],[1]]","3","[[2,3,0],[0,0],[1]]","11","0","","","","","","4","","","","",""
"","","","","","single-stim-button","305","2755866","0.0-3.0-43.2-1.2","5b6cd50f9ee1a50001c5f481","B2","batch2","tol_toboard","9449","","","","","","","","","tol_peg_1","9449","9449","0","[[2,0,0],[3,0],[1]]","3","[[2,3,0],[0,0],[1]]","11","0","","","","","","4","","","","",""
"","","","","","single-stim-button","306","2758506","0.0-3.0-43.3-0.3","5b6cd50f9ee1a50001c5f481","B2","batch2","tol_tohand","2640","","","","","","","","","tol_peg_2","2640","2640","0","[[2,0,0],[0,0],[1]]","4","[[2,3,0],[0,0],[1]]","11","0","","","","","","4","","","","",""
"","","","","","single-stim-button","307","2759553","0.0-3.0-43.3-1.3","5b6cd50f9ee1a50001c5f481","B2","batch2","tol_toboard","1047","","","","","","","","","tol_peg_1","1047","1047","0","[[2,3,0],[0,0],[1]]","4","[[2,3,0],[0,0],[1]]","11","0","","","","","","4","","","","",""
"","","","","","poldrack-single-stim","308","2760557","0.0-3.0-44.0","5b6cd50f9ee1a50001c5f481","B2","batch2","tol_feedback","-1","","","","","true","","","","","1000","1000","500","","","","","","-1","none","true","9735","19414","","","","","",""
"","","","","","html-button-response","309","2762265","0.0-3.0-45.0","5b6cd50f9ee1a50001c5f481","B2","batch2","tol_trial_num","1707","<div class = centerbox><p class = center-block-text>problem <strong>13</strong> out of 25 problems</p></div>","0","","","","","","","","","","","","","","","","","","","","","","","","","",""
"","","","","","single-stim-button","310","2774042","0.0-3.0-46.0-0.0","5b6cd50f9ee1a50001c5f481","B2","batch2","tol_tohand","11775","","","","","","","","","tol_peg_1","11775","11775","0","[[1,0,0],[3,0],[0]]","1","[[0,0,0],[2,3],[1]]","12","0","","","","","","4","","","","",""
"","","","","","single-stim-button","311","2775401","0.0-3.0-46.0-1.0","5b6cd50f9ee1a50001c5f481","B2","batch2","tol_toboard","1359","","","","","","","","","tol_peg_3","1359","1359","0","[[1,0,0],[3,0],[2]]","1","[[0,0,0],[2,3],[1]]","12","0","","","","","","4","","","","",""
"","","","","","single-stim-button","312","2787458","0.0-3.0-46.1-0.1","5b6cd50f9ee1a50001c5f481","B2","batch2","tol_tohand","12057","","","","","","","","","tol_peg_2","12057","12057","0","[[1,0,0],[0,0],[2]]","2","[[0,0,0],[2,3],[1]]","12","0","","","","","","4","","","","",""
"","","","","","single-stim-button","313","2788690","0.0-3.0-46.1-1.1","5b6cd50f9ee1a50001c5f481","B2","batch2","tol_toboard","1232","","","","","","","","","tol_peg_1","1232","1232","0","[[1,3,0],[0,0],[2]]","2","[[0,0,0],[2,3],[1]]","12","0","","","","","","4","","","","",""
"","","","","","single-stim-button","314","2789809","0.0-3.0-46.2-0.2","5b6cd50f9ee1a50001c5f481","B2","batch2","tol_tohand","1119","","","","","","","","","tol_peg_3","1119","1119","0","[[1,3,0],[0,0],[0]]","3","[[0,0,0],[2,3],[1]]","12","0","","","","","","4","","","","",""
"","","","","","single-stim-button","315","2790642","0.0-3.0-46.2-1.2","5b6cd50f9ee1a50001c5f481","B2","batch2","tol_toboard","832","","","","","","","","","tol_peg_2","832","832","0","[[1,3,0],[2,0],[0]]","3","[[0,0,0],[2,3],[1]]","12","0","","","","","","4","","","","",""
"","","","","","single-stim-button","316","2793418","0.0-3.0-46.3-0.3","5b6cd50f9ee1a50001c5f481","B2","batch2","tol_tohand","2776","","","","","","","","","tol_peg_1","2776","2776","0","[[1,0,0],[2,0],[0]]","4","[[0,0,0],[2,3],[1]]","12","0","","","","","","4","","","","",""
"","","","","","single-stim-button","317","2794186","0.0-3.0-46.3-1.3","5b6cd50f9ee1a50001c5f481","B2","batch2","tol_toboard","768","","","","","","","","","tol_peg_2","768","768","0","[[1,0,0],[2,3],[0]]","4","[[0,0,0],[2,3],[1]]","12","0","","","","","","4","","","","",""
"","","","","","single-stim-button","318","2794914","0.0-3.0-46.4-0.4","5b6cd50f9ee1a50001c5f481","B2","batch2","tol_tohand","728","","","","","","","","","tol_peg_1","728","728","0","[[0,0,0],[2,3],[0]]","5","[[0,0,0],[2,3],[1]]","12","0","","","","","","4","","","","",""
"","","","","","single-stim-button","319","2795922","0.0-3.0-46.4-1.4","5b6cd50f9ee1a50001c5f481","B2","batch2","tol_toboard","1008","","","","","","","","","tol_peg_3","1008","1008","0","[[0,0,0],[2,3],[1]]","5","[[0,0,0],[2,3],[1]]","12","0","","","","","","4","","","","",""
"","","","","","poldrack-single-stim","320","2796935","0.0-3.0-47.0","5b6cd50f9ee1a50001c5f481","B2","batch2","tol_feedback","-1","","","","","true","","","","","1000","1000","500","","","","","","-1","none","true","11775","28455","","","","","",""
"","","","","","html-button-response","321","2808129","0.0-3.0-48.0","5b6cd50f9ee1a50001c5f481","B2","batch2","attention_check","11196","<p class = block-text>How many balls are in your board<br></p>","1","","","true","","","","","","","","","","","","","","","","","","","","","","",""
"","","","","","html-button-response","322","2811225","0.0-3.0-49.0","5b6cd50f9ee1a50001c5f481","B2","batch2","tol_trial_num","3094","<div class = centerbox><p class = center-block-text>problem <strong>14</strong> out of 25 problems</p></div>","0","","","","","","","","","","","","","","","","","","","","","","","","","",""
"","","","","","single-stim-button","323","2829851","0.0-3.0-50.0-0.0","5b6cd50f9ee1a50001c5f481","B2","batch2","tol_tohand","18625","","","","","","","","","tol_peg_1","18625","18625","0","[[2,0,0],[3,0],[0]]","1","[[1,2,0],[3,0],[0]]","13","0","","","","","","4","","","","",""
"","","","","","single-stim-button","324","2830659","0.0-3.0-50.0-1.0","5b6cd50f9ee1a50001c5f481","B2","batch2","tol_toboard","808","","","","","","","","","tol_peg_3","808","808","0","[[2,0,0],[3,0],[1]]","1","[[1,2,0],[3,0],[0]]","13","0","","","","","","4","","","","",""
"","","","","","single-stim-button","325","2831794","0.0-3.0-50.1-0.1","5b6cd50f9ee1a50001c5f481","B2","batch2","tol_tohand","1135","","","","","","","","","tol_peg_1","1135","1135","0","[[0,0,0],[3,0],[1]]","2","[[1,2,0],[3,0],[0]]","13","0","","","","","","4","","","","",""
"","","","","","single-stim-button","326","2832722","0.0-3.0-50.1-1.1","5b6cd50f9ee1a50001c5f481","B2","batch2","tol_toboard","928","","","","","","","","","tol_peg_2","928","928","0","[[0,0,0],[3,2],[1]]","2","[[1,2,0],[3,0],[0]]","13","0","","","","","","4","","","","",""
"","","","","","single-stim-button","327","2834850","0.0-3.0-50.2-0.2","5b6cd50f9ee1a50001c5f481","B2","batch2","tol_tohand","2128","","","","","","","","","tol_peg_3","2128","2128","0","[[0,0,0],[3,2],[0]]","3","[[1,2,0],[3,0],[0]]","13","0","","","","","","4","","","","",""
"","","","","","single-stim-button","328","2836378","0.0-3.0-50.2-1.2","5b6cd50f9ee1a50001c5f481","B2","batch2","tol_toboard","1528","","","","","","","","","tol_peg_1","1528","1528","0","[[1,0,0],[3,2],[0]]","3","[[1,2,0],[3,0],[0]]","13","0","","","","","","4","","","","",""
"","","","","","single-stim-button","329","2837186","0.0-3.0-50.3-0.3","5b6cd50f9ee1a50001c5f481","B2","batch2","tol_tohand","808","","","","","","","","","tol_peg_2","808","808","0","[[1,0,0],[3,0],[0]]","4","[[1,2,0],[3,0],[0]]","13","0","","","","","","4","","","","",""
"","","","","","single-stim-button","330","2837970","0.0-3.0-50.3-1.3","5b6cd50f9ee1a50001c5f481","B2","batch2","tol_toboard","784","","","","","","","","","tol_peg_1","784","784","0","[[1,2,0],[3,0],[0]]","4","[[1,2,0],[3,0],[0]]","13","0","","","","","","4","","","","",""
"","","","","","poldrack-single-stim","331","2838975","0.0-3.0-51.0","5b6cd50f9ee1a50001c5f481","B2","batch2","tol_feedback","-1","","","","","true","","","","","1000","1000","500","","","","","","-1","none","true","18625","22696","","","","","",""
"","","","","","html-button-response","332","2840562","0.0-3.0-52.0","5b6cd50f9ee1a50001c5f481","B2","batch2","tol_trial_num","1587","<div class = centerbox><p class = center-block-text>problem <strong>15</strong> out of 25 problems</p></div>","0","","","","","","","","","","","","","","","","","","","","","","","","","",""
"","","","","","single-stim-button","333","2852193","0.0-3.0-53.0-0.0","5b6cd50f9ee1a50001c5f481","B2","batch2","tol_tohand","11631","","","","","","","","","tol_peg_1","11631","11631","0","[[1,0,0],[3,0],[0]]","1","[[2,0,0],[3,0],[1]]","14","0","","","","","","3","","","","",""
"","","","","","single-stim-button","334","2853306","0.0-3.0-53.0-1.0","5b6cd50f9ee1a50001c5f481","B2","batch2","tol_toboard","1113","","","","","","","","","tol_peg_2","1113","1113","0","[[1,0,0],[3,2],[0]]","1","[[2,0,0],[3,0],[1]]","14","0","","","","","","3","","","","",""
"","","","","","single-stim-button","335","2854530","0.0-3.0-53.1-0.1","5b6cd50f9ee1a50001c5f481","B2","batch2","tol_tohand","1224","","","","","","","","","tol_peg_1","1224","1224","0","[[0,0,0],[3,2],[0]]","2","[[2,0,0],[3,0],[1]]","14","0","","","","","","3","","","","",""
"","","","","","single-stim-button","336","2855642","0.0-3.0-53.1-1.1","5b6cd50f9ee1a50001c5f481","B2","batch2","tol_toboard","1112","","","","","","","","","tol_peg_3","1112","1112","0","[[0,0,0],[3,2],[1]]","2","[[2,0,0],[3,0],[1]]","14","0","","","","","","3","","","","",""
"","","","","","single-stim-button","337","2857858","0.0-3.0-53.2-0.2","5b6cd50f9ee1a50001c5f481","B2","batch2","tol_tohand","2216","","","","","","","","","tol_peg_2","2216","2216","0","[[0,0,0],[3,0],[1]]","3","[[2,0,0],[3,0],[1]]","14","0","","","","","","3","","","","",""
"","","","","","single-stim-button","338","2858914","0.0-3.0-53.2-1.2","5b6cd50f9ee1a50001c5f481","B2","batch2","tol_toboard","1056","","","","","","","","","tol_peg_1","1056","1056","0","[[2,0,0],[3,0],[1]]","3","[[2,0,0],[3,0],[1]]","14","0","","","","","","3","","","","",""
"","","","","","poldrack-single-stim","339","2859919","0.0-3.0-54.0","5b6cd50f9ee1a50001c5f481","B2","batch2","tol_feedback","-1","","","","","true","","","","","1000","1000","500","","","","","","-1","none","true","11631","15071","","","","","",""
"","","","","","html-button-response","340","2861026","0.0-3.0-55.0","5b6cd50f9ee1a50001c5f481","B2","batch2","tol_trial_num","1107","<div class = centerbox><p class = center-block-text>problem <strong>16</strong> out of 25 problems</p></div>","0","","","","","","","","","","","","","","","","","","","","","","","","","",""
"","","","","","single-stim-button","341","2878554","0.0-3.0-56.0-0.0","5b6cd50f9ee1a50001c5f481","B2","batch2","tol_tohand","17528","","","","","","","","","tol_peg_2","17528","17528","0","[[0,0,0],[2,0],[1]]","1","[[2,3,0],[1,0],[0]]","15","0","","","","","","7","","","","",""
"","","","","","single-stim-button","342","2884386","0.0-3.0-56.0-1.0","5b6cd50f9ee1a50001c5f481","B2","batch2","tol_toboard","5831","","","","","","","","","tol_peg_1","5831","5831","0","[[3,0,0],[2,0],[1]]","1","[[2,3,0],[1,0],[0]]","15","0","","","","","","7","","","","",""
"","","","","","single-stim-button","343","2898474","0.0-3.0-56.1-0.1","5b6cd50f9ee1a50001c5f481","B2","batch2","tol_tohand","14087","","","","","","","","","tol_peg_1","14087","14087","0","[[0,0,0],[2,0],[1]]","2","[[2,3,0],[1,0],[0]]","15","0","","","","","","7","","","","",""
"","","","","","single-stim-button","344","2900114","0.0-3.0-56.1-1.1","5b6cd50f9ee1a50001c5f481","B2","batch2","tol_toboard","1640","","","","","","","","","tol_peg_2","1640","1640","0","[[0,0,0],[2,3],[1]]","2","[[2,3,0],[1,0],[0]]","15","0","","","","","","7","","","","",""
"","","","","","single-stim-button","345","2901810","0.0-3.0-56.2-0.2","5b6cd50f9ee1a50001c5f481","B2","batch2","tol_tohand","1696","","","","","","","","","tol_peg_3","1696","1696","0","[[0,0,0],[2,3],[0]]","3","[[2,3,0],[1,0],[0]]","15","0","","","","","","7","","","","",""
"","","","","","single-stim-button","346","2903058","0.0-3.0-56.2-1.2","5b6cd50f9ee1a50001c5f481","B2","batch2","tol_toboard","1248","","","","","","","","","tol_peg_1","1248","1248","0","[[1,0,0],[2,3],[0]]","3","[[2,3,0],[1,0],[0]]","15","0","","","","","","7","","","","",""
"","","","","","single-stim-button","347","2907746","0.0-3.0-56.3-0.3","5b6cd50f9ee1a50001c5f481","B2","batch2","tol_tohand","4688","","","","","","","","","tol_peg_2","4688","4688","0","[[1,0,0],[2,0],[0]]","4","[[2,3,0],[1,0],[0]]","15","0","","","","","","7","","","","",""
"","","","","","single-stim-button","348","2909171","0.0-3.0-56.3-1.3","5b6cd50f9ee1a50001c5f481","B2","batch2","tol_toboard","1425","","","","","","","","","tol_peg_3","1425","1425","0","[[1,0,0],[2,0],[3]]","4","[[2,3,0],[1,0],[0]]","15","0","","","","","","7","","","","",""
"","","","","","single-stim-button","349","2918522","0.0-3.0-56.4-0.4","5b6cd50f9ee1a50001c5f481","B2","batch2","tol_tohand","9351","","","","","","","","","tol_peg_1","9351","9351","0","[[0,0,0],[2,0],[3]]","5","[[2,3,0],[1,0],[0]]","15","0","","","","","","7","","","","",""
"","","","","","single-stim-button","350","2926923","0.0-3.0-56.4-1.4","5b6cd50f9ee1a50001c5f481","B2","batch2","tol_toboard","8400","","","","","","","","","tol_peg_2","8400","8400","0","[[0,0,0],[2,1],[3]]","5","[[2,3,0],[1,0],[0]]","15","0","","","","","","7","","","","",""
"","","","","","single-stim-button","351","2931554","0.0-3.0-56.5-0.5","5b6cd50f9ee1a50001c5f481","B2","batch2","tol_tohand","4631","","","","","","","","","tol_peg_3","4631","4631","0","[[0,0,0],[2,1],[0]]","6","[[2,3,0],[1,0],[0]]","15","0","","","","","","7","","","","",""
"","","","","","single-stim-button","352","2932570","0.0-3.0-56.5-1.5","5b6cd50f9ee1a50001c5f481","B2","batch2","tol_toboard","1015","","","","","","","","","tol_peg_1","1015","1015","0","[[3,0,0],[2,1],[0]]","6","[[2,3,0],[1,0],[0]]","15","0","","","","","","7","","","","",""
"","","","","","single-stim-button","353","2934410","0.0-3.0-56.6-0.6","5b6cd50f9ee1a50001c5f481","B2","batch2","tol_tohand","1840","","","","","","","","","tol_peg_2","1840","1840","0","[[3,0,0],[2,0],[0]]","7","[[2,3,0],[1,0],[0]]","15","0","","","","","","7","","","","",""
"","","","","","single-stim-button","354","2935809","0.0-3.0-56.6-1.6","5b6cd50f9ee1a50001c5f481","B2","batch2","tol_toboard","1399","","","","","","","","","tol_peg_3","1399","1399","0","[[3,0,0],[2,0],[1]]","7","[[2,3,0],[1,0],[0]]","15","0","","","","","","7","","","","",""
"","","","","","single-stim-button","355","2963818","0.0-3.0-56.7-0.7","5b6cd50f9ee1a50001c5f481","B2","batch2","tol_tohand","28007","","","","","","","","","tol_peg_2","28007","28007","0","[[3,0,0],[0,0],[1]]","8","[[2,3,0],[1,0],[0]]","15","0","","","","","","7","","","","",""
"","","","","","single-stim-button","356","2969490","0.0-3.0-56.7-1.7","5b6cd50f9ee1a50001c5f481","B2","batch2","tol_toboard","5671","","","","","","","","","tol_peg_1","5671","5671","0","[[3,2,0],[0,0],[1]]","8","[[2,3,0],[1,0],[0]]","15","0","","","","","","7","","","","",""
"","","","","","single-stim-button","357","2971178","0.0-3.0-56.8-0.8","5b6cd50f9ee1a50001c5f481","B2","batch2","tol_tohand","1688","","","","","","","","","tol_peg_3","1688","1688","0","[[3,2,0],[0,0],[0]]","9","[[2,3,0],[1,0],[0]]","15","0","","","","","","7","","","","",""
"","","","","","single-stim-button","358","2972826","0.0-3.0-56.8-1.8","5b6cd50f9ee1a50001c5f481","B2","batch2","tol_toboard","1648","","","","","","","","","tol_peg_2","1648","1648","0","[[3,2,0],[1,0],[0]]","9","[[2,3,0],[1,0],[0]]","15","0","","","","","","7","","","","",""
