"success","timeout","failed_images","failed_audio","failed_video","trial_type","trial_index","time_elapsed","internal_node_id","subject_id","study_id","session_id","view_history","rt","stimulus","response","task","correct","answer","item","fiar_detect_rt","fiar_detect_correct","total_correct_fiar_detect","post_trial_gap","choices","mouse_click","stim_duration","block_duration","timing_post_trial","current_position","tol_num_moves_made","tol_target","tol_problem_id","tol_rt","key_press","possible_responses","tol_correct","preplanning","tol_rt_per_trial","tol_min_moves","spm_correct","spm_rt"
"true","false","[]","[]","[]","preload","0","1241","0.0-0.0","5b71d15cc727a90001530313","E1","batch5","","","","","","","","","","","","","","","","","","","","","","","","","","","","","",""
"true","","","","","fullscreen","1","9370","0.0-1.0-0.0","5b71d15cc727a90001530313","E1","batch5","","","","","","","","","","","","","","","","","","","","","","","","","","","","","",""
"true","","","","","fullscreen","2","13025","0.0-2.0-0.0","5b71d15cc727a90001530313","E1","batch5","","","","","","","","","","","","","","","","","","","","","","","","","","","","","",""
"","","","","","instructions","3","30439","0.0-2.0-1.0-0.0","5b71d15cc727a90001530313","E1","batch5","[{""page_index"":0,""viewing_time"":11623},{""page_index"":1,""viewing_time"":5788}]","17411","","","","","","","","","","","","","","","","","","","","","","","","","","","",""
"","","","","","html-button-response","4","32002","0.0-2.0-1.0-1.0-0.0","5b71d15cc727a90001530313","E1","batch5","","1561","<p class=block-text> Let's answer a few questions <br>","0","pattern_enter_quiz","","","","","","","","","","","","","","","","","","","","","","","","",""
"","","","","","html-button-response","5","34418","0.0-2.0-1.0-1.0-1.0","5b71d15cc727a90001530313","E1","batch5","","2414","<p class = block-text>True or False: You will have as much time as you want to make each choice. <br></p>","0","pattern_quiz","false","","","","","","","","","","","","","","","","","","","","","","","",""
"","","","","","html-button-response","6","36136","0.0-2.0-1.0-1.0-2.0","5b71d15cc727a90001530313","E1","batch5","","1717","<p class = block-text>Incorrect. Remember, You should make your choice as fast as you can.</p>","0","pattern_quiz_feedback","","","","","","","","","","","","","","","","","","","","","","","","",""
"","","","","","html-button-response","7","41418","0.0-2.0-1.0-1.0-3.0","5b71d15cc727a90001530313","E1","batch5","","5281","<p class = block-text>True or False: You will look for 4 pieces in black or white color connected in a row either horizontally, vertically or diagonally. <br></p>","0","pattern_quiz","true","","","","","","","","","","","","","","","","","","","","","","","",""
"","","","","","html-button-response","8","42328","0.0-2.0-1.0-1.0-4.0","5b71d15cc727a90001530313","E1","batch5","","909","<p class = block-text>Correct! </p>","0","pattern_quiz_feedback","","","","","","","","","","","","","","","","","","","","","","","","",""
"","","","","","html-button-response","9","44212","0.0-2.0-1.0-2.0-0.0","5b71d15cc727a90001530313","E1","batch5","","1882","<p class = block-text>You made too many incorrect choices.</p><p class = block-text>You will now repeat the instruction and quiz</p>","0","","","","","","","","","","","","","","","","","","","","","","","","","",""
"","","","","","instructions","10","45964","0.0-2.0-1.1-0.1","5b71d15cc727a90001530313","E1","batch5","[{""page_index"":0,""viewing_time"":1075},{""page_index"":1,""viewing_time"":676}]","1752","","","","","","","","","","","","","","","","","","","","","","","","","","","",""
"","","","","","html-button-response","11","47710","0.0-2.0-1.1-1.1-0.1","5b71d15cc727a90001530313","E1","batch5","","1745","<p class=block-text> Let's answer a few questions <br>","0","pattern_enter_quiz","","","","","","","","","","","","","","","","","","","","","","","","",""
"","","","","","html-button-response","12","49464","0.0-2.0-1.1-1.1-1.1","5b71d15cc727a90001530313","E1","batch5","","1754","<p class = block-text>True or False: You will have as much time as you want to make each choice. <br></p>","1","pattern_quiz","true","","","","","","","","","","","","","","","","","","","","","","","",""
"","","","","","html-button-response","13","50526","0.0-2.0-1.1-1.1-2.1","5b71d15cc727a90001530313","E1","batch5","","1061","<p class = block-text>Correct! You should make your choice <strong> as fast as you can</strong>.</p>","0","pattern_quiz_feedback","","","","","","","","","","","","","","","","","","","","","","","","",""
"","","","","","html-button-response","14","51908","0.0-2.0-1.1-1.1-3.1","5b71d15cc727a90001530313","E1","batch5","","1380","<p class = block-text>True or False: You will look for 4 pieces in black or white color connected in a row either horizontally, vertically or diagonally. <br></p>","0","pattern_quiz","true","","","","","","","","","","","","","","","","","","","","","","","",""
"","","","","","html-button-response","15","52719","0.0-2.0-1.1-1.1-4.1","5b71d15cc727a90001530313","E1","batch5","","810","<p class = block-text>Correct! </p>","0","pattern_quiz_feedback","","","","","","","","","","","","","","","","","","","","","","","","",""
"","","","","","html-button-response","16","54630","0.0-2.0-2.0","5b71d15cc727a90001530313","E1","batch5","","1908","<p class=block-text> Now that you've understood the game, let's do a few practice trials before we start!<br> <br>","0","pattern_enter_practice","","","","","","","","","","","","","","","","","","","","","","","","",""
"","","","","","image-keyboard-response","17","56350","0.0-2.0-3.0-0.0","5b71d15cc727a90001530313","E1","batch5","","1703","stim/prac_yes_18_hor_w1.png","f","pattern_practice","true","f","","","","","","","","","","","","","","","","","","","","","","",""
"","","","","","html-keyboard-response","18","57373","0.0-2.0-3.0-1.0","5b71d15cc727a90001530313","E1","batch5","","null","<p style=""font-size:30px;color:green;"">Correct!</p>","null","pattern_feedback","","","","","","","","","","","","","","","","","","","","","","","","",""
"","","","","","image-keyboard-response","19","58453","0.0-2.0-3.0-0.1","5b71d15cc727a90001530313","E1","batch5","","1092","stim/prac_yes_20_dia_b1.png","j","pattern_practice","false","f","","","","","","","","","","","","","","","","","","","","","","",""
"","","","","","html-keyboard-response","20","59464","0.0-2.0-3.0-1.1","5b71d15cc727a90001530313","E1","batch5","","null","<p style=""font-size:30px;color:red;"">Wrong.</p>","null","pattern_feedback","","","","","","","","","","","","","","","","","","","","","","","","",""
"","","","","","image-keyboard-response","21","60291","0.0-2.0-3.0-0.2","5b71d15cc727a90001530313","E1","batch5","","823","stim/prac_yes_16_ver_w1.png","f","pattern_practice","true","f","","","","","","","","","","","","","","","","","","","","","","",""
"","","","","","html-keyboard-response","22","61303","0.0-2.0-3.0-1.2","5b71d15cc727a90001530313","E1","batch5","","null","<p style=""font-size:30px;color:green;"">Correct!</p>","null","pattern_feedback","","","","","","","","","","","","","","","","","","","","","","","","",""
"","","","","","image-keyboard-response","23","62210","0.0-2.0-3.0-0.3","5b71d15cc727a90001530313","E1","batch5","","905","stim/prac_no_18_1.png","j","pattern_practice","true","j","","","","","","","","","","","","","","","","","","","","","","",""
"","","","","","html-keyboard-response","24","63236","0.0-2.0-3.0-1.3","5b71d15cc727a90001530313","E1","batch5","","null","<p style=""font-size:30px;color:green;"">Correct!</p>","null","pattern_feedback","","","","","","","","","","","","","","","","","","","","","","","","",""
"","","","","","image-keyboard-response","25","64232","0.0-2.0-3.0-0.4","5b71d15cc727a90001530313","E1","batch5","","994","stim/prac_no_16_1.png","j","pattern_practice","true","j","","","","","","","","","","","","","","","","","","","","","","",""
"","","","","","html-keyboard-response","26","65241","0.0-2.0-3.0-1.4","5b71d15cc727a90001530313","E1","batch5","","null","<p style=""font-size:30px;color:green;"">Correct!</p>","null","pattern_feedback","","","","","","","","","","","","","","","","","","","","","","","","",""
"","","","","","html-button-response","27","78981","0.0-2.0-4.0","5b71d15cc727a90001530313","E1","batch5","","13738","<p class=block-text> Good job! You are done with practice trials!<br>
        You responded correctly on 80% of the trials.<br>
        Press the button below to start official trials. Now you won't see any feedback about your response</p>","0","pattern_enter_official_trials","","","","","","","","","","","","","","","","","","","","","","","","",""
"","","","","","html-keyboard-response","28","79796","0.0-2.0-5.0-0.0","5b71d15cc727a90001530313","E1","batch5","","null","<p class=block-text>Trial 1 out of 78</p>","null","pattern_show_trial_num","","","","","","","","","","","","","","","","","","","","","","","","",""
"","","","","","image-keyboard-response","29","82768","0.0-2.0-5.0-1.0","5b71d15cc727a90001530313","E1","batch5","","2968","stim/yes_58_dia_w1_w.png","f","pattern_response","true","f","pattern_76","2968","true","1","","","","","","","","","","","","","","","","","","",""
"","","","","","html-keyboard-response","30","84073","0.0-2.0-5.0-0.1","5b71d15cc727a90001530313","E1","batch5","","null","<p class=block-text>Trial 2 out of 78</p>","null","pattern_show_trial_num","","","","","","","","","","","","","","","","","","","","","","","","",""
"","","","","","image-keyboard-response","31","85684","0.0-2.0-5.0-1.1","5b71d15cc727a90001530313","E1","batch5","","1609","stim/no_49_2_b.png","j","pattern_response","true","j","pattern_29","1609","true","2","","","","","","","","","","","","","","","","","","",""
"","","","","","html-keyboard-response","32","87007","0.0-2.0-5.0-0.2","5b71d15cc727a90001530313","E1","batch5","","null","<p class=block-text>Trial 3 out of 78</p>","null","pattern_show_trial_num","","","","","","","","","","","","","","","","","","","","","","","","",""
"","","","","","image-keyboard-response","33","87979","0.0-2.0-5.0-1.2","5b71d15cc727a90001530313","E1","batch5","","969","stim/no_36_1_b.png","j","pattern_response","true","j","pattern_17","969","true","3","","","","","","","","","","","","","","","","","","",""
"","","","","","html-keyboard-response","34","89298","0.0-2.0-5.0-0.3","5b71d15cc727a90001530313","E1","batch5","","null","<p class=block-text>Trial 4 out of 78</p>","null","pattern_show_trial_num","","","","","","","","","","","","","","","","","","","","","","","","",""
"","","","","","image-keyboard-response","35","90118","0.0-2.0-5.0-1.3","5b71d15cc727a90001530313","E1","batch5","","816","stim/no_22_1_b.png","j","pattern_response","true","j","pattern_07","816","true","4","","","","","","","","","","","","","","","","","","",""
"","","","","","html-keyboard-response","36","91445","0.0-2.0-5.0-0.4","5b71d15cc727a90001530313","E1","batch5","","null","<p class=block-text>Trial 5 out of 78</p>","null","pattern_show_trial_num","","","","","","","","","","","","","","","","","","","","","","","","",""
"","","","","","image-keyboard-response","37","92163","0.0-2.0-5.0-1.4","5b71d15cc727a90001530313","E1","batch5","","716","stim/no_15_1_w.png","j","pattern_response","true","j","pattern_03","716","true","5","","","","","","","","","","","","","","","","","","",""
"","","","","","html-keyboard-response","38","93478","0.0-2.0-5.0-0.5","5b71d15cc727a90001530313","E1","batch5","","null","<p class=block-text>Trial 6 out of 78</p>","null","pattern_show_trial_num","","","","","","","","","","","","","","","","","","","","","","","","",""
"","","","","","image-keyboard-response","39","95651","0.0-2.0-5.0-1.5","5b71d15cc727a90001530313","E1","batch5","","2170","stim/no_45_1_w.png","j","pattern_response","true","j","pattern_25","2170","true","6","","","","","","","","","","","","","","","","","","",""
"","","","","","html-keyboard-response","40","96977","0.0-2.0-5.0-0.6","5b71d15cc727a90001530313","E1","batch5","","null","<p class=block-text>Trial 7 out of 78</p>","null","pattern_show_trial_num","","","","","","","","","","","","","","","","","","","","","","","","",""
"","","","","","image-keyboard-response","41","98348","0.0-2.0-5.0-1.6","5b71d15cc727a90001530313","E1","batch5","","1369","stim/no_67_1.png","f","pattern_response","false","j","pattern_39","1369","false","6","","","","","","","","","","","","","","","","","","",""
"","","","","","html-keyboard-response","42","99657","0.0-2.0-5.0-0.7","5b71d15cc727a90001530313","E1","batch5","","null","<p class=block-text>Trial 8 out of 78</p>","null","pattern_show_trial_num","","","","","","","","","","","","","","","","","","","","","","","","",""
"","","","","","image-keyboard-response","43","100471","0.0-2.0-5.0-1.7","5b71d15cc727a90001530313","E1","batch5","","811","stim/yes_46_ver_b1_b.png","f","pattern_response","true","f","pattern_68","811","true","7","","","","","","","","","","","","","","","","","","",""
"","","","","","html-keyboard-response","44","101777","0.0-2.0-5.0-0.8","5b71d15cc727a90001530313","E1","batch5","","null","<p class=block-text>Trial 9 out of 78</p>","null","pattern_show_trial_num","","","","","","","","","","","","","","","","","","","","","","","","",""
"","","","","","image-keyboard-response","45","102553","0.0-2.0-5.0-1.8","5b71d15cc727a90001530313","E1","batch5","","773","stim/yes_30_ver_b1_b.png","f","pattern_response","true","f","pattern_54","773","true","8","","","","","","","","","","","","","","","","","","",""
"","","","","","html-keyboard-response","46","103869","0.0-2.0-5.0-0.9","5b71d15cc727a90001530313","E1","batch5","","null","<p class=block-text>Trial 10 out of 78</p>","null","pattern_show_trial_num","","","","","","","","","","","","","","","","","","","","","","","","",""
"","","","","","image-keyboard-response","47","106354","0.0-2.0-5.0-1.9","5b71d15cc727a90001530313","E1","batch5","","2483","stim/no_58_1_w.png","j","pattern_response","true","j","pattern_35","2483","true","9","","","","","","","","","","","","","","","","","","",""
"","","","","","html-keyboard-response","48","107674","0.0-2.0-5.0-0.10","5b71d15cc727a90001530313","E1","batch5","","null","<p class=block-text>Trial 11 out of 78</p>","null","pattern_show_trial_num","","","","","","","","","","","","","","","","","","","","","","","","",""
"","","","","","image-keyboard-response","49","108282","0.0-2.0-5.0-1.10","5b71d15cc727a90001530313","E1","batch5","","604","stim/no_12_1.png","j","pattern_response","true","j","pattern_01","604","true","10","","","","","","","","","","","","","","","","","","",""
"","","","","","html-keyboard-response","50","109593","0.0-2.0-5.0-0.11","5b71d15cc727a90001530313","E1","batch5","","null","<p class=block-text>Trial 12 out of 78</p>","null","pattern_show_trial_num","","","","","","","","","","","","","","","","","","","","","","","","",""
"","","","","","image-keyboard-response","51","111577","0.0-2.0-5.0-1.11","5b71d15cc727a90001530313","E1","batch5","","1981","stim/no_53_1_b.png","j","pattern_response","true","j","pattern_33","1981","true","11","","","","","","","","","","","","","","","","","","",""
"","","","","","html-keyboard-response","52","112891","0.0-2.0-5.0-0.12","5b71d15cc727a90001530313","E1","batch5","","null","<p class=block-text>Trial 13 out of 78</p>","null","pattern_show_trial_num","","","","","","","","","","","","","","","","","","","","","","","","",""
"","","","","","image-keyboard-response","53","113817","0.0-2.0-5.0-1.12","5b71d15cc727a90001530313","E1","batch5","","923","stim/yes_23_ver_b1.png","f","pattern_response","true","f","pattern_48","923","true","12","","","","","","","","","","","","","","","","","","",""
"","","","","","html-keyboard-response","54","115132","0.0-2.0-5.0-0.13","5b71d15cc727a90001530313","E1","batch5","","null","<p class=block-text>Trial 14 out of 78</p>","null","pattern_show_trial_num","","","","","","","","","","","","","","","","","","","","","","","","",""
"","","","","","image-keyboard-response","55","115772","0.0-2.0-5.0-1.13","5b71d15cc727a90001530313","E1","batch5","","637","stim/yes_17_ver_b1_b.png","f","pattern_response","true","f","pattern_46","637","true","13","","","","","","","","","","","","","","","","","","",""
"","","","","","html-keyboard-response","56","117091","0.0-2.0-5.0-0.14","5b71d15cc727a90001530313","E1","batch5","","null","<p class=block-text>Trial 15 out of 78</p>","null","pattern_show_trial_num","","","","","","","","","","","","","","","","","","","","","","","","",""
"","","","","","image-keyboard-response","57","117755","0.0-2.0-5.0-1.14","5b71d15cc727a90001530313","E1","batch5","","662","stim/yes_37_hor_w1_w.png","f","pattern_response","true","f","pattern_60","662","true","14","","","","","","","","","","","","","","","","","","",""
"","","","","","html-keyboard-response","58","119079","0.0-2.0-5.0-0.15","5b71d15cc727a90001530313","E1","batch5","","null","<p class=block-text>Trial 16 out of 78</p>","null","pattern_show_trial_num","","","","","","","","","","","","","","","","","","","","","","","","",""
"","","","","","image-keyboard-response","59","119755","0.0-2.0-5.0-1.15","5b71d15cc727a90001530313","E1","batch5","","674","stim/yes_15_dia_b1u_b.png","j","pattern_response","false","f","pattern_44","674","false","14","","","","","","","","","","","","","","","","","","",""
"","","","","","html-keyboard-response","60","121065","0.0-2.0-5.0-0.16","5b71d15cc727a90001530313","E1","batch5","","null","<p class=block-text>Trial 17 out of 78</p>","null","pattern_show_trial_num","","","","","","","","","","","","","","","","","","","","","","","","",""
"","","","","","image-keyboard-response","61","122807","0.0-2.0-5.0-1.16","5b71d15cc727a90001530313","E1","batch5","","1740","stim/yes_51_dia_b1.png","j","pattern_response","false","f","pattern_72","1740","false","14","","","","","","","","","","","","","","","","","","",""
"","","","","","html-keyboard-response","62","124123","0.0-2.0-5.0-0.17","5b71d15cc727a90001530313","E1","batch5","","null","<p class=block-text>Trial 18 out of 78</p>","null","pattern_show_trial_num","","","","","","","","","","","","","","","","","","","","","","","","",""
"","","","","","image-keyboard-response","63","124707","0.0-2.0-5.0-1.17","5b71d15cc727a90001530313","E1","batch5","","582","stim/yes_39_hor_w1_w.png","f","pattern_response","true","f","pattern_62","582","true","15","","","","","","","","","","","","","","","","","","",""
"","","","","","html-keyboard-response","64","126035","0.0-2.0-5.0-0.18","5b71d15cc727a90001530313","E1","batch5","","null","<p class=block-text>Trial 19 out of 78</p>","null","pattern_show_trial_num","","","","","","","","","","","","","","","","","","","","","","","","",""
"","","","","","image-keyboard-response","65","127021","0.0-2.0-5.0-1.18","5b71d15cc727a90001530313","E1","batch5","","983","stim/yes_26_dia_w2_w.png","j","pattern_response","false","f","pattern_50","983","false","15","","","","","","","","","","","","","","","","","","",""
"","","","","","html-keyboard-response","66","128327","0.0-2.0-5.0-0.19","5b71d15cc727a90001530313","E1","batch5","","null","<p class=block-text>Trial 20 out of 78</p>","null","pattern_show_trial_num","","","","","","","","","","","","","","","","","","","","","","","","",""
"","","","","","image-keyboard-response","67","128836","0.0-2.0-5.0-1.19","5b71d15cc727a90001530313","E1","batch5","","507","stim/yes_12_hor_w1_w.png","f","pattern_response","true","f","pattern_42","507","true","16","","","","","","","","","","","","","","","","","","",""
"","","","","","html-keyboard-response","68","130144","0.0-2.0-5.0-0.20","5b71d15cc727a90001530313","E1","batch5","","null","<p class=block-text>Trial 21 out of 78</p>","null","pattern_show_trial_num","","","","","","","","","","","","","","","","","","","","","","","","",""
"","","","","","image-keyboard-response","69","131182","0.0-2.0-5.0-1.20","5b71d15cc727a90001530313","E1","batch5","","1036","stim/no_28_2.png","j","pattern_response","true","j","pattern_11","1036","true","17","","","","","","","","","","","","","","","","","","",""
"","","","","","html-keyboard-response","70","132498","0.0-2.0-5.0-0.21","5b71d15cc727a90001530313","E1","batch5","","null","<p class=block-text>Trial 22 out of 78</p>","null","pattern_show_trial_num","","","","","","","","","","","","","","","","","","","","","","","","",""
"","","","","","image-keyboard-response","71","133069","0.0-2.0-5.0-1.21","5b71d15cc727a90001530313","E1","batch5","","570","stim/yes_70_ver_b1.png","f","pattern_response","true","f","pattern_80","570","true","18","","","","","","","","","","","","","","","","","","",""
"","","","","","html-keyboard-response","72","134384","0.0-2.0-5.0-0.22","5b71d15cc727a90001530313","E1","batch5","","null","<p class=block-text>Trial 23 out of 78</p>","null","pattern_show_trial_num","","","","","","","","","","","","","","","","","","","","","","","","",""
"","","","","","image-keyboard-response","73","136550","0.0-2.0-5.0-1.22","5b71d15cc727a90001530313","E1","batch5","","2164","stim/no_37_2_w.png","j","pattern_response","true","j","pattern_19","2164","true","19","","","","","","","","","","","","","","","","","","",""
"","","","","","html-keyboard-response","74","137865","0.0-2.0-5.0-0.23","5b71d15cc727a90001530313","E1","batch5","","null","<p class=block-text>Trial 24 out of 78</p>","null","pattern_show_trial_num","","","","","","","","","","","","","","","","","","","","","","","","",""
"","","","","","image-keyboard-response","75","139955","0.0-2.0-5.0-1.23","5b71d15cc727a90001530313","E1","batch5","","2087","stim/no_51_1.png","j","pattern_response","true","j","pattern_31","2087","true","20","","","","","","","","","","","","","","","","","","",""
"","","","","","html-keyboard-response","76","141268","0.0-2.0-5.0-0.24","5b71d15cc727a90001530313","E1","batch5","","null","<p class=block-text>Trial 25 out of 78</p>","null","pattern_show_trial_num","","","","","","","","","","","","","","","","","","","","","","","","",""
"","","","","","image-keyboard-response","77","142858","0.0-2.0-5.0-1.24","5b71d15cc727a90001530313","E1","batch5","","1587","stim/no_43_2_b.png","j","pattern_response","true","j","pattern_23","1587","true","21","","","","","","","","","","","","","","","","","","",""
"","","","","","html-keyboard-response","78","144166","0.0-2.0-5.0-0.25","5b71d15cc727a90001530313","E1","batch5","","null","<p class=block-text>Trial 26 out of 78</p>","null","pattern_show_trial_num","","","","","","","","","","","","","","","","","","","","","","","","",""
"","","","","","image-keyboard-response","79","145439","0.0-2.0-5.0-1.25","5b71d15cc727a90001530313","E1","batch5","","1271","stim/no_25_1_b.png","j","pattern_response","true","j","pattern_09","1271","true","22","","","","","","","","","","","","","","","","","","",""
"","","","","","html-keyboard-response","80","146764","0.0-2.0-5.0-0.26","5b71d15cc727a90001530313","E1","batch5","","null","<p class=block-text>Trial 27 out of 78</p>","null","pattern_show_trial_num","","","","","","","","","","","","","","","","","","","","","","","","",""
"","","","","","image-keyboard-response","81","148456","0.0-2.0-5.0-1.26","5b71d15cc727a90001530313","E1","batch5","","1690","stim/yes_42_dia_w1_w.png","j","pattern_response","false","f","pattern_64","1690","false","22","","","","","","","","","","","","","","","","","","",""
"","","","","","html-keyboard-response","82","149781","0.0-2.0-5.0-0.27","5b71d15cc727a90001530313","E1","batch5","","null","<p class=block-text>Trial 28 out of 78</p>","null","pattern_show_trial_num","","","","","","","","","","","","","","","","","","","","","","","","",""
"","","","","","image-keyboard-response","83","150437","0.0-2.0-5.0-1.27","5b71d15cc727a90001530313","E1","batch5","","651","stim/yes_29_hor_b1_b.png","f","pattern_response","true","f","pattern_52","651","true","23","","","","","","","","","","","","","","","","","","",""
"","","","","","html-keyboard-response","84","151762","0.0-2.0-5.0-0.28","5b71d15cc727a90001530313","E1","batch5","","null","<p class=block-text>Trial 29 out of 78</p>","null","pattern_show_trial_num","","","","","","","","","","","","","","","","","","","","","","","","",""
"","","","","","image-keyboard-response","85","153359","0.0-2.0-5.0-1.28","5b71d15cc727a90001530313","E1","batch5","","1595","stim/no_39_1_w.png","j","pattern_response","true","j","pattern_21","1595","true","24","","","","","","","","","","","","","","","","","","",""
"","","","","","html-keyboard-response","86","154674","0.0-2.0-5.0-0.29","5b71d15cc727a90001530313","E1","batch5","","null","<p class=block-text>Trial 30 out of 78</p>","null","pattern_show_trial_num","","","","","","","","","","","","","","","","","","","","","","","","",""
"","","","","","image-keyboard-response","87","155445","0.0-2.0-5.0-1.29","5b71d15cc727a90001530313","E1","batch5","","768","stim/yes_36_ver_w1_w.png","f","pattern_response","true","f","pattern_58","768","true","25","","","","","","","","","","","","","","","","","","",""
"","","","","","html-keyboard-response","88","156766","0.0-2.0-5.0-0.30","5b71d15cc727a90001530313","E1","batch5","","null","<p class=block-text>Trial 31 out of 78</p>","null","pattern_show_trial_num","","","","","","","","","","","","","","","","","","","","","","","","",""
"","","","","","image-keyboard-response","89","157861","0.0-2.0-5.0-1.30","5b71d15cc727a90001530313","E1","batch5","","1092","stim/yes_49_hor_w1_b.png","f","pattern_response","true","f","pattern_70","1092","true","26","","","","","","","","","","","","","","","","","","",""
"","","","","","html-keyboard-response","90","159191","0.0-2.0-5.0-0.31","5b71d15cc727a90001530313","E1","batch5","","null","<p class=block-text>Trial 32 out of 78</p>","null","pattern_show_trial_num","","","","","","","","","","","","","","","","","","","","","","","","",""
"","","","","","image-keyboard-response","91","160248","0.0-2.0-5.0-1.31","5b71d15cc727a90001530313","E1","batch5","","1055","stim/no_30_1_b.png","j","pattern_response","true","j","pattern_13","1055","true","27","","","","","","","","","","","","","","","","","","",""
"","","","","","html-keyboard-response","92","161563","0.0-2.0-5.0-0.32","5b71d15cc727a90001530313","E1","batch5","","null","<p class=block-text>Trial 33 out of 78</p>","null","pattern_show_trial_num","","","","","","","","","","","","","","","","","","","","","","","","",""
"","","","","","image-keyboard-response","93","162431","0.0-2.0-5.0-1.32","5b71d15cc727a90001530313","E1","batch5","","864","stim/no_33_1_b.png","j","pattern_response","true","j","pattern_15","864","true","28","","","","","","","","","","","","","","","","","","",""
"","","","","","html-keyboard-response","94","163747","0.0-2.0-5.0-0.33","5b71d15cc727a90001530313","E1","batch5","","null","<p class=block-text>Trial 34 out of 78</p>","null","pattern_show_trial_num","","","","","","","","","","","","","","","","","","","","","","","","",""
"","","","","","image-keyboard-response","95","165492","0.0-2.0-5.0-1.33","5b71d15cc727a90001530313","E1","batch5","","1743","stim/no_47_1_b.png","j","pattern_response","true","j","pattern_27","1743","true","29","","","","","","","","","","","","","","","","","","",""
"","","","","","html-keyboard-response","96","166815","0.0-2.0-5.0-0.34","5b71d15cc727a90001530313","E1","batch5","","null","<p class=block-text>Trial 35 out of 78</p>","null","pattern_show_trial_num","","","","","","","","","","","","","","","","","","","","","","","","",""
"","","","","","image-keyboard-response","97","168722","0.0-2.0-5.0-1.34","5b71d15cc727a90001530313","E1","batch5","","1903","stim/yes_63_dia_b1.png","f","pattern_response","true","f","pattern_78","1903","true","30","","","","","","","","","","","","","","","","","","",""
"","","","","","html-keyboard-response","98","170045","0.0-2.0-5.0-0.35","5b71d15cc727a90001530313","E1","batch5","","null","<p class=block-text>Trial 36 out of 78</p>","null","pattern_show_trial_num","","","","","","","","","","","","","","","","","","","","","","","","",""
"","","","","","image-keyboard-response","99","170675","0.0-2.0-5.0-1.35","5b71d15cc727a90001530313","E1","batch5","","621","stim/no_18_1_b.png","j","pattern_response","true","j","pattern_05","621","true","31","","","","","","","","","","","","","","","","","","",""
"","","","","","html-keyboard-response","100","171992","0.0-2.0-5.0-0.36","5b71d15cc727a90001530313","E1","batch5","","null","<p class=block-text>Trial 37 out of 78</p>","null","pattern_show_trial_num","","","","","","","","","","","","","","","","","","","","","","","","",""
"","","","","","image-keyboard-response","101","173247","0.0-2.0-5.0-1.36","5b71d15cc727a90001530313","E1","batch5","","1251","stim/yes_33_dia_w1_w.png","j","pattern_response","false","f","pattern_56","1251","false","31","","","","","","","","","","","","","","","","","","",""
"","","","","","html-keyboard-response","102","174573","0.0-2.0-5.0-0.37","5b71d15cc727a90001530313","E1","batch5","","null","<p class=block-text>Trial 38 out of 78</p>","null","pattern_show_trial_num","","","","","","","","","","","","","","","","","","","","","","","","",""
"","","","","","image-keyboard-response","103","175397","0.0-2.0-5.0-1.37","5b71d15cc727a90001530313","E1","batch5","","822","stim/yes_53_ver_b1_b.png","f","pattern_response","true","f","pattern_74","822","true","32","","","","","","","","","","","","","","","","","","",""
"","","","","","html-keyboard-response","104","176707","0.0-2.0-5.0-0.38","5b71d15cc727a90001530313","E1","batch5","","null","<p class=block-text>Trial 39 out of 78</p>","null","pattern_show_trial_num","","","","","","","","","","","","","","","","","","","","","","","","",""
"","","","","","image-keyboard-response","105","177345","0.0-2.0-5.0-1.38","5b71d15cc727a90001530313","E1","batch5","","635","stim/yes_44_ver_w1_w.png","f","pattern_response","true","f","pattern_66","635","true","33","","","","","","","","","","","","","","","","","","",""
"","","","","","image-keyboard-response","106","180691","0.0-2.0-6.0","5b71d15cc727a90001530313","E1","batch5","","2832","stim/empty_board.png","j","attention_check","true","j","","","","","500","[""f"",""j""]","","","","","","","","","","","","","","","","",""
"","","","","","html-keyboard-response","107","181501","0.0-2.0-7.0-0.0","5b71d15cc727a90001530313","E1","batch5","","null","<p class=block-text>Trial 40 out of 78</p>","null","pattern_show_trial_num","","","","","","","","","","","","","","","","","","","","","","","","",""
"","","","","","image-keyboard-response","108","183840","0.0-2.0-7.0-1.0","5b71d15cc727a90001530313","E1","batch5","","2336","stim/no_52_1.png","j","pattern_response","true","j","pattern_32","2336","true","34","","","","","","","","","","","","","","","","","","",""
"","","","","","html-keyboard-response","109","185165","0.0-2.0-7.0-0.1","5b71d15cc727a90001530313","E1","batch5","","null","<p class=block-text>Trial 41 out of 78</p>","null","pattern_show_trial_num","","","","","","","","","","","","","","","","","","","","","","","","",""
"","","","","","image-keyboard-response","110","185982","0.0-2.0-7.0-1.1","5b71d15cc727a90001530313","E1","batch5","","814","stim/no_26_1_w.png","j","pattern_response","true","j","pattern_10","814","true","35","","","","","","","","","","","","","","","","","","",""
"","","","","","html-keyboard-response","111","187305","0.0-2.0-7.0-0.2","5b71d15cc727a90001530313","E1","batch5","","null","<p class=block-text>Trial 42 out of 78</p>","null","pattern_show_trial_num","","","","","","","","","","","","","","","","","","","","","","","","",""
"","","","","","image-keyboard-response","112","189076","0.0-2.0-7.0-1.2","5b71d15cc727a90001530313","E1","batch5","","1769","stim/no_55_1_w.png","j","pattern_response","true","j","pattern_34","1769","true","36","","","","","","","","","","","","","","","","","","",""
"","","","","","html-keyboard-response","113","190388","0.0-2.0-7.0-0.3","5b71d15cc727a90001530313","E1","batch5","","null","<p class=block-text>Trial 43 out of 78</p>","null","pattern_show_trial_num","","","","","","","","","","","","","","","","","","","","","","","","",""
"","","","","","image-keyboard-response","114","191088","0.0-2.0-7.0-1.3","5b71d15cc727a90001530313","E1","batch5","","696","stim/yes_14_hor_b1_w.png","f","pattern_response","true","f","pattern_43","696","true","37","","","","","","","","","","","","","","","","","","",""
"","","","","","html-keyboard-response","115","192418","0.0-2.0-7.0-0.4","5b71d15cc727a90001530313","E1","batch5","","null","<p class=block-text>Trial 44 out of 78</p>","null","pattern_show_trial_num","","","","","","","","","","","","","","","","","","","","","","","","",""
"","","","","","image-keyboard-response","116","197022","0.0-2.0-7.0-1.4","5b71d15cc727a90001530313","E1","batch5","","4601","stim/no_62_1_w.png","j","pattern_response","true","j","pattern_36","4601","true","38","","","","","","","","","","","","","","","","","","",""
"","","","","","html-keyboard-response","117","198339","0.0-2.0-7.0-0.5","5b71d15cc727a90001530313","E1","batch5","","null","<p class=block-text>Trial 45 out of 78</p>","null","pattern_show_trial_num","","","","","","","","","","","","","","","","","","","","","","","","",""
"","","","","","image-keyboard-response","118","200751","0.0-2.0-7.0-1.5","5b71d15cc727a90001530313","E1","batch5","","2410","stim/no_50_1.png","j","pattern_response","true","j","pattern_30","2410","true","39","","","","","","","","","","","","","","","","","","",""
"","","","","","html-keyboard-response","119","202062","0.0-2.0-7.0-0.6","5b71d15cc727a90001530313","E1","batch5","","null","<p class=block-text>Trial 46 out of 78</p>","null","pattern_show_trial_num","","","","","","","","","","","","","","","","","","","","","","","","",""
"","","","","","image-keyboard-response","120","203445","0.0-2.0-7.0-1.6","5b71d15cc727a90001530313","E1","batch5","","1380","stim/yes_31_hor_b1.png","f","pattern_response","true","f","pattern_55","1380","true","40","","","","","","","","","","","","","","","","","","",""
"","","","","","html-keyboard-response","121","204758","0.0-2.0-7.0-0.7","5b71d15cc727a90001530313","E1","batch5","","null","<p class=block-text>Trial 47 out of 78</p>","null","pattern_show_trial_num","","","","","","","","","","","","","","","","","","","","","","","","",""
"","","","","","image-keyboard-response","122","206203","0.0-2.0-7.0-1.7","5b71d15cc727a90001530313","E1","batch5","","1442","stim/no_38_1_b.png","j","pattern_response","true","j","pattern_20","1442","true","41","","","","","","","","","","","","","","","","","","",""
"","","","","","html-keyboard-response","123","207518","0.0-2.0-7.0-0.8","5b71d15cc727a90001530313","E1","batch5","","null","<p class=block-text>Trial 48 out of 78</p>","null","pattern_show_trial_num","","","","","","","","","","","","","","","","","","","","","","","","",""
"","","","","","image-keyboard-response","124","209149","0.0-2.0-7.0-1.8","5b71d15cc727a90001530313","E1","batch5","","1629","stim/no_46_1_b.png","j","pattern_response","true","j","pattern_26","1629","true","42","","","","","","","","","","","","","","","","","","",""
"","","","","","html-keyboard-response","125","210471","0.0-2.0-7.0-0.9","5b71d15cc727a90001530313","E1","batch5","","null","<p class=block-text>Trial 49 out of 78</p>","null","pattern_show_trial_num","","","","","","","","","","","","","","","","","","","","","","","","",""
"","","","","","image-keyboard-response","126","211840","0.0-2.0-7.0-1.9","5b71d15cc727a90001530313","E1","batch5","","1366","stim/yes_37_dia_w1.png","j","pattern_response","false","f","pattern_59","1366","false","42","","","","","","","","","","","","","","","","","","",""
"","","","","","html-keyboard-response","127","213152","0.0-2.0-7.0-0.10","5b71d15cc727a90001530313","E1","batch5","","null","<p class=block-text>Trial 50 out of 78</p>","null","pattern_show_trial_num","","","","","","","","","","","","","","","","","","","","","","","","",""
"","","","","","image-keyboard-response","128","214217","0.0-2.0-7.0-1.10","5b71d15cc727a90001530313","E1","batch5","","1063","stim/no_23_1.png","j","pattern_response","true","j","pattern_08","1063","true","43","","","","","","","","","","","","","","","","","","",""
"","","","","","html-keyboard-response","129","215540","0.0-2.0-7.0-0.11","5b71d15cc727a90001530313","E1","batch5","","null","<p class=block-text>Trial 51 out of 78</p>","null","pattern_show_trial_num","","","","","","","","","","","","","","","","","","","","","","","","",""
"","","","","","image-keyboard-response","130","219705","0.0-2.0-7.0-1.11","5b71d15cc727a90001530313","E1","batch5","","4163","stim/no_65_1_b.png","j","pattern_response","true","j","pattern_38","4163","true","44","","","","","","","","","","","","","","","","","","",""
"","","","","","html-keyboard-response","131","221011","0.0-2.0-7.0-0.12","5b71d15cc727a90001530313","E1","batch5","","null","<p class=block-text>Trial 52 out of 78</p>","null","pattern_show_trial_num","","","","","","","","","","","","","","","","","","","","","","","","",""
"","","","","","image-keyboard-response","132","221748","0.0-2.0-7.0-1.12","5b71d15cc727a90001530313","E1","batch5","","734","stim/yes_29_ver_w1.png","f","pattern_response","true","f","pattern_53","734","true","45","","","","","","","","","","","","","","","","","","",""
"","","","","","html-keyboard-response","133","223068","0.0-2.0-7.0-0.13","5b71d15cc727a90001530313","E1","batch5","","null","<p class=block-text>Trial 53 out of 78</p>","null","pattern_show_trial_num","","","","","","","","","","","","","","","","","","","","","","","","",""
"","","","","","image-keyboard-response","134","224923","0.0-2.0-7.0-1.13","5b71d15cc727a90001530313","E1","batch5","","1854","stim/no_29_1_b.png","j","pattern_response","true","j","pattern_12","1854","true","46","","","","","","","","","","","","","","","","","","",""
"","","","","","html-keyboard-response","135","226240","0.0-2.0-7.0-0.14","5b71d15cc727a90001530313","E1","batch5","","null","<p class=block-text>Trial 54 out of 78</p>","null","pattern_show_trial_num","","","","","","","","","","","","","","","","","","","","","","","","",""
"","","","","","image-keyboard-response","136","227048","0.0-2.0-7.0-1.14","5b71d15cc727a90001530313","E1","batch5","","804","stim/yes_28_ver_b1.png","f","pattern_response","true","f","pattern_51","804","true","47","","","","","","","","","","","","","","","","","","",""
"","","","","","html-keyboard-response","137","228364","0.0-2.0-7.0-0.15","5b71d15cc727a90001530313","E1","batch5","","null","<p class=block-text>Trial 55 out of 78</p>","null","pattern_show_trial_num","","","","","","","","","","","","","","","","","","","","","","","","",""
"","","","","","image-keyboard-response","138","229554","0.0-2.0-7.0-1.15","5b71d15cc727a90001530313","E1","batch5","","1187","stim/no_20_1_w.png","j","pattern_response","true","j","pattern_06","1187","true","48","","","","","","","","","","","","","","","","","","",""
"","","","","","html-keyboard-response","139","230864","0.0-2.0-7.0-0.16","5b71d15cc727a90001530313","E1","batch5","","null","<p class=block-text>Trial 56 out of 78</p>","null","pattern_show_trial_num","","","","","","","","","","","","","","","","","","","","","","","","",""
"","","","","","image-keyboard-response","140","232616","0.0-2.0-7.0-1.16","5b71d15cc727a90001530313","E1","batch5","","1751","stim/no_34_1_b.png","j","pattern_response","true","j","pattern_16","1751","true","49","","","","","","","","","","","","","","","","","","",""
"","","","","","html-keyboard-response","141","233940","0.0-2.0-7.0-0.17","5b71d15cc727a90001530313","E1","batch5","","null","<p class=block-text>Trial 57 out of 78</p>","null","pattern_show_trial_num","","","","","","","","","","","","","","","","","","","","","","","","",""
"","","","","","image-keyboard-response","142","235146","0.0-2.0-7.0-1.17","5b71d15cc727a90001530313","E1","batch5","","1203","stim/yes_45_hor_b2_b.png","f","pattern_response","true","f","pattern_67","1203","true","50","","","","","","","","","","","","","","","","","","",""
"","","","","","html-keyboard-response","143","236471","0.0-2.0-7.0-0.18","5b71d15cc727a90001530313","E1","batch5","","null","<p class=block-text>Trial 58 out of 78</p>","null","pattern_show_trial_num","","","","","","","","","","","","","","","","","","","","","","","","",""
"","","","","","image-keyboard-response","144","238499","0.0-2.0-7.0-1.18","5b71d15cc727a90001530313","E1","batch5","","2026","stim/yes_40_dia_b1_b.png","j","pattern_response","false","f","pattern_63","2026","false","50","","","","","","","","","","","","","","","","","","",""
"","","","","","html-keyboard-response","145","239825","0.0-2.0-7.0-0.19","5b71d15cc727a90001530313","E1","batch5","","null","<p class=block-text>Trial 59 out of 78</p>","null","pattern_show_trial_num","","","","","","","","","","","","","","","","","","","","","","","","",""
"","","","","","image-keyboard-response","146","240930","0.0-2.0-7.0-1.19","5b71d15cc727a90001530313","E1","batch5","","1107","stim/yes_35_dia_b1.png","j","pattern_response","false","f","pattern_57","1107","false","50","","","","","","","","","","","","","","","","","","",""
"","","","","","html-keyboard-response","147","242256","0.0-2.0-7.0-0.20","5b71d15cc727a90001530313","E1","batch5","","null","<p class=block-text>Trial 60 out of 78</p>","null","pattern_show_trial_num","","","","","","","","","","","","","","","","","","","","","","","","",""
"","","","","","image-keyboard-response","148","243816","0.0-2.0-7.0-1.20","5b71d15cc727a90001530313","E1","batch5","","1558","stim/no_44_1.png","j","pattern_response","true","j","pattern_24","1558","true","51","","","","","","","","","","","","","","","","","","",""
"","","","","","html-keyboard-response","149","245134","0.0-2.0-7.0-0.21","5b71d15cc727a90001530313","E1","batch5","","null","<p class=block-text>Trial 61 out of 78</p>","null","pattern_show_trial_num","","","","","","","","","","","","","","","","","","","","","","","","",""
"","","","","","image-keyboard-response","150","247240","0.0-2.0-7.0-1.21","5b71d15cc727a90001530313","E1","batch5","","2104","stim/no_42_1_w.png","j","pattern_response","true","j","pattern_22","2104","true","52","","","","","","","","","","","","","","","","","","",""
"","","","","","html-keyboard-response","151","248560","0.0-2.0-7.0-0.22","5b71d15cc727a90001530313","E1","batch5","","null","<p class=block-text>Trial 62 out of 78</p>","null","pattern_show_trial_num","","","","","","","","","","","","","","","","","","","","","","","","",""
"","","","","","image-keyboard-response","152","250208","0.0-2.0-7.0-1.22","5b71d15cc727a90001530313","E1","batch5","","1644","stim/no_36_2_w.png","j","pattern_response","true","j","pattern_18","1644","true","53","","","","","","","","","","","","","","","","","","",""
"","","","","","html-keyboard-response","153","251533","0.0-2.0-7.0-0.23","5b71d15cc727a90001530313","E1","batch5","","null","<p class=block-text>Trial 63 out of 78</p>","null","pattern_show_trial_num","","","","","","","","","","","","","","","","","","","","","","","","",""
"","","","","","image-keyboard-response","154","252402","0.0-2.0-7.0-1.23","5b71d15cc727a90001530313","E1","batch5","","866","stim/yes_67_hor_b1.png","f","pattern_response","true","f","pattern_79","866","true","54","","","","","","","","","","","","","","","","","","",""
"","","","","","html-keyboard-response","155","253722","0.0-2.0-7.0-0.24","5b71d15cc727a90001530313","E1","batch5","","null","<p class=block-text>Trial 64 out of 78</p>","null","pattern_show_trial_num","","","","","","","","","","","","","","","","","","","","","","","","",""
"","","","","","image-keyboard-response","156","255042","0.0-2.0-7.0-1.24","5b71d15cc727a90001530313","E1","batch5","","1317","stim/yes_52_ver_w1.png","f","pattern_response","true","f","pattern_73","1317","true","55","","","","","","","","","","","","","","","","","","",""
"","","","","","html-keyboard-response","157","256361","0.0-2.0-7.0-0.25","5b71d15cc727a90001530313","E1","batch5","","null","<p class=block-text>Trial 65 out of 78</p>","null","pattern_show_trial_num","","","","","","","","","","","","","","","","","","","","","","","","",""
"","","","","","image-keyboard-response","158","258335","0.0-2.0-7.0-1.25","5b71d15cc727a90001530313","E1","batch5","","1972","stim/no_48_1_w.png","j","pattern_response","true","j","pattern_28","1972","true","56","","","","","","","","","","","","","","","","","","",""
"","","","","","html-keyboard-response","159","259647","0.0-2.0-7.0-0.26","5b71d15cc727a90001530313","E1","batch5","","null","<p class=block-text>Trial 66 out of 78</p>","null","pattern_show_trial_num","","","","","","","","","","","","","","","","","","","","","","","","",""
"","","","","","image-keyboard-response","160","260272","0.0-2.0-7.0-1.26","5b71d15cc727a90001530313","E1","batch5","","624","stim/no_13_2_b.png","j","pattern_response","true","j","pattern_02","624","true","57","","","","","","","","","","","","","","","","","","",""
"","","","","","html-keyboard-response","161","261597","0.0-2.0-7.0-0.27","5b71d15cc727a90001530313","E1","batch5","","null","<p class=block-text>Trial 67 out of 78</p>","null","pattern_show_trial_num","","","","","","","","","","","","","","","","","","","","","","","","",""
"","","","","","image-keyboard-response","162","264623","0.0-2.0-7.0-1.27","5b71d15cc727a90001530313","E1","batch5","","3024","stim/no_70_2.png","j","pattern_response","true","j","pattern_40","3024","true","58","","","","","","","","","","","","","","","","","","",""
"","","","","","html-keyboard-response","163","265943","0.0-2.0-7.0-0.28","5b71d15cc727a90001530313","E1","batch5","","null","<p class=block-text>Trial 68 out of 78</p>","null","pattern_show_trial_num","","","","","","","","","","","","","","","","","","","","","","","","",""
"","","","","","image-keyboard-response","164","266618","0.0-2.0-7.0-1.28","5b71d15cc727a90001530313","E1","batch5","","673","stim/yes_25_hor_b1_b.png","f","pattern_response","true","f","pattern_49","673","true","59","","","","","","","","","","","","","","","","","","",""
"","","","","","html-keyboard-response","165","267925","0.0-2.0-7.0-0.29","5b71d15cc727a90001530313","E1","batch5","","null","<p class=block-text>Trial 69 out of 78</p>","null","pattern_show_trial_num","","","","","","","","","","","","","","","","","","","","","","","","",""
"","","","","","image-keyboard-response","166","270294","0.0-2.0-7.0-1.29","5b71d15cc727a90001530313","E1","batch5","","2367","stim/yes_48_dia_w1_w.png","j","pattern_response","false","f","pattern_69","2367","false","59","","","","","","","","","","","","","","","","","","",""
"","","","","","html-keyboard-response","167","271614","0.0-2.0-7.0-0.30","5b71d15cc727a90001530313","E1","batch5","","null","<p class=block-text>Trial 70 out of 78</p>","null","pattern_show_trial_num","","","","","","","","","","","","","","","","","","","","","","","","",""
"","","","","","image-keyboard-response","168","272847","0.0-2.0-7.0-1.30","5b71d15cc727a90001530313","E1","batch5","","1231","stim/yes_17_dia_w1.png","j","pattern_response","false","f","pattern_45","1231","false","59","","","","","","","","","","","","","","","","","","",""
"","","","","","html-keyboard-response","169","274169","0.0-2.0-7.0-0.31","5b71d15cc727a90001530313","E1","batch5","","null","<p class=block-text>Trial 71 out of 78</p>","null","pattern_show_trial_num","","","","","","","","","","","","","","","","","","","","","","","","",""
"","","","","","image-keyboard-response","170","274917","0.0-2.0-7.0-1.31","5b71d15cc727a90001530313","E1","batch5","","746","stim/yes_22_ver_w1.png","f","pattern_response","true","f","pattern_47","746","true","60","","","","","","","","","","","","","","","","","","",""
"","","","","","html-keyboard-response","171","276236","0.0-2.0-7.0-0.32","5b71d15cc727a90001530313","E1","batch5","","null","<p class=block-text>Trial 72 out of 78</p>","null","pattern_show_trial_num","","","","","","","","","","","","","","","","","","","","","","","","",""
"","","","","","image-keyboard-response","172","277817","0.0-2.0-7.0-1.32","5b71d15cc727a90001530313","E1","batch5","","1579","stim/yes_38_hor_b1_b.png","f","pattern_response","true","f","pattern_61","1579","true","61","","","","","","","","","","","","","","","","","","",""
"","","","","","html-keyboard-response","173","279129","0.0-2.0-7.0-0.33","5b71d15cc727a90001530313","E1","batch5","","null","<p class=block-text>Trial 73 out of 78</p>","null","pattern_show_trial_num","","","","","","","","","","","","","","","","","","","","","","","","",""
"","","","","","image-keyboard-response","174","279954","0.0-2.0-7.0-1.33","5b71d15cc727a90001530313","E1","batch5","","822","stim/no_17_1_w.png","j","pattern_response","true","j","pattern_04","822","true","62","","","","","","","","","","","","","","","","","","",""
"","","","","","html-keyboard-response","175","281261","0.0-2.0-7.0-0.34","5b71d15cc727a90001530313","E1","batch5","","null","<p class=block-text>Trial 74 out of 78</p>","null","pattern_show_trial_num","","","","","","","","","","","","","","","","","","","","","","","","",""
"","","","","","image-keyboard-response","176","282044","0.0-2.0-7.0-1.34","5b71d15cc727a90001530313","E1","batch5","","779","stim/yes_43_ver_w1_w.png","f","pattern_response","true","f","pattern_65","779","true","63","","","","","","","","","","","","","","","","","","",""
"","","","","","html-keyboard-response","177","283359","0.0-2.0-7.0-0.35","5b71d15cc727a90001530313","E1","batch5","","null","<p class=block-text>Trial 75 out of 78</p>","null","pattern_show_trial_num","","","","","","","","","","","","","","","","","","","","","","","","",""
"","","","","","image-keyboard-response","178","284920","0.0-2.0-7.0-1.35","5b71d15cc727a90001530313","E1","batch5","","1560","stim/yes_50_dia_w1.png","j","pattern_response","false","f","pattern_71","1560","false","63","","","","","","","","","","","","","","","","","","",""
"","","","","","html-keyboard-response","179","286243","0.0-2.0-7.0-0.36","5b71d15cc727a90001530313","E1","batch5","","null","<p class=block-text>Trial 76 out of 78</p>","null","pattern_show_trial_num","","","","","","","","","","","","","","","","","","","","","","","","",""
"","","","","","image-keyboard-response","180","288298","0.0-2.0-7.0-1.36","5b71d15cc727a90001530313","E1","batch5","","2052","stim/no_32_1_w.png","j","pattern_response","true","j","pattern_14","2052","true","64","","","","","","","","","","","","","","","","","","",""
"","","","","","html-keyboard-response","181","289610","0.0-2.0-7.0-0.37","5b71d15cc727a90001530313","E1","batch5","","null","<p class=block-text>Trial 77 out of 78</p>","null","pattern_show_trial_num","","","","","","","","","","","","","","","","","","","","","","","","",""
"","","","","","image-keyboard-response","182","290364","0.0-2.0-7.0-1.37","5b71d15cc727a90001530313","E1","batch5","","751","stim/yes_55_hor_w1_w.png","f","pattern_response","true","f","pattern_75","751","true","65","","","","","","","","","","","","","","","","","","",""
"","","","","","html-keyboard-response","183","291687","0.0-2.0-7.0-0.38","5b71d15cc727a90001530313","E1","batch5","","null","<p class=block-text>Trial 78 out of 78</p>","null","pattern_show_trial_num","","","","","","","","","","","","","","","","","","","","","","","","",""
"","","","","","image-keyboard-response","184","292608","0.0-2.0-7.0-1.38","5b71d15cc727a90001530313","E1","batch5","","920","stim/yes_60_ver_b1_b.png","f","pattern_response","true","f","pattern_77","920","true","66","","","","","","","","","","","","","","","","","","",""
"","","","","","html-button-response","185","371693","0.0-2.0-8.0","5b71d15cc727a90001530313","E1","batch5","","78558","<p class = block-text>This concludes the 4-in-a-row detection game.Thank you for your responses!<br>
            You responded correctly on 85% of the trials.<br>
            When you are ready, press ""Continue"" button to continue </p>","0","","","","","","","","","","","","","","","","","","","","","","","","","",""
"true","","","","","fullscreen","186","374788","0.0-3.0-0.0","5b71d15cc727a90001530313","E1","batch5","","","","","","","","","","","","","","","","","","","","","","","","","","","","","",""
"","","","","","instructions","187","414383","0.0-3.0-1.0-0.0-0.0","5b71d15cc727a90001530313","E1","batch5","[{""page_index"":0,""viewing_time"":8063},{""page_index"":1,""viewing_time"":3312},{""page_index"":2,""viewing_time"":4437},{""page_index"":3,""viewing_time"":10393},{""page_index"":4,""viewing_time"":3433},{""page_index"":5,""viewing_time"":7189},{""page_index"":6,""viewing_time"":2767}]","39595","","","tol-instructions","","","","","","","","","","","","","","","","","","","","","","","","",""
"","","","","","html-button-response","188","415447","0.0-3.0-1.0-1.0-0.0","5b71d15cc727a90001530313","E1","batch5","","1062","<p class=block-text> Let's answer a few questions <br>","0","tol_enter_quiz","","","","","","","","","","","","","","","","","","","","","","","","",""
"","","","","","html-button-response","189","419211","0.0-3.0-1.0-1.0-1.0","5b71d15cc727a90001530313","E1","batch5","","3763","<p class = block-text>True or False: You can only move the ball on top of a peg. <br></p>","0","tol_quiz","true","","","","","","","","","","","","","","","","","","","","","","","",""
"","","","","","html-button-response","190","420209","0.0-3.0-1.0-1.0-2.0","5b71d15cc727a90001530313","E1","batch5","","996","<p class = block-text>Correct! You can only move the ball on top of a peg.</p>","0","tol_quiz_feedback","","","","","","","","","","","","","","","","","","","","","","","","",""
"","","","","","html-button-response","191","422205","0.0-3.0-1.0-1.0-3.0","5b71d15cc727a90001530313","E1","batch5","","1995","<p class = block-text>True or False: You should try to match your board with the target board with fewest moves possible. <br></p>","0","tol_quiz","true","","","","","","","","","","","","","","","","","","","","","","","",""
"","","","","","html-button-response","192","422785","0.0-3.0-1.0-1.0-4.0","5b71d15cc727a90001530313","E1","batch5","","579","<p class = block-text>Correct! </p>","0","tol_quiz_feedback","","","","","","","","","","","","","","","","","","","","","","","","",""
"","","","","","html-button-response","193","424447","0.0-3.0-2.0","5b71d15cc727a90001530313","E1","batch5","","1659","<p class=block-text> Now that you've understood the game, let's practice a few easier examples before we start!<br> <br>","0","","","","","","","","","","","","","","","","","","","","","","","","","",""
"","","","","","single-stim-button","194","426231","0.0-3.0-3.0-0.0","5b71d15cc727a90001530313","E1","batch5","","1782","","","tol_practice","","","","","","","","","tol_peg_2","1782","1782","0","[[1,2,0],[0,0],[0]]","1","[[1,2,0],[0,0],[3]]","practice","1782","","","","","","","",""
"","","","","","single-stim-button","195","426949","0.0-3.0-3.0-1.0","5b71d15cc727a90001530313","E1","batch5","","717","","","tol_practice","","","","","","","","","tol_peg_3","717","717","0","[[1,2,0],[0,0],[3]]","1","[[1,2,0],[0,0],[3]]","practice","717","","","","","","","",""
"","","","","","poldrack-single-stim","196","427963","0.0-3.0-4.0","5b71d15cc727a90001530313","E1","batch5","","-1","","","tol_feedback","true","","","","","","","","","1000","1000","500","","","","","","-1","none","true","","0","","",""
"","","","","","single-stim-button","197","432477","0.0-3.0-5.0-0.0","5b71d15cc727a90001530313","E1","batch5","","4512","","","tol_practice","","","","","","","","","tol_peg_1","4512","4512","0","[[1,0,0],[3,0],[0]]","2","[[0,0,0],[3,1],[2]]","practice","4512","","","","","","","",""
"","","","","","single-stim-button","198","433351","0.0-3.0-5.0-1.0","5b71d15cc727a90001530313","E1","batch5","","874","","","tol_practice","","","","","","","","","tol_peg_3","874","874","0","[[1,0,0],[3,0],[2]]","2","[[0,0,0],[3,1],[2]]","practice","874","","","","","","","",""
"","","","","","single-stim-button","199","434019","0.0-3.0-5.1-0.1","5b71d15cc727a90001530313","E1","batch5","","667","","","tol_practice","","","","","","","","","tol_peg_1","667","667","0","[[0,0,0],[3,0],[2]]","3","[[0,0,0],[3,1],[2]]","practice","667","","","","","","","",""
"","","","","","single-stim-button","200","434589","0.0-3.0-5.1-1.1","5b71d15cc727a90001530313","E1","batch5","","569","","","tol_practice","","","","","","","","","tol_peg_2","569","569","0","[[0,0,0],[3,1],[2]]","3","[[0,0,0],[3,1],[2]]","practice","569","","","","","","","",""
"","","","","","poldrack-single-stim","201","435600","0.0-3.0-6.0","5b71d15cc727a90001530313","E1","batch5","","-1","","","tol_feedback","true","","","","","","","","","1000","1000","500","","","","","","-1","none","true","","0","","",""
"","","","","","single-stim-button","202","437743","0.0-3.0-7.0-0.0","5b71d15cc727a90001530313","E1","batch5","","2142","","","tol_practice","","","","","","","","","tol_peg_2","2142","2142","0","[[1,2,0],[0,0],[0]]","4","[[1,0,0],[2,0],[3]]","practice","2142","","","","","","","",""
"","","","","","single-stim-button","203","438656","0.0-3.0-7.0-1.0","5b71d15cc727a90001530313","E1","batch5","","912","","","tol_practice","","","","","","","","","tol_peg_3","912","912","0","[[1,2,0],[0,0],[3]]","4","[[1,0,0],[2,0],[3]]","practice","912","","","","","","","",""
"","","","","","single-stim-button","204","440333","0.0-3.0-7.1-0.1","5b71d15cc727a90001530313","E1","batch5","","1676","","","tol_practice","","","","","","","","","tol_peg_1","1676","1676","0","[[1,0,0],[0,0],[3]]","5","[[1,0,0],[2,0],[3]]","practice","1676","","","","","","","",""
"","","","","","single-stim-button","205","441271","0.0-3.0-7.1-1.1","5b71d15cc727a90001530313","E1","batch5","","937","","","tol_practice","","","","","","","","","tol_peg_2","937","937","0","[[1,0,0],[2,0],[3]]","5","[[1,0,0],[2,0],[3]]","practice","937","","","","","","","",""
"","","","","","poldrack-single-stim","206","442280","0.0-3.0-8.0","5b71d15cc727a90001530313","E1","batch5","","-1","","","tol_feedback","true","","","","","","","","","1000","1000","500","","","","","","-1","none","true","","0","","",""
"","","","","","html-button-response","207","445781","0.0-3.0-9.0","5b71d15cc727a90001530313","E1","batch5","","3499","<div class = centerbox><p class = center-block-text>Great job! You are done with practice trials<br>You are about to start official trials.<br> <br> Problem <strong>1</strong> out of 25 problems</p></div>","0","tol_instruction","","","","","","","","","","","","","","","","","","","","","","","","",""
"","","","","","single-stim-button","208","449971","0.0-3.0-10.0-0.0","5b71d15cc727a90001530313","E1","batch5","","3176","","","tol_tohand","","","","","","","","","tol_peg_2","3176","3176","0","[[1,2,0],[0,0],[0]]","1","[[1,3,0],[2,0],[0]]","0","0","","","","","","3","",""
"","","","","","single-stim-button","209","452021","0.0-3.0-10.0-1.0","5b71d15cc727a90001530313","E1","batch5","","2049","","","tol_toboard","","","","","","","","","tol_peg_3","2049","2049","0","[[1,2,0],[0,0],[3]]","1","[[1,3,0],[2,0],[0]]","0","0","","","","","","3","",""
"","","","","","single-stim-button","210","452829","0.0-3.0-10.1-0.1","5b71d15cc727a90001530313","E1","batch5","","807","","","tol_tohand","","","","","","","","","tol_peg_1","807","807","0","[[1,0,0],[0,0],[3]]","2","[[1,3,0],[2,0],[0]]","0","0","","","","","","3","",""
"","","","","","single-stim-button","211","453647","0.0-3.0-10.1-1.1","5b71d15cc727a90001530313","E1","batch5","","818","","","tol_toboard","","","","","","","","","tol_peg_2","818","818","0","[[1,0,0],[2,0],[3]]","2","[[1,3,0],[2,0],[0]]","0","0","","","","","","3","",""
"","","","","","single-stim-button","212","454275","0.0-3.0-10.2-0.2","5b71d15cc727a90001530313","E1","batch5","","627","","","tol_tohand","","","","","","","","","tol_peg_3","627","627","0","[[1,0,0],[2,0],[0]]","3","[[1,3,0],[2,0],[0]]","0","0","","","","","","3","",""
"","","","","","single-stim-button","213","455067","0.0-3.0-10.2-1.2","5b71d15cc727a90001530313","E1","batch5","","791","","","tol_toboard","","","","","","","","","tol_peg_1","791","791","0","[[1,3,0],[2,0],[0]]","3","[[1,3,0],[2,0],[0]]","0","0","","","","","","3","",""
"","","","","","poldrack-single-stim","214","456080","0.0-3.0-11.0","5b71d15cc727a90001530313","E1","batch5","","-1","","","tol_feedback","true","","","","","","","","","1000","1000","500","","","","","","-1","none","true","3176","4610","","",""
"","","","","","html-button-response","215","457253","0.0-3.0-12.0","5b71d15cc727a90001530313","E1","batch5","","1170","<div class = centerbox><p class = center-block-text>problem <strong>2</strong> out of 25 problems</p></div>","0","tol_trial_num","","","","","","","","","","","","","","","","","","","","","","","","",""
"","","","","","single-stim-button","216","460147","0.0-3.0-13.0-0.0","5b71d15cc727a90001530313","E1","batch5","","2893","","","tol_tohand","","","","","","","","","tol_peg_2","2893","2893","0","[[1,2,0],[0,0],[0]]","1","[[2,1,3],[0,0],[0]]","1","0","","","","","","5","",""
"","","","","","single-stim-button","217","460899","0.0-3.0-13.0-1.0","5b71d15cc727a90001530313","E1","batch5","","751","","","tol_toboard","","","","","","","","","tol_peg_3","751","751","0","[[1,2,0],[0,0],[3]]","1","[[2,1,3],[0,0],[0]]","1","0","","","","","","5","",""
"","","","","","single-stim-button","218","461647","0.0-3.0-13.1-0.1","5b71d15cc727a90001530313","E1","batch5","","747","","","tol_tohand","","","","","","","","","tol_peg_1","747","747","0","[[1,0,0],[0,0],[3]]","2","[[2,1,3],[0,0],[0]]","1","0","","","","","","5","",""
"","","","","","single-stim-button","219","469435","0.0-3.0-13.1-1.1","5b71d15cc727a90001530313","E1","batch5","","7787","","","tol_toboard","","","","","","","","","tol_peg_2","7787","7787","0","[[1,0,0],[2,0],[3]]","2","[[2,1,3],[0,0],[0]]","1","0","","","","","","5","",""
"","","","","","single-stim-button","220","470035","0.0-3.0-13.2-0.2","5b71d15cc727a90001530313","E1","batch5","","599","","","tol_tohand","","","","","","","","","tol_peg_3","599","599","0","[[1,0,0],[2,0],[0]]","3","[[2,1,3],[0,0],[0]]","1","0","","","","","","5","",""
"","","","","","single-stim-button","221","470743","0.0-3.0-13.2-1.2","5b71d15cc727a90001530313","E1","batch5","","707","","","tol_toboard","","","","","","","","","tol_peg_2","707","707","0","[[1,0,0],[2,3],[0]]","3","[[2,1,3],[0,0],[0]]","1","0","","","","","","5","",""
"","","","","","single-stim-button","222","471653","0.0-3.0-13.3-0.3","5b71d15cc727a90001530313","E1","batch5","","909","","","tol_tohand","","","","","","","","","tol_peg_1","909","909","0","[[0,0,0],[2,3],[0]]","4","[[2,1,3],[0,0],[0]]","1","0","","","","","","5","",""
"","","","","","single-stim-button","223","472753","0.0-3.0-13.3-1.3","5b71d15cc727a90001530313","E1","batch5","","1099","","","tol_toboard","","","","","","","","","tol_peg_3","1099","1099","0","[[0,0,0],[2,3],[1]]","4","[[2,1,3],[0,0],[0]]","1","0","","","","","","5","",""
"","","","","","single-stim-button","224","473675","0.0-3.0-13.4-0.4","5b71d15cc727a90001530313","E1","batch5","","921","","","tol_tohand","","","","","","","","","tol_peg_2","921","921","0","[[0,0,0],[2,0],[1]]","5","[[2,1,3],[0,0],[0]]","1","0","","","","","","5","",""
"","","","","","single-stim-button","225","474771","0.0-3.0-13.4-1.4","5b71d15cc727a90001530313","E1","batch5","","1095","","","tol_toboard","","","","","","","","","tol_peg_2","1095","1095","0","[[0,0,0],[2,3],[1]]","5","[[2,1,3],[0,0],[0]]","1","0","","","","","","5","",""
"","","","","","single-stim-button","226","476171","0.0-3.0-13.5-0.5","5b71d15cc727a90001530313","E1","batch5","","1399","","","tol_tohand","","","","","","","","","tol_peg_2","1399","1399","0","[[0,0,0],[2,0],[1]]","6","[[2,1,3],[0,0],[0]]","1","0","","","","","","5","",""
"","","","","","single-stim-button","227","476911","0.0-3.0-13.5-1.5","5b71d15cc727a90001530313","E1","batch5","","739","","","tol_toboard","","","","","","","","","tol_peg_1","739","739","0","[[3,0,0],[2,0],[1]]","6","[[2,1,3],[0,0],[0]]","1","0","","","","","","5","",""
"","","","","","single-stim-button","228","479995","0.0-3.0-13.6-0.6","5b71d15cc727a90001530313","E1","batch5","","3083","","","tol_tohand","","","","","","","","","tol_peg_3","3083","3083","0","[[3,0,0],[2,0],[0]]","7","[[2,1,3],[0,0],[0]]","1","0","","","","","","5","",""
"","","","","","single-stim-button","229","481007","0.0-3.0-13.6-1.6","5b71d15cc727a90001530313","E1","batch5","","1011","","","tol_toboard","","","","","","","","","tol_peg_2","1011","1011","0","[[3,0,0],[2,1],[0]]","7","[[2,1,3],[0,0],[0]]","1","0","","","","","","5","",""
"","","","","","single-stim-button","230","481881","0.0-3.0-13.7-0.7","5b71d15cc727a90001530313","E1","batch5","","873","","","tol_tohand","","","","","","","","","tol_peg_1","873","873","0","[[0,0,0],[2,1],[0]]","8","[[2,1,3],[0,0],[0]]","1","0","","","","","","5","",""
"","","","","","single-stim-button","231","484541","0.0-3.0-13.7-1.7","5b71d15cc727a90001530313","E1","batch5","","2659","","","tol_toboard","","","","","","","","","tol_peg_3","2659","2659","0","[[0,0,0],[2,1],[3]]","8","[[2,1,3],[0,0],[0]]","1","0","","","","","","5","",""
"","","","","","single-stim-button","232","485415","0.0-3.0-13.8-0.8","5b71d15cc727a90001530313","E1","batch5","","873","","","tol_tohand","","","","","","","","","tol_peg_2","873","873","0","[[0,0,0],[2,0],[3]]","9","[[2,1,3],[0,0],[0]]","1","0","","","","","","5","",""
"","","","","","single-stim-button","233","486447","0.0-3.0-13.8-1.8","5b71d15cc727a90001530313","E1","batch5","","1031","","","tol_toboard","","","","","","","","","tol_peg_1","1031","1031","0","[[1,0,0],[2,0],[3]]","9","[[2,1,3],[0,0],[0]]","1","0","","","","","","5","",""
"","","","","","single-stim-button","234","488643","0.0-3.0-13.9-0.9","5b71d15cc727a90001530313","E1","batch5","","2195","","","tol_tohand","","","","","","","","","tol_peg_3","2195","2195","0","[[1,0,0],[2,0],[0]]","10","[[2,1,3],[0,0],[0]]","1","0","","","","","","5","",""
"","","","","","single-stim-button","235","489569","0.0-3.0-13.9-1.9","5b71d15cc727a90001530313","E1","batch5","","925","","","tol_toboard","","","","","","","","","tol_peg_1","925","925","0","[[1,3,0],[2,0],[0]]","10","[[2,1,3],[0,0],[0]]","1","0","","","","","","5","",""
"","","","","","single-stim-button","236","490593","0.0-3.0-13.10-0.10","5b71d15cc727a90001530313","E1","batch5","","1023","","","tol_tohand","","","","","","","","","tol_peg_2","1023","1023","0","[[1,3,0],[0,0],[0]]","11","[[2,1,3],[0,0],[0]]","1","0","","","","","","5","",""
"","","","","","single-stim-button","237","491115","0.0-3.0-13.10-1.10","5b71d15cc727a90001530313","E1","batch5","","521","","","tol_toboard","","","","","","","","","tol_peg_3","521","521","0","[[1,3,0],[0,0],[2]]","11","[[2,1,3],[0,0],[0]]","1","0","","","","","","5","",""
"","","","","","single-stim-button","238","491843","0.0-3.0-13.11-0.11","5b71d15cc727a90001530313","E1","batch5","","727","","","tol_tohand","","","","","","","","","tol_peg_1","727","727","0","[[1,0,0],[0,0],[2]]","12","[[2,1,3],[0,0],[0]]","1","0","","","","","","5","",""
"","","","","","single-stim-button","239","492987","0.0-3.0-13.11-1.11","5b71d15cc727a90001530313","E1","batch5","","1144","","","tol_toboard","","","","","","","","","tol_peg_2","1144","1144","0","[[1,0,0],[3,0],[2]]","12","[[2,1,3],[0,0],[0]]","1","0","","","","","","5","",""
"","","","","","single-stim-button","240","493837","0.0-3.0-13.12-0.12","5b71d15cc727a90001530313","E1","batch5","","849","","","tol_tohand","","","","","","","","","tol_peg_1","849","849","0","[[0,0,0],[3,0],[2]]","13","[[2,1,3],[0,0],[0]]","1","0","","","","","","5","",""
"","","","","","single-stim-button","241","494585","0.0-3.0-13.12-1.12","5b71d15cc727a90001530313","E1","batch5","","748","","","tol_toboard","","","","","","","","","tol_peg_2","748","748","0","[[0,0,0],[3,1],[2]]","13","[[2,1,3],[0,0],[0]]","1","0","","","","","","5","",""
"","","","","","single-stim-button","242","495187","0.0-3.0-13.13-0.13","5b71d15cc727a90001530313","E1","batch5","","602","","","tol_tohand","","","","","","","","","tol_peg_3","602","602","0","[[0,0,0],[3,1],[0]]","14","[[2,1,3],[0,0],[0]]","1","0","","","","","","5","",""
"","","","","","single-stim-button","243","496307","0.0-3.0-13.13-1.13","5b71d15cc727a90001530313","E1","batch5","","1120","","","tol_toboard","","","","","","","","","tol_peg_1","1120","1120","0","[[2,0,0],[3,1],[0]]","14","[[2,1,3],[0,0],[0]]","1","0","","","","","","5","",""
"","","","","","single-stim-button","244","497161","0.0-3.0-13.14-0.14","5b71d15cc727a90001530313","E1","batch5","","852","","","tol_tohand","","","","","","","","","tol_peg_2","852","852","0","[[2,0,0],[3,0],[0]]","15","[[2,1,3],[0,0],[0]]","1","0","","","","","","5","",""
"","","","","","single-stim-button","245","497805","0.0-3.0-13.14-1.14","5b71d15cc727a90001530313","E1","batch5","","643","","","tol_toboard","","","","","","","","","tol_peg_1","643","643","0","[[2,1,0],[3,0],[0]]","15","[[2,1,3],[0,0],[0]]","1","0","","","","","","5","",""
"","","","","","single-stim-button","246","498549","0.0-3.0-13.15-0.15","5b71d15cc727a90001530313","E1","batch5","","744","","","tol_tohand","","","","","","","","","tol_peg_2","744","744","0","[[2,1,0],[0,0],[0]]","16","[[2,1,3],[0,0],[0]]","1","0","","","","","","5","",""
"","","","","","single-stim-button","247","499111","0.0-3.0-13.15-1.15","5b71d15cc727a90001530313","E1","batch5","","560","","","tol_toboard","","","","","","","","","tol_peg_1","560","560","0","[[2,1,3],[0,0],[0]]","16","[[2,1,3],[0,0],[0]]","1","0","","","","","","5","",""
"","","","","","poldrack-single-stim","248","500114","0.0-3.0-14.0","5b71d15cc727a90001530313","E1","batch5","","-1","","","tol_feedback","true","","","","","","","","","1000","1000","500","","","","","","-1","none","true","2893","19289","","",""
"","","","","","html-button-response","249","501359","0.0-3.0-15.0","5b71d15cc727a90001530313","E1","batch5","","1244","<div class = centerbox><p class = center-block-text>problem <strong>3</strong> out of 25 problems</p></div>","0","tol_trial_num","","","","","","","","","","","","","","","","","","","","","","","","",""
"","","","","","single-stim-button","250","506291","0.0-3.0-16.0-0.0","5b71d15cc727a90001530313","E1","batch5","","4931","","","tol_tohand","","","","","","","","","tol_peg_1","4931","4931","0","[[2,0,0],[0,0],[1]]","1","[[1,2,0],[3,0],[0]]","2","0","","","","","","4","",""
"","","","","","single-stim-button","251","507125","0.0-3.0-16.0-1.0","5b71d15cc727a90001530313","E1","batch5","","833","","","tol_toboard","","","","","","","","","tol_peg_2","833","833","0","[[2,0,0],[3,0],[1]]","1","[[1,2,0],[3,0],[0]]","2","0","","","","","","4","",""
"","","","","","single-stim-button","252","509197","0.0-3.0-16.1-0.1","5b71d15cc727a90001530313","E1","batch5","","2071","","","tol_tohand","","","","","","","","","tol_peg_1","2071","2071","0","[[0,0,0],[3,0],[1]]","2","[[1,2,0],[3,0],[0]]","2","0","","","","","","4","",""
"","","","","","single-stim-button","253","509973","0.0-3.0-16.1-1.1","5b71d15cc727a90001530313","E1","batch5","","776","","","tol_toboard","","","","","","","","","tol_peg_2","776","776","0","[[0,0,0],[3,2],[1]]","2","[[1,2,0],[3,0],[0]]","2","0","","","","","","4","",""
"","","","","","single-stim-button","254","510562","0.0-3.0-16.2-0.2","5b71d15cc727a90001530313","E1","batch5","","589","","","tol_tohand","","","","","","","","","tol_peg_3","589","589","0","[[0,0,0],[3,2],[0]]","3","[[1,2,0],[3,0],[0]]","2","0","","","","","","4","",""
"","","","","","single-stim-button","255","511291","0.0-3.0-16.2-1.2","5b71d15cc727a90001530313","E1","batch5","","728","","","tol_toboard","","","","","","","","","tol_peg_1","728","728","0","[[1,0,0],[3,2],[0]]","3","[[1,2,0],[3,0],[0]]","2","0","","","","","","4","",""
"","","","","","single-stim-button","256","511975","0.0-3.0-16.3-0.3","5b71d15cc727a90001530313","E1","batch5","","683","","","tol_tohand","","","","","","","","","tol_peg_2","683","683","0","[[1,0,0],[3,0],[0]]","4","[[1,2,0],[3,0],[0]]","2","0","","","","","","4","",""
"","","","","","single-stim-button","257","512667","0.0-3.0-16.3-1.3","5b71d15cc727a90001530313","E1","batch5","","692","","","tol_toboard","","","","","","","","","tol_peg_1","692","692","0","[[1,2,0],[3,0],[0]]","4","[[1,2,0],[3,0],[0]]","2","0","","","","","","4","",""
"","","","","","poldrack-single-stim","258","513680","0.0-3.0-17.0","5b71d15cc727a90001530313","E1","batch5","","-1","","","tol_feedback","true","","","","","","","","","1000","1000","500","","","","","","-1","none","true","4931","8274","","",""
"","","","","","html-button-response","259","515857","0.0-3.0-18.0","5b71d15cc727a90001530313","E1","batch5","","2176","<div class = centerbox><p class = center-block-text>problem <strong>4</strong> out of 25 problems</p></div>","0","tol_trial_num","","","","","","","","","","","","","","","","","","","","","","","","",""
"","","","","","single-stim-button","260","519895","0.0-3.0-19.0-0.0","5b71d15cc727a90001530313","E1","batch5","","4037","","","tol_tohand","","","","","","","","","tol_peg_2","4037","4037","0","[[3,0,0],[2,0],[0]]","1","[[3,0,0],[1,0],[2]]","3","0","","","","","","3","",""
"","","","","","single-stim-button","261","521187","0.0-3.0-19.0-1.0","5b71d15cc727a90001530313","E1","batch5","","1292","","","tol_toboard","","","","","","","","","tol_peg_1","1292","1292","0","[[3,1,0],[2,0],[0]]","1","[[3,0,0],[1,0],[2]]","3","0","","","","","","3","",""
"","","","","","single-stim-button","262","521831","0.0-3.0-19.1-0.1","5b71d15cc727a90001530313","E1","batch5","","644","","","tol_tohand","","","","","","","","","tol_peg_2","644","644","0","[[3,1,0],[0,0],[0]]","2","[[3,0,0],[1,0],[2]]","3","0","","","","","","3","",""
"","","","","","single-stim-button","263","522465","0.0-3.0-19.1-1.1","5b71d15cc727a90001530313","E1","batch5","","634","","","tol_toboard","","","","","","","","","tol_peg_3","634","634","0","[[3,1,0],[0,0],[2]]","2","[[3,0,0],[1,0],[2]]","3","0","","","","","","3","",""
"","","","","","single-stim-button","264","523093","0.0-3.0-19.2-0.2","5b71d15cc727a90001530313","E1","batch5","","627","","","tol_tohand","","","","","","","","","tol_peg_1","627","627","0","[[3,0,0],[0,0],[2]]","3","[[3,0,0],[1,0],[2]]","3","0","","","","","","3","",""
"","","","","","single-stim-button","265","523951","0.0-3.0-19.2-1.2","5b71d15cc727a90001530313","E1","batch5","","858","","","tol_toboard","","","","","","","","","tol_peg_2","858","858","0","[[3,0,0],[1,0],[2]]","3","[[3,0,0],[1,0],[2]]","3","0","","","","","","3","",""
"","","","","","poldrack-single-stim","266","524959","0.0-3.0-20.0","5b71d15cc727a90001530313","E1","batch5","","-1","","","tol_feedback","true","","","","","","","","","1000","1000","500","","","","","","-1","none","true","4037","5308","","",""
"","","","","","html-button-response","267","527700","0.0-3.0-21.0","5b71d15cc727a90001530313","E1","batch5","","2739","<div class = centerbox><p class = center-block-text>problem <strong>5</strong> out of 25 problems</p></div>","0","tol_trial_num","","","","","","","","","","","","","","","","","","","","","","","","",""
"","","","","","single-stim-button","268","531209","0.0-3.0-22.0-0.0","5b71d15cc727a90001530313","E1","batch5","","3508","","","tol_tohand","","","","","","","","","tol_peg_2","3508","3508","0","[[1,0,0],[0,0],[3]]","1","[[0,0,0],[1,2],[3]]","4","0","","","","","","7","",""
"","","","","","single-stim-button","269","531837","0.0-3.0-22.0-1.0","5b71d15cc727a90001530313","E1","batch5","","627","","","tol_toboard","","","","","","","","","tol_peg_1","627","627","0","[[1,2,0],[0,0],[3]]","1","[[0,0,0],[1,2],[3]]","4","0","","","","","","7","",""
"","","","","","single-stim-button","270","532493","0.0-3.0-22.1-0.1","5b71d15cc727a90001530313","E1","batch5","","656","","","tol_tohand","","","","","","","","","tol_peg_3","656","656","0","[[1,2,0],[0,0],[0]]","2","[[0,0,0],[1,2],[3]]","4","0","","","","","","7","",""
"","","","","","single-stim-button","271","535893","0.0-3.0-22.1-1.1","5b71d15cc727a90001530313","E1","batch5","","3399","","","tol_toboard","","","","","","","","","tol_peg_3","3399","3399","0","[[1,2,0],[0,0],[3]]","2","[[0,0,0],[1,2],[3]]","4","0","","","","","","7","",""
"","","","","","single-stim-button","272","542279","0.0-3.0-22.2-0.2","5b71d15cc727a90001530313","E1","batch5","","6385","","","tol_tohand","","","","","","","","","tol_peg_3","6385","6385","0","[[1,2,0],[0,0],[0]]","3","[[0,0,0],[1,2],[3]]","4","0","","","","","","7","",""
"","","","","","single-stim-button","273","542745","0.0-3.0-22.2-1.2","5b71d15cc727a90001530313","E1","batch5","","466","","","tol_toboard","","","","","","","","","tol_peg_2","466","466","0","[[1,2,0],[3,0],[0]]","3","[[0,0,0],[1,2],[3]]","4","0","","","","","","7","",""
"","","","","","single-stim-button","274","543445","0.0-3.0-22.3-0.3","5b71d15cc727a90001530313","E1","batch5","","699","","","tol_tohand","","","","","","","","","tol_peg_1","699","699","0","[[1,0,0],[3,0],[0]]","4","[[0,0,0],[1,2],[3]]","4","0","","","","","","7","",""
"","","","","","single-stim-button","275","544127","0.0-3.0-22.3-1.3","5b71d15cc727a90001530313","E1","batch5","","681","","","tol_toboard","","","","","","","","","tol_peg_3","681","681","0","[[1,0,0],[3,0],[2]]","4","[[0,0,0],[1,2],[3]]","4","0","","","","","","7","",""
"","","","","","single-stim-button","276","554353","0.0-3.0-22.4-0.4","5b71d15cc727a90001530313","E1","batch5","","10225","","","tol_tohand","","","","","","","","","tol_peg_3","10225","10225","0","[[1,0,0],[3,0],[0]]","5","[[0,0,0],[1,2],[3]]","4","0","","","","","","7","",""
"","","","","","single-stim-button","277","555321","0.0-3.0-22.4-1.4","5b71d15cc727a90001530313","E1","batch5","","967","","","tol_toboard","","","","","","","","","tol_peg_1","967","967","0","[[1,2,0],[3,0],[0]]","5","[[0,0,0],[1,2],[3]]","4","0","","","","","","7","",""
"","","","","","single-stim-button","278","556086","0.0-3.0-22.5-0.5","5b71d15cc727a90001530313","E1","batch5","","763","","","tol_tohand","","","","","","","","","tol_peg_2","763","763","0","[[1,2,0],[0,0],[0]]","6","[[0,0,0],[1,2],[3]]","4","0","","","","","","7","",""
"","","","","","single-stim-button","279","556737","0.0-3.0-22.5-1.5","5b71d15cc727a90001530313","E1","batch5","","651","","","tol_toboard","","","","","","","","","tol_peg_3","651","651","0","[[1,2,0],[0,0],[3]]","6","[[0,0,0],[1,2],[3]]","4","0","","","","","","7","",""
"","","","","","single-stim-button","280","564831","0.0-3.0-22.6-0.6","5b71d15cc727a90001530313","E1","batch5","","8093","","","tol_tohand","","","","","","","","","tol_peg_1","8093","8093","0","[[1,0,0],[0,0],[3]]","7","[[0,0,0],[1,2],[3]]","4","0","","","","","","7","",""
"","","","","","single-stim-button","281","568157","0.0-3.0-22.6-1.6","5b71d15cc727a90001530313","E1","batch5","","3325","","","tol_toboard","","","","","","","","","tol_peg_2","3325","3325","0","[[1,0,0],[2,0],[3]]","7","[[0,0,0],[1,2],[3]]","4","0","","","","","","7","",""
"","","","","","single-stim-button","282","568695","0.0-3.0-22.7-0.7","5b71d15cc727a90001530313","E1","batch5","","537","","","tol_tohand","","","","","","","","","tol_peg_3","537","537","0","[[1,0,0],[2,0],[0]]","8","[[0,0,0],[1,2],[3]]","4","0","","","","","","7","",""
"","","","","","single-stim-button","283","569273","0.0-3.0-22.7-1.7","5b71d15cc727a90001530313","E1","batch5","","577","","","tol_toboard","","","","","","","","","tol_peg_1","577","577","0","[[1,3,0],[2,0],[0]]","8","[[0,0,0],[1,2],[3]]","4","0","","","","","","7","",""
"","","","","","single-stim-button","284","569817","0.0-3.0-22.8-0.8","5b71d15cc727a90001530313","E1","batch5","","543","","","tol_tohand","","","","","","","","","tol_peg_2","543","543","0","[[1,3,0],[0,0],[0]]","9","[[0,0,0],[1,2],[3]]","4","0","","","","","","7","",""
"","","","","","single-stim-button","285","570395","0.0-3.0-22.8-1.8","5b71d15cc727a90001530313","E1","batch5","","578","","","tol_toboard","","","","","","","","","tol_peg_3","578","578","0","[[1,3,0],[0,0],[2]]","9","[[0,0,0],[1,2],[3]]","4","0","","","","","","7","",""
"","","","","","single-stim-button","286","574003","0.0-3.0-22.9-0.9","5b71d15cc727a90001530313","E1","batch5","","3607","","","tol_tohand","","","","","","","","","tol_peg_1","3607","3607","0","[[1,0,0],[0,0],[2]]","10","[[0,0,0],[1,2],[3]]","4","0","","","","","","7","",""
"","","","","","single-stim-button","287","574823","0.0-3.0-22.9-1.9","5b71d15cc727a90001530313","E1","batch5","","819","","","tol_toboard","","","","","","","","","tol_peg_2","819","819","0","[[1,0,0],[3,0],[2]]","10","[[0,0,0],[1,2],[3]]","4","0","","","","","","7","",""
"","","","","","single-stim-button","288","575565","0.0-3.0-22.10-0.10","5b71d15cc727a90001530313","E1","batch5","","741","","","tol_tohand","","","","","","","","","tol_peg_1","741","741","0","[[0,0,0],[3,0],[2]]","11","[[0,0,0],[1,2],[3]]","4","0","","","","","","7","",""
"","","","","","single-stim-button","289","576313","0.0-3.0-22.10-1.10","5b71d15cc727a90001530313","E1","batch5","","746","","","tol_toboard","","","","","","","","","tol_peg_2","746","746","0","[[0,0,0],[3,1],[2]]","11","[[0,0,0],[1,2],[3]]","4","0","","","","","","7","",""
"","","","","","single-stim-button","290","576872","0.0-3.0-22.11-0.11","5b71d15cc727a90001530313","E1","batch5","","558","","","tol_tohand","","","","","","","","","tol_peg_3","558","558","0","[[0,0,0],[3,1],[0]]","12","[[0,0,0],[1,2],[3]]","4","0","","","","","","7","",""
"","","","","","single-stim-button","291","577705","0.0-3.0-22.11-1.11","5b71d15cc727a90001530313","E1","batch5","","833","","","tol_toboard","","","","","","","","","tol_peg_1","833","833","0","[[2,0,0],[3,1],[0]]","12","[[0,0,0],[1,2],[3]]","4","0","","","","","","7","",""
"","","","","","single-stim-button","292","579007","0.0-3.0-22.12-0.12","5b71d15cc727a90001530313","E1","batch5","","1301","","","tol_tohand","","","","","","","","","tol_peg_2","1301","1301","0","[[2,0,0],[3,0],[0]]","13","[[0,0,0],[1,2],[3]]","4","0","","","","","","7","",""
"","","","","","single-stim-button","293","580609","0.0-3.0-22.12-1.12","5b71d15cc727a90001530313","E1","batch5","","1600","","","tol_toboard","","","","","","","","","tol_peg_1","1600","1600","0","[[2,1,0],[3,0],[0]]","13","[[0,0,0],[1,2],[3]]","4","0","","","","","","7","",""
"","","","","","single-stim-button","294","581435","0.0-3.0-22.13-0.13","5b71d15cc727a90001530313","E1","batch5","","826","","","tol_tohand","","","","","","","","","tol_peg_2","826","826","0","[[2,1,0],[0,0],[0]]","14","[[0,0,0],[1,2],[3]]","4","0","","","","","","7","",""
"","","","","","single-stim-button","295","582107","0.0-3.0-22.13-1.13","5b71d15cc727a90001530313","E1","batch5","","671","","","tol_toboard","","","","","","","","","tol_peg_3","671","671","0","[[2,1,0],[0,0],[3]]","14","[[0,0,0],[1,2],[3]]","4","0","","","","","","7","",""
"","","","","","single-stim-button","296","582838","0.0-3.0-22.14-0.14","5b71d15cc727a90001530313","E1","batch5","","730","","","tol_tohand","","","","","","","","","tol_peg_1","730","730","0","[[2,0,0],[0,0],[3]]","15","[[0,0,0],[1,2],[3]]","4","0","","","","","","7","",""
"","","","","","single-stim-button","297","583519","0.0-3.0-22.14-1.14","5b71d15cc727a90001530313","E1","batch5","","679","","","tol_toboard","","","","","","","","","tol_peg_2","679","679","0","[[2,0,0],[1,0],[3]]","15","[[0,0,0],[1,2],[3]]","4","0","","","","","","7","",""
"","","","","","single-stim-button","298","584049","0.0-3.0-22.15-0.15","5b71d15cc727a90001530313","E1","batch5","","530","","","tol_tohand","","","","","","","","","tol_peg_1","530","530","0","[[0,0,0],[1,0],[3]]","16","[[0,0,0],[1,2],[3]]","4","0","","","","","","7","",""
"","","","","","single-stim-button","299","584603","0.0-3.0-22.15-1.15","5b71d15cc727a90001530313","E1","batch5","","552","","","tol_toboard","","","","","","","","","tol_peg_2","552","552","0","[[0,0,0],[1,2],[3]]","16","[[0,0,0],[1,2],[3]]","4","0","","","","","","7","",""
"","","","","","poldrack-single-stim","300","585612","0.0-3.0-23.0","5b71d15cc727a90001530313","E1","batch5","","-1","","","tol_feedback","true","","","","","","","","","1000","1000","500","","","","","","-1","none","true","3508","39702","","",""
"","","","","","html-button-response","301","586761","0.0-3.0-24.0","5b71d15cc727a90001530313","E1","batch5","","1148","<div class = centerbox><p class = center-block-text>problem <strong>6</strong> out of 25 problems</p></div>","0","tol_trial_num","","","","","","","","","","","","","","","","","","","","","","","","",""
"","","","","","single-stim-button","302","590709","0.0-3.0-25.0-0.0","5b71d15cc727a90001530313","E1","batch5","","3947","","","tol_tohand","","","","","","","","","tol_peg_3","3947","3947","0","[[0,0,0],[1,2],[0]]","1","[[1,0,0],[2,3],[0]]","5","0","","","","","","6","",""
"","","","","","single-stim-button","303","591373","0.0-3.0-25.0-1.0","5b71d15cc727a90001530313","E1","batch5","","663","","","tol_toboard","","","","","","","","","tol_peg_1","663","663","0","[[3,0,0],[1,2],[0]]","1","[[1,0,0],[2,3],[0]]","5","0","","","","","","6","",""
"","","","","","single-stim-button","304","592905","0.0-3.0-25.1-0.1","5b71d15cc727a90001530313","E1","batch5","","1531","","","tol_tohand","","","","","","","","","tol_peg_2","1531","1531","0","[[3,0,0],[1,0],[0]]","2","[[1,0,0],[2,3],[0]]","5","0","","","","","","6","",""
"","","","","","single-stim-button","305","593551","0.0-3.0-25.1-1.1","5b71d15cc727a90001530313","E1","batch5","","645","","","tol_toboard","","","","","","","","","tol_peg_3","645","645","0","[[3,0,0],[1,0],[2]]","2","[[1,0,0],[2,3],[0]]","5","0","","","","","","6","",""
"","","","","","single-stim-button","306","606830","0.0-3.0-25.2-0.2","5b71d15cc727a90001530313","E1","batch5","","13278","","","tol_tohand","","","","","","","","","tol_peg_1","13278","13278","0","[[0,0,0],[1,0],[2]]","3","[[1,0,0],[2,3],[0]]","5","0","","","","","","6","",""
"","","","","","single-stim-button","307","608517","0.0-3.0-25.2-1.2","5b71d15cc727a90001530313","E1","batch5","","1686","","","tol_toboard","","","","","","","","","tol_peg_2","1686","1686","0","[[0,0,0],[1,3],[2]]","3","[[1,0,0],[2,3],[0]]","5","0","","","","","","6","",""
"","","","","","single-stim-button","308","609617","0.0-3.0-25.3-0.3","5b71d15cc727a90001530313","E1","batch5","","1099","","","tol_tohand","","","","","","","","","tol_peg_3","1099","1099","0","[[0,0,0],[1,3],[0]]","4","[[1,0,0],[2,3],[0]]","5","0","","","","","","6","",""
"","","","","","single-stim-button","309","610293","0.0-3.0-25.3-1.3","5b71d15cc727a90001530313","E1","batch5","","675","","","tol_toboard","","","","","","","","","tol_peg_1","675","675","0","[[2,0,0],[1,3],[0]]","4","[[1,0,0],[2,3],[0]]","5","0","","","","","","6","",""
"","","","","","single-stim-button","310","611341","0.0-3.0-25.4-0.4","5b71d15cc727a90001530313","E1","batch5","","1047","","","tol_tohand","","","","","","","","","tol_peg_2","1047","1047","0","[[2,0,0],[1,0],[0]]","5","[[1,0,0],[2,3],[0]]","5","0","","","","","","6","",""
"","","","","","single-stim-button","311","611971","0.0-3.0-25.4-1.4","5b71d15cc727a90001530313","E1","batch5","","629","","","tol_toboard","","","","","","","","","tol_peg_3","629","629","0","[[2,0,0],[1,0],[3]]","5","[[1,0,0],[2,3],[0]]","5","0","","","","","","6","",""
"","","","","","single-stim-button","312","616928","0.0-3.0-25.5-0.5","5b71d15cc727a90001530313","E1","batch5","","4955","","","tol_tohand","","","","","","","","","tol_peg_1","4955","4955","0","[[0,0,0],[1,0],[3]]","6","[[1,0,0],[2,3],[0]]","5","0","","","","","","6","",""
"","","","","","single-stim-button","313","623004","0.0-3.0-25.5-1.5","5b71d15cc727a90001530313","E1","batch5","","6074","","","tol_toboard","","","","","","","","","tol_peg_1","6074","6074","0","[[2,0,0],[1,0],[3]]","6","[[1,0,0],[2,3],[0]]","5","0","","","","","","6","",""
"","","","","","single-stim-button","314","625848","0.0-3.0-25.6-0.6","5b71d15cc727a90001530313","E1","batch5","","2843","","","tol_tohand","","","","","","","","","tol_peg_3","2843","2843","0","[[2,0,0],[1,0],[0]]","7","[[1,0,0],[2,3],[0]]","5","0","","","","","","6","",""
"","","","","","single-stim-button","315","626447","0.0-3.0-25.6-1.6","5b71d15cc727a90001530313","E1","batch5","","599","","","tol_toboard","","","","","","","","","tol_peg_1","599","599","0","[[2,3,0],[1,0],[0]]","7","[[1,0,0],[2,3],[0]]","5","0","","","","","","6","",""
"","","","","","single-stim-button","316","627042","0.0-3.0-25.7-0.7","5b71d15cc727a90001530313","E1","batch5","","594","","","tol_tohand","","","","","","","","","tol_peg_2","594","594","0","[[2,3,0],[0,0],[0]]","8","[[1,0,0],[2,3],[0]]","5","0","","","","","","6","",""
"","","","","","single-stim-button","317","627709","0.0-3.0-25.7-1.7","5b71d15cc727a90001530313","E1","batch5","","666","","","tol_toboard","","","","","","","","","tol_peg_3","666","666","0","[[2,3,0],[0,0],[1]]","8","[[1,0,0],[2,3],[0]]","5","0","","","","","","6","",""
"","","","","","single-stim-button","318","628422","0.0-3.0-25.8-0.8","5b71d15cc727a90001530313","E1","batch5","","712","","","tol_tohand","","","","","","","","","tol_peg_1","712","712","0","[[2,0,0],[0,0],[1]]","9","[[1,0,0],[2,3],[0]]","5","0","","","","","","6","",""
"","","","","","single-stim-button","319","628886","0.0-3.0-25.8-1.8","5b71d15cc727a90001530313","E1","batch5","","463","","","tol_toboard","","","","","","","","","tol_peg_2","463","463","0","[[2,0,0],[3,0],[1]]","9","[[1,0,0],[2,3],[0]]","5","0","","","","","","6","",""
"","","","","","single-stim-button","320","632648","0.0-3.0-25.9-0.9","5b71d15cc727a90001530313","E1","batch5","","3761","","","tol_tohand","","","","","","","","","tol_peg_1","3761","3761","0","[[0,0,0],[3,0],[1]]","10","[[1,0,0],[2,3],[0]]","5","0","","","","","","6","",""
"","","","","","single-stim-button","321","633893","0.0-3.0-25.9-1.9","5b71d15cc727a90001530313","E1","batch5","","1245","","","tol_toboard","","","","","","","","","tol_peg_2","1245","1245","0","[[0,0,0],[3,2],[1]]","10","[[1,0,0],[2,3],[0]]","5","0","","","","","","6","",""
"","","","","","single-stim-button","322","634744","0.0-3.0-25.10-0.10","5b71d15cc727a90001530313","E1","batch5","","849","","","tol_tohand","","","","","","","","","tol_peg_3","849","849","0","[[0,0,0],[3,2],[0]]","11","[[1,0,0],[2,3],[0]]","5","0","","","","","","6","",""
"","","","","","single-stim-button","323","635418","0.0-3.0-25.10-1.10","5b71d15cc727a90001530313","E1","batch5","","673","","","tol_toboard","","","","","","","","","tol_peg_1","673","673","0","[[1,0,0],[3,2],[0]]","11","[[1,0,0],[2,3],[0]]","5","0","","","","","","6","",""
"","","","","","single-stim-button","324","638240","0.0-3.0-25.11-0.11","5b71d15cc727a90001530313","E1","batch5","","2820","","","tol_tohand","","","","","","","","","tol_peg_2","2820","2820","0","[[1,0,0],[3,0],[0]]","12","[[1,0,0],[2,3],[0]]","5","0","","","","","","6","",""
"","","","","","single-stim-button","325","638894","0.0-3.0-25.11-1.11","5b71d15cc727a90001530313","E1","batch5","","653","","","tol_toboard","","","","","","","","","tol_peg_1","653","653","0","[[1,2,0],[3,0],[0]]","12","[[1,0,0],[2,3],[0]]","5","0","","","","","","6","",""
"","","","","","single-stim-button","326","639786","0.0-3.0-25.12-0.12","5b71d15cc727a90001530313","E1","batch5","","891","","","tol_tohand","","","","","","","","","tol_peg_2","891","891","0","[[1,2,0],[0,0],[0]]","13","[[1,0,0],[2,3],[0]]","5","0","","","","","","6","",""
"","","","","","single-stim-button","327","640444","0.0-3.0-25.12-1.12","5b71d15cc727a90001530313","E1","batch5","","657","","","tol_toboard","","","","","","","","","tol_peg_3","657","657","0","[[1,2,0],[0,0],[3]]","13","[[1,0,0],[2,3],[0]]","5","0","","","","","","6","",""
"","","","","","single-stim-button","328","641052","0.0-3.0-25.13-0.13","5b71d15cc727a90001530313","E1","batch5","","608","","","tol_tohand","","","","","","","","","tol_peg_1","608","608","0","[[1,0,0],[0,0],[3]]","14","[[1,0,0],[2,3],[0]]","5","0","","","","","","6","",""
"","","","","","single-stim-button","329","641836","0.0-3.0-25.13-1.13","5b71d15cc727a90001530313","E1","batch5","","782","","","tol_toboard","","","","","","","","","tol_peg_2","782","782","0","[[1,0,0],[2,0],[3]]","14","[[1,0,0],[2,3],[0]]","5","0","","","","","","6","",""
"","","","","","single-stim-button","330","642416","0.0-3.0-25.14-0.14","5b71d15cc727a90001530313","E1","batch5","","580","","","tol_tohand","","","","","","","","","tol_peg_3","580","580","0","[[1,0,0],[2,0],[0]]","15","[[1,0,0],[2,3],[0]]","5","0","","","","","","6","",""
"","","","","","single-stim-button","331","643168","0.0-3.0-25.14-1.14","5b71d15cc727a90001530313","E1","batch5","","750","","","tol_toboard","","","","","","","","","tol_peg_2","750","750","0","[[1,0,0],[2,3],[0]]","15","[[1,0,0],[2,3],[0]]","5","0","","","","","","6","",""
"","","","","","poldrack-single-stim","332","644170","0.0-3.0-26.0","5b71d15cc727a90001530313","E1","batch5","","-1","","","tol_feedback","true","","","","","","","","","1000","1000","500","","","","","","-1","none","true","3947","39515","","",""
"","","","","","html-button-response","333","645320","0.0-3.0-27.0","5b71d15cc727a90001530313","E1","batch5","","1147","<div class = centerbox><p class = center-block-text>problem <strong>7</strong> out of 25 problems</p></div>","0","tol_trial_num","","","","","","","","","","","","","","","","","","","","","","","","",""
"","","","","","single-stim-button","334","651006","0.0-3.0-28.0-0.0","5b71d15cc727a90001530313","E1","batch5","","5685","","","tol_tohand","","","","","","","","","tol_peg_3","5685","5685","0","[[2,1,0],[0,0],[0]]","1","[[1,2,0],[3,0],[0]]","6","0","","","","","","5","",""
"","","","","","single-stim-button","335","651611","0.0-3.0-28.0-1.0","5b71d15cc727a90001530313","E1","batch5","","605","","","tol_toboard","","","","","","","","","tol_peg_2","605","605","0","[[2,1,0],[3,0],[0]]","1","[[1,2,0],[3,0],[0]]","6","0","","","","","","5","",""
"","","","","","single-stim-button","336","652984","0.0-3.0-28.1-0.1","5b71d15cc727a90001530313","E1","batch5","","1371","","","tol_tohand","","","","","","","","","tol_peg_1","1371","1371","0","[[2,0,0],[3,0],[0]]","2","[[1,2,0],[3,0],[0]]","6","0","","","","","","5","",""
"","","","","","single-stim-button","337","654098","0.0-3.0-28.1-1.1","5b71d15cc727a90001530313","E1","batch5","","1113","","","tol_toboard","","","","","","","","","tol_peg_3","1113","1113","0","[[2,0,0],[3,0],[1]]","2","[[1,2,0],[3,0],[0]]","6","0","","","","","","5","",""
"","","","","","single-stim-button","338","654972","0.0-3.0-28.2-0.2","5b71d15cc727a90001530313","E1","batch5","","873","","","tol_tohand","","","","","","","","","tol_peg_1","873","873","0","[[0,0,0],[3,0],[1]]","3","[[1,2,0],[3,0],[0]]","6","0","","","","","","5","",""
"","","","","","single-stim-button","339","655450","0.0-3.0-28.2-1.2","5b71d15cc727a90001530313","E1","batch5","","477","","","tol_toboard","","","","","","","","","tol_peg_2","477","477","0","[[0,0,0],[3,2],[1]]","3","[[1,2,0],[3,0],[0]]","6","0","","","","","","5","",""
"","","","","","single-stim-button","340","655944","0.0-3.0-28.3-0.3","5b71d15cc727a90001530313","E1","batch5","","494","","","tol_tohand","","","","","","","","","tol_peg_3","494","494","0","[[0,0,0],[3,2],[0]]","4","[[1,2,0],[3,0],[0]]","6","0","","","","","","5","",""
"","","","","","single-stim-button","341","656788","0.0-3.0-28.3-1.3","5b71d15cc727a90001530313","E1","batch5","","842","","","tol_toboard","","","","","","","","","tol_peg_1","842","842","0","[[1,0,0],[3,2],[0]]","4","[[1,2,0],[3,0],[0]]","6","0","","","","","","5","",""
"","","","","","single-stim-button","342","657262","0.0-3.0-28.4-0.4","5b71d15cc727a90001530313","E1","batch5","","472","","","tol_tohand","","","","","","","","","tol_peg_2","472","472","0","[[1,0,0],[3,0],[0]]","5","[[1,2,0],[3,0],[0]]","6","0","","","","","","5","",""
"","","","","","single-stim-button","343","657796","0.0-3.0-28.4-1.4","5b71d15cc727a90001530313","E1","batch5","","533","","","tol_toboard","","","","","","","","","tol_peg_1","533","533","0","[[1,2,0],[3,0],[0]]","5","[[1,2,0],[3,0],[0]]","6","0","","","","","","5","",""
"","","","","","poldrack-single-stim","344","658800","0.0-3.0-29.0","5b71d15cc727a90001530313","E1","batch5","","-1","","","tol_feedback","true","","","","","","","","","1000","1000","500","","","","","","-1","none","true","5685","8895","","",""
"","","","","","html-button-response","345","659664","0.0-3.0-30.0","5b71d15cc727a90001530313","E1","batch5","","861","<div class = centerbox><p class = center-block-text>problem <strong>8</strong> out of 25 problems</p></div>","0","tol_trial_num","","","","","","","","","","","","","","","","","","","","","","","","",""
"","","","","","single-stim-button","346","661993","0.0-3.0-31.0-0.0","5b71d15cc727a90001530313","E1","batch5","","2329","","","tol_tohand","","","","","","","","","tol_peg_3","2329","2329","0","[[0,0,0],[2,3],[0]]","1","[[1,2,0],[3,0],[0]]","7","0","","","","","","4","",""
"","","","","","single-stim-button","347","662916","0.0-3.0-31.0-1.0","5b71d15cc727a90001530313","E1","batch5","","921","","","tol_toboard","","","","","","","","","tol_peg_1","921","921","0","[[1,0,0],[2,3],[0]]","1","[[1,2,0],[3,0],[0]]","7","0","","","","","","4","",""
"","","","","","single-stim-button","348","663659","0.0-3.0-31.1-0.1","5b71d15cc727a90001530313","E1","batch5","","743","","","tol_tohand","","","","","","","","","tol_peg_2","743","743","0","[[1,0,0],[2,0],[0]]","2","[[1,2,0],[3,0],[0]]","7","0","","","","","","4","",""
"","","","","","single-stim-button","349","664291","0.0-3.0-31.1-1.1","5b71d15cc727a90001530313","E1","batch5","","631","","","tol_toboard","","","","","","","","","tol_peg_3","631","631","0","[[1,0,0],[2,0],[3]]","2","[[1,2,0],[3,0],[0]]","7","0","","","","","","4","",""
"","","","","","single-stim-button","350","664890","0.0-3.0-31.2-0.2","5b71d15cc727a90001530313","E1","batch5","","597","","","tol_tohand","","","","","","","","","tol_peg_2","597","597","0","[[1,0,0],[0,0],[3]]","3","[[1,2,0],[3,0],[0]]","7","0","","","","","","4","",""
"","","","","","single-stim-button","351","665542","0.0-3.0-31.2-1.2","5b71d15cc727a90001530313","E1","batch5","","651","","","tol_toboard","","","","","","","","","tol_peg_1","651","651","0","[[1,2,0],[0,0],[3]]","3","[[1,2,0],[3,0],[0]]","7","0","","","","","","4","",""
"","","","","","single-stim-button","352","667752","0.0-3.0-31.3-0.3","5b71d15cc727a90001530313","E1","batch5","","2209","","","tol_tohand","","","","","","","","","tol_peg_3","2209","2209","0","[[1,2,0],[0,0],[0]]","4","[[1,2,0],[3,0],[0]]","7","0","","","","","","4","",""
"","","","","","single-stim-button","353","668140","0.0-3.0-31.3-1.3","5b71d15cc727a90001530313","E1","batch5","","387","","","tol_toboard","","","","","","","","","tol_peg_2","387","387","0","[[1,2,0],[3,0],[0]]","4","[[1,2,0],[3,0],[0]]","7","0","","","","","","4","",""
"","","","","","poldrack-single-stim","354","669148","0.0-3.0-32.0","5b71d15cc727a90001530313","E1","batch5","","-1","","","tol_feedback","true","","","","","","","","","1000","1000","500","","","","","","-1","none","true","2329","5878","","",""
"","","","","","html-button-response","355","670506","0.0-3.0-33.0","5b71d15cc727a90001530313","E1","batch5","","1355","<div class = centerbox><p class = center-block-text>problem <strong>9</strong> out of 25 problems</p></div>","0","tol_trial_num","","","","","","","","","","","","","","","","","","","","","","","","",""
"","","","","","single-stim-button","356","679479","0.0-3.0-34.0-0.0","5b71d15cc727a90001530313","E1","batch5","","8973","","","tol_tohand","","","","","","","","","tol_peg_3","8973","8973","0","[[3,2,0],[0,0],[0]]","1","[[2,1,0],[3,0],[0]]","8","0","","","","","","6","",""
