"success","timeout","failed_images","failed_audio","failed_video","trial_type","trial_index","time_elapsed","internal_node_id","subject_id","study_id","session_id","view_history","rt","task","stimulus","response","correct","mouse_click","stim_duration","block_duration","timing_post_trial","current_position","tol_num_moves_made","tol_target","tol_problem_id","tol_rt","key_press","possible_responses","tol_correct","preplanning","tol_rt_per_trial","tol_min_moves","answer","item","fiar_detect_rt","fiar_detect_correct","total_correct_fiar_detect","post_trial_gap","choices","spm_correct","spm_rt"
"true","false","[]","[]","[]","preload","0","14512","0.0-0.0","5b9fa85b4bca610001d791f3","B2","batch2","","","","","","","","","","","","","","","","","","","","","","","","","","","","","",""
"true","","","","","fullscreen","1","75764","0.0-1.0-0.0","5b9fa85b4bca610001d791f3","B2","batch2","","","","","","","","","","","","","","","","","","","","","","","","","","","","","",""
"true","","","","","fullscreen","2","79140","0.0-2.0-0.0","5b9fa85b4bca610001d791f3","B2","batch2","","","","","","","","","","","","","","","","","","","","","","","","","","","","","",""
"","","","","","instructions","3","110776","0.0-2.0-1.0-0.0-0.0","5b9fa85b4bca610001d791f3","B2","batch2","[{""page_index"":0,""viewing_time"":7554.700000017881},{""page_index"":1,""viewing_time"":3921.7999999821186},{""page_index"":2,""viewing_time"":2708},{""page_index"":3,""viewing_time"":3295},{""page_index"":4,""viewing_time"":1246},{""page_index"":5,""viewing_time"":1121},{""page_index"":4,""viewing_time"":3585.0999999940395},{""page_index"":5,""viewing_time"":6613.9000000059605},{""page_index"":6,""viewing_time"":1590}]","31635.70000001788","tol-instructions","","","","","","","","","","","","","","","","","","","","","","","","","","",""
"","","","","","html-button-response","4","111502","0.0-2.0-1.0-1.0-0.0","5b9fa85b4bca610001d791f3","B2","batch2","","725.5","tol_enter_quiz","<p class=block-text> Let's answer a few questions <br>","0","","","","","","","","","","","","","","","","","","","","","","","","",""
"","","","","","html-button-response","5","116863","0.0-2.0-1.0-1.0-1.0","5b9fa85b4bca610001d791f3","B2","batch2","","5359.300000011921","tol_quiz","<p class = block-text>True or False: You can only move the ball on top of a peg. <br></p>","0","true","","","","","","","","","","","","","","","","","","","","","","","",""
"","","","","","html-button-response","6","117996","0.0-2.0-1.0-1.0-2.0","5b9fa85b4bca610001d791f3","B2","batch2","","1132.699999988079","tol_quiz_feedback","<p class = block-text>Correct! You can only move the ball on top of a peg.</p>","0","","","","","","","","","","","","","","","","","","","","","","","","",""
"","","","","","html-button-response","7","120875","0.0-2.0-1.0-1.0-3.0","5b9fa85b4bca610001d791f3","B2","batch2","","2878.399999976158","tol_quiz","<p class = block-text>True or False: You should try to match your board with the target board with fewest moves possible. <br></p>","0","true","","","","","","","","","","","","","","","","","","","","","","","",""
"","","","","","html-button-response","8","121403","0.0-2.0-1.0-1.0-4.0","5b9fa85b4bca610001d791f3","B2","batch2","","527.2999999821186","tol_quiz_feedback","<p class = block-text>Correct! </p>","0","","","","","","","","","","","","","","","","","","","","","","","","",""
"","","","","","html-button-response","9","123191","0.0-2.0-2.0","5b9fa85b4bca610001d791f3","B2","batch2","","1787.199999988079","","<p class=block-text> Now that you've understood the game, let's practice a few easier examples before we start!<br> <br>","0","","","","","","","","","","","","","","","","","","","","","","","","",""
"","","","","","single-stim-button","10","126346","0.0-2.0-3.0-0.0","5b9fa85b4bca610001d791f3","B2","batch2","","3154","tol_practice","","","","tol_peg_2","3154","3154","0","[[1,2,0],[0,0],[0]]","1","[[1,2,0],[0,0],[3]]","practice","3154","","","","","","","","","","","","","","",""
"","","","","","single-stim-button","11","128626","0.0-2.0-3.0-1.0","5b9fa85b4bca610001d791f3","B2","batch2","","2279","tol_practice","","","","tol_peg_3","2279","2279","0","[[1,2,0],[0,0],[3]]","1","[[1,2,0],[0,0],[3]]","practice","2279","","","","","","","","","","","","","","",""
"","","","","","poldrack-single-stim","12","129627","0.0-2.0-4.0","5b9fa85b4bca610001d791f3","B2","batch2","","-1","tol_feedback","","","true","","1000","1000","500","","","","","","-1","none","true","","0","","","","","","","","","",""
"","","","","","single-stim-button","13","131911","0.0-2.0-5.0-0.0","5b9fa85b4bca610001d791f3","B2","batch2","","2283","tol_practice","","","","tol_peg_2","2283","2283","0","[[1,2,0],[0,0],[0]]","2","[[0,0,0],[3,1],[2]]","practice","2283","","","","","","","","","","","","","","",""
"","","","","","single-stim-button","14","134028","0.0-2.0-5.0-1.0","5b9fa85b4bca610001d791f3","B2","batch2","","2116","tol_practice","","","","tol_peg_3","2116","2116","0","[[1,2,0],[0,0],[3]]","2","[[0,0,0],[3,1],[2]]","practice","2116","","","","","","","","","","","","","","",""
"","","","","","single-stim-button","15","135089","0.0-2.0-5.1-0.1","5b9fa85b4bca610001d791f3","B2","batch2","","1060","tol_practice","","","","tol_peg_1","1060","1060","0","[[1,0,0],[0,0],[3]]","3","[[0,0,0],[3,1],[2]]","practice","1060","","","","","","","","","","","","","","",""
"","","","","","single-stim-button","16","136138","0.0-2.0-5.1-1.1","5b9fa85b4bca610001d791f3","B2","batch2","","1049","tol_practice","","","","tol_peg_2","1049","1049","0","[[1,0,0],[2,0],[3]]","3","[[0,0,0],[3,1],[2]]","practice","1049","","","","","","","","","","","","","","",""
"","","","","","single-stim-button","17","136761","0.0-2.0-5.2-0.2","5b9fa85b4bca610001d791f3","B2","batch2","","623","tol_practice","","","","tol_peg_1","623","623","0","[[0,0,0],[2,0],[3]]","4","[[0,0,0],[3,1],[2]]","practice","623","","","","","","","","","","","","","","",""
"","","","","","single-stim-button","18","140854","0.0-2.0-5.2-1.2","5b9fa85b4bca610001d791f3","B2","batch2","","4093","tol_practice","","","","tol_peg_1","4093","4093","0","[[1,0,0],[2,0],[3]]","4","[[0,0,0],[3,1],[2]]","practice","4093","","","","","","","","","","","","","","",""
"","","","","","single-stim-button","19","143452","0.0-2.0-5.3-0.3","5b9fa85b4bca610001d791f3","B2","batch2","","2598","tol_practice","","","","tol_peg_2","2598","2598","0","[[1,0,0],[0,0],[3]]","5","[[0,0,0],[3,1],[2]]","practice","2598","","","","","","","","","","","","","","",""
"","","","","","single-stim-button","20","145212","0.0-2.0-5.3-1.3","5b9fa85b4bca610001d791f3","B2","batch2","","1760","tol_practice","","","","tol_peg_1","1760","1760","0","[[1,2,0],[0,0],[3]]","5","[[0,0,0],[3,1],[2]]","practice","1760","","","","","","","","","","","","","","",""
"","","","","","single-stim-button","21","145807","0.0-2.0-5.4-0.4","5b9fa85b4bca610001d791f3","B2","batch2","","595","tol_practice","","","","tol_peg_3","595","595","0","[[1,2,0],[0,0],[0]]","6","[[0,0,0],[3,1],[2]]","practice","595","","","","","","","","","","","","","","",""
"","","","","","single-stim-button","22","147291","0.0-2.0-5.4-1.4","5b9fa85b4bca610001d791f3","B2","batch2","","1484","tol_practice","","","","tol_peg_2","1484","1484","0","[[1,2,0],[3,0],[0]]","6","[[0,0,0],[3,1],[2]]","practice","1484","","","","","","","","","","","","","","",""
"","","","","","single-stim-button","23","147810","0.0-2.0-5.5-0.5","5b9fa85b4bca610001d791f3","B2","batch2","","519","tol_practice","","","","tol_peg_1","519","519","0","[[1,0,0],[3,0],[0]]","7","[[0,0,0],[3,1],[2]]","practice","519","","","","","","","","","","","","","","",""
"","","","","","single-stim-button","24","148484","0.0-2.0-5.5-1.5","5b9fa85b4bca610001d791f3","B2","batch2","","674","tol_practice","","","","tol_peg_3","674","674","0","[[1,0,0],[3,0],[2]]","7","[[0,0,0],[3,1],[2]]","practice","674","","","","","","","","","","","","","","",""
"","","","","","single-stim-button","25","149001","0.0-2.0-5.6-0.6","5b9fa85b4bca610001d791f3","B2","batch2","","517","tol_practice","","","","tol_peg_1","517","517","0","[[0,0,0],[3,0],[2]]","8","[[0,0,0],[3,1],[2]]","practice","517","","","","","","","","","","","","","","",""
"","","","","","single-stim-button","26","149594","0.0-2.0-5.6-1.6","5b9fa85b4bca610001d791f3","B2","batch2","","593","tol_practice","","","","tol_peg_2","593","593","0","[[0,0,0],[3,1],[2]]","8","[[0,0,0],[3,1],[2]]","practice","593","","","","","","","","","","","","","","",""
"","","","","","poldrack-single-stim","27","150595","0.0-2.0-6.0","5b9fa85b4bca610001d791f3","B2","batch2","","-1","tol_feedback","","","true","","1000","1000","500","","","","","","-1","none","true","","0","","","","","","","","","",""
"","","","","","single-stim-button","28","153171","0.0-2.0-7.0-0.0","5b9fa85b4bca610001d791f3","B2","batch2","","2576","tol_practice","","","","tol_peg_2","2576","2576","0","[[1,2,0],[0,0],[0]]","9","[[1,0,0],[2,0],[3]]","practice","2576","","","","","","","","","","","","","","",""
"","","","","","single-stim-button","29","153805","0.0-2.0-7.0-1.0","5b9fa85b4bca610001d791f3","B2","batch2","","634","tol_practice","","","","tol_peg_3","634","634","0","[[1,2,0],[0,0],[3]]","9","[[1,0,0],[2,0],[3]]","practice","634","","","","","","","","","","","","","","",""
"","","","","","single-stim-button","30","154326","0.0-2.0-7.1-0.1","5b9fa85b4bca610001d791f3","B2","batch2","","521","tol_practice","","","","tol_peg_1","521","521","0","[[1,0,0],[0,0],[3]]","10","[[1,0,0],[2,0],[3]]","practice","521","","","","","","","","","","","","","","",""
"","","","","","single-stim-button","31","154741","0.0-2.0-7.1-1.1","5b9fa85b4bca610001d791f3","B2","batch2","","415","tol_practice","","","","tol_peg_2","415","415","0","[[1,0,0],[2,0],[3]]","10","[[1,0,0],[2,0],[3]]","practice","415","","","","","","","","","","","","","","",""
"","","","","","poldrack-single-stim","32","155747","0.0-2.0-8.0","5b9fa85b4bca610001d791f3","B2","batch2","","-1","tol_feedback","","","true","","1000","1000","500","","","","","","-1","none","true","","0","","","","","","","","","",""
"","","","","","html-button-response","33","161869","0.0-2.0-9.0","5b9fa85b4bca610001d791f3","B2","batch2","","6121.299999982119","tol_instruction","<div class = centerbox><p class = center-block-text>Great job! You are done with practice trials<br>You are about to start official trials.<br> <br> Problem <strong>1</strong> out of 25 problems</p></div>","0","","","","","","","","","","","","","","","","","","","","","","","","",""
"","","","","","single-stim-button","34","168418","0.0-2.0-10.0-0.0","5b9fa85b4bca610001d791f3","B2","batch2","","5543","tol_tohand","","","","tol_peg_1","5543","5543","0","[[1,0,0],[3,0],[0]]","1","[[1,3,0],[2,0],[0]]","0","0","","","","","","3","","","","","","","","",""
"","","","","","single-stim-button","35","169599","0.0-2.0-10.0-1.0","5b9fa85b4bca610001d791f3","B2","batch2","","1181","tol_toboard","","","","tol_peg_3","1181","1181","0","[[1,0,0],[3,0],[2]]","1","[[1,3,0],[2,0],[0]]","0","0","","","","","","3","","","","","","","","",""
"","","","","","single-stim-button","36","170997","0.0-2.0-10.1-0.1","5b9fa85b4bca610001d791f3","B2","batch2","","1397","tol_tohand","","","","tol_peg_2","1397","1397","0","[[1,0,0],[0,0],[2]]","2","[[1,3,0],[2,0],[0]]","0","0","","","","","","3","","","","","","","","",""
"","","","","","single-stim-button","37","171585","0.0-2.0-10.1-1.1","5b9fa85b4bca610001d791f3","B2","batch2","","588","tol_toboard","","","","tol_peg_1","588","588","0","[[1,3,0],[0,0],[2]]","2","[[1,3,0],[2,0],[0]]","0","0","","","","","","3","","","","","","","","",""
"","","","","","single-stim-button","38","172517","0.0-2.0-10.2-0.2","5b9fa85b4bca610001d791f3","B2","batch2","","932","tol_tohand","","","","tol_peg_3","932","932","0","[[1,3,0],[0,0],[0]]","3","[[1,3,0],[2,0],[0]]","0","0","","","","","","3","","","","","","","","",""
"","","","","","single-stim-button","39","173149","0.0-2.0-10.2-1.2","5b9fa85b4bca610001d791f3","B2","batch2","","632","tol_toboard","","","","tol_peg_2","632","632","0","[[1,3,0],[2,0],[0]]","3","[[1,3,0],[2,0],[0]]","0","0","","","","","","3","","","","","","","","",""
"","","","","","poldrack-single-stim","40","174150","0.0-2.0-11.0","5b9fa85b4bca610001d791f3","B2","batch2","","-1","tol_feedback","","","true","","1000","1000","500","","","","","","-1","none","true","5543","7872","","","","","","","","","",""
"","","","","","html-button-response","41","174856","0.0-2.0-12.0","5b9fa85b4bca610001d791f3","B2","batch2","","705.0999999940395","tol_trial_num","<div class = centerbox><p class = center-block-text>problem <strong>2</strong> out of 25 problems</p></div>","0","","","","","","","","","","","","","","","","","","","","","","","","",""
"","","","","","single-stim-button","42","180916","0.0-2.0-13.0-0.0","5b9fa85b4bca610001d791f3","B2","batch2","","6060","tol_tohand","","","","tol_peg_1","6060","6060","0","[[1,0,0],[3,0],[0]]","1","[[2,1,3],[0,0],[0]]","1","0","","","","","","5","","","","","","","","",""
"","","","","","single-stim-button","43","182259","0.0-2.0-13.0-1.0","5b9fa85b4bca610001d791f3","B2","batch2","","1343","tol_toboard","","","","tol_peg_3","1343","1343","0","[[1,0,0],[3,0],[2]]","1","[[2,1,3],[0,0],[0]]","1","0","","","","","","5","","","","","","","","",""
"","","","","","single-stim-button","44","184293","0.0-2.0-13.1-0.1","5b9fa85b4bca610001d791f3","B2","batch2","","2034","tol_tohand","","","","tol_peg_1","2034","2034","0","[[0,0,0],[3,0],[2]]","2","[[2,1,3],[0,0],[0]]","1","0","","","","","","5","","","","","","","","",""
"","","","","","single-stim-button","45","185079","0.0-2.0-13.1-1.1","5b9fa85b4bca610001d791f3","B2","batch2","","786","tol_toboard","","","","tol_peg_2","786","786","0","[[0,0,0],[3,1],[2]]","2","[[2,1,3],[0,0],[0]]","1","0","","","","","","5","","","","","","","","",""
"","","","","","single-stim-button","46","185587","0.0-2.0-13.2-0.2","5b9fa85b4bca610001d791f3","B2","batch2","","508","tol_tohand","","","","tol_peg_3","508","508","0","[[0,0,0],[3,1],[0]]","3","[[2,1,3],[0,0],[0]]","1","0","","","","","","5","","","","","","","","",""
"","","","","","single-stim-button","47","186357","0.0-2.0-13.2-1.2","5b9fa85b4bca610001d791f3","B2","batch2","","770","tol_toboard","","","","tol_peg_1","770","770","0","[[2,0,0],[3,1],[0]]","3","[[2,1,3],[0,0],[0]]","1","0","","","","","","5","","","","","","","","",""
"","","","","","single-stim-button","48","187140","0.0-2.0-13.3-0.3","5b9fa85b4bca610001d791f3","B2","batch2","","783","tol_tohand","","","","tol_peg_2","783","783","0","[[2,0,0],[3,0],[0]]","4","[[2,1,3],[0,0],[0]]","1","0","","","","","","5","","","","","","","","",""
"","","","","","single-stim-button","49","187747","0.0-2.0-13.3-1.3","5b9fa85b4bca610001d791f3","B2","batch2","","607","tol_toboard","","","","tol_peg_1","607","607","0","[[2,1,0],[3,0],[0]]","4","[[2,1,3],[0,0],[0]]","1","0","","","","","","5","","","","","","","","",""
"","","","","","single-stim-button","50","188013","0.0-2.0-13.4-0.4","5b9fa85b4bca610001d791f3","B2","batch2","","266","tol_tohand","","","","tol_peg_2","266","266","0","[[2,1,0],[0,0],[0]]","5","[[2,1,3],[0,0],[0]]","1","0","","","","","","5","","","","","","","","",""
"","","","","","single-stim-button","51","188589","0.0-2.0-13.4-1.4","5b9fa85b4bca610001d791f3","B2","batch2","","576","tol_toboard","","","","tol_peg_1","576","576","0","[[2,1,3],[0,0],[0]]","5","[[2,1,3],[0,0],[0]]","1","0","","","","","","5","","","","","","","","",""
"","","","","","poldrack-single-stim","52","189590","0.0-2.0-14.0","5b9fa85b4bca610001d791f3","B2","batch2","","-1","tol_feedback","","","true","","1000","1000","500","","","","","","-1","none","true","6060","9651","","","","","","","","","",""
"","","","","","html-button-response","53","190442","0.0-2.0-15.0","5b9fa85b4bca610001d791f3","B2","batch2","","851.3999999761581","tol_trial_num","<div class = centerbox><p class = center-block-text>problem <strong>3</strong> out of 25 problems</p></div>","0","","","","","","","","","","","","","","","","","","","","","","","","",""
"","","","","","single-stim-button","54","192891","0.0-2.0-16.0-0.0","5b9fa85b4bca610001d791f3","B2","batch2","","2449","tol_tohand","","","","tol_peg_1","2449","2449","0","[[2,0,0],[0,0],[1]]","1","[[1,2,0],[3,0],[0]]","2","0","","","","","","4","","","","","","","","",""
"","","","","","single-stim-button","55","193438","0.0-2.0-16.0-1.0","5b9fa85b4bca610001d791f3","B2","batch2","","547","tol_toboard","","","","tol_peg_2","547","547","0","[[2,0,0],[3,0],[1]]","1","[[1,2,0],[3,0],[0]]","2","0","","","","","","4","","","","","","","","",""
"","","","","","single-stim-button","56","196149","0.0-2.0-16.1-0.1","5b9fa85b4bca610001d791f3","B2","batch2","","2711","tol_tohand","","","","tol_peg_1","2711","2711","0","[[0,0,0],[3,0],[1]]","2","[[1,2,0],[3,0],[0]]","2","0","","","","","","4","","","","","","","","",""
"","","","","","single-stim-button","57","196592","0.0-2.0-16.1-1.1","5b9fa85b4bca610001d791f3","B2","batch2","","442","tol_toboard","","","","tol_peg_2","442","442","0","[[0,0,0],[3,2],[1]]","2","[[1,2,0],[3,0],[0]]","2","0","","","","","","4","","","","","","","","",""
"","","","","","single-stim-button","58","196942","0.0-2.0-16.2-0.2","5b9fa85b4bca610001d791f3","B2","batch2","","350","tol_tohand","","","","tol_peg_3","350","350","0","[[0,0,0],[3,2],[0]]","3","[[1,2,0],[3,0],[0]]","2","0","","","","","","4","","","","","","","","",""
"","","","","","single-stim-button","59","197842","0.0-2.0-16.2-1.2","5b9fa85b4bca610001d791f3","B2","batch2","","900","tol_toboard","","","","tol_peg_1","900","900","0","[[1,0,0],[3,2],[0]]","3","[[1,2,0],[3,0],[0]]","2","0","","","","","","4","","","","","","","","",""
"","","","","","single-stim-button","60","198418","0.0-2.0-16.3-0.3","5b9fa85b4bca610001d791f3","B2","batch2","","576","tol_tohand","","","","tol_peg_2","576","576","0","[[1,0,0],[3,0],[0]]","4","[[1,2,0],[3,0],[0]]","2","0","","","","","","4","","","","","","","","",""
"","","","","","single-stim-button","61","199004","0.0-2.0-16.3-1.3","5b9fa85b4bca610001d791f3","B2","batch2","","585","tol_toboard","","","","tol_peg_1","585","585","0","[[1,2,0],[3,0],[0]]","4","[[1,2,0],[3,0],[0]]","2","0","","","","","","4","","","","","","","","",""
"","","","","","poldrack-single-stim","62","200015","0.0-2.0-17.0","5b9fa85b4bca610001d791f3","B2","batch2","","-1","tol_feedback","","","true","","1000","1000","500","","","","","","-1","none","true","2449","6086","","","","","","","","","",""
"","","","","","html-button-response","63","200719","0.0-2.0-18.0","5b9fa85b4bca610001d791f3","B2","batch2","","703.4000000059605","tol_trial_num","<div class = centerbox><p class = center-block-text>problem <strong>4</strong> out of 25 problems</p></div>","0","","","","","","","","","","","","","","","","","","","","","","","","",""
"","","","","","single-stim-button","64","205031","0.0-2.0-19.0-0.0","5b9fa85b4bca610001d791f3","B2","batch2","","4312","tol_tohand","","","","tol_peg_2","4312","4312","0","[[3,0,0],[2,0],[0]]","1","[[3,0,0],[1,0],[2]]","3","0","","","","","","3","","","","","","","","",""
"","","","","","single-stim-button","65","205730","0.0-2.0-19.0-1.0","5b9fa85b4bca610001d791f3","B2","batch2","","699","tol_toboard","","","","tol_peg_1","699","699","0","[[3,1,0],[2,0],[0]]","1","[[3,0,0],[1,0],[2]]","3","0","","","","","","3","","","","","","","","",""
"","","","","","single-stim-button","66","206027","0.0-2.0-19.1-0.1","5b9fa85b4bca610001d791f3","B2","batch2","","297","tol_tohand","","","","tol_peg_2","297","297","0","[[3,1,0],[0,0],[0]]","2","[[3,0,0],[1,0],[2]]","3","0","","","","","","3","","","","","","","","",""
"","","","","","single-stim-button","67","206604","0.0-2.0-19.1-1.1","5b9fa85b4bca610001d791f3","B2","batch2","","577","tol_toboard","","","","tol_peg_3","577","577","0","[[3,1,0],[0,0],[2]]","2","[[3,0,0],[1,0],[2]]","3","0","","","","","","3","","","","","","","","",""
"","","","","","single-stim-button","68","207066","0.0-2.0-19.2-0.2","5b9fa85b4bca610001d791f3","B2","batch2","","462","tol_tohand","","","","tol_peg_1","462","462","0","[[3,0,0],[0,0],[2]]","3","[[3,0,0],[1,0],[2]]","3","0","","","","","","3","","","","","","","","",""
"","","","","","single-stim-button","69","207395","0.0-2.0-19.2-1.2","5b9fa85b4bca610001d791f3","B2","batch2","","329","tol_toboard","","","","tol_peg_2","329","329","0","[[3,0,0],[1,0],[2]]","3","[[3,0,0],[1,0],[2]]","3","0","","","","","","3","","","","","","","","",""
"","","","","","poldrack-single-stim","70","208396","0.0-2.0-20.0","5b9fa85b4bca610001d791f3","B2","batch2","","-1","tol_feedback","","","true","","1000","1000","500","","","","","","-1","none","true","4312","5071","","","","","","","","","",""
"","","","","","html-button-response","71","209133","0.0-2.0-21.0","5b9fa85b4bca610001d791f3","B2","batch2","","736.4000000059605","tol_trial_num","<div class = centerbox><p class = center-block-text>problem <strong>5</strong> out of 25 problems</p></div>","0","","","","","","","","","","","","","","","","","","","","","","","","",""
"","","","","","single-stim-button","72","232639","0.0-2.0-22.0-0.0","5b9fa85b4bca610001d791f3","B2","batch2","","23506","tol_tohand","","","","tol_peg_3","23506","23506","0","[[1,0,0],[2,0],[0]]","1","[[0,0,0],[1,2],[3]]","4","0","","","","","","7","","","","","","","","",""
"","","","","","single-stim-button","73","233427","0.0-2.0-22.0-1.0","5b9fa85b4bca610001d791f3","B2","batch2","","787","tol_toboard","","","","tol_peg_1","787","787","0","[[1,3,0],[2,0],[0]]","1","[[0,0,0],[1,2],[3]]","4","0","","","","","","7","","","","","","","","",""
"","","","","","single-stim-button","74","233766","0.0-2.0-22.1-0.1","5b9fa85b4bca610001d791f3","B2","batch2","","338","tol_tohand","","","","tol_peg_2","338","338","0","[[1,3,0],[0,0],[0]]","2","[[0,0,0],[1,2],[3]]","4","0","","","","","","7","","","","","","","","",""
"","","","","","single-stim-button","75","234536","0.0-2.0-22.1-1.1","5b9fa85b4bca610001d791f3","B2","batch2","","770","tol_toboard","","","","tol_peg_3","770","770","0","[[1,3,0],[0,0],[2]]","2","[[0,0,0],[1,2],[3]]","4","0","","","","","","7","","","","","","","","",""
"","","","","","single-stim-button","76","235286","0.0-2.0-22.2-0.2","5b9fa85b4bca610001d791f3","B2","batch2","","749","tol_tohand","","","","tol_peg_1","749","749","0","[[1,0,0],[0,0],[2]]","3","[[0,0,0],[1,2],[3]]","4","0","","","","","","7","","","","","","","","",""
"","","","","","single-stim-button","77","235790","0.0-2.0-22.2-1.2","5b9fa85b4bca610001d791f3","B2","batch2","","504","tol_toboard","","","","tol_peg_2","504","504","0","[[1,0,0],[3,0],[2]]","3","[[0,0,0],[1,2],[3]]","4","0","","","","","","7","","","","","","","","",""
"","","","","","single-stim-button","78","237408","0.0-2.0-22.3-0.3","5b9fa85b4bca610001d791f3","B2","batch2","","1618","tol_tohand","","","","tol_peg_1","1618","1618","0","[[0,0,0],[3,0],[2]]","4","[[0,0,0],[1,2],[3]]","4","0","","","","","","7","","","","","","","","",""
"","","","","","single-stim-button","79","240438","0.0-2.0-22.3-1.3","5b9fa85b4bca610001d791f3","B2","batch2","","3030","tol_toboard","","","","tol_peg_2","3030","3030","0","[[0,0,0],[3,1],[2]]","4","[[0,0,0],[1,2],[3]]","4","0","","","","","","7","","","","","","","","",""
"","","","","","single-stim-button","80","246847","0.0-2.0-22.4-0.4","5b9fa85b4bca610001d791f3","B2","batch2","","6408","tol_tohand","","","","tol_peg_2","6408","6408","0","[[0,0,0],[3,0],[2]]","5","[[0,0,0],[1,2],[3]]","4","0","","","","","","7","","","","","","","","",""
"","","","","","single-stim-button","81","247548","0.0-2.0-22.4-1.4","5b9fa85b4bca610001d791f3","B2","batch2","","700","tol_toboard","","","","tol_peg_1","700","700","0","[[1,0,0],[3,0],[2]]","5","[[0,0,0],[1,2],[3]]","4","0","","","","","","7","","","","","","","","",""
"","","","","","single-stim-button","82","257084","0.0-2.0-22.5-0.5","5b9fa85b4bca610001d791f3","B2","batch2","","9535","tol_tohand","","","","tol_peg_1","9535","9535","0","[[0,0,0],[3,0],[2]]","6","[[0,0,0],[1,2],[3]]","4","0","","","","","","7","","","","","","","","",""
"","","","","","single-stim-button","83","257631","0.0-2.0-22.5-1.5","5b9fa85b4bca610001d791f3","B2","batch2","","546","tol_toboard","","","","tol_peg_2","546","546","0","[[0,0,0],[3,1],[2]]","6","[[0,0,0],[1,2],[3]]","4","0","","","","","","7","","","","","","","","",""
"","","","","","single-stim-button","84","258289","0.0-2.0-22.6-0.6","5b9fa85b4bca610001d791f3","B2","batch2","","657","tol_tohand","","","","tol_peg_3","657","657","0","[[0,0,0],[3,1],[0]]","7","[[0,0,0],[1,2],[3]]","4","0","","","","","","7","","","","","","","","",""
"","","","","","single-stim-button","85","258905","0.0-2.0-22.6-1.6","5b9fa85b4bca610001d791f3","B2","batch2","","615","tol_toboard","","","","tol_peg_1","615","615","0","[[2,0,0],[3,1],[0]]","7","[[0,0,0],[1,2],[3]]","4","0","","","","","","7","","","","","","","","",""
"","","","","","single-stim-button","86","259576","0.0-2.0-22.7-0.7","5b9fa85b4bca610001d791f3","B2","batch2","","671","tol_tohand","","","","tol_peg_2","671","671","0","[[2,0,0],[3,0],[0]]","8","[[0,0,0],[1,2],[3]]","4","0","","","","","","7","","","","","","","","",""
"","","","","","single-stim-button","87","266612","0.0-2.0-22.7-1.7","5b9fa85b4bca610001d791f3","B2","batch2","","7035","tol_toboard","","","","tol_peg_1","7035","7035","0","[[2,1,0],[3,0],[0]]","8","[[0,0,0],[1,2],[3]]","4","0","","","","","","7","","","","","","","","",""
"","","","","","single-stim-button","88","267075","0.0-2.0-22.8-0.8","5b9fa85b4bca610001d791f3","B2","batch2","","463","tol_tohand","","","","tol_peg_2","463","463","0","[[2,1,0],[0,0],[0]]","9","[[0,0,0],[1,2],[3]]","4","0","","","","","","7","","","","","","","","",""
"","","","","","single-stim-button","89","267609","0.0-2.0-22.8-1.8","5b9fa85b4bca610001d791f3","B2","batch2","","533","tol_toboard","","","","tol_peg_3","533","533","0","[[2,1,0],[0,0],[3]]","9","[[0,0,0],[1,2],[3]]","4","0","","","","","","7","","","","","","","","",""
"","","","","","single-stim-button","90","268592","0.0-2.0-22.9-0.9","5b9fa85b4bca610001d791f3","B2","batch2","","983","tol_tohand","","","","tol_peg_1","983","983","0","[[2,0,0],[0,0],[3]]","10","[[0,0,0],[1,2],[3]]","4","0","","","","","","7","","","","","","","","",""
"","","","","","single-stim-button","91","268997","0.0-2.0-22.9-1.9","5b9fa85b4bca610001d791f3","B2","batch2","","404","tol_toboard","","","","tol_peg_2","404","404","0","[[2,0,0],[1,0],[3]]","10","[[0,0,0],[1,2],[3]]","4","0","","","","","","7","","","","","","","","",""
"","","","","","single-stim-button","92","269342","0.0-2.0-22.10-0.10","5b9fa85b4bca610001d791f3","B2","batch2","","344","tol_tohand","","","","tol_peg_1","344","344","0","[[0,0,0],[1,0],[3]]","11","[[0,0,0],[1,2],[3]]","4","0","","","","","","7","","","","","","","","",""
"","","","","","single-stim-button","93","269657","0.0-2.0-22.10-1.10","5b9fa85b4bca610001d791f3","B2","batch2","","315","tol_toboard","","","","tol_peg_2","315","315","0","[[0,0,0],[1,2],[3]]","11","[[0,0,0],[1,2],[3]]","4","0","","","","","","7","","","","","","","","",""
"","","","","","poldrack-single-stim","94","270659","0.0-2.0-23.0","5b9fa85b4bca610001d791f3","B2","batch2","","-1","tol_feedback","","","true","","1000","1000","500","","","","","","-1","none","true","23506","45272","","","","","","","","","",""
"","","","","","html-button-response","95","271176","0.0-2.0-24.0","5b9fa85b4bca610001d791f3","B2","batch2","","516.4000000059605","tol_trial_num","<div class = centerbox><p class = center-block-text>problem <strong>6</strong> out of 25 problems</p></div>","0","","","","","","","","","","","","","","","","","","","","","","","","",""
"","","","","","single-stim-button","96","282436","0.0-2.0-25.0-0.0","5b9fa85b4bca610001d791f3","B2","batch2","","11260","tol_tohand","","","","tol_peg_2","11260","11260","0","[[0,0,0],[1,0],[3]]","1","[[1,0,0],[2,3],[0]]","5","0","","","","","","6","","","","","","","","",""
"","","","","","single-stim-button","97","283177","0.0-2.0-25.0-1.0","5b9fa85b4bca610001d791f3","B2","batch2","","740","tol_toboard","","","","tol_peg_1","740","740","0","[[2,0,0],[1,0],[3]]","1","[[1,0,0],[2,3],[0]]","5","0","","","","","","6","","","","","","","","",""
"","","","","","single-stim-button","98","286192","0.0-2.0-25.1-0.1","5b9fa85b4bca610001d791f3","B2","batch2","","3014","tol_tohand","","","","tol_peg_3","3014","3014","0","[[2,0,0],[1,0],[0]]","2","[[1,0,0],[2,3],[0]]","5","0","","","","","","6","","","","","","","","",""
"","","","","","single-stim-button","99","286841","0.0-2.0-25.1-1.1","5b9fa85b4bca610001d791f3","B2","batch2","","649","tol_toboard","","","","tol_peg_1","649","649","0","[[2,3,0],[1,0],[0]]","2","[[1,0,0],[2,3],[0]]","5","0","","","","","","6","","","","","","","","",""
"","","","","","single-stim-button","100","287168","0.0-2.0-25.2-0.2","5b9fa85b4bca610001d791f3","B2","batch2","","327","tol_tohand","","","","tol_peg_2","327","327","0","[[2,3,0],[0,0],[0]]","3","[[1,0,0],[2,3],[0]]","5","0","","","","","","6","","","","","","","","",""
"","","","","","single-stim-button","101","287764","0.0-2.0-25.2-1.2","5b9fa85b4bca610001d791f3","B2","batch2","","594","tol_toboard","","","","tol_peg_3","594","594","0","[[2,3,0],[0,0],[1]]","3","[[1,0,0],[2,3],[0]]","5","0","","","","","","6","","","","","","","","",""
"","","","","","single-stim-button","102","288968","0.0-2.0-25.3-0.3","5b9fa85b4bca610001d791f3","B2","batch2","","1204","tol_tohand","","","","tol_peg_1","1204","1204","0","[[2,0,0],[0,0],[1]]","4","[[1,0,0],[2,3],[0]]","5","0","","","","","","6","","","","","","","","",""
"","","","","","single-stim-button","103","289428","0.0-2.0-25.3-1.3","5b9fa85b4bca610001d791f3","B2","batch2","","460","tol_toboard","","","","tol_peg_2","460","460","0","[[2,0,0],[3,0],[1]]","4","[[1,0,0],[2,3],[0]]","5","0","","","","","","6","","","","","","","","",""
"","","","","","single-stim-button","104","289901","0.0-2.0-25.4-0.4","5b9fa85b4bca610001d791f3","B2","batch2","","473","tol_tohand","","","","tol_peg_1","473","473","0","[[0,0,0],[3,0],[1]]","5","[[1,0,0],[2,3],[0]]","5","0","","","","","","6","","","","","","","","",""
"","","","","","single-stim-button","105","290228","0.0-2.0-25.4-1.4","5b9fa85b4bca610001d791f3","B2","batch2","","326","tol_toboard","","","","tol_peg_2","326","326","0","[[0,0,0],[3,2],[1]]","5","[[1,0,0],[2,3],[0]]","5","0","","","","","","6","","","","","","","","",""
"","","","","","single-stim-button","106","290501","0.0-2.0-25.5-0.5","5b9fa85b4bca610001d791f3","B2","batch2","","273","tol_tohand","","","","tol_peg_3","273","273","0","[[0,0,0],[3,2],[0]]","6","[[1,0,0],[2,3],[0]]","5","0","","","","","","6","","","","","","","","",""
"","","","","","single-stim-button","107","291125","0.0-2.0-25.5-1.5","5b9fa85b4bca610001d791f3","B2","batch2","","623","tol_toboard","","","","tol_peg_1","623","623","0","[[1,0,0],[3,2],[0]]","6","[[1,0,0],[2,3],[0]]","5","0","","","","","","6","","","","","","","","",""
"","","","","","single-stim-button","108","292810","0.0-2.0-25.6-0.6","5b9fa85b4bca610001d791f3","B2","batch2","","1684","tol_tohand","","","","tol_peg_2","1684","1684","0","[[1,0,0],[3,0],[0]]","7","[[1,0,0],[2,3],[0]]","5","0","","","","","","6","","","","","","","","",""
"","","","","","single-stim-button","109","293831","0.0-2.0-25.6-1.6","5b9fa85b4bca610001d791f3","B2","batch2","","1021","tol_toboard","","","","tol_peg_1","1021","1021","0","[[1,2,0],[3,0],[0]]","7","[[1,0,0],[2,3],[0]]","5","0","","","","","","6","","","","","","","","",""
"","","","","","single-stim-button","110","294091","0.0-2.0-25.7-0.7","5b9fa85b4bca610001d791f3","B2","batch2","","260","tol_tohand","","","","tol_peg_2","260","260","0","[[1,2,0],[0,0],[0]]","8","[[1,0,0],[2,3],[0]]","5","0","","","","","","6","","","","","","","","",""
"","","","","","single-stim-button","111","295685","0.0-2.0-25.7-1.7","5b9fa85b4bca610001d791f3","B2","batch2","","1593","tol_toboard","","","","tol_peg_3","1593","1593","0","[[1,2,0],[0,0],[3]]","8","[[1,0,0],[2,3],[0]]","5","0","","","","","","6","","","","","","","","",""
"","","","","","single-stim-button","112","296286","0.0-2.0-25.8-0.8","5b9fa85b4bca610001d791f3","B2","batch2","","600","tol_tohand","","","","tol_peg_1","600","600","0","[[1,0,0],[0,0],[3]]","9","[[1,0,0],[2,3],[0]]","5","0","","","","","","6","","","","","","","","",""
"","","","","","single-stim-button","113","296851","0.0-2.0-25.8-1.8","5b9fa85b4bca610001d791f3","B2","batch2","","564","tol_toboard","","","","tol_peg_2","564","564","0","[[1,0,0],[2,0],[3]]","9","[[1,0,0],[2,3],[0]]","5","0","","","","","","6","","","","","","","","",""
"","","","","","single-stim-button","114","297131","0.0-2.0-25.9-0.9","5b9fa85b4bca610001d791f3","B2","batch2","","279","tol_tohand","","","","tol_peg_3","279","279","0","[[1,0,0],[2,0],[0]]","10","[[1,0,0],[2,3],[0]]","5","0","","","","","","6","","","","","","","","",""
"","","","","","single-stim-button","115","297491","0.0-2.0-25.9-1.9","5b9fa85b4bca610001d791f3","B2","batch2","","360","tol_toboard","","","","tol_peg_2","360","360","0","[[1,0,0],[2,3],[0]]","10","[[1,0,0],[2,3],[0]]","5","0","","","","","","6","","","","","","","","",""
"","","","","","poldrack-single-stim","116","298501","0.0-2.0-26.0","5b9fa85b4bca610001d791f3","B2","batch2","","-1","tol_feedback","","","true","","1000","1000","500","","","","","","-1","none","true","11260","19374","","","","","","","","","",""
"","","","","","html-button-response","117","299028","0.0-2.0-27.0","5b9fa85b4bca610001d791f3","B2","batch2","","526.1999999880791","tol_trial_num","<div class = centerbox><p class = center-block-text>problem <strong>7</strong> out of 25 problems</p></div>","0","","","","","","","","","","","","","","","","","","","","","","","","",""
"","","","","","single-stim-button","118","306093","0.0-2.0-28.0-0.0","5b9fa85b4bca610001d791f3","B2","batch2","","7064","tol_tohand","","","","tol_peg_1","7064","7064","0","[[2,0,0],[0,0],[3]]","1","[[1,2,0],[3,0],[0]]","6","0","","","","","","5","","","","","","","","",""
"","","","","","single-stim-button","119","310467","0.0-2.0-28.0-1.0","5b9fa85b4bca610001d791f3","B2","batch2","","4373","tol_toboard","","","","tol_peg_1","4373","4373","0","[[2,1,0],[0,0],[3]]","1","[[1,2,0],[3,0],[0]]","6","0","","","","","","5","","","","","","","","",""
"","","","","","single-stim-button","120","311018","0.0-2.0-28.1-0.1","5b9fa85b4bca610001d791f3","B2","batch2","","551","tol_tohand","","","","tol_peg_3","551","551","0","[[2,1,0],[0,0],[0]]","2","[[1,2,0],[3,0],[0]]","6","0","","","","","","5","","","","","","","","",""
"","","","","","single-stim-button","121","311507","0.0-2.0-28.1-1.1","5b9fa85b4bca610001d791f3","B2","batch2","","487","tol_toboard","","","","tol_peg_2","487","487","0","[[2,1,0],[3,0],[0]]","2","[[1,2,0],[3,0],[0]]","6","0","","","","","","5","","","","","","","","",""
"","","","","","single-stim-button","122","311894","0.0-2.0-28.2-0.2","5b9fa85b4bca610001d791f3","B2","batch2","","386","tol_tohand","","","","tol_peg_1","386","386","0","[[2,0,0],[3,0],[0]]","3","[[1,2,0],[3,0],[0]]","6","0","","","","","","5","","","","","","","","",""
"","","","","","single-stim-button","123","312358","0.0-2.0-28.2-1.2","5b9fa85b4bca610001d791f3","B2","batch2","","463","tol_toboard","","","","tol_peg_3","463","463","0","[[2,0,0],[3,0],[1]]","3","[[1,2,0],[3,0],[0]]","6","0","","","","","","5","","","","","","","","",""
"","","","","","single-stim-button","124","313268","0.0-2.0-28.3-0.3","5b9fa85b4bca610001d791f3","B2","batch2","","909","tol_tohand","","","","tol_peg_1","909","909","0","[[0,0,0],[3,0],[1]]","4","[[1,2,0],[3,0],[0]]","6","0","","","","","","5","","","","","","","","",""
"","","","","","single-stim-button","125","313740","0.0-2.0-28.3-1.3","5b9fa85b4bca610001d791f3","B2","batch2","","472","tol_toboard","","","","tol_peg_2","472","472","0","[[0,0,0],[3,2],[1]]","4","[[1,2,0],[3,0],[0]]","6","0","","","","","","5","","","","","","","","",""
"","","","","","single-stim-button","126","314077","0.0-2.0-28.4-0.4","5b9fa85b4bca610001d791f3","B2","batch2","","336","tol_tohand","","","","tol_peg_3","336","336","0","[[0,0,0],[3,2],[0]]","5","[[1,2,0],[3,0],[0]]","6","0","","","","","","5","","","","","","","","",""
"","","","","","single-stim-button","127","314687","0.0-2.0-28.4-1.4","5b9fa85b4bca610001d791f3","B2","batch2","","608","tol_toboard","","","","tol_peg_1","608","608","0","[[1,0,0],[3,2],[0]]","5","[[1,2,0],[3,0],[0]]","6","0","","","","","","5","","","","","","","","",""
"","","","","","single-stim-button","128","315198","0.0-2.0-28.5-0.5","5b9fa85b4bca610001d791f3","B2","batch2","","511","tol_tohand","","","","tol_peg_2","511","511","0","[[1,0,0],[3,0],[0]]","6","[[1,2,0],[3,0],[0]]","6","0","","","","","","5","","","","","","","","",""
"","","","","","single-stim-button","129","315518","0.0-2.0-28.5-1.5","5b9fa85b4bca610001d791f3","B2","batch2","","319","tol_toboard","","","","tol_peg_1","319","319","0","[[1,2,0],[3,0],[0]]","6","[[1,2,0],[3,0],[0]]","6","0","","","","","","5","","","","","","","","",""
"","","","","","poldrack-single-stim","130","316535","0.0-2.0-29.0","5b9fa85b4bca610001d791f3","B2","batch2","","-1","tol_feedback","","","true","","1000","1000","500","","","","","","-1","none","true","7064","9757","","","","","","","","","",""
"","","","","","html-button-response","131","317706","0.0-2.0-30.0","5b9fa85b4bca610001d791f3","B2","batch2","","1171","tol_trial_num","<div class = centerbox><p class = center-block-text>problem <strong>8</strong> out of 25 problems</p></div>","0","","","","","","","","","","","","","","","","","","","","","","","","",""
"","","","","","single-stim-button","132","326865","0.0-2.0-31.0-0.0","5b9fa85b4bca610001d791f3","B2","batch2","","9157","tol_tohand","","","","tol_peg_3","9157","9157","0","[[0,0,0],[2,3],[0]]","1","[[1,2,0],[3,0],[0]]","7","0","","","","","","4","","","","","","","","",""
"","","","","","single-stim-button","133","327512","0.0-2.0-31.0-1.0","5b9fa85b4bca610001d791f3","B2","batch2","","647","tol_toboard","","","","tol_peg_1","647","647","0","[[1,0,0],[2,3],[0]]","1","[[1,2,0],[3,0],[0]]","7","0","","","","","","4","","","","","","","","",""
"","","","","","single-stim-button","134","328236","0.0-2.0-31.1-0.1","5b9fa85b4bca610001d791f3","B2","batch2","","723","tol_tohand","","","","tol_peg_2","723","723","0","[[1,0,0],[2,0],[0]]","2","[[1,2,0],[3,0],[0]]","7","0","","","","","","4","","","","","","","","",""
"","","","","","single-stim-button","135","329061","0.0-2.0-31.1-1.1","5b9fa85b4bca610001d791f3","B2","batch2","","825","tol_toboard","","","","tol_peg_3","825","825","0","[[1,0,0],[2,0],[3]]","2","[[1,2,0],[3,0],[0]]","7","0","","","","","","4","","","","","","","","",""
"","","","","","single-stim-button","136","329471","0.0-2.0-31.2-0.2","5b9fa85b4bca610001d791f3","B2","batch2","","410","tol_tohand","","","","tol_peg_2","410","410","0","[[1,0,0],[0,0],[3]]","3","[[1,2,0],[3,0],[0]]","7","0","","","","","","4","","","","","","","","",""
"","","","","","single-stim-button","137","329892","0.0-2.0-31.2-1.2","5b9fa85b4bca610001d791f3","B2","batch2","","420","tol_toboard","","","","tol_peg_1","420","420","0","[[1,2,0],[0,0],[3]]","3","[[1,2,0],[3,0],[0]]","7","0","","","","","","4","","","","","","","","",""
"","","","","","single-stim-button","138","330609","0.0-2.0-31.3-0.3","5b9fa85b4bca610001d791f3","B2","batch2","","717","tol_tohand","","","","tol_peg_3","717","717","0","[[1,2,0],[0,0],[0]]","4","[[1,2,0],[3,0],[0]]","7","0","","","","","","4","","","","","","","","",""
"","","","","","single-stim-button","139","330938","0.0-2.0-31.3-1.3","5b9fa85b4bca610001d791f3","B2","batch2","","329","tol_toboard","","","","tol_peg_2","329","329","0","[[1,2,0],[3,0],[0]]","4","[[1,2,0],[3,0],[0]]","7","0","","","","","","4","","","","","","","","",""
"","","","","","poldrack-single-stim","140","331940","0.0-2.0-32.0","5b9fa85b4bca610001d791f3","B2","batch2","","-1","tol_feedback","","","true","","1000","1000","500","","","","","","-1","none","true","9157","11007","","","","","","","","","",""
"","","","","","html-button-response","141","332709","0.0-2.0-33.0","5b9fa85b4bca610001d791f3","B2","batch2","","768.5","tol_trial_num","<div class = centerbox><p class = center-block-text>problem <strong>9</strong> out of 25 problems</p></div>","0","","","","","","","","","","","","","","","","","","","","","","","","",""
"","","","","","single-stim-button","142","338177","0.0-2.0-34.0-0.0","5b9fa85b4bca610001d791f3","B2","batch2","","5468","tol_tohand","","","","tol_peg_1","5468","5468","0","[[3,0,0],[0,0],[1]]","1","[[2,1,0],[3,0],[0]]","8","0","","","","","","6","","","","","","","","",""
"","","","","","single-stim-button","143","338873","0.0-2.0-34.0-1.0","5b9fa85b4bca610001d791f3","B2","batch2","","695","tol_toboard","","","","tol_peg_2","695","695","0","[[3,0,0],[2,0],[1]]","1","[[2,1,0],[3,0],[0]]","8","0","","","","","","6","","","","","","","","",""
"","","","","","single-stim-button","144","345198","0.0-2.0-34.1-0.1","5b9fa85b4bca610001d791f3","B2","batch2","","6325","tol_tohand","","","","tol_peg_3","6325","6325","0","[[3,0,0],[2,0],[0]]","2","[[2,1,0],[3,0],[0]]","8","0","","","","","","6","","","","","","","","",""
"","","","","","single-stim-button","145","345645","0.0-2.0-34.1-1.1","5b9fa85b4bca610001d791f3","B2","batch2","","446","tol_toboard","","","","tol_peg_2","446","446","0","[[3,0,0],[2,1],[0]]","2","[[2,1,0],[3,0],[0]]","8","0","","","","","","6","","","","","","","","",""
"","","","","","single-stim-button","146","345991","0.0-2.0-34.2-0.2","5b9fa85b4bca610001d791f3","B2","batch2","","346","tol_tohand","","","","tol_peg_1","346","346","0","[[0,0,0],[2,1],[0]]","3","[[2,1,0],[3,0],[0]]","8","0","","","","","","6","","","","","","","","",""
"","","","","","single-stim-button","147","346634","0.0-2.0-34.2-1.2","5b9fa85b4bca610001d791f3","B2","batch2","","643","tol_toboard","","","","tol_peg_3","643","643","0","[[0,0,0],[2,1],[3]]","3","[[2,1,0],[3,0],[0]]","8","0","","","","","","6","","","","","","","","",""
"","","","","","single-stim-button","148","351474","0.0-2.0-34.3-0.3","5b9fa85b4bca610001d791f3","B2","batch2","","4840","tol_tohand","","","","tol_peg_3","4840","4840","0","[[0,0,0],[2,1],[0]]","4","[[2,1,0],[3,0],[0]]","8","0","","","","","","6","","","","","","","","",""
"","","","","","single-stim-button","149","352557","0.0-2.0-34.3-1.3","5b9fa85b4bca610001d791f3","B2","batch2","","1082","tol_toboard","","","","tol_peg_1","1082","1082","0","[[3,0,0],[2,1],[0]]","4","[[2,1,0],[3,0],[0]]","8","0","","","","","","6","","","","","","","","",""
"","","","","","single-stim-button","150","354241","0.0-2.0-34.4-0.4","5b9fa85b4bca610001d791f3","B2","batch2","","1684","tol_tohand","","","","tol_peg_2","1684","1684","0","[[3,0,0],[2,0],[0]]","5","[[2,1,0],[3,0],[0]]","8","0","","","","","","6","","","","","","","","",""
"","","","","","single-stim-button","151","355740","0.0-2.0-34.4-1.4","5b9fa85b4bca610001d791f3","B2","batch2","","1498","tol_toboard","","","","tol_peg_3","1498","1498","0","[[3,0,0],[2,0],[1]]","5","[[2,1,0],[3,0],[0]]","8","0","","","","","","6","","","","","","","","",""
"","","","","","single-stim-button","152","356264","0.0-2.0-34.5-0.5","5b9fa85b4bca610001d791f3","B2","batch2","","524","tol_tohand","","","","tol_peg_1","524","524","0","[[0,0,0],[2,0],[1]]","6","[[2,1,0],[3,0],[0]]","8","0","","","","","","6","","","","","","","","",""
"","","","","","single-stim-button","153","356714","0.0-2.0-34.5-1.5","5b9fa85b4bca610001d791f3","B2","batch2","","449","tol_toboard","","","","tol_peg_2","449","449","0","[[0,0,0],[2,3],[1]]","6","[[2,1,0],[3,0],[0]]","8","0","","","","","","6","","","","","","","","",""
"","","","","","single-stim-button","154","356976","0.0-2.0-34.6-0.6","5b9fa85b4bca610001d791f3","B2","batch2","","262","tol_tohand","","","","tol_peg_3","262","262","0","[[0,0,0],[2,3],[0]]","7","[[2,1,0],[3,0],[0]]","8","0","","","","","","6","","","","","","","","",""
"","","","","","single-stim-button","155","357611","0.0-2.0-34.6-1.6","5b9fa85b4bca610001d791f3","B2","batch2","","634","tol_toboard","","","","tol_peg_1","634","634","0","[[1,0,0],[2,3],[0]]","7","[[2,1,0],[3,0],[0]]","8","0","","","","","","6","","","","","","","","",""
"","","","","","single-stim-button","156","359298","0.0-2.0-34.7-0.7","5b9fa85b4bca610001d791f3","B2","batch2","","1686","tol_tohand","","","","tol_peg_2","1686","1686","0","[[1,0,0],[2,0],[0]]","8","[[2,1,0],[3,0],[0]]","8","0","","","","","","6","","","","","","","","",""
"","","","","","single-stim-button","157","359816","0.0-2.0-34.7-1.7","5b9fa85b4bca610001d791f3","B2","batch2","","518","tol_toboard","","","","tol_peg_3","518","518","0","[[1,0,0],[2,0],[3]]","8","[[2,1,0],[3,0],[0]]","8","0","","","","","","6","","","","","","","","",""
"","","","","","single-stim-button","158","362845","0.0-2.0-34.8-0.8","5b9fa85b4bca610001d791f3","B2","batch2","","3029","tol_tohand","","","","tol_peg_3","3029","3029","0","[[1,0,0],[2,0],[0]]","9","[[2,1,0],[3,0],[0]]","8","0","","","","","","6","","","","","","","","",""
"","","","","","single-stim-button","159","363639","0.0-2.0-34.8-1.8","5b9fa85b4bca610001d791f3","B2","batch2","","794","tol_toboard","","","","tol_peg_2","794","794","0","[[1,0,0],[2,3],[0]]","9","[[2,1,0],[3,0],[0]]","8","0","","","","","","6","","","","","","","","",""
"","","","","","single-stim-button","160","364599","0.0-2.0-34.9-0.9","5b9fa85b4bca610001d791f3","B2","batch2","","960","tol_tohand","","","","tol_peg_2","960","960","0","[[1,0,0],[2,0],[0]]","10","[[2,1,0],[3,0],[0]]","8","0","","","","","","6","","","","","","","","",""
"","","","","","single-stim-button","161","365311","0.0-2.0-34.9-1.9","5b9fa85b4bca610001d791f3","B2","batch2","","712","tol_toboard","","","","tol_peg_1","712","712","0","[[1,3,0],[2,0],[0]]","10","[[2,1,0],[3,0],[0]]","8","0","","","","","","6","","","","","","","","",""
"","","","","","single-stim-button","162","365576","0.0-2.0-34.10-0.10","5b9fa85b4bca610001d791f3","B2","batch2","","265","tol_tohand","","","","tol_peg_2","265","265","0","[[1,3,0],[0,0],[0]]","11","[[2,1,0],[3,0],[0]]","8","0","","","","","","6","","","","","","","","",""
"","","","","","single-stim-button","163","366086","0.0-2.0-34.10-1.10","5b9fa85b4bca610001d791f3","B2","batch2","","509","tol_toboard","","","","tol_peg_3","509","509","0","[[1,3,0],[0,0],[2]]","11","[[2,1,0],[3,0],[0]]","8","0","","","","","","6","","","","","","","","",""
"","","","","","single-stim-button","164","367181","0.0-2.0-34.11-0.11","5b9fa85b4bca610001d791f3","B2","batch2","","1095","tol_tohand","","","","tol_peg_1","1095","1095","0","[[1,0,0],[0,0],[2]]","12","[[2,1,0],[3,0],[0]]","8","0","","","","","","6","","","","","","","","",""
"","","","","","single-stim-button","165","367618","0.0-2.0-34.11-1.11","5b9fa85b4bca610001d791f3","B2","batch2","","437","tol_toboard","","","","tol_peg_2","437","437","0","[[1,0,0],[3,0],[2]]","12","[[2,1,0],[3,0],[0]]","8","0","","","","","","6","","","","","","","","",""
"","","","","","single-stim-button","166","368599","0.0-2.0-34.12-0.12","5b9fa85b4bca610001d791f3","B2","batch2","","980","tol_tohand","","","","tol_peg_1","980","980","0","[[0,0,0],[3,0],[2]]","13","[[2,1,0],[3,0],[0]]","8","0","","","","","","6","","","","","","","","",""
"","","","","","single-stim-button","167","369896","0.0-2.0-34.12-1.12","5b9fa85b4bca610001d791f3","B2","batch2","","1297","tol_toboard","","","","tol_peg_2","1297","1297","0","[[0,0,0],[3,1],[2]]","13","[[2,1,0],[3,0],[0]]","8","0","","","","","","6","","","","","","","","",""
"","","","","","single-stim-button","168","370164","0.0-2.0-34.13-0.13","5b9fa85b4bca610001d791f3","B2","batch2","","268","tol_tohand","","","","tol_peg_3","268","268","0","[[0,0,0],[3,1],[0]]","14","[[2,1,0],[3,0],[0]]","8","0","","","","","","6","","","","","","","","",""
"","","","","","single-stim-button","169","370691","0.0-2.0-34.13-1.13","5b9fa85b4bca610001d791f3","B2","batch2","","527","tol_toboard","","","","tol_peg_1","527","527","0","[[2,0,0],[3,1],[0]]","14","[[2,1,0],[3,0],[0]]","8","0","","","","","","6","","","","","","","","",""
"","","","","","single-stim-button","170","371111","0.0-2.0-34.14-0.14","5b9fa85b4bca610001d791f3","B2","batch2","","420","tol_tohand","","","","tol_peg_2","420","420","0","[[2,0,0],[3,0],[0]]","15","[[2,1,0],[3,0],[0]]","8","0","","","","","","6","","","","","","","","",""
"","","","","","single-stim-button","171","371435","0.0-2.0-34.14-1.14","5b9fa85b4bca610001d791f3","B2","batch2","","323","tol_toboard","","","","tol_peg_1","323","323","0","[[2,1,0],[3,0],[0]]","15","[[2,1,0],[3,0],[0]]","8","0","","","","","","6","","","","","","","","",""
"","","","","","poldrack-single-stim","172","372436","0.0-2.0-35.0","5b9fa85b4bca610001d791f3","B2","batch2","","-1","tol_feedback","","","true","","1000","1000","500","","","","","","-1","none","true","5468","28152","","","","","","","","","",""
"","","","","","html-button-response","173","373388","0.0-2.0-36.0","5b9fa85b4bca610001d791f3","B2","batch2","","951.2999999821186","tol_trial_num","<div class = centerbox><p class = center-block-text>problem <strong>10</strong> out of 25 problems</p></div>","0","","","","","","","","","","","","","","","","","","","","","","","","",""
"","","","","","single-stim-button","174","376881","0.0-2.0-37.0-0.0","5b9fa85b4bca610001d791f3","B2","batch2","","3492","tol_tohand","","","","tol_peg_2","3492","3492","0","[[3,0,0],[0,0],[2]]","1","[[3,0,0],[2,1],[0]]","9","0","","","","","","3","","","","","","","","",""
"","","","","","single-stim-button","175","377349","0.0-2.0-37.0-1.0","5b9fa85b4bca610001d791f3","B2","batch2","","467","tol_toboard","","","","tol_peg_1","467","467","0","[[3,1,0],[0,0],[2]]","1","[[3,0,0],[2,1],[0]]","9","0","","","","","","3","","","","","","","","",""
"","","","","","single-stim-button","176","377775","0.0-2.0-37.1-0.1","5b9fa85b4bca610001d791f3","B2","batch2","","425","tol_tohand","","","","tol_peg_3","425","425","0","[[3,1,0],[0,0],[0]]","2","[[3,0,0],[2,1],[0]]","9","0","","","","","","3","","","","","","","","",""
"","","","","","single-stim-button","177","378362","0.0-2.0-37.1-1.1","5b9fa85b4bca610001d791f3","B2","batch2","","586","tol_toboard","","","","tol_peg_2","586","586","0","[[3,1,0],[2,0],[0]]","2","[[3,0,0],[2,1],[0]]","9","0","","","","","","3","","","","","","","","",""
"","","","","","single-stim-button","178","378890","0.0-2.0-37.2-0.2","5b9fa85b4bca610001d791f3","B2","batch2","","527","tol_tohand","","","","tol_peg_1","527","527","0","[[3,0,0],[2,0],[0]]","3","[[3,0,0],[2,1],[0]]","9","0","","","","","","3","","","","","","","","",""
"","","","","","single-stim-button","179","379157","0.0-2.0-37.2-1.2","5b9fa85b4bca610001d791f3","B2","batch2","","266","tol_toboard","","","","tol_peg_2","266","266","0","[[3,0,0],[2,1],[0]]","3","[[3,0,0],[2,1],[0]]","9","0","","","","","","3","","","","","","","","",""
"","","","","","poldrack-single-stim","180","380157","0.0-2.0-38.0","5b9fa85b4bca610001d791f3","B2","batch2","","-1","tol_feedback","","","true","","1000","1000","500","","","","","","-1","none","true","3492","4444","","","","","","","","","",""
"","","","","","html-button-response","181","380748","0.0-2.0-39.0","5b9fa85b4bca610001d791f3","B2","batch2","","589.8000000119209","tol_trial_num","<div class = centerbox><p class = center-block-text>problem <strong>11</strong> out of 25 problems</p></div>","0","","","","","","","","","","","","","","","","","","","","","","","","",""
"","","","","","single-stim-button","182","394321","0.0-2.0-40.0-0.0","5b9fa85b4bca610001d791f3","B2","batch2","","13572","tol_tohand","","","","tol_peg_1","13572","13572","0","[[1,0,0],[3,0],[0]]","1","[[2,0,0],[1,3],[0]]","10","0","","","","","","6","","","","","","","","",""
"","","","","","single-stim-button","183","395674","0.0-2.0-40.0-1.0","5b9fa85b4bca610001d791f3","B2","batch2","","1352","tol_toboard","","","","tol_peg_3","1352","1352","0","[[1,0,0],[3,0],[2]]","1","[[2,0,0],[1,3],[0]]","10","0","","","","","","6","","","","","","","","",""
"","","","","","single-stim-button","184","397019","0.0-2.0-40.1-0.1","5b9fa85b4bca610001d791f3","B2","batch2","","1345","tol_tohand","","","","tol_peg_1","1345","1345","0","[[0,0,0],[3,0],[2]]","2","[[2,0,0],[1,3],[0]]","10","0","","","","","","6","","","","","","","","",""
"","","","","","single-stim-button","185","397518","0.0-2.0-40.1-1.1","5b9fa85b4bca610001d791f3","B2","batch2","","499","tol_toboard","","","","tol_peg_2","499","499","0","[[0,0,0],[3,1],[2]]","2","[[2,0,0],[1,3],[0]]","10","0","","","","","","6","","","","","","","","",""
"","","","","","single-stim-button","186","397871","0.0-2.0-40.2-0.2","5b9fa85b4bca610001d791f3","B2","batch2","","353","tol_tohand","","","","tol_peg_3","353","353","0","[[0,0,0],[3,1],[0]]","3","[[2,0,0],[1,3],[0]]","10","0","","","","","","6","","","","","","","","",""
"","","","","","single-stim-button","187","398568","0.0-2.0-40.2-1.2","5b9fa85b4bca610001d791f3","B2","batch2","","696","tol_toboard","","","","tol_peg_1","696","696","0","[[2,0,0],[3,1],[0]]","3","[[2,0,0],[1,3],[0]]","10","0","","","","","","6","","","","","","","","",""
"","","","","","single-stim-button","188","399036","0.0-2.0-40.3-0.3","5b9fa85b4bca610001d791f3","B2","batch2","","468","tol_tohand","","","","tol_peg_2","468","468","0","[[2,0,0],[3,0],[0]]","4","[[2,0,0],[1,3],[0]]","10","0","","","","","","6","","","","","","","","",""
"","","","","","single-stim-button","189","399335","0.0-2.0-40.3-1.3","5b9fa85b4bca610001d791f3","B2","batch2","","299","tol_toboard","","","","tol_peg_1","299","299","0","[[2,1,0],[3,0],[0]]","4","[[2,0,0],[1,3],[0]]","10","0","","","","","","6","","","","","","","","",""
"","","","","","single-stim-button","190","400496","0.0-2.0-40.4-0.4","5b9fa85b4bca610001d791f3","B2","batch2","","1160","tol_tohand","","","","tol_peg_2","1160","1160","0","[[2,1,0],[0,0],[0]]","5","[[2,0,0],[1,3],[0]]","10","0","","","","","","6","","","","","","","","",""
"","","","","","single-stim-button","191","400810","0.0-2.0-40.4-1.4","5b9fa85b4bca610001d791f3","B2","batch2","","314","tol_toboard","","","","tol_peg_3","314","314","0","[[2,1,0],[0,0],[3]]","5","[[2,0,0],[1,3],[0]]","10","0","","","","","","6","","","","","","","","",""
"","","","","","single-stim-button","192","401526","0.0-2.0-40.5-0.5","5b9fa85b4bca610001d791f3","B2","batch2","","715","tol_tohand","","","","tol_peg_1","715","715","0","[[2,0,0],[0,0],[3]]","6","[[2,0,0],[1,3],[0]]","10","0","","","","","","6","","","","","","","","",""
"","","","","","single-stim-button","193","401810","0.0-2.0-40.5-1.5","5b9fa85b4bca610001d791f3","B2","batch2","","283","tol_toboard","","","","tol_peg_2","283","283","0","[[2,0,0],[1,0],[3]]","6","[[2,0,0],[1,3],[0]]","10","0","","","","","","6","","","","","","","","",""
"","","","","","single-stim-button","194","402168","0.0-2.0-40.6-0.6","5b9fa85b4bca610001d791f3","B2","batch2","","357","tol_tohand","","","","tol_peg_3","357","357","0","[[2,0,0],[1,0],[0]]","7","[[2,0,0],[1,3],[0]]","10","0","","","","","","6","","","","","","","","",""
"","","","","","single-stim-button","195","402461","0.0-2.0-40.6-1.6","5b9fa85b4bca610001d791f3","B2","batch2","","293","tol_toboard","","","","tol_peg_2","293","293","0","[[2,0,0],[1,3],[0]]","7","[[2,0,0],[1,3],[0]]","10","0","","","","","","6","","","","","","","","",""
"","","","","","poldrack-single-stim","196","403473","0.0-2.0-41.0","5b9fa85b4bca610001d791f3","B2","batch2","","-1","tol_feedback","","","true","","1000","1000","500","","","","","","-1","none","true","13572","17970","","","","","","","","","",""
"","","","","","html-button-response","197","404101","0.0-2.0-42.0","5b9fa85b4bca610001d791f3","B2","batch2","","627.3999999761581","tol_trial_num","<div class = centerbox><p class = center-block-text>problem <strong>12</strong> out of 25 problems</p></div>","0","","","","","","","","","","","","","","","","","","","","","","","","",""
"","","","","","single-stim-button","198","406391","0.0-2.0-43.0-0.0","5b9fa85b4bca610001d791f3","B2","batch2","","2290","tol_tohand","","","","tol_peg_1","2290","2290","0","[[1,0,0],[3,0],[0]]","1","[[2,3,0],[0,0],[1]]","11","0","","","","","","4","","","","","","","","",""
"","","","","","single-stim-button","199","407034","0.0-2.0-43.0-1.0","5b9fa85b4bca610001d791f3","B2","batch2","","642","tol_toboard","","","","tol_peg_3","642","642","0","[[1,0,0],[3,0],[2]]","1","[[2,3,0],[0,0],[1]]","11","0","","","","","","4","","","","","","","","",""
"","","","","","single-stim-button","200","421090","0.0-2.0-43.1-0.1","5b9fa85b4bca610001d791f3","B2","batch2","","14055","tol_tohand","","","","tol_peg_1","14055","14055","0","[[0,0,0],[3,0],[2]]","2","[[2,3,0],[0,0],[1]]","11","0","","","","","","4","","","","","","","","",""
"","","","","","single-stim-button","201","421503","0.0-2.0-43.1-1.1","5b9fa85b4bca610001d791f3","B2","batch2","","412","tol_toboard","","","","tol_peg_2","412","412","0","[[0,0,0],[3,1],[2]]","2","[[2,3,0],[0,0],[1]]","11","0","","","","","","4","","","","","","","","",""
"","","","","","single-stim-button","202","421760","0.0-2.0-43.2-0.2","5b9fa85b4bca610001d791f3","B2","batch2","","256","tol_tohand","","","","tol_peg_3","256","256","0","[[0,0,0],[3,1],[0]]","3","[[2,3,0],[0,0],[1]]","11","0","","","","","","4","","","","","","","","",""
"","","","","","single-stim-button","203","422364","0.0-2.0-43.2-1.2","5b9fa85b4bca610001d791f3","B2","batch2","","603","tol_toboard","","","","tol_peg_1","603","603","0","[[2,0,0],[3,1],[0]]","3","[[2,3,0],[0,0],[1]]","11","0","","","","","","4","","","","","","","","",""
"","","","","","single-stim-button","204","422861","0.0-2.0-43.3-0.3","5b9fa85b4bca610001d791f3","B2","batch2","","497","tol_tohand","","","","tol_peg_2","497","497","0","[[2,0,0],[3,0],[0]]","4","[[2,3,0],[0,0],[1]]","11","0","","","","","","4","","","","","","","","",""
"","","","","","single-stim-button","205","423382","0.0-2.0-43.3-1.3","5b9fa85b4bca610001d791f3","B2","batch2","","520","tol_toboard","","","","tol_peg_3","520","520","0","[[2,0,0],[3,0],[1]]","4","[[2,3,0],[0,0],[1]]","11","0","","","","","","4","","","","","","","","",""
"","","","","","single-stim-button","206","423826","0.0-2.0-43.4-0.4","5b9fa85b4bca610001d791f3","B2","batch2","","442","tol_tohand","","","","tol_peg_2","442","442","0","[[2,0,0],[0,0],[1]]","5","[[2,3,0],[0,0],[1]]","11","0","","","","","","4","","","","","","","","",""
"","","","","","single-stim-button","207","424164","0.0-2.0-43.4-1.4","5b9fa85b4bca610001d791f3","B2","batch2","","337","tol_toboard","","","","tol_peg_1","337","337","0","[[2,3,0],[0,0],[1]]","5","[[2,3,0],[0,0],[1]]","11","0","","","","","","4","","","","","","","","",""
"","","","","","poldrack-single-stim","208","425164","0.0-2.0-44.0","5b9fa85b4bca610001d791f3","B2","batch2","","-1","tol_feedback","","","true","","1000","1000","500","","","","","","-1","none","true","2290","17540","","","","","","","","","",""
"","","","","","html-button-response","209","425651","0.0-2.0-45.0","5b9fa85b4bca610001d791f3","B2","batch2","","485.59999999403954","tol_trial_num","<div class = centerbox><p class = center-block-text>problem <strong>13</strong> out of 25 problems</p></div>","0","","","","","","","","","","","","","","","","","","","","","","","","",""
"","","","","","single-stim-button","210","429861","0.0-2.0-46.0-0.0","5b9fa85b4bca610001d791f3","B2","batch2","","4209","tol_tohand","","","","tol_peg_2","4209","4209","0","[[1,2,0],[0,0],[0]]","1","[[0,0,0],[2,3],[1]]","12","0","","","","","","4","","","","","","","","",""
"","","","","","single-stim-button","211","430428","0.0-2.0-46.0-1.0","5b9fa85b4bca610001d791f3","B2","batch2","","566","tol_toboard","","","","tol_peg_3","566","566","0","[[1,2,0],[0,0],[3]]","1","[[0,0,0],[2,3],[1]]","12","0","","","","","","4","","","","","","","","",""
"","","","","","single-stim-button","212","430898","0.0-2.0-46.1-0.1","5b9fa85b4bca610001d791f3","B2","batch2","","470","tol_tohand","","","","tol_peg_1","470","470","0","[[1,0,0],[0,0],[3]]","2","[[0,0,0],[2,3],[1]]","12","0","","","","","","4","","","","","","","","",""
"","","","","","single-stim-button","213","431422","0.0-2.0-46.1-1.1","5b9fa85b4bca610001d791f3","B2","batch2","","522","tol_toboard","","","","tol_peg_2","522","522","0","[[1,0,0],[2,0],[3]]","2","[[0,0,0],[2,3],[1]]","12","0","","","","","","4","","","","","","","","",""
"","","","","","single-stim-button","214","432281","0.0-2.0-46.2-0.2","5b9fa85b4bca610001d791f3","B2","batch2","","858","tol_tohand","","","","tol_peg_3","858","858","0","[[1,0,0],[2,0],[0]]","3","[[0,0,0],[2,3],[1]]","12","0","","","","","","4","","","","","","","","",""
"","","","","","single-stim-button","215","432824","0.0-2.0-46.2-1.2","5b9fa85b4bca610001d791f3","B2","batch2","","543","tol_toboard","","","","tol_peg_2","543","543","0","[[1,0,0],[2,3],[0]]","3","[[0,0,0],[2,3],[1]]","12","0","","","","","","4","","","","","","","","",""
"","","","","","single-stim-button","216","433467","0.0-2.0-46.3-0.3","5b9fa85b4bca610001d791f3","B2","batch2","","642","tol_tohand","","","","tol_peg_1","642","642","0","[[0,0,0],[2,3],[0]]","4","[[0,0,0],[2,3],[1]]","12","0","","","","","","4","","","","","","","","",""
"","","","","","single-stim-button","217","433928","0.0-2.0-46.3-1.3","5b9fa85b4bca610001d791f3","B2","batch2","","461","tol_toboard","","","","tol_peg_3","461","461","0","[[0,0,0],[2,3],[1]]","4","[[0,0,0],[2,3],[1]]","12","0","","","","","","4","","","","","","","","",""
"","","","","","poldrack-single-stim","218","434929","0.0-2.0-47.0","5b9fa85b4bca610001d791f3","B2","batch2","","-1","tol_feedback","","","true","","1000","1000","500","","","","","","-1","none","true","4209","6179","","","","","","","","","",""
"","","","","","html-button-response","219","437031","0.0-2.0-48.0","5b9fa85b4bca610001d791f3","B2","batch2","","2100.899999976158","attention_check","<p class = block-text>How many balls are in your board<br></p>","1","true","","","","","","","","","","","","","","","","","","","","","","","",""
"","","","","","html-button-response","220","437678","0.0-2.0-49.0","5b9fa85b4bca610001d791f3","B2","batch2","","646.3999999761581","tol_trial_num","<div class = centerbox><p class = center-block-text>problem <strong>14</strong> out of 25 problems</p></div>","0","","","","","","","","","","","","","","","","","","","","","","","","",""
"","","","","","single-stim-button","221","441397","0.0-2.0-50.0-0.0","5b9fa85b4bca610001d791f3","B2","batch2","","3718","tol_tohand","","","","tol_peg_1","3718","3718","0","[[2,0,0],[3,0],[0]]","1","[[1,2,0],[3,0],[0]]","13","0","","","","","","4","","","","","","","","",""
"","","","","","single-stim-button","222","442210","0.0-2.0-50.0-1.0","5b9fa85b4bca610001d791f3","B2","batch2","","812","tol_toboard","","","","tol_peg_3","812","812","0","[[2,0,0],[3,0],[1]]","1","[[1,2,0],[3,0],[0]]","13","0","","","","","","4","","","","","","","","",""
"","","","","","single-stim-button","223","442674","0.0-2.0-50.1-0.1","5b9fa85b4bca610001d791f3","B2","batch2","","464","tol_tohand","","","","tol_peg_1","464","464","0","[[0,0,0],[3,0],[1]]","2","[[1,2,0],[3,0],[0]]","13","0","","","","","","4","","","","","","","","",""
"","","","","","single-stim-button","224","443084","0.0-2.0-50.1-1.1","5b9fa85b4bca610001d791f3","B2","batch2","","410","tol_toboard","","","","tol_peg_2","410","410","0","[[0,0,0],[3,2],[1]]","2","[[1,2,0],[3,0],[0]]","13","0","","","","","","4","","","","","","","","",""
"","","","","","single-stim-button","225","443591","0.0-2.0-50.2-0.2","5b9fa85b4bca610001d791f3","B2","batch2","","507","tol_tohand","","","","tol_peg_3","507","507","0","[[0,0,0],[3,2],[0]]","3","[[1,2,0],[3,0],[0]]","13","0","","","","","","4","","","","","","","","",""
"","","","","","single-stim-button","226","444219","0.0-2.0-50.2-1.2","5b9fa85b4bca610001d791f3","B2","batch2","","628","tol_toboard","","","","tol_peg_1","628","628","0","[[1,0,0],[3,2],[0]]","3","[[1,2,0],[3,0],[0]]","13","0","","","","","","4","","","","","","","","",""
"","","","","","single-stim-button","227","444613","0.0-2.0-50.3-0.3","5b9fa85b4bca610001d791f3","B2","batch2","","394","tol_tohand","","","","tol_peg_2","394","394","0","[[1,0,0],[3,0],[0]]","4","[[1,2,0],[3,0],[0]]","13","0","","","","","","4","","","","","","","","",""
"","","","","","single-stim-button","228","444935","0.0-2.0-50.3-1.3","5b9fa85b4bca610001d791f3","B2","batch2","","322","tol_toboard","","","","tol_peg_1","322","322","0","[[1,2,0],[3,0],[0]]","4","[[1,2,0],[3,0],[0]]","13","0","","","","","","4","","","","","","","","",""
"","","","","","poldrack-single-stim","229","445936","0.0-2.0-51.0","5b9fa85b4bca610001d791f3","B2","batch2","","-1","tol_feedback","","","true","","1000","1000","500","","","","","","-1","none","true","3718","5083","","","","","","","","","",""
"","","","","","html-button-response","230","446524","0.0-2.0-52.0","5b9fa85b4bca610001d791f3","B2","batch2","","588","tol_trial_num","<div class = centerbox><p class = center-block-text>problem <strong>15</strong> out of 25 problems</p></div>","0","","","","","","","","","","","","","","","","","","","","","","","","",""
"","","","","","single-stim-button","231","451783","0.0-2.0-53.0-0.0","5b9fa85b4bca610001d791f3","B2","batch2","","5258","tol_tohand","","","","tol_peg_1","5258","5258","0","[[1,0,0],[3,0],[0]]","1","[[2,0,0],[3,0],[1]]","14","0","","","","","","3","","","","","","","","",""
"","","","","","single-stim-button","232","452226","0.0-2.0-53.0-1.0","5b9fa85b4bca610001d791f3","B2","batch2","","442","tol_toboard","","","","tol_peg_2","442","442","0","[[1,0,0],[3,2],[0]]","1","[[2,0,0],[3,0],[1]]","14","0","","","","","","3","","","","","","","","",""
"","","","","","single-stim-button","233","452527","0.0-2.0-53.1-0.1","5b9fa85b4bca610001d791f3","B2","batch2","","301","tol_tohand","","","","tol_peg_1","301","301","0","[[0,0,0],[3,2],[0]]","2","[[2,0,0],[3,0],[1]]","14","0","","","","","","3","","","","","","","","",""
"","","","","","single-stim-button","234","452993","0.0-2.0-53.1-1.1","5b9fa85b4bca610001d791f3","B2","batch2","","466","tol_toboard","","","","tol_peg_3","466","466","0","[[0,0,0],[3,2],[1]]","2","[[2,0,0],[3,0],[1]]","14","0","","","","","","3","","","","","","","","",""
"","","","","","single-stim-button","235","453359","0.0-2.0-53.2-0.2","5b9fa85b4bca610001d791f3","B2","batch2","","366","tol_tohand","","","","tol_peg_2","366","366","0","[[0,0,0],[3,0],[1]]","3","[[2,0,0],[3,0],[1]]","14","0","","","","","","3","","","","","","","","",""
"","","","","","single-stim-button","236","453696","0.0-2.0-53.2-1.2","5b9fa85b4bca610001d791f3","B2","batch2","","337","tol_toboard","","","","tol_peg_1","337","337","0","[[2,0,0],[3,0],[1]]","3","[[2,0,0],[3,0],[1]]","14","0","","","","","","3","","","","","","","","",""
"","","","","","poldrack-single-stim","237","454701","0.0-2.0-54.0","5b9fa85b4bca610001d791f3","B2","batch2","","-1","tol_feedback","","","true","","1000","1000","500","","","","","","-1","none","true","5258","5925","","","","","","","","","",""
"","","","","","html-button-response","238","455423","0.0-2.0-55.0","5b9fa85b4bca610001d791f3","B2","batch2","","722","tol_trial_num","<div class = centerbox><p class = center-block-text>problem <strong>16</strong> out of 25 problems</p></div>","0","","","","","","","","","","","","","","","","","","","","","","","","",""
"","","","","","single-stim-button","239","461161","0.0-2.0-56.0-0.0","5b9fa85b4bca610001d791f3","B2","batch2","","5737","tol_tohand","","","","tol_peg_3","5737","5737","0","[[0,0,0],[2,3],[0]]","1","[[2,3,0],[1,0],[0]]","15","0","","","","","","7","","","","","","","","",""
"","","","","","single-stim-button","240","461751","0.0-2.0-56.0-1.0","5b9fa85b4bca610001d791f3","B2","batch2","","590","tol_toboard","","","","tol_peg_1","590","590","0","[[1,0,0],[2,3],[0]]","1","[[2,3,0],[1,0],[0]]","15","0","","","","","","7","","","","","","","","",""
"","","","","","single-stim-button","241","462292","0.0-2.0-56.1-0.1","5b9fa85b4bca610001d791f3","B2","batch2","","541","tol_tohand","","","","tol_peg_2","541","541","0","[[1,0,0],[2,0],[0]]","2","[[2,3,0],[1,0],[0]]","15","0","","","","","","7","","","","","","","","",""
"","","","","","single-stim-button","242","463087","0.0-2.0-56.1-1.1","5b9fa85b4bca610001d791f3","B2","batch2","","795","tol_toboard","","","","tol_peg_3","795","795","0","[[1,0,0],[2,0],[3]]","2","[[2,3,0],[1,0],[0]]","15","0","","","","","","7","","","","","","","","",""
"","","","","","single-stim-button","243","474515","0.0-2.0-56.2-0.2","5b9fa85b4bca610001d791f3","B2","batch2","","11427","tol_tohand","","","","tol_peg_2","11427","11427","0","[[1,0,0],[0,0],[3]]","3","[[2,3,0],[1,0],[0]]","15","0","","","","","","7","","","","","","","","",""
"","","","","","single-stim-button","244","475147","0.0-2.0-56.2-1.2","5b9fa85b4bca610001d791f3","B2","batch2","","631","tol_toboard","","","","tol_peg_1","631","631","0","[[1,2,0],[0,0],[3]]","3","[[2,3,0],[1,0],[0]]","15","0","","","","","","7","","","","","","","","",""
"","","","","","single-stim-button","245","475826","0.0-2.0-56.3-0.3","5b9fa85b4bca610001d791f3","B2","batch2","","679","tol_tohand","","","","tol_peg_3","679","679","0","[[1,2,0],[0,0],[0]]","4","[[2,3,0],[1,0],[0]]","15","0","","","","","","7","","","","","","","","",""
"","","","","","single-stim-button","246","476344","0.0-2.0-56.3-1.3","5b9fa85b4bca610001d791f3","B2","batch2","","518","tol_toboard","","","","tol_peg_2","518","518","0","[[1,2,0],[3,0],[0]]","4","[[2,3,0],[1,0],[0]]","15","0","","","","","","7","","","","","","","","",""
"","","","","","single-stim-button","247","477180","0.0-2.0-56.4-0.4","5b9fa85b4bca610001d791f3","B2","batch2","","836","tol_tohand","","","","tol_peg_1","836","836","0","[[1,0,0],[3,0],[0]]","5","[[2,3,0],[1,0],[0]]","15","0","","","","","","7","","","","","","","","",""
"","","","","","single-stim-button","248","478107","0.0-2.0-56.4-1.4","5b9fa85b4bca610001d791f3","B2","batch2","","927","tol_toboard","","","","tol_peg_3","927","927","0","[[1,0,0],[3,0],[2]]","5","[[2,3,0],[1,0],[0]]","15","0","","","","","","7","","","","","","","","",""
"","","","","","single-stim-button","249","479356","0.0-2.0-56.5-0.5","5b9fa85b4bca610001d791f3","B2","batch2","","1249","tol_tohand","","","","tol_peg_1","1249","1249","0","[[0,0,0],[3,0],[2]]","6","[[2,3,0],[1,0],[0]]","15","0","","","","","","7","","","","","","","","",""
"","","","","","single-stim-button","250","479790","0.0-2.0-56.5-1.5","5b9fa85b4bca610001d791f3","B2","batch2","","434","tol_toboard","","","","tol_peg_2","434","434","0","[[0,0,0],[3,1],[2]]","6","[[2,3,0],[1,0],[0]]","15","0","","","","","","7","","","","","","","","",""
"","","","","","single-stim-button","251","480423","0.0-2.0-56.6-0.6","5b9fa85b4bca610001d791f3","B2","batch2","","633","tol_tohand","","","","tol_peg_3","633","633","0","[[0,0,0],[3,1],[0]]","7","[[2,3,0],[1,0],[0]]","15","0","","","","","","7","","","","","","","","",""
"","","","","","single-stim-button","252","481045","0.0-2.0-56.6-1.6","5b9fa85b4bca610001d791f3","B2","batch2","","621","tol_toboard","","","","tol_peg_1","621","621","0","[[2,0,0],[3,1],[0]]","7","[[2,3,0],[1,0],[0]]","15","0","","","","","","7","","","","","","","","",""
"","","","","","single-stim-button","253","481490","0.0-2.0-56.7-0.7","5b9fa85b4bca610001d791f3","B2","batch2","","445","tol_tohand","","","","tol_peg_2","445","445","0","[[2,0,0],[3,0],[0]]","8","[[2,3,0],[1,0],[0]]","15","0","","","","","","7","","","","","","","","",""
"","","","","","single-stim-button","254","481933","0.0-2.0-56.7-1.7","5b9fa85b4bca610001d791f3","B2","batch2","","443","tol_toboard","","","","tol_peg_3","443","443","0","[[2,0,0],[3,0],[1]]","8","[[2,3,0],[1,0],[0]]","15","0","","","","","","7","","","","","","","","",""
"","","","","","single-stim-button","255","482506","0.0-2.0-56.8-0.8","5b9fa85b4bca610001d791f3","B2","batch2","","572","tol_tohand","","","","tol_peg_2","572","572","0","[[2,0,0],[0,0],[1]]","9","[[2,3,0],[1,0],[0]]","15","0","","","","","","7","","","","","","","","",""
"","","","","","single-stim-button","256","482842","0.0-2.0-56.8-1.8","5b9fa85b4bca610001d791f3","B2","batch2","","336","tol_toboard","","","","tol_peg_1","336","336","0","[[2,3,0],[0,0],[1]]","9","[[2,3,0],[1,0],[0]]","15","0","","","","","","7","","","","","","","","",""
"","","","","","single-stim-button","257","483170","0.0-2.0-56.9-0.9","5b9fa85b4bca610001d791f3","B2","batch2","","328","tol_tohand","","","","tol_peg_3","328","328","0","[[2,3,0],[0,0],[0]]","10","[[2,3,0],[1,0],[0]]","15","0","","","","","","7","","","","","","","","",""
"","","","","","single-stim-button","258","483840","0.0-2.0-56.9-1.9","5b9fa85b4bca610001d791f3","B2","batch2","","670","tol_toboard","","","","tol_peg_2","670","670","0","[[2,3,0],[1,0],[0]]","10","[[2,3,0],[1,0],[0]]","15","0","","","","","","7","","","","","","","","",""
"","","","","","poldrack-single-stim","259","484841","0.0-2.0-57.0","5b9fa85b4bca610001d791f3","B2","batch2","","-1","tol_feedback","","","true","","1000","1000","500","","","","","","-1","none","true","5737","22447","","","","","","","","","",""
"","","","","","html-button-response","260","485646","0.0-2.0-58.0","5b9fa85b4bca610001d791f3","B2","batch2","","804.0999999940395","tol_trial_num","<div class = centerbox><p class = center-block-text>problem <strong>17</strong> out of 25 problems</p></div>","0","","","","","","","","","","","","","","","","","","","","","","","","",""
"","","","","","single-stim-button","261","502165","0.0-2.0-59.0-0.0","5b9fa85b4bca610001d791f3","B2","batch2","","16518","tol_tohand","","","","tol_peg_2","16518","16518","0","[[1,2,0],[0,0],[0]]","1","[[3,1,0],[2,0],[0]]","16","0","","","","","","5","","","","","","","","",""
"","","","","","single-stim-button","262","502795","0.0-2.0-59.0-1.0","5b9fa85b4bca610001d791f3","B2","batch2","","630","tol_toboard","","","","tol_peg_3","630","630","0","[[1,2,0],[0,0],[3]]","1","[[3,1,0],[2,0],[0]]","16","0","","","","","","5","","","","","","","","",""
"","","","","","single-stim-button","263","503434","0.0-2.0-59.1-0.1","5b9fa85b4bca610001d791f3","B2","batch2","","639","tol_tohand","","","","tol_peg_1","639","639","0","[[1,0,0],[0,0],[3]]","2","[[3,1,0],[2,0],[0]]","16","0","","","","","","5","","","","","","","","",""
"","","","","","single-stim-button","264","503947","0.0-2.0-59.1-1.1","5b9fa85b4bca610001d791f3","B2","batch2","","513","tol_toboard","","","","tol_peg_2","513","513","0","[[1,0,0],[2,0],[3]]","2","[[3,1,0],[2,0],[0]]","16","0","","","","","","5","","","","","","","","",""
"","","","","","single-stim-button","265","504294","0.0-2.0-59.2-0.2","5b9fa85b4bca610001d791f3","B2","batch2","","347","tol_tohand","","","","tol_peg_1","347","347","0","[[0,0,0],[2,0],[3]]","3","[[3,1,0],[2,0],[0]]","16","0","","","","","","5","","","","","","","","",""
"","","","","","single-stim-button","266","504667","0.0-2.0-59.2-1.2","5b9fa85b4bca610001d791f3","B2","batch2","","373","tol_toboard","","","","tol_peg_2","373","373","0","[[0,0,0],[2,1],[3]]","3","[[3,1,0],[2,0],[0]]","16","0","","","","","","5","","","","","","","","",""
"","","","","","single-stim-button","267","504907","0.0-2.0-59.3-0.3","5b9fa85b4bca610001d791f3","B2","batch2","","240","tol_tohand","","","","tol_peg_3","240","240","0","[[0,0,0],[2,1],[0]]","4","[[3,1,0],[2,0],[0]]","16","0","","","","","","5","","","","","","","","",""
"","","","","","single-stim-button","268","505471","0.0-2.0-59.3-1.3","5b9fa85b4bca610001d791f3","B2","batch2","","564","tol_toboard","","","","tol_peg_1","564","564","0","[[3,0,0],[2,1],[0]]","4","[[3,1,0],[2,0],[0]]","16","0","","","","","","5","","","","","","","","",""
"","","","","","single-stim-button","269","506626","0.0-2.0-59.4-0.4","5b9fa85b4bca610001d791f3","B2","batch2","","1155","tol_tohand","","","","tol_peg_2","1155","1155","0","[[3,0,0],[2,0],[0]]","5","[[3,1,0],[2,0],[0]]","16","0","","","","","","5","","","","","","","","",""
"","","","","","single-stim-button","270","508506","0.0-2.0-59.4-1.4","5b9fa85b4bca610001d791f3","B2","batch2","","1880","tol_toboard","","","","tol_peg_1","1880","1880","0","[[3,1,0],[2,0],[0]]","5","[[3,1,0],[2,0],[0]]","16","0","","","","","","5","","","","","","","","",""
"","","","","","poldrack-single-stim","271","509517","0.0-2.0-60.0","5b9fa85b4bca610001d791f3","B2","batch2","","-1","tol_feedback","","","true","","1000","1000","500","","","","","","-1","none","true","16518","18899","","","","","","","","","",""
"","","","","","html-button-response","272","510009","0.0-2.0-61.0","5b9fa85b4bca610001d791f3","B2","batch2","","491.69999998807907","tol_trial_num","<div class = centerbox><p class = center-block-text>problem <strong>18</strong> out of 25 problems</p></div>","0","","","","","","","","","","","","","","","","","","","","","","","","",""
"","","","","","single-stim-button","273","517267","0.0-2.0-62.0-0.0","5b9fa85b4bca610001d791f3","B2","batch2","","7258","tol_tohand","","","","tol_peg_2","7258","7258","0","[[1,2,0],[0,0],[0]]","1","[[3,0,0],[2,0],[1]]","17","0","","","","","","5","","","","","","","","",""
"","","","","","single-stim-button","274","518118","0.0-2.0-62.0-1.0","5b9fa85b4bca610001d791f3","B2","batch2","","851","tol_toboard","","","","tol_peg_3","851","851","0","[[1,2,0],[0,0],[3]]","1","[[3,0,0],[2,0],[1]]","17","0","","","","","","5","","","","","","","","",""
"","","","","","single-stim-button","275","518622","0.0-2.0-62.1-0.1","5b9fa85b4bca610001d791f3","B2","batch2","","504","tol_tohand","","","","tol_peg_1","504","504","0","[[1,0,0],[0,0],[3]]","2","[[3,0,0],[2,0],[1]]","17","0","","","","","","5","","","","","","","","",""
"","","","","","single-stim-button","276","519104","0.0-2.0-62.1-1.1","5b9fa85b4bca610001d791f3","B2","batch2","","482","tol_toboard","","","","tol_peg_2","482","482","0","[[1,0,0],[2,0],[3]]","2","[[3,0,0],[2,0],[1]]","17","0","","","","","","5","","","","","","","","",""
"","","","","","single-stim-button","277","520435","0.0-2.0-62.2-0.2","5b9fa85b4bca610001d791f3","B2","batch2","","1331","tol_tohand","","","","tol_peg_3","1331","1331","0","[[1,0,0],[2,0],[0]]","3","[[3,0,0],[2,0],[1]]","17","0","","","","","","5","","","","","","","","",""
"","","","","","single-stim-button","278","520845","0.0-2.0-62.2-1.2","5b9fa85b4bca610001d791f3","B2","batch2","","410","tol_toboard","","","","tol_peg_2","410","410","0","[[1,0,0],[2,3],[0]]","3","[[3,0,0],[2,0],[1]]","17","0","","","","","","5","","","","","","","","",""
"","","","","","single-stim-button","279","521120","0.0-2.0-62.3-0.3","5b9fa85b4bca610001d791f3","B2","batch2","","275","tol_tohand","","","","tol_peg_1","275","275","0","[[0,0,0],[2,3],[0]]","4","[[3,0,0],[2,0],[1]]","17","0","","","","","","5","","","","","","","","",""
"","","","","","single-stim-button","280","521605","0.0-2.0-62.3-1.3","5b9fa85b4bca610001d791f3","B2","batch2","","485","tol_toboard","","","","tol_peg_3","485","485","0","[[0,0,0],[2,3],[1]]","4","[[3,0,0],[2,0],[1]]","17","0","","","","","","5","","","","","","","","",""
"","","","","","single-stim-button","281","522330","0.0-2.0-62.4-0.4","5b9fa85b4bca610001d791f3","B2","batch2","","725","tol_tohand","","","","tol_peg_2","725","725","0","[[0,0,0],[2,0],[1]]","5","[[3,0,0],[2,0],[1]]","17","0","","","","","","5","","","","","","","","",""
"","","","","","single-stim-button","282","522937","0.0-2.0-62.4-1.4","5b9fa85b4bca610001d791f3","B2","batch2","","607","tol_toboard","","","","tol_peg_1","607","607","0","[[3,0,0],[2,0],[1]]","5","[[3,0,0],[2,0],[1]]","17","0","","","","","","5","","","","","","","","",""
"","","","","","poldrack-single-stim","283","523938","0.0-2.0-63.0","5b9fa85b4bca610001d791f3","B2","batch2","","-1","tol_feedback","","","true","","1000","1000","500","","","","","","-1","none","true","7258","10093","","","","","","","","","",""
"","","","","","html-button-response","284","524599","0.0-2.0-64.0","5b9fa85b4bca610001d791f3","B2","batch2","","660.4000000059605","tol_trial_num","<div class = centerbox><p class = center-block-text>problem <strong>19</strong> out of 25 problems</p></div>","0","","","","","","","","","","","","","","","","","","","","","","","","",""
"","","","","","single-stim-button","285","528599","0.0-2.0-65.0-0.0","5b9fa85b4bca610001d791f3","B2","batch2","","4000","tol_tohand","","","","tol_peg_2","4000","4000","0","[[1,2,0],[0,0],[0]]","1","[[0,0,0],[1,2],[3]]","18","0","","","","","","7","","","","","","","","",""
"","","","","","single-stim-button","286","529340","0.0-2.0-65.0-1.0","5b9fa85b4bca610001d791f3","B2","batch2","","741","tol_toboard","","","","tol_peg_3","741","741","0","[[1,2,0],[0,0],[3]]","1","[[0,0,0],[1,2],[3]]","18","0","","","","","","7","","","","","","","","",""
"","","","","","single-stim-button","287","532218","0.0-2.0-65.1-0.1","5b9fa85b4bca610001d791f3","B2","batch2","","2878","tol_tohand","","","","tol_peg_3","2878","2878","0","[[1,2,0],[0,0],[0]]","2","[[0,0,0],[1,2],[3]]","18","0","","","","","","7","","","","","","","","",""
"","","","","","single-stim-button","288","532635","0.0-2.0-65.1-1.1","5b9fa85b4bca610001d791f3","B2","batch2","","417","tol_toboard","","","","tol_peg_2","417","417","0","[[1,2,0],[3,0],[0]]","2","[[0,0,0],[1,2],[3]]","18","0","","","","","","7","","","","","","","","",""
"","","","","","single-stim-button","289","533077","0.0-2.0-65.2-0.2","5b9fa85b4bca610001d791f3","B2","batch2","","442","tol_tohand","","","","tol_peg_1","442","442","0","[[1,0,0],[3,0],[0]]","3","[[0,0,0],[1,2],[3]]","18","0","","","","","","7","","","","","","","","",""
"","","","","","single-stim-button","290","533733","0.0-2.0-65.2-1.2","5b9fa85b4bca610001d791f3","B2","batch2","","656","tol_toboard","","","","tol_peg_3","656","656","0","[[1,0,0],[3,0],[2]]","3","[[0,0,0],[1,2],[3]]","18","0","","","","","","7","","","","","","","","",""
"","","","","","single-stim-button","291","537634","0.0-2.0-65.3-0.3","5b9fa85b4bca610001d791f3","B2","batch2","","3901","tol_tohand","","","","tol_peg_3","3901","3901","0","[[1,0,0],[3,0],[0]]","4","[[0,0,0],[1,2],[3]]","18","0","","","","","","7","","","","","","","","",""
"","","","","","single-stim-button","292","539067","0.0-2.0-65.3-1.3","5b9fa85b4bca610001d791f3","B2","batch2","","1433","tol_toboard","","","","tol_peg_3","1433","1433","0","[[1,0,0],[3,0],[2]]","4","[[0,0,0],[1,2],[3]]","18","0","","","","","","7","","","","","","","","",""
"","","","","","single-stim-button","293","539768","0.0-2.0-65.4-0.4","5b9fa85b4bca610001d791f3","B2","batch2","","701","tol_tohand","","","","tol_peg_1","701","701","0","[[0,0,0],[3,0],[2]]","5","[[0,0,0],[1,2],[3]]","18","0","","","","","","7","","","","","","","","",""
"","","","","","single-stim-button","294","540126","0.0-2.0-65.4-1.4","5b9fa85b4bca610001d791f3","B2","batch2","","358","tol_toboard","","","","tol_peg_2","358","358","0","[[0,0,0],[3,1],[2]]","5","[[0,0,0],[1,2],[3]]","18","0","","","","","","7","","","","","","","","",""
"","","","","","single-stim-button","295","540959","0.0-2.0-65.5-0.5","5b9fa85b4bca610001d791f3","B2","batch2","","833","tol_tohand","","","","tol_peg_3","833","833","0","[[0,0,0],[3,1],[0]]","6","[[0,0,0],[1,2],[3]]","18","0","","","","","","7","","","","","","","","",""
"","","","","","single-stim-button","296","541747","0.0-2.0-65.5-1.5","5b9fa85b4bca610001d791f3","B2","batch2","","788","tol_toboard","","","","tol_peg_1","788","788","0","[[2,0,0],[3,1],[0]]","6","[[0,0,0],[1,2],[3]]","18","0","","","","","","7","","","","","","","","",""
"","","","","","single-stim-button","297","543124","0.0-2.0-65.6-0.6","5b9fa85b4bca610001d791f3","B2","batch2","","1377","tol_tohand","","","","tol_peg_2","1377","1377","0","[[2,0,0],[3,0],[0]]","7","[[0,0,0],[1,2],[3]]","18","0","","","","","","7","","","","","","","","",""
"","","","","","single-stim-button","298","543508","0.0-2.0-65.6-1.6","5b9fa85b4bca610001d791f3","B2","batch2","","384","tol_toboard","","","","tol_peg_1","384","384","0","[[2,1,0],[3,0],[0]]","7","[[0,0,0],[1,2],[3]]","18","0","","","","","","7","","","","","","","","",""
"","","","","","single-stim-button","299","543833","0.0-2.0-65.7-0.7","5b9fa85b4bca610001d791f3","B2","batch2","","325","tol_tohand","","","","tol_peg_2","325","325","0","[[2,1,0],[0,0],[0]]","8","[[0,0,0],[1,2],[3]]","18","0","","","","","","7","","","","","","","","",""
"","","","","","single-stim-button","300","544235","0.0-2.0-65.7-1.7","5b9fa85b4bca610001d791f3","B2","batch2","","402","tol_toboard","","","","tol_peg_3","402","402","0","[[2,1,0],[0,0],[3]]","8","[[0,0,0],[1,2],[3]]","18","0","","","","","","7","","","","","","","","",""
"","","","","","single-stim-button","301","545520","0.0-2.0-65.8-0.8","5b9fa85b4bca610001d791f3","B2","batch2","","1285","tol_tohand","","","","tol_peg_1","1285","1285","0","[[2,0,0],[0,0],[3]]","9","[[0,0,0],[1,2],[3]]","18","0","","","","","","7","","","","","","","","",""
"","","","","","single-stim-button","302","546066","0.0-2.0-65.8-1.8","5b9fa85b4bca610001d791f3","B2","batch2","","546","tol_toboard","","","","tol_peg_2","546","546","0","[[2,0,0],[1,0],[3]]","9","[[0,0,0],[1,2],[3]]","18","0","","","","","","7","","","","","","","","",""
"","","","","","single-stim-button","303","546328","0.0-2.0-65.9-0.9","5b9fa85b4bca610001d791f3","B2","batch2","","262","tol_tohand","","","","tol_peg_1","262","262","0","[[0,0,0],[1,0],[3]]","10","[[0,0,0],[1,2],[3]]","18","0","","","","","","7","","","","","","","","",""
"","","","","","single-stim-button","304","546579","0.0-2.0-65.9-1.9","5b9fa85b4bca610001d791f3","B2","batch2","","251","tol_toboard","","","","tol_peg_2","251","251","0","[[0,0,0],[1,2],[3]]","10","[[0,0,0],[1,2],[3]]","18","0","","","","","","7","","","","","","","","",""
"","","","","","poldrack-single-stim","305","547580","0.0-2.0-66.0","5b9fa85b4bca610001d791f3","B2","batch2","","-1","tol_feedback","","","true","","1000","1000","500","","","","","","-1","none","true","4000","16004","","","","","","","","","",""
"","","","","","html-button-response","306","549683","0.0-2.0-67.0","5b9fa85b4bca610001d791f3","B2","batch2","","2101.9000000059605","tol_trial_num","<div class = centerbox><p class = center-block-text>problem <strong>20</strong> out of 25 problems</p></div>","0","","","","","","","","","","","","","","","","","","","","","","","","",""
"","","","","","single-stim-button","307","551541","0.0-2.0-68.0-0.0","5b9fa85b4bca610001d791f3","B2","batch2","","1858","tol_tohand","","","","tol_peg_2","1858","1858","0","[[1,2,0],[0,0],[0]]","1","[[2,1,0],[0,0],[3]]","19","0","","","","","","5","","","","","","","","",""
"","","","","","single-stim-button","308","552039","0.0-2.0-68.0-1.0","5b9fa85b4bca610001d791f3","B2","batch2","","498","tol_toboard","","","","tol_peg_3","498","498","0","[[1,2,0],[0,0],[3]]","1","[[2,1,0],[0,0],[3]]","19","0","","","","","","5","","","","","","","","",""
"","","","","","single-stim-button","309","552527","0.0-2.0-68.1-0.1","5b9fa85b4bca610001d791f3","B2","batch2","","488","tol_tohand","","","","tol_peg_1","488","488","0","[[1,0,0],[0,0],[3]]","2","[[2,1,0],[0,0],[3]]","19","0","","","","","","5","","","","","","","","",""
"","","","","","single-stim-button","310","555156","0.0-2.0-68.1-1.1","5b9fa85b4bca610001d791f3","B2","batch2","","2629","tol_toboard","","","","tol_peg_2","2629","2629","0","[[1,0,0],[2,0],[3]]","2","[[2,1,0],[0,0],[3]]","19","0","","","","","","5","","","","","","","","",""
"","","","","","single-stim-button","311","555494","0.0-2.0-68.2-0.2","5b9fa85b4bca610001d791f3","B2","batch2","","337","tol_tohand","","","","tol_peg_3","337","337","0","[[1,0,0],[2,0],[0]]","3","[[2,1,0],[0,0],[3]]","19","0","","","","","","5","","","","","","","","",""
"","","","","","single-stim-button","312","555909","0.0-2.0-68.2-1.2","5b9fa85b4bca610001d791f3","B2","batch2","","414","tol_toboard","","","","tol_peg_2","414","414","0","[[1,0,0],[2,3],[0]]","3","[[2,1,0],[0,0],[3]]","19","0","","","","","","5","","","","","","","","",""
"","","","","","single-stim-button","313","556275","0.0-2.0-68.3-0.3","5b9fa85b4bca610001d791f3","B2","batch2","","365","tol_tohand","","","","tol_peg_1","365","365","0","[[0,0,0],[2,3],[0]]","4","[[2,1,0],[0,0],[3]]","19","0","","","","","","5","","","","","","","","",""
"","","","","","single-stim-button","314","557231","0.0-2.0-68.3-1.3","5b9fa85b4bca610001d791f3","B2","batch2","","956","tol_toboard","","","","tol_peg_3","956","956","0","[[0,0,0],[2,3],[1]]","4","[[2,1,0],[0,0],[3]]","19","0","","","","","","5","","","","","","","","",""
"","","","","","single-stim-button","315","558191","0.0-2.0-68.4-0.4","5b9fa85b4bca610001d791f3","B2","batch2","","959","tol_tohand","","","","tol_peg_2","959","959","0","[[0,0,0],[2,0],[1]]","5","[[2,1,0],[0,0],[3]]","19","0","","","","","","5","","","","","","","","",""
"","","","","","single-stim-button","316","558684","0.0-2.0-68.4-1.4","5b9fa85b4bca610001d791f3","B2","batch2","","492","tol_toboard","","","","tol_peg_1","492","492","0","[[3,0,0],[2,0],[1]]","5","[[2,1,0],[0,0],[3]]","19","0","","","","","","5","","","","","","","","",""
"","","","","","single-stim-button","317","561011","0.0-2.0-68.5-0.5","5b9fa85b4bca610001d791f3","B2","batch2","","2326","tol_tohand","","","","tol_peg_2","2326","2326","0","[[3,0,0],[0,0],[1]]","6","[[2,1,0],[0,0],[3]]","19","0","","","","","","5","","","","","","","","",""
"","","","","","single-stim-button","318","561512","0.0-2.0-68.5-1.5","5b9fa85b4bca610001d791f3","B2","batch2","","500","tol_toboard","","","","tol_peg_1","500","500","0","[[3,2,0],[0,0],[1]]","6","[[2,1,0],[0,0],[3]]","19","0","","","","","","5","","","","","","","","",""
"","","","","","single-stim-button","319","562865","0.0-2.0-68.6-0.6","5b9fa85b4bca610001d791f3","B2","batch2","","1352","tol_tohand","","","","tol_peg_3","1352","1352","0","[[3,2,0],[0,0],[0]]","7","[[2,1,0],[0,0],[3]]","19","0","","","","","","5","","","","","","","","",""
"","","","","","single-stim-button","320","563358","0.0-2.0-68.6-1.6","5b9fa85b4bca610001d791f3","B2","batch2","","492","tol_toboard","","","","tol_peg_2","492","492","0","[[3,2,0],[1,0],[0]]","7","[[2,1,0],[0,0],[3]]","19","0","","","","","","5","","","","","","","","",""
"","","","","","single-stim-button","321","565638","0.0-2.0-68.7-0.7","5b9fa85b4bca610001d791f3","B2","batch2","","2279","tol_tohand","","","","tol_peg_1","2279","2279","0","[[3,0,0],[1,0],[0]]","8","[[2,1,0],[0,0],[3]]","19","0","","","","","","5","","","","","","","","",""
"","","","","","single-stim-button","322","565994","0.0-2.0-68.7-1.7","5b9fa85b4bca610001d791f3","B2","batch2","","356","tol_toboard","","","","tol_peg_2","356","356","0","[[3,0,0],[1,2],[0]]","8","[[2,1,0],[0,0],[3]]","19","0","","","","","","5","","","","","","","","",""
"","","","","","single-stim-button","323","566279","0.0-2.0-68.8-0.8","5b9fa85b4bca610001d791f3","B2","batch2","","284","tol_tohand","","","","tol_peg_1","284","284","0","[[0,0,0],[1,2],[0]]","9","[[2,1,0],[0,0],[3]]","19","0","","","","","","5","","","","","","","","",""
"","","","","","single-stim-button","324","566840","0.0-2.0-68.8-1.8","5b9fa85b4bca610001d791f3","B2","batch2","","561","tol_toboard","","","","tol_peg_3","561","561","0","[[0,0,0],[1,2],[3]]","9","[[2,1,0],[0,0],[3]]","19","0","","","","","","5","","","","","","","","",""
"","","","","","single-stim-button","325","568445","0.0-2.0-68.9-0.9","5b9fa85b4bca610001d791f3","B2","batch2","","1604","tol_tohand","","","","tol_peg_2","1604","1604","0","[[0,0,0],[1,0],[3]]","10","[[2,1,0],[0,0],[3]]","19","0","","","","","","5","","","","","","","","",""
"","","","","","single-stim-button","326","568962","0.0-2.0-68.9-1.9","5b9fa85b4bca610001d791f3","B2","batch2","","516","tol_toboard","","","","tol_peg_1","516","516","0","[[2,0,0],[1,0],[3]]","10","[[2,1,0],[0,0],[3]]","19","0","","","","","","5","","","","","","","","",""
"","","","","","single-stim-button","327","569237","0.0-2.0-68.10-0.10","5b9fa85b4bca610001d791f3","B2","batch2","","274","tol_tohand","","","","tol_peg_2","274","274","0","[[2,0,0],[0,0],[3]]","11","[[2,1,0],[0,0],[3]]","19","0","","","","","","5","","","","","","","","",""
"","","","","","single-stim-button","328","569547","0.0-2.0-68.10-1.10","5b9fa85b4bca610001d791f3","B2","batch2","","309","tol_toboard","","","","tol_peg_1","309","309","0","[[2,1,0],[0,0],[3]]","11","[[2,1,0],[0,0],[3]]","19","0","","","","","","5","","","","","","","","",""
"","","","","","poldrack-single-stim","329","570549","0.0-2.0-69.0","5b9fa85b4bca610001d791f3","B2","batch2","","-1","tol_feedback","","","true","","1000","1000","500","","","","","","-1","none","true","1858","12126","","","","","","","","","",""
"","","","","","html-button-response","330","571133","0.0-2.0-70.0","5b9fa85b4bca610001d791f3","B2","batch2","","583.6999999880791","tol_trial_num","<div class = centerbox><p class = center-block-text>problem <strong>21</strong> out of 25 problems</p></div>","0","","","","","","","","","","","","","","","","","","","","","","","","",""
"","","","","","single-stim-button","331","573481","0.0-2.0-71.0-0.0","5b9fa85b4bca610001d791f3","B2","batch2","","2348","tol_tohand","","","","tol_peg_1","2348","2348","0","[[1,0,0],[3,0],[0]]","1","[[3,2,0],[0,0],[1]]","20","0","","","","","","6","","","","","","","","",""
"","","","","","single-stim-button","332","574587","0.0-2.0-71.0-1.0","5b9fa85b4bca610001d791f3","B2","batch2","","1105","tol_toboard","","","","tol_peg_2","1105","1105","0","[[1,0,0],[3,2],[0]]","1","[[3,2,0],[0,0],[1]]","20","0","","","","","","6","","","","","","","","",""
"","","","","","single-stim-button","333","578526","0.0-2.0-71.1-0.1","5b9fa85b4bca610001d791f3","B2","batch2","","3938","tol_tohand","","","","tol_peg_2","3938","3938","0","[[1,0,0],[3,0],[0]]","2","[[3,2,0],[0,0],[1]]","20","0","","","","","","6","","","","","","","","",""
"","","","","","single-stim-button","334","580213","0.0-2.0-71.1-1.1","5b9fa85b4bca610001d791f3","B2","batch2","","1686","tol_toboard","","","","tol_peg_3","1686","1686","0","[[1,0,0],[3,0],[2]]","2","[[3,2,0],[0,0],[1]]","20","0","","","","","","6","","","","","","","","",""
"","","","","","single-stim-button","335","580709","0.0-2.0-71.2-0.2","5b9fa85b4bca610001d791f3","B2","batch2","","495","tol_tohand","","","","tol_peg_2","495","495","0","[[1,0,0],[0,0],[2]]","3","[[3,2,0],[0,0],[1]]","20","0","","","","","","6","","","","","","","","",""
"","","","","","single-stim-button","336","581179","0.0-2.0-71.2-1.2","5b9fa85b4bca610001d791f3","B2","batch2","","469","tol_toboard","","","","tol_peg_1","469","469","0","[[1,3,0],[0,0],[2]]","3","[[3,2,0],[0,0],[1]]","20","0","","","","","","6","","","","","","","","",""
"","","","","","single-stim-button","337","582190","0.0-2.0-71.3-0.3","5b9fa85b4bca610001d791f3","B2","batch2","","1010","tol_tohand","","","","tol_peg_3","1010","1010","0","[[1,3,0],[0,0],[0]]","4","[[3,2,0],[0,0],[1]]","20","0","","","","","","6","","","","","","","","",""
"","","","","","single-stim-button","338","582652","0.0-2.0-71.3-1.3","5b9fa85b4bca610001d791f3","B2","batch2","","462","tol_toboard","","","","tol_peg_2","462","462","0","[[1,3,0],[2,0],[0]]","4","[[3,2,0],[0,0],[1]]","20","0","","","","","","6","","","","","","","","",""
"","","","","","single-stim-button","339","583047","0.0-2.0-71.4-0.4","5b9fa85b4bca610001d791f3","B2","batch2","","394","tol_tohand","","","","tol_peg_1","394","394","0","[[1,0,0],[2,0],[0]]","5","[[3,2,0],[0,0],[1]]","20","0","","","","","","6","","","","","","","","",""
"","","","","","single-stim-button","340","583410","0.0-2.0-71.4-1.4","5b9fa85b4bca610001d791f3","B2","batch2","","362","tol_toboard","","","","tol_peg_2","362","362","0","[[1,0,0],[2,3],[0]]","5","[[3,2,0],[0,0],[1]]","20","0","","","","","","6","","","","","","","","",""
"","","","","","single-stim-button","341","583936","0.0-2.0-71.5-0.5","5b9fa85b4bca610001d791f3","B2","batch2","","526","tol_tohand","","","","tol_peg_1","526","526","0","[[0,0,0],[2,3],[0]]","6","[[3,2,0],[0,0],[1]]","20","0","","","","","","6","","","","","","","","",""
"","","","","","single-stim-button","342","584523","0.0-2.0-71.5-1.5","5b9fa85b4bca610001d791f3","B2","batch2","","587","tol_toboard","","","","tol_peg_3","587","587","0","[[0,0,0],[2,3],[1]]","6","[[3,2,0],[0,0],[1]]","20","0","","","","","","6","","","","","","","","",""
"","","","","","single-stim-button","343","584942","0.0-2.0-71.6-0.6","5b9fa85b4bca610001d791f3","B2","batch2","","418","tol_tohand","","","","tol_peg_2","418","418","0","[[0,0,0],[2,0],[1]]","7","[[3,2,0],[0,0],[1]]","20","0","","","","","","6","","","","","","","","",""
"","","","","","single-stim-button","344","585228","0.0-2.0-71.6-1.6","5b9fa85b4bca610001d791f3","B2","batch2","","286","tol_toboard","","","","tol_peg_1","286","286","0","[[3,0,0],[2,0],[1]]","7","[[3,2,0],[0,0],[1]]","20","0","","","","","","6","","","","","","","","",""
"","","","","","single-stim-button","345","585642","0.0-2.0-71.7-0.7","5b9fa85b4bca610001d791f3","B2","batch2","","413","tol_tohand","","","","tol_peg_2","413","413","0","[[3,0,0],[0,0],[1]]","8","[[3,2,0],[0,0],[1]]","20","0","","","","","","6","","","","","","","","",""
"","","","","","single-stim-button","346","585898","0.0-2.0-71.7-1.7","5b9fa85b4bca610001d791f3","B2","batch2","","256","tol_toboard","","","","tol_peg_1","256","256","0","[[3,2,0],[0,0],[1]]","8","[[3,2,0],[0,0],[1]]","20","0","","","","","","6","","","","","","","","",""
"","","","","","poldrack-single-stim","347","586900","0.0-2.0-72.0","5b9fa85b4bca610001d791f3","B2","batch2","","-1","tol_feedback","","","true","","1000","1000","500","","","","","","-1","none","true","2348","9542","","","","","","","","","",""
"","","","","","html-button-response","348","587348","0.0-2.0-73.0","5b9fa85b4bca610001d791f3","B2","batch2","","448.10000002384186","tol_trial_num","<div class = centerbox><p class = center-block-text>problem <strong>22</strong> out of 25 problems</p></div>","0","","","","","","","","","","","","","","","","","","","","","","","","",""
"","","","","","single-stim-button","349","590912","0.0-2.0-74.0-0.0","5b9fa85b4bca610001d791f3","B2","batch2","","3563","tol_tohand","","","","tol_peg_1","3563","3563","0","[[0,0,0],[2,3],[0]]","1","[[0,0,0],[1,2],[3]]","21","0","","","","","","6","","","","","","","","",""
"","","","","","single-stim-button","350","591730","0.0-2.0-74.0-1.0","5b9fa85b4bca610001d791f3","B2","batch2","","818","tol_toboard","","","","tol_peg_3","818","818","0","[[0,0,0],[2,3],[1]]","1","[[0,0,0],[1,2],[3]]","21","0","","","","","","6","","","","","","","","",""
"","","","","","single-stim-button","351","592620","0.0-2.0-74.1-0.1","5b9fa85b4bca610001d791f3","B2","batch2","","889","tol_tohand","","","","tol_peg_2","889","889","0","[[0,0,0],[2,0],[1]]","2","[[0,0,0],[1,2],[3]]","21","0","","","","","","6","","","","","","","","",""
"","","","","","single-stim-button","352","593180","0.0-2.0-74.1-1.1","5b9fa85b4bca610001d791f3","B2","batch2","","559","tol_toboard","","","","tol_peg_1","559","559","0","[[3,0,0],[2,0],[1]]","2","[[0,0,0],[1,2],[3]]","21","0","","","","","","6","","","","","","","","",""
"","","","","","single-stim-button","353","594309","0.0-2.0-74.2-0.2","5b9fa85b4bca610001d791f3","B2","batch2","","1128","tol_tohand","","","","tol_peg_2","1128","1128","0","[[3,0,0],[0,0],[1]]","3","[[0,0,0],[1,2],[3]]","21","0","","","","","","6","","","","","","","","",""
"","","","","","single-stim-button","354","594769","0.0-2.0-74.2-1.2","5b9fa85b4bca610001d791f3","B2","batch2","","460","tol_toboard","","","","tol_peg_1","460","460","0","[[3,2,0],[0,0],[1]]","3","[[0,0,0],[1,2],[3]]","21","0","","","","","","6","","","","","","","","",""
"","","","","","single-stim-button","355","595955","0.0-2.0-74.3-0.3","5b9fa85b4bca610001d791f3","B2","batch2","","1184","tol_tohand","","","","tol_peg_3","1184","1184","0","[[3,2,0],[0,0],[0]]","4","[[0,0,0],[1,2],[3]]","21","0","","","","","","6","","","","","","","","",""
