"success","timeout","failed_images","failed_audio","failed_video","trial_type","trial_index","time_elapsed","internal_node_id","subject_id","study_id","session_id","view_history","rt","task","stimulus","response","correct","mouse_click","stim_duration","block_duration","timing_post_trial","current_position","tol_num_moves_made","tol_target","tol_problem_id","tol_rt","key_press","possible_responses","tol_correct","preplanning","tol_rt_per_trial","tol_min_moves","answer","item","fiar_detect_rt","fiar_detect_correct","total_correct_fiar_detect","post_trial_gap","choices","spm_correct","spm_rt"
"true","false","[]","[]","[]","preload","0","9365","0.0-0.0","5ba184ad35768a0001437bdc","A3","batch1","","","","","","","","","","","","","","","","","","","","","","","","","","","","","",""
"true","","","","","fullscreen","1","131339","0.0-1.0-0.0","5ba184ad35768a0001437bdc","A3","batch1","","","","","","","","","","","","","","","","","","","","","","","","","","","","","",""
"true","","","","","fullscreen","2","136269","0.0-2.0-0.0","5ba184ad35768a0001437bdc","A3","batch1","","","","","","","","","","","","","","","","","","","","","","","","","","","","","",""
"","","","","","instructions","3","210227","0.0-2.0-1.0-0.0-0.0","5ba184ad35768a0001437bdc","A3","batch1","[{""page_index"":0,""viewing_time"":13357.799999982119},{""page_index"":1,""viewing_time"":13807.300000011921},{""page_index"":2,""viewing_time"":11173.59999999404},{""page_index"":3,""viewing_time"":10374.09999999404},{""page_index"":4,""viewing_time"":7001.300000011921},{""page_index"":5,""viewing_time"":13049.09999999404},{""page_index"":6,""viewing_time"":5194.5999999940395}]","73958.09999999404","tol-instructions","","","","","","","","","","","","","","","","","","","","","","","","","","",""
"","","","","","html-button-response","4","211508","0.0-2.0-1.0-1.0-0.0","5ba184ad35768a0001437bdc","A3","batch1","","1279.300000011921","tol_enter_quiz","<p class=block-text> Let's answer a few questions <br>","0","","","","","","","","","","","","","","","","","","","","","","","","",""
"","","","","","html-button-response","5","215762","0.0-2.0-1.0-1.0-1.0","5ba184ad35768a0001437bdc","A3","batch1","","4253.699999988079","tol_quiz","<p class = block-text>True or False: You can only move the ball on top of a peg. <br></p>","1","false","","","","","","","","","","","","","","","","","","","","","","","",""
"","","","","","html-button-response","6","219455","0.0-2.0-1.0-1.0-2.0","5ba184ad35768a0001437bdc","A3","batch1","","3690.9000000059605","tol_quiz_feedback","<p class = block-text>Incorrect. Remember, you can only move the ball on top of a peg.</p>","0","","","","","","","","","","","","","","","","","","","","","","","","",""
"","","","","","html-button-response","7","223557","0.0-2.0-1.0-1.0-3.0","5ba184ad35768a0001437bdc","A3","batch1","","4101.300000011921","tol_quiz","<p class = block-text>True or False: You should try to match your board with the target board with fewest moves possible. <br></p>","0","true","","","","","","","","","","","","","","","","","","","","","","","",""
"","","","","","html-button-response","8","224413","0.0-2.0-1.0-1.0-4.0","5ba184ad35768a0001437bdc","A3","batch1","","855.3000000119209","tol_quiz_feedback","<p class = block-text>Correct! </p>","0","","","","","","","","","","","","","","","","","","","","","","","","",""
"","","","","","html-button-response","9","226623","0.0-2.0-1.0-2.0-0.0","5ba184ad35768a0001437bdc","A3","batch1","","2209.100000023842","","<p class = block-text>You made too many incorrect choices.</p><p class = block-text>You will now repeat the instructions and quiz</p>","0","","","","","","","","","","","","","","","","","","","","","","","","",""
"","","","","","instructions","10","251334","0.0-2.0-1.1-0.1-0.1","5ba184ad35768a0001437bdc","A3","batch1","[{""page_index"":0,""viewing_time"":4243.4000000059605},{""page_index"":1,""viewing_time"":2599.0999999940395},{""page_index"":2,""viewing_time"":2051.800000011921},{""page_index"":3,""viewing_time"":5031},{""page_index"":4,""viewing_time"":2993.5},{""page_index"":5,""viewing_time"":6367.199999988079},{""page_index"":6,""viewing_time"":1423.800000011921}]","24710","tol-instructions","","","","","","","","","","","","","","","","","","","","","","","","","","",""
"","","","","","html-button-response","11","252082","0.0-2.0-1.1-1.1-0.1","5ba184ad35768a0001437bdc","A3","batch1","","747.9000000059605","tol_enter_quiz","<p class=block-text> Let's answer a few questions <br>","0","","","","","","","","","","","","","","","","","","","","","","","","",""
"","","","","","html-button-response","12","256156","0.0-2.0-1.1-1.1-1.1","5ba184ad35768a0001437bdc","A3","batch1","","4073.0999999940395","tol_quiz","<p class = block-text>True or False: You can only move the ball on top of a peg. <br></p>","0","true","","","","","","","","","","","","","","","","","","","","","","","",""
"","","","","","html-button-response","13","256993","0.0-2.0-1.1-1.1-2.1","5ba184ad35768a0001437bdc","A3","batch1","","835.8000000119209","tol_quiz_feedback","<p class = block-text>Correct! You can only move the ball on top of a peg.</p>","0","","","","","","","","","","","","","","","","","","","","","","","","",""
"","","","","","html-button-response","14","260578","0.0-2.0-1.1-1.1-3.1","5ba184ad35768a0001437bdc","A3","batch1","","3585.0999999940395","tol_quiz","<p class = block-text>True or False: You should try to match your board with the target board with fewest moves possible. <br></p>","0","true","","","","","","","","","","","","","","","","","","","","","","","",""
"","","","","","html-button-response","15","261166","0.0-2.0-1.1-1.1-4.1","5ba184ad35768a0001437bdc","A3","batch1","","587.3999999761581","tol_quiz_feedback","<p class = block-text>Correct! </p>","0","","","","","","","","","","","","","","","","","","","","","","","","",""
"","","","","","html-button-response","16","261919","0.0-2.0-2.0","5ba184ad35768a0001437bdc","A3","batch1","","751.5","","<p class=block-text> Now that you've understood the game, let's practice a few easier examples before we start!<br> <br>","0","","","","","","","","","","","","","","","","","","","","","","","","",""
"","","","","","single-stim-button","17","265466","0.0-2.0-3.0-0.0","5ba184ad35768a0001437bdc","A3","batch1","","3546","tol_practice","","","","tol_peg_2","3546","3546","0","[[1,2,0],[0,0],[0]]","1","[[1,2,0],[0,0],[3]]","practice","3546","","","","","","","","","","","","","","",""
"","","","","","single-stim-button","18","266849","0.0-2.0-3.0-1.0","5ba184ad35768a0001437bdc","A3","batch1","","1382","tol_practice","","","","tol_peg_3","1382","1382","0","[[1,2,0],[0,0],[3]]","1","[[1,2,0],[0,0],[3]]","practice","1382","","","","","","","","","","","","","","",""
"","","","","","poldrack-single-stim","19","267850","0.0-2.0-4.0","5ba184ad35768a0001437bdc","A3","batch1","","-1","tol_feedback","","","true","","1000","1000","500","","","","","","-1","none","true","","0","","","","","","","","","",""
"","","","","","single-stim-button","20","273032","0.0-2.0-5.0-0.0","5ba184ad35768a0001437bdc","A3","batch1","","5181","tol_practice","","","","tol_peg_1","5181","5181","0","[[1,0,0],[3,0],[0]]","2","[[0,0,0],[3,1],[2]]","practice","5181","","","","","","","","","","","","","","",""
"","","","","","single-stim-button","21","274380","0.0-2.0-5.0-1.0","5ba184ad35768a0001437bdc","A3","batch1","","1347","tol_practice","","","","tol_peg_3","1347","1347","0","[[1,0,0],[3,0],[2]]","2","[[0,0,0],[3,1],[2]]","practice","1347","","","","","","","","","","","","","","",""
"","","","","","single-stim-button","22","275468","0.0-2.0-5.1-0.1","5ba184ad35768a0001437bdc","A3","batch1","","1088","tol_practice","","","","tol_peg_1","1088","1088","0","[[0,0,0],[3,0],[2]]","3","[[0,0,0],[3,1],[2]]","practice","1088","","","","","","","","","","","","","","",""
"","","","","","single-stim-button","23","276353","0.0-2.0-5.1-1.1","5ba184ad35768a0001437bdc","A3","batch1","","884","tol_practice","","","","tol_peg_2","884","884","0","[[0,0,0],[3,1],[2]]","3","[[0,0,0],[3,1],[2]]","practice","884","","","","","","","","","","","","","","",""
"","","","","","poldrack-single-stim","24","277367","0.0-2.0-6.0","5ba184ad35768a0001437bdc","A3","batch1","","-1","tol_feedback","","","true","","1000","1000","500","","","","","","-1","none","true","","0","","","","","","","","","",""
"","","","","","single-stim-button","25","281191","0.0-2.0-7.0-0.0","5ba184ad35768a0001437bdc","A3","batch1","","3823","tol_practice","","","","tol_peg_2","3823","3823","0","[[1,2,0],[0,0],[0]]","4","[[1,0,0],[2,0],[3]]","practice","3823","","","","","","","","","","","","","","",""
"","","","","","single-stim-button","26","282125","0.0-2.0-7.0-1.0","5ba184ad35768a0001437bdc","A3","batch1","","934","tol_practice","","","","tol_peg_3","934","934","0","[[1,2,0],[0,0],[3]]","4","[[1,0,0],[2,0],[3]]","practice","934","","","","","","","","","","","","","","",""
"","","","","","single-stim-button","27","283505","0.0-2.0-7.1-0.1","5ba184ad35768a0001437bdc","A3","batch1","","1380","tol_practice","","","","tol_peg_1","1380","1380","0","[[1,0,0],[0,0],[3]]","5","[[1,0,0],[2,0],[3]]","practice","1380","","","","","","","","","","","","","","",""
"","","","","","single-stim-button","28","284137","0.0-2.0-7.1-1.1","5ba184ad35768a0001437bdc","A3","batch1","","632","tol_practice","","","","tol_peg_2","632","632","0","[[1,0,0],[2,0],[3]]","5","[[1,0,0],[2,0],[3]]","practice","632","","","","","","","","","","","","","","",""
"","","","","","poldrack-single-stim","29","285148","0.0-2.0-8.0","5ba184ad35768a0001437bdc","A3","batch1","","-1","tol_feedback","","","true","","1000","1000","500","","","","","","-1","none","true","","0","","","","","","","","","",""
"","","","","","html-button-response","30","286585","0.0-2.0-9.0","5ba184ad35768a0001437bdc","A3","batch1","","1436.0999999940395","tol_instruction","<div class = centerbox><p class = center-block-text>Great job! You are done with practice trials<br>You are about to start official trials.<br> <br> Problem <strong>1</strong> out of 25 problems</p></div>","0","","","","","","","","","","","","","","","","","","","","","","","","",""
"","","","","","single-stim-button","31","293915","0.0-2.0-10.0-0.0","5ba184ad35768a0001437bdc","A3","batch1","","6319","tol_tohand","","","","tol_peg_1","6319","6319","0","[[1,0,0],[3,0],[0]]","1","[[1,3,0],[2,0],[0]]","0","0","","","","","","3","","","","","","","","",""
"","","","","","single-stim-button","32","295306","0.0-2.0-10.0-1.0","5ba184ad35768a0001437bdc","A3","batch1","","1391","tol_toboard","","","","tol_peg_3","1391","1391","0","[[1,0,0],[3,0],[2]]","1","[[1,3,0],[2,0],[0]]","0","0","","","","","","3","","","","","","","","",""
"","","","","","single-stim-button","33","297611","0.0-2.0-10.1-0.1","5ba184ad35768a0001437bdc","A3","batch1","","2304","tol_tohand","","","","tol_peg_2","2304","2304","0","[[1,0,0],[0,0],[2]]","2","[[1,3,0],[2,0],[0]]","0","0","","","","","","3","","","","","","","","",""
"","","","","","single-stim-button","34","298323","0.0-2.0-10.1-1.1","5ba184ad35768a0001437bdc","A3","batch1","","712","tol_toboard","","","","tol_peg_1","712","712","0","[[1,3,0],[0,0],[2]]","2","[[1,3,0],[2,0],[0]]","0","0","","","","","","3","","","","","","","","",""
"","","","","","single-stim-button","35","299660","0.0-2.0-10.2-0.2","5ba184ad35768a0001437bdc","A3","batch1","","1337","tol_tohand","","","","tol_peg_3","1337","1337","0","[[1,3,0],[0,0],[0]]","3","[[1,3,0],[2,0],[0]]","0","0","","","","","","3","","","","","","","","",""
"","","","","","single-stim-button","36","300465","0.0-2.0-10.2-1.2","5ba184ad35768a0001437bdc","A3","batch1","","804","tol_toboard","","","","tol_peg_2","804","804","0","[[1,3,0],[2,0],[0]]","3","[[1,3,0],[2,0],[0]]","0","0","","","","","","3","","","","","","","","",""
"","","","","","poldrack-single-stim","37","301479","0.0-2.0-11.0","5ba184ad35768a0001437bdc","A3","batch1","","-1","tol_feedback","","","true","","1000","1000","500","","","","","","-1","none","true","6319","9960","","","","","","","","","",""
"","","","","","html-button-response","38","302448","0.0-2.0-12.0","5ba184ad35768a0001437bdc","A3","batch1","","968.6999999880791","tol_trial_num","<div class = centerbox><p class = center-block-text>problem <strong>2</strong> out of 25 problems</p></div>","0","","","","","","","","","","","","","","","","","","","","","","","","",""
"","","","","","single-stim-button","39","307932","0.0-2.0-13.0-0.0","5ba184ad35768a0001437bdc","A3","batch1","","5483","tol_tohand","","","","tol_peg_1","5483","5483","0","[[1,0,0],[3,0],[0]]","1","[[2,1,3],[0,0],[0]]","1","0","","","","","","5","","","","","","","","",""
"","","","","","single-stim-button","40","313491","0.0-2.0-13.0-1.0","5ba184ad35768a0001437bdc","A3","batch1","","5558","tol_toboard","","","","tol_peg_2","5558","5558","0","[[1,0,0],[3,2],[0]]","1","[[2,1,3],[0,0],[0]]","1","0","","","","","","5","","","","","","","","",""
"","","","","","single-stim-button","41","314283","0.0-2.0-13.1-0.1","5ba184ad35768a0001437bdc","A3","batch1","","791","tol_tohand","","","","tol_peg_1","791","791","0","[[0,0,0],[3,2],[0]]","2","[[2,1,3],[0,0],[0]]","1","0","","","","","","5","","","","","","","","",""
"","","","","","single-stim-button","42","315078","0.0-2.0-13.1-1.1","5ba184ad35768a0001437bdc","A3","batch1","","795","tol_toboard","","","","tol_peg_3","795","795","0","[[0,0,0],[3,2],[1]]","2","[[2,1,3],[0,0],[0]]","1","0","","","","","","5","","","","","","","","",""
"","","","","","single-stim-button","43","315678","0.0-2.0-13.2-0.2","5ba184ad35768a0001437bdc","A3","batch1","","599","tol_tohand","","","","tol_peg_2","599","599","0","[[0,0,0],[3,0],[1]]","3","[[2,1,3],[0,0],[0]]","1","0","","","","","","5","","","","","","","","",""
"","","","","","single-stim-button","44","316608","0.0-2.0-13.2-1.2","5ba184ad35768a0001437bdc","A3","batch1","","930","tol_toboard","","","","tol_peg_1","930","930","0","[[2,0,0],[3,0],[1]]","3","[[2,1,3],[0,0],[0]]","1","0","","","","","","5","","","","","","","","",""
"","","","","","single-stim-button","45","317320","0.0-2.0-13.3-0.3","5ba184ad35768a0001437bdc","A3","batch1","","711","tol_tohand","","","","tol_peg_3","711","711","0","[[2,0,0],[3,0],[0]]","4","[[2,1,3],[0,0],[0]]","1","0","","","","","","5","","","","","","","","",""
"","","","","","single-stim-button","46","318124","0.0-2.0-13.3-1.3","5ba184ad35768a0001437bdc","A3","batch1","","803","tol_toboard","","","","tol_peg_1","803","803","0","[[2,1,0],[3,0],[0]]","4","[[2,1,3],[0,0],[0]]","1","0","","","","","","5","","","","","","","","",""
"","","","","","single-stim-button","47","318681","0.0-2.0-13.4-0.4","5ba184ad35768a0001437bdc","A3","batch1","","557","tol_tohand","","","","tol_peg_2","557","557","0","[[2,1,0],[0,0],[0]]","5","[[2,1,3],[0,0],[0]]","1","0","","","","","","5","","","","","","","","",""
"","","","","","single-stim-button","48","319313","0.0-2.0-13.4-1.4","5ba184ad35768a0001437bdc","A3","batch1","","632","tol_toboard","","","","tol_peg_1","632","632","0","[[2,1,3],[0,0],[0]]","5","[[2,1,3],[0,0],[0]]","1","0","","","","","","5","","","","","","","","",""
"","","","","","poldrack-single-stim","49","320328","0.0-2.0-14.0","5ba184ad35768a0001437bdc","A3","batch1","","-1","tol_feedback","","","true","","1000","1000","500","","","","","","-1","none","true","5483","8141","","","","","","","","","",""
"","","","","","html-button-response","50","321129","0.0-2.0-15.0","5ba184ad35768a0001437bdc","A3","batch1","","800.0999999940395","tol_trial_num","<div class = centerbox><p class = center-block-text>problem <strong>3</strong> out of 25 problems</p></div>","0","","","","","","","","","","","","","","","","","","","","","","","","",""
"","","","","","single-stim-button","51","324568","0.0-2.0-16.0-0.0","5ba184ad35768a0001437bdc","A3","batch1","","3438","tol_tohand","","","","tol_peg_1","3438","3438","0","[[2,0,0],[0,0],[1]]","1","[[1,2,0],[3,0],[0]]","2","0","","","","","","4","","","","","","","","",""
"","","","","","single-stim-button","52","325388","0.0-2.0-16.0-1.0","5ba184ad35768a0001437bdc","A3","batch1","","819","tol_toboard","","","","tol_peg_2","819","819","0","[[2,0,0],[3,0],[1]]","1","[[1,2,0],[3,0],[0]]","2","0","","","","","","4","","","","","","","","",""
"","","","","","single-stim-button","53","326608","0.0-2.0-16.1-0.1","5ba184ad35768a0001437bdc","A3","batch1","","1220","tol_tohand","","","","tol_peg_1","1220","1220","0","[[0,0,0],[3,0],[1]]","2","[[1,2,0],[3,0],[0]]","2","0","","","","","","4","","","","","","","","",""
"","","","","","single-stim-button","54","327578","0.0-2.0-16.1-1.1","5ba184ad35768a0001437bdc","A3","batch1","","970","tol_toboard","","","","tol_peg_2","970","970","0","[[0,0,0],[3,2],[1]]","2","[[1,2,0],[3,0],[0]]","2","0","","","","","","4","","","","","","","","",""
"","","","","","single-stim-button","55","328349","0.0-2.0-16.2-0.2","5ba184ad35768a0001437bdc","A3","batch1","","771","tol_tohand","","","","tol_peg_3","771","771","0","[[0,0,0],[3,2],[0]]","3","[[1,2,0],[3,0],[0]]","2","0","","","","","","4","","","","","","","","",""
"","","","","","single-stim-button","56","329102","0.0-2.0-16.2-1.2","5ba184ad35768a0001437bdc","A3","batch1","","751","tol_toboard","","","","tol_peg_1","751","751","0","[[1,0,0],[3,2],[0]]","3","[[1,2,0],[3,0],[0]]","2","0","","","","","","4","","","","","","","","",""
"","","","","","single-stim-button","57","329638","0.0-2.0-16.3-0.3","5ba184ad35768a0001437bdc","A3","batch1","","536","tol_tohand","","","","tol_peg_2","536","536","0","[[1,0,0],[3,0],[0]]","4","[[1,2,0],[3,0],[0]]","2","0","","","","","","4","","","","","","","","",""
"","","","","","single-stim-button","58","330486","0.0-2.0-16.3-1.3","5ba184ad35768a0001437bdc","A3","batch1","","847","tol_toboard","","","","tol_peg_1","847","847","0","[[1,2,0],[3,0],[0]]","4","[[1,2,0],[3,0],[0]]","2","0","","","","","","4","","","","","","","","",""
"","","","","","poldrack-single-stim","59","331495","0.0-2.0-17.0","5ba184ad35768a0001437bdc","A3","batch1","","-1","tol_feedback","","","true","","1000","1000","500","","","","","","-1","none","true","3438","5965","","","","","","","","","",""
"","","","","","html-button-response","60","335896","0.0-2.0-18.0","5ba184ad35768a0001437bdc","A3","batch1","","4400.5999999940395","tol_trial_num","<div class = centerbox><p class = center-block-text>problem <strong>4</strong> out of 25 problems</p></div>","0","","","","","","","","","","","","","","","","","","","","","","","","",""
"","","","","","single-stim-button","61","339703","0.0-2.0-19.0-0.0","5ba184ad35768a0001437bdc","A3","batch1","","3806","tol_tohand","","","","tol_peg_2","3806","3806","0","[[3,0,0],[2,0],[0]]","1","[[3,0,0],[1,0],[2]]","3","0","","","","","","3","","","","","","","","",""
"","","","","","single-stim-button","62","340859","0.0-2.0-19.0-1.0","5ba184ad35768a0001437bdc","A3","batch1","","1156","tol_toboard","","","","tol_peg_1","1156","1156","0","[[3,1,0],[2,0],[0]]","1","[[3,0,0],[1,0],[2]]","3","0","","","","","","3","","","","","","","","",""
"","","","","","single-stim-button","63","341443","0.0-2.0-19.1-0.1","5ba184ad35768a0001437bdc","A3","batch1","","584","tol_tohand","","","","tol_peg_2","584","584","0","[[3,1,0],[0,0],[0]]","2","[[3,0,0],[1,0],[2]]","3","0","","","","","","3","","","","","","","","",""
"","","","","","single-stim-button","64","342391","0.0-2.0-19.1-1.1","5ba184ad35768a0001437bdc","A3","batch1","","948","tol_toboard","","","","tol_peg_3","948","948","0","[[3,1,0],[0,0],[2]]","2","[[3,0,0],[1,0],[2]]","3","0","","","","","","3","","","","","","","","",""
"","","","","","single-stim-button","65","343107","0.0-2.0-19.2-0.2","5ba184ad35768a0001437bdc","A3","batch1","","716","tol_tohand","","","","tol_peg_1","716","716","0","[[3,0,0],[0,0],[2]]","3","[[3,0,0],[1,0],[2]]","3","0","","","","","","3","","","","","","","","",""
"","","","","","single-stim-button","66","343815","0.0-2.0-19.2-1.2","5ba184ad35768a0001437bdc","A3","batch1","","707","tol_toboard","","","","tol_peg_2","707","707","0","[[3,0,0],[1,0],[2]]","3","[[3,0,0],[1,0],[2]]","3","0","","","","","","3","","","","","","","","",""
"","","","","","poldrack-single-stim","67","344826","0.0-2.0-20.0","5ba184ad35768a0001437bdc","A3","batch1","","-1","tol_feedback","","","true","","1000","1000","500","","","","","","-1","none","true","3806","5106","","","","","","","","","",""
"","","","","","html-button-response","68","345577","0.0-2.0-21.0","5ba184ad35768a0001437bdc","A3","batch1","","750.4000000059605","tol_trial_num","<div class = centerbox><p class = center-block-text>problem <strong>5</strong> out of 25 problems</p></div>","0","","","","","","","","","","","","","","","","","","","","","","","","",""
"","","","","","single-stim-button","69","349538","0.0-2.0-22.0-0.0","5ba184ad35768a0001437bdc","A3","batch1","","3960","tol_tohand","","","","tol_peg_2","3960","3960","0","[[1,0,0],[0,0],[3]]","1","[[0,0,0],[1,2],[3]]","4","0","","","","","","7","","","","","","","","",""
"","","","","","single-stim-button","70","353372","0.0-2.0-22.0-1.0","5ba184ad35768a0001437bdc","A3","batch1","","3833","tol_toboard","","","","tol_peg_2","3833","3833","0","[[1,0,0],[2,0],[3]]","1","[[0,0,0],[1,2],[3]]","4","0","","","","","","7","","","","","","","","",""
"","","","","","single-stim-button","71","354365","0.0-2.0-22.1-0.1","5ba184ad35768a0001437bdc","A3","batch1","","992","tol_tohand","","","","tol_peg_1","992","992","0","[[0,0,0],[2,0],[3]]","2","[[0,0,0],[1,2],[3]]","4","0","","","","","","7","","","","","","","","",""
"","","","","","single-stim-button","72","355897","0.0-2.0-22.1-1.1","5ba184ad35768a0001437bdc","A3","batch1","","1532","tol_toboard","","","","tol_peg_1","1532","1532","0","[[1,0,0],[2,0],[3]]","2","[[0,0,0],[1,2],[3]]","4","0","","","","","","7","","","","","","","","",""
"","","","","","single-stim-button","73","365454","0.0-2.0-22.2-0.2","5ba184ad35768a0001437bdc","A3","batch1","","9556","tol_tohand","","","","tol_peg_1","9556","9556","0","[[0,0,0],[2,0],[3]]","3","[[0,0,0],[1,2],[3]]","4","0","","","","","","7","","","","","","","","",""
"","","","","","single-stim-button","74","366153","0.0-2.0-22.2-1.2","5ba184ad35768a0001437bdc","A3","batch1","","699","tol_toboard","","","","tol_peg_2","699","699","0","[[0,0,0],[2,1],[3]]","3","[[0,0,0],[1,2],[3]]","4","0","","","","","","7","","","","","","","","",""
"","","","","","single-stim-button","75","366905","0.0-2.0-22.3-0.3","5ba184ad35768a0001437bdc","A3","batch1","","751","tol_tohand","","","","tol_peg_3","751","751","0","[[0,0,0],[2,1],[0]]","4","[[0,0,0],[1,2],[3]]","4","0","","","","","","7","","","","","","","","",""
"","","","","","single-stim-button","76","367780","0.0-2.0-22.3-1.3","5ba184ad35768a0001437bdc","A3","batch1","","873","tol_toboard","","","","tol_peg_1","873","873","0","[[3,0,0],[2,1],[0]]","4","[[0,0,0],[1,2],[3]]","4","0","","","","","","7","","","","","","","","",""
"","","","","","single-stim-button","77","370488","0.0-2.0-22.4-0.4","5ba184ad35768a0001437bdc","A3","batch1","","2708","tol_tohand","","","","tol_peg_2","2708","2708","0","[[3,0,0],[2,0],[0]]","5","[[0,0,0],[1,2],[3]]","4","0","","","","","","7","","","","","","","","",""
"","","","","","single-stim-button","78","372976","0.0-2.0-22.4-1.4","5ba184ad35768a0001437bdc","A3","batch1","","2488","tol_toboard","","","","tol_peg_3","2488","2488","0","[[3,0,0],[2,0],[1]]","5","[[0,0,0],[1,2],[3]]","4","0","","","","","","7","","","","","","","","",""
"","","","","","single-stim-button","79","373414","0.0-2.0-22.5-0.5","5ba184ad35768a0001437bdc","A3","batch1","","437","tol_tohand","","","","tol_peg_2","437","437","0","[[3,0,0],[0,0],[1]]","6","[[0,0,0],[1,2],[3]]","4","0","","","","","","7","","","","","","","","",""
"","","","","","single-stim-button","80","374135","0.0-2.0-22.5-1.5","5ba184ad35768a0001437bdc","A3","batch1","","720","tol_toboard","","","","tol_peg_1","720","720","0","[[3,2,0],[0,0],[1]]","6","[[0,0,0],[1,2],[3]]","4","0","","","","","","7","","","","","","","","",""
"","","","","","single-stim-button","81","375258","0.0-2.0-22.6-0.6","5ba184ad35768a0001437bdc","A3","batch1","","1123","tol_tohand","","","","tol_peg_3","1123","1123","0","[[3,2,0],[0,0],[0]]","7","[[0,0,0],[1,2],[3]]","4","0","","","","","","7","","","","","","","","",""
"","","","","","single-stim-button","82","375834","0.0-2.0-22.6-1.6","5ba184ad35768a0001437bdc","A3","batch1","","576","tol_toboard","","","","tol_peg_2","576","576","0","[[3,2,0],[1,0],[0]]","7","[[0,0,0],[1,2],[3]]","4","0","","","","","","7","","","","","","","","",""
"","","","","","single-stim-button","83","376342","0.0-2.0-22.7-0.7","5ba184ad35768a0001437bdc","A3","batch1","","507","tol_tohand","","","","tol_peg_1","507","507","0","[[3,0,0],[1,0],[0]]","8","[[0,0,0],[1,2],[3]]","4","0","","","","","","7","","","","","","","","",""
"","","","","","single-stim-button","84","376794","0.0-2.0-22.7-1.7","5ba184ad35768a0001437bdc","A3","batch1","","452","tol_toboard","","","","tol_peg_2","452","452","0","[[3,0,0],[1,2],[0]]","8","[[0,0,0],[1,2],[3]]","4","0","","","","","","7","","","","","","","","",""
"","","","","","single-stim-button","85","377438","0.0-2.0-22.8-0.8","5ba184ad35768a0001437bdc","A3","batch1","","643","tol_tohand","","","","tol_peg_1","643","643","0","[[0,0,0],[1,2],[0]]","9","[[0,0,0],[1,2],[3]]","4","0","","","","","","7","","","","","","","","",""
"","","","","","single-stim-button","86","378282","0.0-2.0-22.8-1.8","5ba184ad35768a0001437bdc","A3","batch1","","844","tol_toboard","","","","tol_peg_3","844","844","0","[[0,0,0],[1,2],[3]]","9","[[0,0,0],[1,2],[3]]","4","0","","","","","","7","","","","","","","","",""
"","","","","","poldrack-single-stim","87","379291","0.0-2.0-23.0","5ba184ad35768a0001437bdc","A3","batch1","","-1","tol_feedback","","","true","","1000","1000","500","","","","","","-1","none","true","3960","20677","","","","","","","","","",""
"","","","","","html-button-response","88","379952","0.0-2.0-24.0","5ba184ad35768a0001437bdc","A3","batch1","","660.9000000059605","tol_trial_num","<div class = centerbox><p class = center-block-text>problem <strong>6</strong> out of 25 problems</p></div>","0","","","","","","","","","","","","","","","","","","","","","","","","",""
"","","","","","single-stim-button","89","385951","0.0-2.0-25.0-0.0","5ba184ad35768a0001437bdc","A3","batch1","","5998","tol_tohand","","","","tol_peg_2","5998","5998","0","[[0,0,0],[1,0],[3]]","1","[[1,0,0],[2,3],[0]]","5","0","","","","","","6","","","","","","","","",""
"","","","","","single-stim-button","90","392622","0.0-2.0-25.0-1.0","5ba184ad35768a0001437bdc","A3","batch1","","6670","tol_toboard","","","","tol_peg_2","6670","6670","0","[[0,0,0],[1,2],[3]]","1","[[1,0,0],[2,3],[0]]","5","0","","","","","","6","","","","","","","","",""
"","","","","","single-stim-button","91","393182","0.0-2.0-25.1-0.1","5ba184ad35768a0001437bdc","A3","batch1","","560","tol_tohand","","","","tol_peg_3","560","560","0","[[0,0,0],[1,2],[0]]","2","[[1,0,0],[2,3],[0]]","5","0","","","","","","6","","","","","","","","",""
"","","","","","single-stim-button","92","393938","0.0-2.0-25.1-1.1","5ba184ad35768a0001437bdc","A3","batch1","","756","tol_toboard","","","","tol_peg_1","756","756","0","[[3,0,0],[1,2],[0]]","2","[[1,0,0],[2,3],[0]]","5","0","","","","","","6","","","","","","","","",""
"","","","","","single-stim-button","93","394482","0.0-2.0-25.2-0.2","5ba184ad35768a0001437bdc","A3","batch1","","544","tol_tohand","","","","tol_peg_2","544","544","0","[[3,0,0],[1,0],[0]]","3","[[1,0,0],[2,3],[0]]","5","0","","","","","","6","","","","","","","","",""
"","","","","","single-stim-button","94","395126","0.0-2.0-25.2-1.2","5ba184ad35768a0001437bdc","A3","batch1","","644","tol_toboard","","","","tol_peg_1","644","644","0","[[3,2,0],[1,0],[0]]","3","[[1,0,0],[2,3],[0]]","5","0","","","","","","6","","","","","","","","",""
"","","","","","single-stim-button","95","395690","0.0-2.0-25.3-0.3","5ba184ad35768a0001437bdc","A3","batch1","","564","tol_tohand","","","","tol_peg_2","564","564","0","[[3,2,0],[0,0],[0]]","4","[[1,0,0],[2,3],[0]]","5","0","","","","","","6","","","","","","","","",""
"","","","","","single-stim-button","96","396372","0.0-2.0-25.3-1.3","5ba184ad35768a0001437bdc","A3","batch1","","682","tol_toboard","","","","tol_peg_3","682","682","0","[[3,2,0],[0,0],[1]]","4","[[1,0,0],[2,3],[0]]","5","0","","","","","","6","","","","","","","","",""
"","","","","","single-stim-button","97","397248","0.0-2.0-25.4-0.4","5ba184ad35768a0001437bdc","A3","batch1","","876","tol_tohand","","","","tol_peg_1","876","876","0","[[3,0,0],[0,0],[1]]","5","[[1,0,0],[2,3],[0]]","5","0","","","","","","6","","","","","","","","",""
"","","","","","single-stim-button","98","397988","0.0-2.0-25.4-1.4","5ba184ad35768a0001437bdc","A3","batch1","","740","tol_toboard","","","","tol_peg_2","740","740","0","[[3,0,0],[2,0],[1]]","5","[[1,0,0],[2,3],[0]]","5","0","","","","","","6","","","","","","","","",""
"","","","","","single-stim-button","99","398504","0.0-2.0-25.5-0.5","5ba184ad35768a0001437bdc","A3","batch1","","515","tol_tohand","","","","tol_peg_1","515","515","0","[[0,0,0],[2,0],[1]]","6","[[1,0,0],[2,3],[0]]","5","0","","","","","","6","","","","","","","","",""
"","","","","","single-stim-button","100","399032","0.0-2.0-25.5-1.5","5ba184ad35768a0001437bdc","A3","batch1","","527","tol_toboard","","","","tol_peg_2","527","527","0","[[0,0,0],[2,3],[1]]","6","[[1,0,0],[2,3],[0]]","5","0","","","","","","6","","","","","","","","",""
"","","","","","single-stim-button","101","399548","0.0-2.0-25.6-0.6","5ba184ad35768a0001437bdc","A3","batch1","","515","tol_tohand","","","","tol_peg_3","515","515","0","[[0,0,0],[2,3],[0]]","7","[[1,0,0],[2,3],[0]]","5","0","","","","","","6","","","","","","","","",""
"","","","","","single-stim-button","102","400096","0.0-2.0-25.6-1.6","5ba184ad35768a0001437bdc","A3","batch1","","547","tol_toboard","","","","tol_peg_1","547","547","0","[[1,0,0],[2,3],[0]]","7","[[1,0,0],[2,3],[0]]","5","0","","","","","","6","","","","","","","","",""
"","","","","","poldrack-single-stim","103","401100","0.0-2.0-26.0","5ba184ad35768a0001437bdc","A3","batch1","","-1","tol_feedback","","","true","","1000","1000","500","","","","","","-1","none","true","5998","9572","","","","","","","","","",""
"","","","","","html-button-response","104","401531","0.0-2.0-27.0","5ba184ad35768a0001437bdc","A3","batch1","","430.09999999403954","tol_trial_num","<div class = centerbox><p class = center-block-text>problem <strong>7</strong> out of 25 problems</p></div>","0","","","","","","","","","","","","","","","","","","","","","","","","",""
"","","","","","single-stim-button","105","405528","0.0-2.0-28.0-0.0","5ba184ad35768a0001437bdc","A3","batch1","","3997","tol_tohand","","","","tol_peg_3","3997","3997","0","[[2,1,0],[0,0],[0]]","1","[[1,2,0],[3,0],[0]]","6","0","","","","","","5","","","","","","","","",""
"","","","","","single-stim-button","106","406335","0.0-2.0-28.0-1.0","5ba184ad35768a0001437bdc","A3","batch1","","807","tol_toboard","","","","tol_peg_2","807","807","0","[[2,1,0],[3,0],[0]]","1","[[1,2,0],[3,0],[0]]","6","0","","","","","","5","","","","","","","","",""
"","","","","","single-stim-button","107","407610","0.0-2.0-28.1-0.1","5ba184ad35768a0001437bdc","A3","batch1","","1274","tol_tohand","","","","tol_peg_1","1274","1274","0","[[2,0,0],[3,0],[0]]","2","[[1,2,0],[3,0],[0]]","6","0","","","","","","5","","","","","","","","",""
"","","","","","single-stim-button","108","408382","0.0-2.0-28.1-1.1","5ba184ad35768a0001437bdc","A3","batch1","","771","tol_toboard","","","","tol_peg_3","771","771","0","[[2,0,0],[3,0],[1]]","2","[[1,2,0],[3,0],[0]]","6","0","","","","","","5","","","","","","","","",""
"","","","","","single-stim-button","109","408985","0.0-2.0-28.2-0.2","5ba184ad35768a0001437bdc","A3","batch1","","603","tol_tohand","","","","tol_peg_1","603","603","0","[[0,0,0],[3,0],[1]]","3","[[1,2,0],[3,0],[0]]","6","0","","","","","","5","","","","","","","","",""
"","","","","","single-stim-button","110","409402","0.0-2.0-28.2-1.2","5ba184ad35768a0001437bdc","A3","batch1","","416","tol_toboard","","","","tol_peg_2","416","416","0","[[0,0,0],[3,2],[1]]","3","[[1,2,0],[3,0],[0]]","6","0","","","","","","5","","","","","","","","",""
"","","","","","single-stim-button","111","409902","0.0-2.0-28.3-0.3","5ba184ad35768a0001437bdc","A3","batch1","","499","tol_tohand","","","","tol_peg_3","499","499","0","[[0,0,0],[3,2],[0]]","4","[[1,2,0],[3,0],[0]]","6","0","","","","","","5","","","","","","","","",""
"","","","","","single-stim-button","112","410626","0.0-2.0-28.3-1.3","5ba184ad35768a0001437bdc","A3","batch1","","723","tol_toboard","","","","tol_peg_1","723","723","0","[[1,0,0],[3,2],[0]]","4","[[1,2,0],[3,0],[0]]","6","0","","","","","","5","","","","","","","","",""
"","","","","","single-stim-button","113","411086","0.0-2.0-28.4-0.4","5ba184ad35768a0001437bdc","A3","batch1","","460","tol_tohand","","","","tol_peg_2","460","460","0","[[1,0,0],[3,0],[0]]","5","[[1,2,0],[3,0],[0]]","6","0","","","","","","5","","","","","","","","",""
"","","","","","single-stim-button","114","411810","0.0-2.0-28.4-1.4","5ba184ad35768a0001437bdc","A3","batch1","","723","tol_toboard","","","","tol_peg_1","723","723","0","[[1,2,0],[3,0],[0]]","5","[[1,2,0],[3,0],[0]]","6","0","","","","","","5","","","","","","","","",""
"","","","","","poldrack-single-stim","115","412811","0.0-2.0-29.0","5ba184ad35768a0001437bdc","A3","batch1","","-1","tol_feedback","","","true","","1000","1000","500","","","","","","-1","none","true","3997","6833","","","","","","","","","",""
"","","","","","html-button-response","116","413372","0.0-2.0-30.0","5ba184ad35768a0001437bdc","A3","batch1","","559.7000000178814","tol_trial_num","<div class = centerbox><p class = center-block-text>problem <strong>8</strong> out of 25 problems</p></div>","0","","","","","","","","","","","","","","","","","","","","","","","","",""
"","","","","","single-stim-button","117","419666","0.0-2.0-31.0-0.0","5ba184ad35768a0001437bdc","A3","batch1","","6294","tol_tohand","","","","tol_peg_3","6294","6294","0","[[0,0,0],[2,3],[0]]","1","[[1,2,0],[3,0],[0]]","7","0","","","","","","4","","","","","","","","",""
"","","","","","single-stim-button","118","420851","0.0-2.0-31.0-1.0","5ba184ad35768a0001437bdc","A3","batch1","","1184","tol_toboard","","","","tol_peg_1","1184","1184","0","[[1,0,0],[2,3],[0]]","1","[[1,2,0],[3,0],[0]]","7","0","","","","","","4","","","","","","","","",""
"","","","","","single-stim-button","119","422787","0.0-2.0-31.1-0.1","5ba184ad35768a0001437bdc","A3","batch1","","1935","tol_tohand","","","","tol_peg_2","1935","1935","0","[[1,0,0],[2,0],[0]]","2","[[1,2,0],[3,0],[0]]","7","0","","","","","","4","","","","","","","","",""
"","","","","","single-stim-button","120","423292","0.0-2.0-31.1-1.1","5ba184ad35768a0001437bdc","A3","batch1","","503","tol_toboard","","","","tol_peg_3","503","503","0","[[1,0,0],[2,0],[3]]","2","[[1,2,0],[3,0],[0]]","7","0","","","","","","4","","","","","","","","",""
"","","","","","single-stim-button","121","423815","0.0-2.0-31.2-0.2","5ba184ad35768a0001437bdc","A3","batch1","","523","tol_tohand","","","","tol_peg_2","523","523","0","[[1,0,0],[0,0],[3]]","3","[[1,2,0],[3,0],[0]]","7","0","","","","","","4","","","","","","","","",""
"","","","","","single-stim-button","122","424269","0.0-2.0-31.2-1.2","5ba184ad35768a0001437bdc","A3","batch1","","454","tol_toboard","","","","tol_peg_1","454","454","0","[[1,2,0],[0,0],[3]]","3","[[1,2,0],[3,0],[0]]","7","0","","","","","","4","","","","","","","","",""
"","","","","","single-stim-button","123","424869","0.0-2.0-31.3-0.3","5ba184ad35768a0001437bdc","A3","batch1","","600","tol_tohand","","","","tol_peg_3","600","600","0","[[1,2,0],[0,0],[0]]","4","[[1,2,0],[3,0],[0]]","7","0","","","","","","4","","","","","","","","",""
"","","","","","single-stim-button","124","425609","0.0-2.0-31.3-1.3","5ba184ad35768a0001437bdc","A3","batch1","","740","tol_toboard","","","","tol_peg_2","740","740","0","[[1,2,0],[3,0],[0]]","4","[[1,2,0],[3,0],[0]]","7","0","","","","","","4","","","","","","","","",""
"","","","","","poldrack-single-stim","125","426610","0.0-2.0-32.0","5ba184ad35768a0001437bdc","A3","batch1","","-1","tol_feedback","","","true","","1000","1000","500","","","","","","-1","none","true","6294","9352","","","","","","","","","",""
"","","","","","html-button-response","126","427093","0.0-2.0-33.0","5ba184ad35768a0001437bdc","A3","batch1","","482.09999999403954","tol_trial_num","<div class = centerbox><p class = center-block-text>problem <strong>9</strong> out of 25 problems</p></div>","0","","","","","","","","","","","","","","","","","","","","","","","","",""
"","","","","","single-stim-button","127","432669","0.0-2.0-34.0-0.0","5ba184ad35768a0001437bdc","A3","batch1","","5575","tol_tohand","","","","tol_peg_3","5575","5575","0","[[3,2,0],[0,0],[0]]","1","[[2,1,0],[3,0],[0]]","8","0","","","","","","6","","","","","","","","",""
"","","","","","single-stim-button","128","433188","0.0-2.0-34.0-1.0","5ba184ad35768a0001437bdc","A3","batch1","","519","tol_toboard","","","","tol_peg_2","519","519","0","[[3,2,0],[1,0],[0]]","1","[[2,1,0],[3,0],[0]]","8","0","","","","","","6","","","","","","","","",""
"","","","","","single-stim-button","129","433641","0.0-2.0-34.1-0.1","5ba184ad35768a0001437bdc","A3","batch1","","453","tol_tohand","","","","tol_peg_1","453","453","0","[[3,0,0],[1,0],[0]]","2","[[2,1,0],[3,0],[0]]","8","0","","","","","","6","","","","","","","","",""
"","","","","","single-stim-button","130","434316","0.0-2.0-34.1-1.1","5ba184ad35768a0001437bdc","A3","batch1","","675","tol_toboard","","","","tol_peg_3","675","675","0","[[3,0,0],[1,0],[2]]","2","[[2,1,0],[3,0],[0]]","8","0","","","","","","6","","","","","","","","",""
"","","","","","single-stim-button","131","439455","0.0-2.0-34.2-0.2","5ba184ad35768a0001437bdc","A3","batch1","","5139","tol_tohand","","","","tol_peg_1","5139","5139","0","[[0,0,0],[1,0],[2]]","3","[[2,1,0],[3,0],[0]]","8","0","","","","","","6","","","","","","","","",""
"","","","","","single-stim-button","132","441485","0.0-2.0-34.2-1.2","5ba184ad35768a0001437bdc","A3","batch1","","2030","tol_toboard","","","","tol_peg_2","2030","2030","0","[[0,0,0],[1,3],[2]]","3","[[2,1,0],[3,0],[0]]","8","0","","","","","","6","","","","","","","","",""
"","","","","","single-stim-button","133","442005","0.0-2.0-34.3-0.3","5ba184ad35768a0001437bdc","A3","batch1","","520","tol_tohand","","","","tol_peg_3","520","520","0","[[0,0,0],[1,3],[0]]","4","[[2,1,0],[3,0],[0]]","8","0","","","","","","6","","","","","","","","",""
"","","","","","single-stim-button","134","442706","0.0-2.0-34.3-1.3","5ba184ad35768a0001437bdc","A3","batch1","","700","tol_toboard","","","","tol_peg_1","700","700","0","[[2,0,0],[1,3],[0]]","4","[[2,1,0],[3,0],[0]]","8","0","","","","","","6","","","","","","","","",""
"","","","","","single-stim-button","135","443633","0.0-2.0-34.4-0.4","5ba184ad35768a0001437bdc","A3","batch1","","927","tol_tohand","","","","tol_peg_2","927","927","0","[[2,0,0],[1,0],[0]]","5","[[2,1,0],[3,0],[0]]","8","0","","","","","","6","","","","","","","","",""
"","","","","","single-stim-button","136","444142","0.0-2.0-34.4-1.4","5ba184ad35768a0001437bdc","A3","batch1","","508","tol_toboard","","","","tol_peg_3","508","508","0","[[2,0,0],[1,0],[3]]","5","[[2,1,0],[3,0],[0]]","8","0","","","","","","6","","","","","","","","",""
"","","","","","single-stim-button","137","444549","0.0-2.0-34.5-0.5","5ba184ad35768a0001437bdc","A3","batch1","","407","tol_tohand","","","","tol_peg_2","407","407","0","[[2,0,0],[0,0],[3]]","6","[[2,1,0],[3,0],[0]]","8","0","","","","","","6","","","","","","","","",""
"","","","","","single-stim-button","138","445429","0.0-2.0-34.5-1.5","5ba184ad35768a0001437bdc","A3","batch1","","880","tol_toboard","","","","tol_peg_1","880","880","0","[[2,1,0],[0,0],[3]]","6","[[2,1,0],[3,0],[0]]","8","0","","","","","","6","","","","","","","","",""
"","","","","","single-stim-button","139","446217","0.0-2.0-34.6-0.6","5ba184ad35768a0001437bdc","A3","batch1","","788","tol_tohand","","","","tol_peg_3","788","788","0","[[2,1,0],[0,0],[0]]","7","[[2,1,0],[3,0],[0]]","8","0","","","","","","6","","","","","","","","",""
"","","","","","single-stim-button","140","446569","0.0-2.0-34.6-1.6","5ba184ad35768a0001437bdc","A3","batch1","","351","tol_toboard","","","","tol_peg_2","351","351","0","[[2,1,0],[3,0],[0]]","7","[[2,1,0],[3,0],[0]]","8","0","","","","","","6","","","","","","","","",""
"","","","","","poldrack-single-stim","141","447570","0.0-2.0-35.0","5ba184ad35768a0001437bdc","A3","batch1","","-1","tol_feedback","","","true","","1000","1000","500","","","","","","-1","none","true","5575","13809","","","","","","","","","",""
"","","","","","html-button-response","142","447943","0.0-2.0-36.0","5ba184ad35768a0001437bdc","A3","batch1","","372.2999999821186","tol_trial_num","<div class = centerbox><p class = center-block-text>problem <strong>10</strong> out of 25 problems</p></div>","0","","","","","","","","","","","","","","","","","","","","","","","","",""
"","","","","","single-stim-button","143","451569","0.0-2.0-37.0-0.0","5ba184ad35768a0001437bdc","A3","batch1","","3624","tol_tohand","","","","tol_peg_2","3624","3624","0","[[3,0,0],[0,0],[2]]","1","[[3,0,0],[2,1],[0]]","9","0","","","","","","3","","","","","","","","",""
"","","","","","single-stim-button","144","452280","0.0-2.0-37.0-1.0","5ba184ad35768a0001437bdc","A3","batch1","","711","tol_toboard","","","","tol_peg_1","711","711","0","[[3,1,0],[0,0],[2]]","1","[[3,0,0],[2,1],[0]]","9","0","","","","","","3","","","","","","","","",""
"","","","","","single-stim-button","145","453158","0.0-2.0-37.1-0.1","5ba184ad35768a0001437bdc","A3","batch1","","878","tol_tohand","","","","tol_peg_3","878","878","0","[[3,1,0],[0,0],[0]]","2","[[3,0,0],[2,1],[0]]","9","0","","","","","","3","","","","","","","","",""
"","","","","","single-stim-button","146","453790","0.0-2.0-37.1-1.1","5ba184ad35768a0001437bdc","A3","batch1","","631","tol_toboard","","","","tol_peg_2","631","631","0","[[3,1,0],[2,0],[0]]","2","[[3,0,0],[2,1],[0]]","9","0","","","","","","3","","","","","","","","",""
"","","","","","single-stim-button","147","454482","0.0-2.0-37.2-0.2","5ba184ad35768a0001437bdc","A3","batch1","","692","tol_tohand","","","","tol_peg_1","692","692","0","[[3,0,0],[2,0],[0]]","3","[[3,0,0],[2,1],[0]]","9","0","","","","","","3","","","","","","","","",""
"","","","","","single-stim-button","148","455054","0.0-2.0-37.2-1.2","5ba184ad35768a0001437bdc","A3","batch1","","572","tol_toboard","","","","tol_peg_2","572","572","0","[[3,0,0],[2,1],[0]]","3","[[3,0,0],[2,1],[0]]","9","0","","","","","","3","","","","","","","","",""
"","","","","","poldrack-single-stim","149","456055","0.0-2.0-38.0","5ba184ad35768a0001437bdc","A3","batch1","","-1","tol_feedback","","","true","","1000","1000","500","","","","","","-1","none","true","3624","5194","","","","","","","","","",""
"","","","","","html-button-response","150","456842","0.0-2.0-39.0","5ba184ad35768a0001437bdc","A3","batch1","","786.4000000059605","tol_trial_num","<div class = centerbox><p class = center-block-text>problem <strong>11</strong> out of 25 problems</p></div>","0","","","","","","","","","","","","","","","","","","","","","","","","",""
"","","","","","single-stim-button","151","463461","0.0-2.0-40.0-0.0","5ba184ad35768a0001437bdc","A3","batch1","","6618","tol_tohand","","","","tol_peg_1","6618","6618","0","[[1,0,0],[3,0],[0]]","1","[[2,0,0],[1,3],[0]]","10","0","","","","","","6","","","","","","","","",""
"","","","","","single-stim-button","152","464159","0.0-2.0-40.0-1.0","5ba184ad35768a0001437bdc","A3","batch1","","697","tol_toboard","","","","tol_peg_3","697","697","0","[[1,0,0],[3,0],[2]]","1","[[2,0,0],[1,3],[0]]","10","0","","","","","","6","","","","","","","","",""
"","","","","","single-stim-button","153","467548","0.0-2.0-40.1-0.1","5ba184ad35768a0001437bdc","A3","batch1","","3388","tol_tohand","","","","tol_peg_1","3388","3388","0","[[0,0,0],[3,0],[2]]","2","[[2,0,0],[1,3],[0]]","10","0","","","","","","6","","","","","","","","",""
"","","","","","single-stim-button","154","468632","0.0-2.0-40.1-1.1","5ba184ad35768a0001437bdc","A3","batch1","","1084","tol_toboard","","","","tol_peg_2","1084","1084","0","[[0,0,0],[3,1],[2]]","2","[[2,0,0],[1,3],[0]]","10","0","","","","","","6","","","","","","","","",""
"","","","","","single-stim-button","155","469116","0.0-2.0-40.2-0.2","5ba184ad35768a0001437bdc","A3","batch1","","483","tol_tohand","","","","tol_peg_3","483","483","0","[[0,0,0],[3,1],[0]]","3","[[2,0,0],[1,3],[0]]","10","0","","","","","","6","","","","","","","","",""
"","","","","","single-stim-button","156","469704","0.0-2.0-40.2-1.2","5ba184ad35768a0001437bdc","A3","batch1","","588","tol_toboard","","","","tol_peg_1","588","588","0","[[2,0,0],[3,1],[0]]","3","[[2,0,0],[1,3],[0]]","10","0","","","","","","6","","","","","","","","",""
"","","","","","single-stim-button","157","471222","0.0-2.0-40.3-0.3","5ba184ad35768a0001437bdc","A3","batch1","","1518","tol_tohand","","","","tol_peg_2","1518","1518","0","[[2,0,0],[3,0],[0]]","4","[[2,0,0],[1,3],[0]]","10","0","","","","","","6","","","","","","","","",""
"","","","","","single-stim-button","158","472002","0.0-2.0-40.3-1.3","5ba184ad35768a0001437bdc","A3","batch1","","780","tol_toboard","","","","tol_peg_3","780","780","0","[[2,0,0],[3,0],[1]]","4","[[2,0,0],[1,3],[0]]","10","0","","","","","","6","","","","","","","","",""
"","","","","","single-stim-button","159","472638","0.0-2.0-40.4-0.4","5ba184ad35768a0001437bdc","A3","batch1","","636","tol_tohand","","","","tol_peg_2","636","636","0","[[2,0,0],[0,0],[1]]","5","[[2,0,0],[1,3],[0]]","10","0","","","","","","6","","","","","","","","",""
"","","","","","single-stim-button","160","473082","0.0-2.0-40.4-1.4","5ba184ad35768a0001437bdc","A3","batch1","","443","tol_toboard","","","","tol_peg_1","443","443","0","[[2,3,0],[0,0],[1]]","5","[[2,0,0],[1,3],[0]]","10","0","","","","","","6","","","","","","","","",""
"","","","","","single-stim-button","161","473590","0.0-2.0-40.5-0.5","5ba184ad35768a0001437bdc","A3","batch1","","508","tol_tohand","","","","tol_peg_3","508","508","0","[[2,3,0],[0,0],[0]]","6","[[2,0,0],[1,3],[0]]","10","0","","","","","","6","","","","","","","","",""
"","","","","","single-stim-button","162","474178","0.0-2.0-40.5-1.5","5ba184ad35768a0001437bdc","A3","batch1","","587","tol_toboard","","","","tol_peg_2","587","587","0","[[2,3,0],[1,0],[0]]","6","[[2,0,0],[1,3],[0]]","10","0","","","","","","6","","","","","","","","",""
"","","","","","single-stim-button","163","475644","0.0-2.0-40.6-0.6","5ba184ad35768a0001437bdc","A3","batch1","","1466","tol_tohand","","","","tol_peg_1","1466","1466","0","[[2,0,0],[1,0],[0]]","7","[[2,0,0],[1,3],[0]]","10","0","","","","","","6","","","","","","","","",""
"","","","","","single-stim-button","164","476260","0.0-2.0-40.6-1.6","5ba184ad35768a0001437bdc","A3","batch1","","616","tol_toboard","","","","tol_peg_2","616","616","0","[[2,0,0],[1,3],[0]]","7","[[2,0,0],[1,3],[0]]","10","0","","","","","","6","","","","","","","","",""
"","","","","","poldrack-single-stim","165","477276","0.0-2.0-41.0","5ba184ad35768a0001437bdc","A3","batch1","","-1","tol_feedback","","","true","","1000","1000","500","","","","","","-1","none","true","6618","14617","","","","","","","","","",""
"","","","","","html-button-response","166","477952","0.0-2.0-42.0","5ba184ad35768a0001437bdc","A3","batch1","","676","tol_trial_num","<div class = centerbox><p class = center-block-text>problem <strong>12</strong> out of 25 problems</p></div>","0","","","","","","","","","","","","","","","","","","","","","","","","",""
"","","","","","single-stim-button","167","481636","0.0-2.0-43.0-0.0","5ba184ad35768a0001437bdc","A3","batch1","","3682","tol_tohand","","","","tol_peg_1","3682","3682","0","[[1,0,0],[3,0],[0]]","1","[[2,3,0],[0,0],[1]]","11","0","","","","","","4","","","","","","","","",""
"","","","","","single-stim-button","168","482192","0.0-2.0-43.0-1.0","5ba184ad35768a0001437bdc","A3","batch1","","555","tol_toboard","","","","tol_peg_2","555","555","0","[[1,0,0],[3,2],[0]]","1","[[2,3,0],[0,0],[1]]","11","0","","","","","","4","","","","","","","","",""
"","","","","","single-stim-button","169","482875","0.0-2.0-43.1-0.1","5ba184ad35768a0001437bdc","A3","batch1","","683","tol_tohand","","","","tol_peg_1","683","683","0","[[0,0,0],[3,2],[0]]","2","[[2,3,0],[0,0],[1]]","11","0","","","","","","4","","","","","","","","",""
"","","","","","single-stim-button","170","484107","0.0-2.0-43.1-1.1","5ba184ad35768a0001437bdc","A3","batch1","","1231","tol_toboard","","","","tol_peg_3","1231","1231","0","[[0,0,0],[3,2],[1]]","2","[[2,3,0],[0,0],[1]]","11","0","","","","","","4","","","","","","","","",""
"","","","","","single-stim-button","171","486444","0.0-2.0-43.2-0.2","5ba184ad35768a0001437bdc","A3","batch1","","2337","tol_tohand","","","","tol_peg_2","2337","2337","0","[[0,0,0],[3,0],[1]]","3","[[2,3,0],[0,0],[1]]","11","0","","","","","","4","","","","","","","","",""
"","","","","","single-stim-button","172","487441","0.0-2.0-43.2-1.2","5ba184ad35768a0001437bdc","A3","batch1","","996","tol_toboard","","","","tol_peg_1","996","996","0","[[2,0,0],[3,0],[1]]","3","[[2,3,0],[0,0],[1]]","11","0","","","","","","4","","","","","","","","",""
"","","","","","single-stim-button","173","489874","0.0-2.0-43.3-0.3","5ba184ad35768a0001437bdc","A3","batch1","","2432","tol_tohand","","","","tol_peg_2","2432","2432","0","[[2,0,0],[0,0],[1]]","4","[[2,3,0],[0,0],[1]]","11","0","","","","","","4","","","","","","","","",""
"","","","","","single-stim-button","174","490630","0.0-2.0-43.3-1.3","5ba184ad35768a0001437bdc","A3","batch1","","755","tol_toboard","","","","tol_peg_1","755","755","0","[[2,3,0],[0,0],[1]]","4","[[2,3,0],[0,0],[1]]","11","0","","","","","","4","","","","","","","","",""
"","","","","","poldrack-single-stim","175","491637","0.0-2.0-44.0","5ba184ad35768a0001437bdc","A3","batch1","","-1","tol_feedback","","","true","","1000","1000","500","","","","","","-1","none","true","3682","9134","","","","","","","","","",""
"","","","","","html-button-response","176","494884","0.0-2.0-45.0","5ba184ad35768a0001437bdc","A3","batch1","","3246.199999988079","tol_trial_num","<div class = centerbox><p class = center-block-text>problem <strong>13</strong> out of 25 problems</p></div>","0","","","","","","","","","","","","","","","","","","","","","","","","",""
"","","","","","single-stim-button","177","502959","0.0-2.0-46.0-0.0","5ba184ad35768a0001437bdc","A3","batch1","","8074","tol_tohand","","","","tol_peg_2","8074","8074","0","[[1,2,0],[0,0],[0]]","1","[[0,0,0],[2,3],[1]]","12","0","","","","","","4","","","","","","","","",""
"","","","","","single-stim-button","178","503632","0.0-2.0-46.0-1.0","5ba184ad35768a0001437bdc","A3","batch1","","672","tol_toboard","","","","tol_peg_3","672","672","0","[[1,2,0],[0,0],[3]]","1","[[0,0,0],[2,3],[1]]","12","0","","","","","","4","","","","","","","","",""
"","","","","","single-stim-button","179","504233","0.0-2.0-46.1-0.1","5ba184ad35768a0001437bdc","A3","batch1","","601","tol_tohand","","","","tol_peg_1","601","601","0","[[1,0,0],[0,0],[3]]","2","[[0,0,0],[2,3],[1]]","12","0","","","","","","4","","","","","","","","",""
"","","","","","single-stim-button","180","504929","0.0-2.0-46.1-1.1","5ba184ad35768a0001437bdc","A3","batch1","","695","tol_toboard","","","","tol_peg_2","695","695","0","[[1,0,0],[2,0],[3]]","2","[[0,0,0],[2,3],[1]]","12","0","","","","","","4","","","","","","","","",""
"","","","","","single-stim-button","181","506194","0.0-2.0-46.2-0.2","5ba184ad35768a0001437bdc","A3","batch1","","1264","tol_tohand","","","","tol_peg_3","1264","1264","0","[[1,0,0],[2,0],[0]]","3","[[0,0,0],[2,3],[1]]","12","0","","","","","","4","","","","","","","","",""
"","","","","","single-stim-button","182","506782","0.0-2.0-46.2-1.2","5ba184ad35768a0001437bdc","A3","batch1","","587","tol_toboard","","","","tol_peg_2","587","587","0","[[1,0,0],[2,3],[0]]","3","[[0,0,0],[2,3],[1]]","12","0","","","","","","4","","","","","","","","",""
"","","","","","single-stim-button","183","507402","0.0-2.0-46.3-0.3","5ba184ad35768a0001437bdc","A3","batch1","","619","tol_tohand","","","","tol_peg_1","619","619","0","[[0,0,0],[2,3],[0]]","4","[[0,0,0],[2,3],[1]]","12","0","","","","","","4","","","","","","","","",""
"","","","","","single-stim-button","184","508086","0.0-2.0-46.3-1.3","5ba184ad35768a0001437bdc","A3","batch1","","684","tol_toboard","","","","tol_peg_3","684","684","0","[[0,0,0],[2,3],[1]]","4","[[0,0,0],[2,3],[1]]","12","0","","","","","","4","","","","","","","","",""
"","","","","","poldrack-single-stim","185","509097","0.0-2.0-47.0","5ba184ad35768a0001437bdc","A3","batch1","","-1","tol_feedback","","","true","","1000","1000","500","","","","","","-1","none","true","8074","10558","","","","","","","","","",""
"","","","","","html-button-response","186","515236","0.0-2.0-48.0","5ba184ad35768a0001437bdc","A3","batch1","","6138.4000000059605","attention_check","<p class = block-text>How many balls are in your board<br></p>","1","true","","","","","","","","","","","","","","","","","","","","","","","",""
"","","","","","html-button-response","187","516170","0.0-2.0-49.0","5ba184ad35768a0001437bdc","A3","batch1","","933.1000000238419","tol_trial_num","<div class = centerbox><p class = center-block-text>problem <strong>14</strong> out of 25 problems</p></div>","0","","","","","","","","","","","","","","","","","","","","","","","","",""
"","","","","","single-stim-button","188","521257","0.0-2.0-50.0-0.0","5ba184ad35768a0001437bdc","A3","batch1","","5086","tol_tohand","","","","tol_peg_1","5086","5086","0","[[2,0,0],[3,0],[0]]","1","[[1,2,0],[3,0],[0]]","13","0","","","","","","4","","","","","","","","",""
"","","","","","single-stim-button","189","524326","0.0-2.0-50.0-1.0","5ba184ad35768a0001437bdc","A3","batch1","","3068","tol_toboard","","","","tol_peg_2","3068","3068","0","[[2,0,0],[3,1],[0]]","1","[[1,2,0],[3,0],[0]]","13","0","","","","","","4","","","","","","","","",""
"","","","","","single-stim-button","190","524921","0.0-2.0-50.1-0.1","5ba184ad35768a0001437bdc","A3","batch1","","595","tol_tohand","","","","tol_peg_1","595","595","0","[[0,0,0],[3,1],[0]]","2","[[1,2,0],[3,0],[0]]","13","0","","","","","","4","","","","","","","","",""
"","","","","","single-stim-button","191","525713","0.0-2.0-50.1-1.1","5ba184ad35768a0001437bdc","A3","batch1","","791","tol_toboard","","","","tol_peg_3","791","791","0","[[0,0,0],[3,1],[2]]","2","[[1,2,0],[3,0],[0]]","13","0","","","","","","4","","","","","","","","",""
"","","","","","single-stim-button","192","526189","0.0-2.0-50.2-0.2","5ba184ad35768a0001437bdc","A3","batch1","","475","tol_tohand","","","","tol_peg_2","475","475","0","[[0,0,0],[3,0],[2]]","3","[[1,2,0],[3,0],[0]]","13","0","","","","","","4","","","","","","","","",""
"","","","","","single-stim-button","193","526657","0.0-2.0-50.2-1.2","5ba184ad35768a0001437bdc","A3","batch1","","467","tol_toboard","","","","tol_peg_1","467","467","0","[[1,0,0],[3,0],[2]]","3","[[1,2,0],[3,0],[0]]","13","0","","","","","","4","","","","","","","","",""
"","","","","","single-stim-button","194","527216","0.0-2.0-50.3-0.3","5ba184ad35768a0001437bdc","A3","batch1","","557","tol_tohand","","","","tol_peg_3","557","557","0","[[1,0,0],[3,0],[0]]","4","[[1,2,0],[3,0],[0]]","13","0","","","","","","4","","","","","","","","",""
"","","","","","single-stim-button","195","527744","0.0-2.0-50.3-1.3","5ba184ad35768a0001437bdc","A3","batch1","","528","tol_toboard","","","","tol_peg_1","528","528","0","[[1,2,0],[3,0],[0]]","4","[[1,2,0],[3,0],[0]]","13","0","","","","","","4","","","","","","","","",""
"","","","","","poldrack-single-stim","196","528746","0.0-2.0-51.0","5ba184ad35768a0001437bdc","A3","batch1","","-1","tol_feedback","","","true","","1000","1000","500","","","","","","-1","none","true","5086","6713","","","","","","","","","",""
"","","","","","html-button-response","197","529636","0.0-2.0-52.0","5ba184ad35768a0001437bdc","A3","batch1","","888.7999999821186","tol_trial_num","<div class = centerbox><p class = center-block-text>problem <strong>15</strong> out of 25 problems</p></div>","0","","","","","","","","","","","","","","","","","","","","","","","","",""
"","","","","","single-stim-button","198","531993","0.0-2.0-53.0-0.0","5ba184ad35768a0001437bdc","A3","batch1","","2356","tol_tohand","","","","tol_peg_1","2356","2356","0","[[1,0,0],[3,0],[0]]","1","[[2,0,0],[3,0],[1]]","14","0","","","","","","3","","","","","","","","",""
"","","","","","single-stim-button","199","532714","0.0-2.0-53.0-1.0","5ba184ad35768a0001437bdc","A3","batch1","","721","tol_toboard","","","","tol_peg_2","721","721","0","[[1,0,0],[3,2],[0]]","1","[[2,0,0],[3,0],[1]]","14","0","","","","","","3","","","","","","","","",""
"","","","","","single-stim-button","200","533206","0.0-2.0-53.1-0.1","5ba184ad35768a0001437bdc","A3","batch1","","491","tol_tohand","","","","tol_peg_1","491","491","0","[[0,0,0],[3,2],[0]]","2","[[2,0,0],[3,0],[1]]","14","0","","","","","","3","","","","","","","","",""
"","","","","","single-stim-button","201","533814","0.0-2.0-53.1-1.1","5ba184ad35768a0001437bdc","A3","batch1","","607","tol_toboard","","","","tol_peg_3","607","607","0","[[0,0,0],[3,2],[1]]","2","[[2,0,0],[3,0],[1]]","14","0","","","","","","3","","","","","","","","",""
"","","","","","single-stim-button","202","534258","0.0-2.0-53.2-0.2","5ba184ad35768a0001437bdc","A3","batch1","","443","tol_tohand","","","","tol_peg_2","443","443","0","[[0,0,0],[3,0],[1]]","3","[[2,0,0],[3,0],[1]]","14","0","","","","","","3","","","","","","","","",""
"","","","","","single-stim-button","203","534890","0.0-2.0-53.2-1.2","5ba184ad35768a0001437bdc","A3","batch1","","631","tol_toboard","","","","tol_peg_1","631","631","0","[[2,0,0],[3,0],[1]]","3","[[2,0,0],[3,0],[1]]","14","0","","","","","","3","","","","","","","","",""
"","","","","","poldrack-single-stim","204","535891","0.0-2.0-54.0","5ba184ad35768a0001437bdc","A3","batch1","","-1","tol_feedback","","","true","","1000","1000","500","","","","","","-1","none","true","2356","3290","","","","","","","","","",""
"","","","","","html-button-response","205","536535","0.0-2.0-55.0","5ba184ad35768a0001437bdc","A3","batch1","","642.5","tol_trial_num","<div class = centerbox><p class = center-block-text>problem <strong>16</strong> out of 25 problems</p></div>","0","","","","","","","","","","","","","","","","","","","","","","","","",""
"","","","","","single-stim-button","206","543097","0.0-2.0-56.0-0.0","5ba184ad35768a0001437bdc","A3","batch1","","6562","tol_tohand","","","","tol_peg_3","6562","6562","0","[[0,0,0],[2,3],[0]]","1","[[2,3,0],[1,0],[0]]","15","0","","","","","","7","","","","","","","","",""
"","","","","","single-stim-button","207","543705","0.0-2.0-56.0-1.0","5ba184ad35768a0001437bdc","A3","batch1","","607","tol_toboard","","","","tol_peg_1","607","607","0","[[1,0,0],[2,3],[0]]","1","[[2,3,0],[1,0],[0]]","15","0","","","","","","7","","","","","","","","",""
"","","","","","single-stim-button","208","544231","0.0-2.0-56.1-0.1","5ba184ad35768a0001437bdc","A3","batch1","","525","tol_tohand","","","","tol_peg_2","525","525","0","[[1,0,0],[2,0],[0]]","2","[[2,3,0],[1,0],[0]]","15","0","","","","","","7","","","","","","","","",""
"","","","","","single-stim-button","209","544823","0.0-2.0-56.1-1.1","5ba184ad35768a0001437bdc","A3","batch1","","591","tol_toboard","","","","tol_peg_3","591","591","0","[[1,0,0],[2,0],[3]]","2","[[2,3,0],[1,0],[0]]","15","0","","","","","","7","","","","","","","","",""
"","","","","","single-stim-button","210","554370","0.0-2.0-56.2-0.2","5ba184ad35768a0001437bdc","A3","batch1","","9547","tol_tohand","","","","tol_peg_1","9547","9547","0","[[0,0,0],[2,0],[3]]","3","[[2,3,0],[1,0],[0]]","15","0","","","","","","7","","","","","","","","",""
"","","","","","single-stim-button","211","554778","0.0-2.0-56.2-1.2","5ba184ad35768a0001437bdc","A3","batch1","","407","tol_toboard","","","","tol_peg_2","407","407","0","[[0,0,0],[2,1],[3]]","3","[[2,3,0],[1,0],[0]]","15","0","","","","","","7","","","","","","","","",""
"","","","","","single-stim-button","212","555256","0.0-2.0-56.3-0.3","5ba184ad35768a0001437bdc","A3","batch1","","477","tol_tohand","","","","tol_peg_3","477","477","0","[[0,0,0],[2,1],[0]]","4","[[2,3,0],[1,0],[0]]","15","0","","","","","","7","","","","","","","","",""
"","","","","","single-stim-button","213","555985","0.0-2.0-56.3-1.3","5ba184ad35768a0001437bdc","A3","batch1","","727","tol_toboard","","","","tol_peg_1","727","727","0","[[3,0,0],[2,1],[0]]","4","[[2,3,0],[1,0],[0]]","15","0","","","","","","7","","","","","","","","",""
"","","","","","single-stim-button","214","556592","0.0-2.0-56.4-0.4","5ba184ad35768a0001437bdc","A3","batch1","","607","tol_tohand","","","","tol_peg_2","607","607","0","[[3,0,0],[2,0],[0]]","5","[[2,3,0],[1,0],[0]]","15","0","","","","","","7","","","","","","","","",""
"","","","","","single-stim-button","215","557221","0.0-2.0-56.4-1.4","5ba184ad35768a0001437bdc","A3","batch1","","628","tol_toboard","","","","tol_peg_3","628","628","0","[[3,0,0],[2,0],[1]]","5","[[2,3,0],[1,0],[0]]","15","0","","","","","","7","","","","","","","","",""
"","","","","","single-stim-button","216","558409","0.0-2.0-56.5-0.5","5ba184ad35768a0001437bdc","A3","batch1","","1188","tol_tohand","","","","tol_peg_1","1188","1188","0","[[0,0,0],[2,0],[1]]","6","[[2,3,0],[1,0],[0]]","15","0","","","","","","7","","","","","","","","",""
"","","","","","single-stim-button","217","562712","0.0-2.0-56.5-1.5","5ba184ad35768a0001437bdc","A3","batch1","","4303","tol_toboard","","","","tol_peg_1","4303","4303","0","[[3,0,0],[2,0],[1]]","6","[[2,3,0],[1,0],[0]]","15","0","","","","","","7","","","","","","","","",""
"","","","","","single-stim-button","218","564172","0.0-2.0-56.6-0.6","5ba184ad35768a0001437bdc","A3","batch1","","1459","tol_tohand","","","","tol_peg_2","1459","1459","0","[[3,0,0],[0,0],[1]]","7","[[2,3,0],[1,0],[0]]","15","0","","","","","","7","","","","","","","","",""
"","","","","","single-stim-button","219","564923","0.0-2.0-56.6-1.6","5ba184ad35768a0001437bdc","A3","batch1","","751","tol_toboard","","","","tol_peg_1","751","751","0","[[3,2,0],[0,0],[1]]","7","[[2,3,0],[1,0],[0]]","15","0","","","","","","7","","","","","","","","",""
"","","","","","single-stim-button","220","565491","0.0-2.0-56.7-0.7","5ba184ad35768a0001437bdc","A3","batch1","","567","tol_tohand","","","","tol_peg_3","567","567","0","[[3,2,0],[0,0],[0]]","8","[[2,3,0],[1,0],[0]]","15","0","","","","","","7","","","","","","","","",""
"","","","","","single-stim-button","221","566004","0.0-2.0-56.7-1.7","5ba184ad35768a0001437bdc","A3","batch1","","513","tol_toboard","","","","tol_peg_2","513","513","0","[[3,2,0],[1,0],[0]]","8","[[2,3,0],[1,0],[0]]","15","0","","","","","","7","","","","","","","","",""
"","","","","","single-stim-button","222","567683","0.0-2.0-56.8-0.8","5ba184ad35768a0001437bdc","A3","batch1","","1678","tol_tohand","","","","tol_peg_1","1678","1678","0","[[3,0,0],[1,0],[0]]","9","[[2,3,0],[1,0],[0]]","15","0","","","","","","7","","","","","","","","",""
"","","","","","single-stim-button","223","568158","0.0-2.0-56.8-1.8","5ba184ad35768a0001437bdc","A3","batch1","","474","tol_toboard","","","","tol_peg_2","474","474","0","[[3,0,0],[1,2],[0]]","9","[[2,3,0],[1,0],[0]]","15","0","","","","","","7","","","","","","","","",""
"","","","","","single-stim-button","224","568818","0.0-2.0-56.9-0.9","5ba184ad35768a0001437bdc","A3","batch1","","659","tol_tohand","","","","tol_peg_1","659","659","0","[[0,0,0],[1,2],[0]]","10","[[2,3,0],[1,0],[0]]","15","0","","","","","","7","","","","","","","","",""
"","","","","","single-stim-button","225","569358","0.0-2.0-56.9-1.9","5ba184ad35768a0001437bdc","A3","batch1","","540","tol_toboard","","","","tol_peg_3","540","540","0","[[0,0,0],[1,2],[3]]","10","[[2,3,0],[1,0],[0]]","15","0","","","","","","7","","","","","","","","",""
"","","","","","single-stim-button","226","569906","0.0-2.0-56.10-0.10","5ba184ad35768a0001437bdc","A3","batch1","","548","tol_tohand","","","","tol_peg_2","548","548","0","[[0,0,0],[1,0],[3]]","11","[[2,3,0],[1,0],[0]]","15","0","","","","","","7","","","","","","","","",""
"","","","","","single-stim-button","227","570494","0.0-2.0-56.10-1.10","5ba184ad35768a0001437bdc","A3","batch1","","588","tol_toboard","","","","tol_peg_1","588","588","0","[[2,0,0],[1,0],[3]]","11","[[2,3,0],[1,0],[0]]","15","0","","","","","","7","","","","","","","","",""
"","","","","","single-stim-button","228","570998","0.0-2.0-56.11-0.11","5ba184ad35768a0001437bdc","A3","batch1","","504","tol_tohand","","","","tol_peg_3","504","504","0","[[2,0,0],[1,0],[0]]","12","[[2,3,0],[1,0],[0]]","15","0","","","","","","7","","","","","","","","",""
"","","","","","single-stim-button","229","571506","0.0-2.0-56.11-1.11","5ba184ad35768a0001437bdc","A3","batch1","","507","tol_toboard","","","","tol_peg_1","507","507","0","[[2,3,0],[1,0],[0]]","12","[[2,3,0],[1,0],[0]]","15","0","","","","","","7","","","","","","","","",""
"","","","","","poldrack-single-stim","230","572521","0.0-2.0-57.0","5ba184ad35768a0001437bdc","A3","batch1","","-1","tol_feedback","","","true","","1000","1000","500","","","","","","-1","none","true","6562","24321","","","","","","","","","",""
"","","","","","html-button-response","231","573180","0.0-2.0-58.0","5ba184ad35768a0001437bdc","A3","batch1","","658.1999999880791","tol_trial_num","<div class = centerbox><p class = center-block-text>problem <strong>17</strong> out of 25 problems</p></div>","0","","","","","","","","","","","","","","","","","","","","","","","","",""
"","","","","","single-stim-button","232","575004","0.0-2.0-59.0-0.0","5ba184ad35768a0001437bdc","A3","batch1","","1823","tol_tohand","","","","tol_peg_2","1823","1823","0","[[1,2,0],[0,0],[0]]","1","[[3,1,0],[2,0],[0]]","16","0","","","","","","5","","","","","","","","",""
"","","","","","single-stim-button","233","575653","0.0-2.0-59.0-1.0","5ba184ad35768a0001437bdc","A3","batch1","","647","tol_toboard","","","","tol_peg_3","647","647","0","[[1,2,0],[0,0],[3]]","1","[[3,1,0],[2,0],[0]]","16","0","","","","","","5","","","","","","","","",""
"","","","","","single-stim-button","234","576177","0.0-2.0-59.1-0.1","5ba184ad35768a0001437bdc","A3","batch1","","523","tol_tohand","","","","tol_peg_1","523","523","0","[[1,0,0],[0,0],[3]]","2","[[3,1,0],[2,0],[0]]","16","0","","","","","","5","","","","","","","","",""
"","","","","","single-stim-button","235","576701","0.0-2.0-59.1-1.1","5ba184ad35768a0001437bdc","A3","batch1","","524","tol_toboard","","","","tol_peg_2","524","524","0","[[1,0,0],[2,0],[3]]","2","[[3,1,0],[2,0],[0]]","16","0","","","","","","5","","","","","","","","",""
"","","","","","single-stim-button","236","577473","0.0-2.0-59.2-0.2","5ba184ad35768a0001437bdc","A3","batch1","","771","tol_tohand","","","","tol_peg_1","771","771","0","[[0,0,0],[2,0],[3]]","3","[[3,1,0],[2,0],[0]]","16","0","","","","","","5","","","","","","","","",""
"","","","","","single-stim-button","237","578019","0.0-2.0-59.2-1.2","5ba184ad35768a0001437bdc","A3","batch1","","546","tol_toboard","","","","tol_peg_2","546","546","0","[[0,0,0],[2,1],[3]]","3","[[3,1,0],[2,0],[0]]","16","0","","","","","","5","","","","","","","","",""
"","","","","","single-stim-button","238","578519","0.0-2.0-59.3-0.3","5ba184ad35768a0001437bdc","A3","batch1","","500","tol_tohand","","","","tol_peg_3","500","500","0","[[0,0,0],[2,1],[0]]","4","[[3,1,0],[2,0],[0]]","16","0","","","","","","5","","","","","","","","",""
"","","","","","single-stim-button","239","579095","0.0-2.0-59.3-1.3","5ba184ad35768a0001437bdc","A3","batch1","","576","tol_toboard","","","","tol_peg_1","576","576","0","[[3,0,0],[2,1],[0]]","4","[[3,1,0],[2,0],[0]]","16","0","","","","","","5","","","","","","","","",""
"","","","","","single-stim-button","240","579619","0.0-2.0-59.4-0.4","5ba184ad35768a0001437bdc","A3","batch1","","523","tol_tohand","","","","tol_peg_2","523","523","0","[[3,0,0],[2,0],[0]]","5","[[3,1,0],[2,0],[0]]","16","0","","","","","","5","","","","","","","","",""
"","","","","","single-stim-button","241","580123","0.0-2.0-59.4-1.4","5ba184ad35768a0001437bdc","A3","batch1","","503","tol_toboard","","","","tol_peg_1","503","503","0","[[3,1,0],[2,0],[0]]","5","[[3,1,0],[2,0],[0]]","16","0","","","","","","5","","","","","","","","",""
"","","","","","poldrack-single-stim","242","581124","0.0-2.0-60.0","5ba184ad35768a0001437bdc","A3","batch1","","-1","tol_feedback","","","true","","1000","1000","500","","","","","","-1","none","true","1823","4140","","","","","","","","","",""
"","","","","","html-button-response","243","581503","0.0-2.0-61.0","5ba184ad35768a0001437bdc","A3","batch1","","378","tol_trial_num","<div class = centerbox><p class = center-block-text>problem <strong>18</strong> out of 25 problems</p></div>","0","","","","","","","","","","","","","","","","","","","","","","","","",""
"","","","","","single-stim-button","244","584762","0.0-2.0-62.0-0.0","5ba184ad35768a0001437bdc","A3","batch1","","3258","tol_tohand","","","","tol_peg_1","3258","3258","0","[[1,0,0],[3,0],[0]]","1","[[3,0,0],[2,0],[1]]","17","0","","","","","","5","","","","","","","","",""
"","","","","","single-stim-button","245","585894","0.0-2.0-62.0-1.0","5ba184ad35768a0001437bdc","A3","batch1","","1132","tol_toboard","","","","tol_peg_2","1132","1132","0","[[1,0,0],[3,2],[0]]","1","[[3,0,0],[2,0],[1]]","17","0","","","","","","5","","","","","","","","",""
"","","","","","single-stim-button","246","586357","0.0-2.0-62.1-0.1","5ba184ad35768a0001437bdc","A3","batch1","","463","tol_tohand","","","","tol_peg_1","463","463","0","[[0,0,0],[3,2],[0]]","2","[[3,0,0],[2,0],[1]]","17","0","","","","","","5","","","","","","","","",""
"","","","","","single-stim-button","247","586910","0.0-2.0-62.1-1.1","5ba184ad35768a0001437bdc","A3","batch1","","551","tol_toboard","","","","tol_peg_3","551","551","0","[[0,0,0],[3,2],[1]]","2","[[3,0,0],[2,0],[1]]","17","0","","","","","","5","","","","","","","","",""
"","","","","","single-stim-button","248","587554","0.0-2.0-62.2-0.2","5ba184ad35768a0001437bdc","A3","batch1","","644","tol_tohand","","","","tol_peg_2","644","644","0","[[0,0,0],[3,0],[1]]","3","[[3,0,0],[2,0],[1]]","17","0","","","","","","5","","","","","","","","",""
"","","","","","single-stim-button","249","591833","0.0-2.0-62.2-1.2","5ba184ad35768a0001437bdc","A3","batch1","","4279","tol_toboard","","","","tol_peg_1","4279","4279","0","[[2,0,0],[3,0],[1]]","3","[[3,0,0],[2,0],[1]]","17","0","","","","","","5","","","","","","","","",""
"","","","","","single-stim-button","250","592368","0.0-2.0-62.3-0.3","5ba184ad35768a0001437bdc","A3","batch1","","535","tol_tohand","","","","tol_peg_3","535","535","0","[[2,0,0],[3,0],[0]]","4","[[3,0,0],[2,0],[1]]","17","0","","","","","","5","","","","","","","","",""
"","","","","","single-stim-button","251","592904","0.0-2.0-62.3-1.3","5ba184ad35768a0001437bdc","A3","batch1","","536","tol_toboard","","","","tol_peg_1","536","536","0","[[2,1,0],[3,0],[0]]","4","[[3,0,0],[2,0],[1]]","17","0","","","","","","5","","","","","","","","",""
"","","","","","single-stim-button","252","593385","0.0-2.0-62.4-0.4","5ba184ad35768a0001437bdc","A3","batch1","","479","tol_tohand","","","","tol_peg_2","479","479","0","[[2,1,0],[0,0],[0]]","5","[[3,0,0],[2,0],[1]]","17","0","","","","","","5","","","","","","","","",""
"","","","","","single-stim-button","253","593976","0.0-2.0-62.4-1.4","5ba184ad35768a0001437bdc","A3","batch1","","591","tol_toboard","","","","tol_peg_3","591","591","0","[[2,1,0],[0,0],[3]]","5","[[3,0,0],[2,0],[1]]","17","0","","","","","","5","","","","","","","","",""
"","","","","","single-stim-button","254","594729","0.0-2.0-62.5-0.5","5ba184ad35768a0001437bdc","A3","batch1","","751","tol_tohand","","","","tol_peg_1","751","751","0","[[2,0,0],[0,0],[3]]","6","[[3,0,0],[2,0],[1]]","17","0","","","","","","5","","","","","","","","",""
"","","","","","single-stim-button","255","595307","0.0-2.0-62.5-1.5","5ba184ad35768a0001437bdc","A3","batch1","","577","tol_toboard","","","","tol_peg_2","577","577","0","[[2,0,0],[1,0],[3]]","6","[[3,0,0],[2,0],[1]]","17","0","","","","","","5","","","","","","","","",""
"","","","","","single-stim-button","256","596010","0.0-2.0-62.6-0.6","5ba184ad35768a0001437bdc","A3","batch1","","703","tol_tohand","","","","tol_peg_1","703","703","0","[[0,0,0],[1,0],[3]]","7","[[3,0,0],[2,0],[1]]","17","0","","","","","","5","","","","","","","","",""
"","","","","","single-stim-button","257","597412","0.0-2.0-62.6-1.6","5ba184ad35768a0001437bdc","A3","batch1","","1400","tol_toboard","","","","tol_peg_2","1400","1400","0","[[0,0,0],[1,2],[3]]","7","[[3,0,0],[2,0],[1]]","17","0","","","","","","5","","","","","","","","",""
"","","","","","single-stim-button","258","597887","0.0-2.0-62.7-0.7","5ba184ad35768a0001437bdc","A3","batch1","","475","tol_tohand","","","","tol_peg_3","475","475","0","[[0,0,0],[1,2],[0]]","8","[[3,0,0],[2,0],[1]]","17","0","","","","","","5","","","","","","","","",""
"","","","","","single-stim-button","259","598655","0.0-2.0-62.7-1.7","5ba184ad35768a0001437bdc","A3","batch1","","768","tol_toboard","","","","tol_peg_1","768","768","0","[[3,0,0],[1,2],[0]]","8","[[3,0,0],[2,0],[1]]","17","0","","","","","","5","","","","","","","","",""
"","","","","","single-stim-button","260","599587","0.0-2.0-62.8-0.8","5ba184ad35768a0001437bdc","A3","batch1","","932","tol_tohand","","","","tol_peg_2","932","932","0","[[3,0,0],[1,0],[0]]","9","[[3,0,0],[2,0],[1]]","17","0","","","","","","5","","","","","","","","",""
"","","","","","single-stim-button","261","600119","0.0-2.0-62.8-1.8","5ba184ad35768a0001437bdc","A3","batch1","","532","tol_toboard","","","","tol_peg_1","532","532","0","[[3,2,0],[1,0],[0]]","9","[[3,0,0],[2,0],[1]]","17","0","","","","","","5","","","","","","","","",""
"","","","","","single-stim-button","262","600701","0.0-2.0-62.9-0.9","5ba184ad35768a0001437bdc","A3","batch1","","582","tol_tohand","","","","tol_peg_2","582","582","0","[[3,2,0],[0,0],[0]]","10","[[3,0,0],[2,0],[1]]","17","0","","","","","","5","","","","","","","","",""
"","","","","","single-stim-button","263","601290","0.0-2.0-62.9-1.9","5ba184ad35768a0001437bdc","A3","batch1","","588","tol_toboard","","","","tol_peg_3","588","588","0","[[3,2,0],[0,0],[1]]","10","[[3,0,0],[2,0],[1]]","17","0","","","","","","5","","","","","","","","",""
"","","","","","single-stim-button","264","601941","0.0-2.0-62.10-0.10","5ba184ad35768a0001437bdc","A3","batch1","","651","tol_tohand","","","","tol_peg_1","651","651","0","[[3,0,0],[0,0],[1]]","11","[[3,0,0],[2,0],[1]]","17","0","","","","","","5","","","","","","","","",""
"","","","","","single-stim-button","265","602473","0.0-2.0-62.10-1.10","5ba184ad35768a0001437bdc","A3","batch1","","532","tol_toboard","","","","tol_peg_2","532","532","0","[[3,0,0],[2,0],[1]]","11","[[3,0,0],[2,0],[1]]","17","0","","","","","","5","","","","","","","","",""
"","","","","","poldrack-single-stim","266","603475","0.0-2.0-63.0","5ba184ad35768a0001437bdc","A3","batch1","","-1","tol_feedback","","","true","","1000","1000","500","","","","","","-1","none","true","3258","9473","","","","","","","","","",""
"","","","","","html-button-response","267","604489","0.0-2.0-64.0","5ba184ad35768a0001437bdc","A3","batch1","","1013.8000000119209","tol_trial_num","<div class = centerbox><p class = center-block-text>problem <strong>19</strong> out of 25 problems</p></div>","0","","","","","","","","","","","","","","","","","","","","","","","","",""
"","","","","","single-stim-button","268","611768","0.0-2.0-65.0-0.0","5ba184ad35768a0001437bdc","A3","batch1","","7278","tol_tohand","","","","tol_peg_2","7278","7278","0","[[1,2,0],[0,0],[0]]","1","[[0,0,0],[1,2],[3]]","18","0","","","","","","7","","","","","","","","",""
"","","","","","single-stim-button","269","612387","0.0-2.0-65.0-1.0","5ba184ad35768a0001437bdc","A3","batch1","","618","tol_toboard","","","","tol_peg_3","618","618","0","[[1,2,0],[0,0],[3]]","1","[[0,0,0],[1,2],[3]]","18","0","","","","","","7","","","","","","","","",""
"","","","","","single-stim-button","270","616523","0.0-2.0-65.1-0.1","5ba184ad35768a0001437bdc","A3","batch1","","4135","tol_tohand","","","","tol_peg_1","4135","4135","0","[[1,0,0],[0,0],[3]]","2","[[0,0,0],[1,2],[3]]","18","0","","","","","","7","","","","","","","","",""
"","","","","","single-stim-button","271","617219","0.0-2.0-65.1-1.1","5ba184ad35768a0001437bdc","A3","batch1","","695","tol_toboard","","","","tol_peg_2","695","695","0","[[1,0,0],[2,0],[3]]","2","[[0,0,0],[1,2],[3]]","18","0","","","","","","7","","","","","","","","",""
"","","","","","single-stim-button","272","618065","0.0-2.0-65.2-0.2","5ba184ad35768a0001437bdc","A3","batch1","","846","tol_tohand","","","","tol_peg_1","846","846","0","[[0,0,0],[2,0],[3]]","3","[[0,0,0],[1,2],[3]]","18","0","","","","","","7","","","","","","","","",""
"","","","","","single-stim-button","273","618781","0.0-2.0-65.2-1.2","5ba184ad35768a0001437bdc","A3","batch1","","716","tol_toboard","","","","tol_peg_2","716","716","0","[[0,0,0],[2,1],[3]]","3","[[0,0,0],[1,2],[3]]","18","0","","","","","","7","","","","","","","","",""
"","","","","","single-stim-button","274","619317","0.0-2.0-65.3-0.3","5ba184ad35768a0001437bdc","A3","batch1","","536","tol_tohand","","","","tol_peg_3","536","536","0","[[0,0,0],[2,1],[0]]","4","[[0,0,0],[1,2],[3]]","18","0","","","","","","7","","","","","","","","",""
"","","","","","single-stim-button","275","620341","0.0-2.0-65.3-1.3","5ba184ad35768a0001437bdc","A3","batch1","","1024","tol_toboard","","","","tol_peg_1","1024","1024","0","[[3,0,0],[2,1],[0]]","4","[[0,0,0],[1,2],[3]]","18","0","","","","","","7","","","","","","","","",""
"","","","","","single-stim-button","276","620977","0.0-2.0-65.4-0.4","5ba184ad35768a0001437bdc","A3","batch1","","636","tol_tohand","","","","tol_peg_2","636","636","0","[[3,0,0],[2,0],[0]]","5","[[0,0,0],[1,2],[3]]","18","0","","","","","","7","","","","","","","","",""
"","","","","","single-stim-button","277","621461","0.0-2.0-65.4-1.4","5ba184ad35768a0001437bdc","A3","batch1","","484","tol_toboard","","","","tol_peg_3","484","484","0","[[3,0,0],[2,0],[1]]","5","[[0,0,0],[1,2],[3]]","18","0","","","","","","7","","","","","","","","",""
"","","","","","single-stim-button","278","621973","0.0-2.0-65.5-0.5","5ba184ad35768a0001437bdc","A3","batch1","","512","tol_tohand","","","","tol_peg_3","512","512","0","[[3,0,0],[2,0],[0]]","6","[[0,0,0],[1,2],[3]]","18","0","","","","","","7","","","","","","","","",""
"","","","","","single-stim-button","279","622581","0.0-2.0-65.5-1.5","5ba184ad35768a0001437bdc","A3","batch1","","607","tol_toboard","","","","tol_peg_1","607","607","0","[[3,1,0],[2,0],[0]]","6","[[0,0,0],[1,2],[3]]","18","0","","","","","","7","","","","","","","","",""
"","","","","","single-stim-button","280","623616","0.0-2.0-65.6-0.6","5ba184ad35768a0001437bdc","A3","batch1","","1035","tol_tohand","","","","tol_peg_2","1035","1035","0","[[3,1,0],[0,0],[0]]","7","[[0,0,0],[1,2],[3]]","18","0","","","","","","7","","","","","","","","",""
"","","","","","single-stim-button","281","624900","0.0-2.0-65.6-1.6","5ba184ad35768a0001437bdc","A3","batch1","","1284","tol_toboard","","","","tol_peg_3","1284","1284","0","[[3,1,0],[0,0],[2]]","7","[[0,0,0],[1,2],[3]]","18","0","","","","","","7","","","","","","","","",""
"","","","","","single-stim-button","282","625391","0.0-2.0-65.7-0.7","5ba184ad35768a0001437bdc","A3","batch1","","491","tol_tohand","","","","tol_peg_1","491","491","0","[[3,0,0],[0,0],[2]]","8","[[0,0,0],[1,2],[3]]","18","0","","","","","","7","","","","","","","","",""
"","","","","","single-stim-button","283","625836","0.0-2.0-65.7-1.7","5ba184ad35768a0001437bdc","A3","batch1","","443","tol_toboard","","","","tol_peg_2","443","443","0","[[3,0,0],[1,0],[2]]","8","[[0,0,0],[1,2],[3]]","18","0","","","","","","7","","","","","","","","",""
"","","","","","single-stim-button","284","626756","0.0-2.0-65.8-0.8","5ba184ad35768a0001437bdc","A3","batch1","","919","tol_tohand","","","","tol_peg_3","919","919","0","[[3,0,0],[1,0],[0]]","9","[[0,0,0],[1,2],[3]]","18","0","","","","","","7","","","","","","","","",""
"","","","","","single-stim-button","285","627204","0.0-2.0-65.8-1.8","5ba184ad35768a0001437bdc","A3","batch1","","448","tol_toboard","","","","tol_peg_2","448","448","0","[[3,0,0],[1,2],[0]]","9","[[0,0,0],[1,2],[3]]","18","0","","","","","","7","","","","","","","","",""
"","","","","","single-stim-button","286","627740","0.0-2.0-65.9-0.9","5ba184ad35768a0001437bdc","A3","batch1","","536","tol_tohand","","","","tol_peg_1","536","536","0","[[0,0,0],[1,2],[0]]","10","[[0,0,0],[1,2],[3]]","18","0","","","","","","7","","","","","","","","",""
"","","","","","single-stim-button","287","628708","0.0-2.0-65.9-1.9","5ba184ad35768a0001437bdc","A3","batch1","","968","tol_toboard","","","","tol_peg_3","968","968","0","[[0,0,0],[1,2],[3]]","10","[[0,0,0],[1,2],[3]]","18","0","","","","","","7","","","","","","","","",""
"","","","","","poldrack-single-stim","288","629709","0.0-2.0-66.0","5ba184ad35768a0001437bdc","A3","batch1","","-1","tol_feedback","","","true","","1000","1000","500","","","","","","-1","none","true","7278","16924","","","","","","","","","",""
"","","","","","html-button-response","289","630299","0.0-2.0-67.0","5ba184ad35768a0001437bdc","A3","batch1","","588.7999999821186","tol_trial_num","<div class = centerbox><p class = center-block-text>problem <strong>20</strong> out of 25 problems</p></div>","0","","","","","","","","","","","","","","","","","","","","","","","","",""
"","","","","","single-stim-button","290","632755","0.0-2.0-68.0-0.0","5ba184ad35768a0001437bdc","A3","batch1","","2456","tol_tohand","","","","tol_peg_2","2456","2456","0","[[1,2,0],[0,0],[0]]","1","[[2,1,0],[0,0],[3]]","19","0","","","","","","5","","","","","","","","",""
"","","","","","single-stim-button","291","634183","0.0-2.0-68.0-1.0","5ba184ad35768a0001437bdc","A3","batch1","","1427","tol_toboard","","","","tol_peg_3","1427","1427","0","[[1,2,0],[0,0],[3]]","1","[[2,1,0],[0,0],[3]]","19","0","","","","","","5","","","","","","","","",""
"","","","","","single-stim-button","292","634853","0.0-2.0-68.1-0.1","5ba184ad35768a0001437bdc","A3","batch1","","669","tol_tohand","","","","tol_peg_1","669","669","0","[[1,0,0],[0,0],[3]]","2","[[2,1,0],[0,0],[3]]","19","0","","","","","","5","","","","","","","","",""
"","","","","","single-stim-button","293","635480","0.0-2.0-68.1-1.1","5ba184ad35768a0001437bdc","A3","batch1","","627","tol_toboard","","","","tol_peg_2","627","627","0","[[1,0,0],[2,0],[3]]","2","[[2,1,0],[0,0],[3]]","19","0","","","","","","5","","","","","","","","",""
"","","","","","single-stim-button","294","636718","0.0-2.0-68.2-0.2","5ba184ad35768a0001437bdc","A3","batch1","","1236","tol_tohand","","","","tol_peg_1","1236","1236","0","[[0,0,0],[2,0],[3]]","3","[[2,1,0],[0,0],[3]]","19","0","","","","","","5","","","","","","","","",""
"","","","","","single-stim-button","295","637249","0.0-2.0-68.2-1.2","5ba184ad35768a0001437bdc","A3","batch1","","530","tol_toboard","","","","tol_peg_2","530","530","0","[[0,0,0],[2,1],[3]]","3","[[2,1,0],[0,0],[3]]","19","0","","","","","","5","","","","","","","","",""
"","","","","","single-stim-button","296","637865","0.0-2.0-68.3-0.3","5ba184ad35768a0001437bdc","A3","batch1","","616","tol_tohand","","","","tol_peg_3","616","616","0","[[0,0,0],[2,1],[0]]","4","[[2,1,0],[0,0],[3]]","19","0","","","","","","5","","","","","","","","",""
"","","","","","single-stim-button","297","638481","0.0-2.0-68.3-1.3","5ba184ad35768a0001437bdc","A3","batch1","","615","tol_toboard","","","","tol_peg_1","615","615","0","[[3,0,0],[2,1],[0]]","4","[[2,1,0],[0,0],[3]]","19","0","","","","","","5","","","","","","","","",""
"","","","","","single-stim-button","298","638929","0.0-2.0-68.4-0.4","5ba184ad35768a0001437bdc","A3","batch1","","448","tol_tohand","","","","tol_peg_2","448","448","0","[[3,0,0],[2,0],[0]]","5","[[2,1,0],[0,0],[3]]","19","0","","","","","","5","","","","","","","","",""
"","","","","","single-stim-button","299","639638","0.0-2.0-68.4-1.4","5ba184ad35768a0001437bdc","A3","batch1","","708","tol_toboard","","","","tol_peg_3","708","708","0","[[3,0,0],[2,0],[1]]","5","[[2,1,0],[0,0],[3]]","19","0","","","","","","5","","","","","","","","",""
"","","","","","single-stim-button","300","640137","0.0-2.0-68.5-0.5","5ba184ad35768a0001437bdc","A3","batch1","","499","tol_tohand","","","","tol_peg_2","499","499","0","[[3,0,0],[0,0],[1]]","6","[[2,1,0],[0,0],[3]]","19","0","","","","","","5","","","","","","","","",""
"","","","","","single-stim-button","301","653524","0.0-2.0-68.5-1.5","5ba184ad35768a0001437bdc","A3","batch1","","13387","tol_toboard","","","","tol_peg_2","13387","13387","0","[[3,0,0],[2,0],[1]]","6","[[2,1,0],[0,0],[3]]","19","0","","","","","","5","","","","","","","","",""
"","","","","","single-stim-button","302","657192","0.0-2.0-68.6-0.6","5ba184ad35768a0001437bdc","A3","batch1","","3667","tol_tohand","","","","tol_peg_1","3667","3667","0","[[0,0,0],[2,0],[1]]","7","[[2,1,0],[0,0],[3]]","19","0","","","","","","5","","","","","","","","",""
"","","","","","single-stim-button","303","657791","0.0-2.0-68.6-1.6","5ba184ad35768a0001437bdc","A3","batch1","","598","tol_toboard","","","","tol_peg_2","598","598","0","[[0,0,0],[2,3],[1]]","7","[[2,1,0],[0,0],[3]]","19","0","","","","","","5","","","","","","","","",""
"","","","","","single-stim-button","304","658307","0.0-2.0-68.7-0.7","5ba184ad35768a0001437bdc","A3","batch1","","516","tol_tohand","","","","tol_peg_3","516","516","0","[[0,0,0],[2,3],[0]]","8","[[2,1,0],[0,0],[3]]","19","0","","","","","","5","","","","","","","","",""
"","","","","","single-stim-button","305","658995","0.0-2.0-68.7-1.7","5ba184ad35768a0001437bdc","A3","batch1","","688","tol_toboard","","","","tol_peg_1","688","688","0","[[1,0,0],[2,3],[0]]","8","[[2,1,0],[0,0],[3]]","19","0","","","","","","5","","","","","","","","",""
"","","","","","single-stim-button","306","659459","0.0-2.0-68.8-0.8","5ba184ad35768a0001437bdc","A3","batch1","","464","tol_tohand","","","","tol_peg_2","464","464","0","[[1,0,0],[2,0],[0]]","9","[[2,1,0],[0,0],[3]]","19","0","","","","","","5","","","","","","","","",""
"","","","","","single-stim-button","307","660699","0.0-2.0-68.8-1.8","5ba184ad35768a0001437bdc","A3","batch1","","1239","tol_toboard","","","","tol_peg_3","1239","1239","0","[[1,0,0],[2,0],[3]]","9","[[2,1,0],[0,0],[3]]","19","0","","","","","","5","","","","","","","","",""
"","","","","","single-stim-button","308","662415","0.0-2.0-68.9-0.9","5ba184ad35768a0001437bdc","A3","batch1","","1716","tol_tohand","","","","tol_peg_3","1716","1716","0","[[1,0,0],[2,0],[0]]","10","[[2,1,0],[0,0],[3]]","19","0","","","","","","5","","","","","","","","",""
"","","","","","single-stim-button","309","663797","0.0-2.0-68.9-1.9","5ba184ad35768a0001437bdc","A3","batch1","","1381","tol_toboard","","","","tol_peg_2","1381","1381","0","[[1,0,0],[2,3],[0]]","10","[[2,1,0],[0,0],[3]]","19","0","","","","","","5","","","","","","","","",""
"","","","","","single-stim-button","310","664298","0.0-2.0-68.10-0.10","5ba184ad35768a0001437bdc","A3","batch1","","499","tol_tohand","","","","tol_peg_1","499","499","0","[[0,0,0],[2,3],[0]]","11","[[2,1,0],[0,0],[3]]","19","0","","","","","","5","","","","","","","","",""
"","","","","","single-stim-button","311","664818","0.0-2.0-68.10-1.10","5ba184ad35768a0001437bdc","A3","batch1","","519","tol_toboard","","","","tol_peg_3","519","519","0","[[0,0,0],[2,3],[1]]","11","[[2,1,0],[0,0],[3]]","19","0","","","","","","5","","","","","","","","",""
"","","","","","single-stim-button","312","667446","0.0-2.0-68.11-0.11","5ba184ad35768a0001437bdc","A3","batch1","","2628","tol_tohand","","","","tol_peg_2","2628","2628","0","[[0,0,0],[2,0],[1]]","12","[[2,1,0],[0,0],[3]]","19","0","","","","","","5","","","","","","","","",""
"","","","","","single-stim-button","313","668407","0.0-2.0-68.11-1.11","5ba184ad35768a0001437bdc","A3","batch1","","960","tol_toboard","","","","tol_peg_1","960","960","0","[[3,0,0],[2,0],[1]]","12","[[2,1,0],[0,0],[3]]","19","0","","","","","","5","","","","","","","","",""
"","","","","","single-stim-button","314","669905","0.0-2.0-68.12-0.12","5ba184ad35768a0001437bdc","A3","batch1","","1498","tol_tohand","","","","tol_peg_2","1498","1498","0","[[3,0,0],[0,0],[1]]","13","[[2,1,0],[0,0],[3]]","19","0","","","","","","5","","","","","","","","",""
"","","","","","single-stim-button","315","673517","0.0-2.0-68.12-1.12","5ba184ad35768a0001437bdc","A3","batch1","","3612","tol_toboard","","","","tol_peg_1","3612","3612","0","[[3,2,0],[0,0],[1]]","13","[[2,1,0],[0,0],[3]]","19","0","","","","","","5","","","","","","","","",""
"","","","","","single-stim-button","316","674124","0.0-2.0-68.13-0.13","5ba184ad35768a0001437bdc","A3","batch1","","606","tol_tohand","","","","tol_peg_3","606","606","0","[[3,2,0],[0,0],[0]]","14","[[2,1,0],[0,0],[3]]","19","0","","","","","","5","","","","","","","","",""
"","","","","","single-stim-button","317","674755","0.0-2.0-68.13-1.13","5ba184ad35768a0001437bdc","A3","batch1","","629","tol_toboard","","","","tol_peg_2","629","629","0","[[3,2,0],[1,0],[0]]","14","[[2,1,0],[0,0],[3]]","19","0","","","","","","5","","","","","","","","",""
"","","","","","single-stim-button","318","675635","0.0-2.0-68.14-0.14","5ba184ad35768a0001437bdc","A3","batch1","","880","tol_tohand","","","","tol_peg_1","880","880","0","[[3,0,0],[1,0],[0]]","15","[[2,1,0],[0,0],[3]]","19","0","","","","","","5","","","","","","","","",""
"","","","","","single-stim-button","319","676187","0.0-2.0-68.14-1.14","5ba184ad35768a0001437bdc","A3","batch1","","552","tol_toboard","","","","tol_peg_2","552","552","0","[[3,0,0],[1,2],[0]]","15","[[2,1,0],[0,0],[3]]","19","0","","","","","","5","","","","","","","","",""
"","","","","","single-stim-button","320","677039","0.0-2.0-68.15-0.15","5ba184ad35768a0001437bdc","A3","batch1","","851","tol_tohand","","","","tol_peg_1","851","851","0","[[0,0,0],[1,2],[0]]","16","[[2,1,0],[0,0],[3]]","19","0","","","","","","5","","","","","","","","",""
"","","","","","single-stim-button","321","677811","0.0-2.0-68.15-1.15","5ba184ad35768a0001437bdc","A3","batch1","","772","tol_toboard","","","","tol_peg_3","772","772","0","[[0,0,0],[1,2],[3]]","16","[[2,1,0],[0,0],[3]]","19","0","","","","","","5","","","","","","","","",""
"","","","","","single-stim-button","322","678511","0.0-2.0-68.16-0.16","5ba184ad35768a0001437bdc","A3","batch1","","700","tol_tohand","","","","tol_peg_2","700","700","0","[[0,0,0],[1,0],[3]]","17","[[2,1,0],[0,0],[3]]","19","0","","","","","","5","","","","","","","","",""
"","","","","","single-stim-button","323","679004","0.0-2.0-68.16-1.16","5ba184ad35768a0001437bdc","A3","batch1","","493","tol_toboard","","","","tol_peg_1","493","493","0","[[2,0,0],[1,0],[3]]","17","[[2,1,0],[0,0],[3]]","19","0","","","","","","5","","","","","","","","",""
"","","","","","single-stim-button","324","679631","0.0-2.0-68.17-0.17","5ba184ad35768a0001437bdc","A3","batch1","","627","tol_tohand","","","","tol_peg_2","627","627","0","[[2,0,0],[0,0],[3]]","18","[[2,1,0],[0,0],[3]]","19","0","","","","","","5","","","","","","","","",""
"","","","","","single-stim-button","325","680233","0.0-2.0-68.17-1.17","5ba184ad35768a0001437bdc","A3","batch1","","602","tol_toboard","","","","tol_peg_1","602","602","0","[[2,1,0],[0,0],[3]]","18","[[2,1,0],[0,0],[3]]","19","0","","","","","","5","","","","","","","","",""
"","","","","","poldrack-single-stim","326","681234","0.0-2.0-69.0","5ba184ad35768a0001437bdc","A3","batch1","","-1","tol_feedback","","","true","","1000","1000","500","","","","","","-1","none","true","2456","20576","","","","","","","","","",""
"","","","","","html-button-response","327","681853","0.0-2.0-70.0","5ba184ad35768a0001437bdc","A3","batch1","","618.7999999821186","tol_trial_num","<div class = centerbox><p class = center-block-text>problem <strong>21</strong> out of 25 problems</p></div>","0","","","","","","","","","","","","","","","","","","","","","","","","",""
"","","","","","single-stim-button","328","684570","0.0-2.0-71.0-0.0","5ba184ad35768a0001437bdc","A3","batch1","","2716","tol_tohand","","","","tol_peg_1","2716","2716","0","[[1,0,0],[3,0],[0]]","1","[[3,2,0],[0,0],[1]]","20","0","","","","","","6","","","","","","","","",""
"","","","","","single-stim-button","329","685354","0.0-2.0-71.0-1.0","5ba184ad35768a0001437bdc","A3","batch1","","783","tol_toboard","","","","tol_peg_3","783","783","0","[[1,0,0],[3,0],[2]]","1","[[3,2,0],[0,0],[1]]","20","0","","","","","","6","","","","","","","","",""
"","","","","","single-stim-button","330","685924","0.0-2.0-71.1-0.1","5ba184ad35768a0001437bdc","A3","batch1","","569","tol_tohand","","","","tol_peg_1","569","569","0","[[0,0,0],[3,0],[2]]","2","[[3,2,0],[0,0],[1]]","20","0","","","","","","6","","","","","","","","",""
"","","","","","single-stim-button","331","686413","0.0-2.0-71.1-1.1","5ba184ad35768a0001437bdc","A3","batch1","","488","tol_toboard","","","","tol_peg_2","488","488","0","[[0,0,0],[3,1],[2]]","2","[[3,2,0],[0,0],[1]]","20","0","","","","","","6","","","","","","","","",""
"","","","","","single-stim-button","332","689976","0.0-2.0-71.2-0.2","5ba184ad35768a0001437bdc","A3","batch1","","3563","tol_tohand","","","","tol_peg_2","3563","3563","0","[[0,0,0],[3,0],[2]]","3","[[3,2,0],[0,0],[1]]","20","0","","","","","","6","","","","","","","","",""
"","","","","","single-stim-button","333","691304","0.0-2.0-71.2-1.2","5ba184ad35768a0001437bdc","A3","batch1","","1327","tol_toboard","","","","tol_peg_1","1327","1327","0","[[1,0,0],[3,0],[2]]","3","[[3,2,0],[0,0],[1]]","20","0","","","","","","6","","","","","","","","",""
"","","","","","single-stim-button","334","691823","0.0-2.0-71.3-0.3","5ba184ad35768a0001437bdc","A3","batch1","","518","tol_tohand","","","","tol_peg_2","518","518","0","[[1,0,0],[0,0],[2]]","4","[[3,2,0],[0,0],[1]]","20","0","","","","","","6","","","","","","","","",""
"","","","","","single-stim-button","335","692602","0.0-2.0-71.3-1.3","5ba184ad35768a0001437bdc","A3","batch1","","779","tol_toboard","","","","tol_peg_1","779","779","0","[[1,3,0],[0,0],[2]]","4","[[3,2,0],[0,0],[1]]","20","0","","","","","","6","","","","","","","","",""
"","","","","","single-stim-button","336","695467","0.0-2.0-71.4-0.4","5ba184ad35768a0001437bdc","A3","batch1","","2864","tol_tohand","","","","tol_peg_3","2864","2864","0","[[1,3,0],[0,0],[0]]","5","[[3,2,0],[0,0],[1]]","20","0","","","","","","6","","","","","","","","",""
"","","","","","single-stim-button","337","696051","0.0-2.0-71.4-1.4","5ba184ad35768a0001437bdc","A3","batch1","","584","tol_toboard","","","","tol_peg_2","584","584","0","[[1,3,0],[2,0],[0]]","5","[[3,2,0],[0,0],[1]]","20","0","","","","","","6","","","","","","","","",""
"","","","","","single-stim-button","338","696511","0.0-2.0-71.5-0.5","5ba184ad35768a0001437bdc","A3","batch1","","459","tol_tohand","","","","tol_peg_1","459","459","0","[[1,0,0],[2,0],[0]]","6","[[3,2,0],[0,0],[1]]","20","0","","","","","","6","","","","","","","","",""
"","","","","","single-stim-button","339","697031","0.0-2.0-71.5-1.5","5ba184ad35768a0001437bdc","A3","batch1","","520","tol_toboard","","","","tol_peg_2","520","520","0","[[1,0,0],[2,3],[0]]","6","[[3,2,0],[0,0],[1]]","20","0","","","","","","6","","","","","","","","",""
"","","","","","single-stim-button","340","697525","0.0-2.0-71.6-0.6","5ba184ad35768a0001437bdc","A3","batch1","","493","tol_tohand","","","","tol_peg_1","493","493","0","[[0,0,0],[2,3],[0]]","7","[[3,2,0],[0,0],[1]]","20","0","","","","","","6","","","","","","","","",""
"","","","","","single-stim-button","341","698162","0.0-2.0-71.6-1.6","5ba184ad35768a0001437bdc","A3","batch1","","637","tol_toboard","","","","tol_peg_3","637","637","0","[[0,0,0],[2,3],[1]]","7","[[3,2,0],[0,0],[1]]","20","0","","","","","","6","","","","","","","","",""
"","","","","","single-stim-button","342","698965","0.0-2.0-71.7-0.7","5ba184ad35768a0001437bdc","A3","batch1","","803","tol_tohand","","","","tol_peg_2","803","803","0","[[0,0,0],[2,0],[1]]","8","[[3,2,0],[0,0],[1]]","20","0","","","","","","6","","","","","","","","",""
"","","","","","single-stim-button","343","699501","0.0-2.0-71.7-1.7","5ba184ad35768a0001437bdc","A3","batch1","","536","tol_toboard","","","","tol_peg_1","536","536","0","[[3,0,0],[2,0],[1]]","8","[[3,2,0],[0,0],[1]]","20","0","","","","","","6","","","","","","","","",""
"","","","","","single-stim-button","344","699969","0.0-2.0-71.8-0.8","5ba184ad35768a0001437bdc","A3","batch1","","468","tol_tohand","","","","tol_peg_2","468","468","0","[[3,0,0],[0,0],[1]]","9","[[3,2,0],[0,0],[1]]","20","0","","","","","","6","","","","","","","","",""
"","","","","","single-stim-button","345","700461","0.0-2.0-71.8-1.8","5ba184ad35768a0001437bdc","A3","batch1","","492","tol_toboard","","","","tol_peg_1","492","492","0","[[3,2,0],[0,0],[1]]","9","[[3,2,0],[0,0],[1]]","20","0","","","","","","6","","","","","","","","",""
"","","","","","poldrack-single-stim","346","701463","0.0-2.0-72.0","5ba184ad35768a0001437bdc","A3","batch1","","-1","tol_feedback","","","true","","1000","1000","500","","","","","","-1","none","true","2716","12453","","","","","","","","","",""
"","","","","","html-button-response","347","702057","0.0-2.0-73.0","5ba184ad35768a0001437bdc","A3","batch1","","594.2000000178814","tol_trial_num","<div class = centerbox><p class = center-block-text>problem <strong>22</strong> out of 25 problems</p></div>","0","","","","","","","","","","","","","","","","","","","","","","","","",""
"","","","","","single-stim-button","348","703567","0.0-2.0-74.0-0.0","5ba184ad35768a0001437bdc","A3","batch1","","1509","tol_tohand","","","","tol_peg_2","1509","1509","0","[[1,0,0],[2,0],[0]]","1","[[0,0,0],[1,2],[3]]","21","0","","","","","","6","","","","","","","","",""
"","","","","","single-stim-button","349","704116","0.0-2.0-74.0-1.0","5ba184ad35768a0001437bdc","A3","batch1","","548","tol_toboard","","","","tol_peg_3","548","548","0","[[1,0,0],[2,0],[3]]","1","[[0,0,0],[1,2],[3]]","21","0","","","","","","6","","","","","","","","",""
"","","","","","single-stim-button","350","707580","0.0-2.0-74.1-0.1","5ba184ad35768a0001437bdc","A3","batch1","","3463","tol_tohand","","","","tol_peg_1","3463","3463","0","[[0,0,0],[2,0],[3]]","2","[[0,0,0],[1,2],[3]]","21","0","","","","","","6","","","","","","","","",""
"","","","","","single-stim-button","351","708180","0.0-2.0-74.1-1.1","5ba184ad35768a0001437bdc","A3","batch1","","600","tol_toboard","","","","tol_peg_2","600","600","0","[[0,0,0],[2,1],[3]]","2","[[0,0,0],[1,2],[3]]","21","0","","","","","","6","","","","","","","","",""
"","","","","","single-stim-button","352","708616","0.0-2.0-74.2-0.2","5ba184ad35768a0001437bdc","A3","batch1","","436","tol_tohand","","","","tol_peg_3","436","436","0","[[0,0,0],[2,1],[0]]","3","[[0,0,0],[1,2],[3]]","21","0","","","","","","6","","","","","","","","",""
"","","","","","single-stim-button","353","709271","0.0-2.0-74.2-1.2","5ba184ad35768a0001437bdc","A3","batch1","","655","tol_toboard","","","","tol_peg_1","655","655","0","[[3,0,0],[2,1],[0]]","3","[[0,0,0],[1,2],[3]]","21","0","","","","","","6","","","","","","","","",""
