"success","timeout","failed_images","failed_audio","failed_video","trial_type","trial_index","time_elapsed","internal_node_id","subject_id","study_id","session_id","view_history","rt","stimulus","response","task","correct","answer","item","fiar_detect_rt","fiar_detect_correct","total_correct_fiar_detect","post_trial_gap","choices","mouse_click","stim_duration","block_duration","timing_post_trial","current_position","tol_num_moves_made","tol_target","tol_problem_id","tol_rt","key_press","possible_responses","tol_correct","preplanning","tol_rt_per_trial","tol_min_moves","spm_correct","spm_rt"
"true","false","[]","[]","[]","preload","0","5585","0.0-0.0","5ba5d8b960f3d50001697104","F1","batch6","","","","","","","","","","","","","","","","","","","","","","","","","","","","","",""
"true","","","","","fullscreen","1","66790","0.0-1.0-0.0","5ba5d8b960f3d50001697104","F1","batch6","","","","","","","","","","","","","","","","","","","","","","","","","","","","","",""
"true","","","","","fullscreen","2","83688","0.0-2.0-0.0","5ba5d8b960f3d50001697104","F1","batch6","","","","","","","","","","","","","","","","","","","","","","","","","","","","","",""
"","","","","","instructions","3","207367","0.0-2.0-1.0-0.0","5ba5d8b960f3d50001697104","F1","batch6","[{""page_index"":0,""viewing_time"":77194.90000000224},{""page_index"":1,""viewing_time"":46477.89999999851}]","123673.40000000224","","","","","","","","","","","","","","","","","","","","","","","","","","","",""
"","","","","","html-button-response","4","220793","0.0-2.0-1.0-1.0-0.0","5ba5d8b960f3d50001697104","F1","batch6","","13424.10000000149","<p class=block-text> Let's answer a few questions <br>","0","pattern_enter_quiz","","","","","","","","","","","","","","","","","","","","","","","","",""
"","","","","","html-button-response","5","229393","0.0-2.0-1.0-1.0-1.0","5ba5d8b960f3d50001697104","F1","batch6","","8597","<p class = block-text>True or False: You will have as much time as you want to make each choice. <br></p>","1","pattern_quiz","true","","","","","","","","","","","","","","","","","","","","","","","",""
"","","","","","html-button-response","6","232275","0.0-2.0-1.0-1.0-2.0","5ba5d8b960f3d50001697104","F1","batch6","","2878.60000000149","<p class = block-text>Correct! You should make your choice <strong> as fast as you can</strong>.</p>","0","pattern_quiz_feedback","","","","","","","","","","","","","","","","","","","","","","","","",""
"","","","","","html-button-response","7","243207","0.0-2.0-1.0-1.0-3.0","5ba5d8b960f3d50001697104","F1","batch6","","10929.800000000745","<p class = block-text>True or False: You will look for 4 pieces in black or white color connected in a row either horizontally, vertically or diagonally. <br></p>","0","pattern_quiz","true","","","","","","","","","","","","","","","","","","","","","","","",""
"","","","","","html-button-response","8","244782","0.0-2.0-1.0-1.0-4.0","5ba5d8b960f3d50001697104","F1","batch6","","1573","<p class = block-text>Correct! </p>","0","pattern_quiz_feedback","","","","","","","","","","","","","","","","","","","","","","","","",""
"","","","","","html-button-response","9","252929","0.0-2.0-2.0","5ba5d8b960f3d50001697104","F1","batch6","","8145.199999999255","<p class=block-text> Now that you've understood the game, let's do a few practice trials before we start!<br> <br>","0","pattern_enter_practice","","","","","","","","","","","","","","","","","","","","","","","","",""
"","","","","","image-keyboard-response","10","255721","0.0-2.0-3.0-0.0","5ba5d8b960f3d50001697104","F1","batch6","","2778.199999999255","stim/prac_no_18_1.png","j","pattern_practice","true","j","","","","","","","","","","","","","","","","","","","","","","",""
"","","","","","html-keyboard-response","11","256736","0.0-2.0-3.0-1.0","5ba5d8b960f3d50001697104","F1","batch6","","null","<p style=""font-size:30px;color:green;"">Correct!</p>","null","pattern_feedback","","","","","","","","","","","","","","","","","","","","","","","","",""
"","","","","","image-keyboard-response","12","258737","0.0-2.0-3.0-0.1","5ba5d8b960f3d50001697104","F1","batch6","","1999.5","stim/prac_no_16_1.png","j","pattern_practice","true","j","","","","","","","","","","","","","","","","","","","","","","",""
"","","","","","html-keyboard-response","13","259749","0.0-2.0-3.0-1.1","5ba5d8b960f3d50001697104","F1","batch6","","null","<p style=""font-size:30px;color:green;"">Correct!</p>","null","pattern_feedback","","","","","","","","","","","","","","","","","","","","","","","","",""
"","","","","","image-keyboard-response","14","260553","0.0-2.0-3.0-0.2","5ba5d8b960f3d50001697104","F1","batch6","","802.3000000007451","stim/prac_yes_18_hor_w1.png","f","pattern_practice","true","f","","","","","","","","","","","","","","","","","","","","","","",""
"","","","","","html-keyboard-response","15","261577","0.0-2.0-3.0-1.2","5ba5d8b960f3d50001697104","F1","batch6","","null","<p style=""font-size:30px;color:green;"">Correct!</p>","null","pattern_feedback","","","","","","","","","","","","","","","","","","","","","","","","",""
"","","","","","image-keyboard-response","16","262238","0.0-2.0-3.0-0.3","5ba5d8b960f3d50001697104","F1","batch6","","658.8000000007451","stim/prac_yes_16_ver_w1.png","f","pattern_practice","true","f","","","","","","","","","","","","","","","","","","","","","","",""
"","","","","","html-keyboard-response","17","263257","0.0-2.0-3.0-1.3","5ba5d8b960f3d50001697104","F1","batch6","","null","<p style=""font-size:30px;color:green;"">Correct!</p>","null","pattern_feedback","","","","","","","","","","","","","","","","","","","","","","","","",""
"","","","","","image-keyboard-response","18","264279","0.0-2.0-3.0-0.4","5ba5d8b960f3d50001697104","F1","batch6","","1019.6999999992549","stim/prac_yes_20_dia_b1.png","f","pattern_practice","true","f","","","","","","","","","","","","","","","","","","","","","","",""
"","","","","","html-keyboard-response","19","265289","0.0-2.0-3.0-1.4","5ba5d8b960f3d50001697104","F1","batch6","","null","<p style=""font-size:30px;color:green;"">Correct!</p>","null","pattern_feedback","","","","","","","","","","","","","","","","","","","","","","","","",""
"","","","","","html-button-response","20","293543","0.0-2.0-4.0","5ba5d8b960f3d50001697104","F1","batch6","","28251.300000000745","<p class=block-text> Good job! You are done with practice trials!<br>
        You responded correctly on 100% of the trials.<br>
        Press the button below to start official trials. Now you won't see any feedback about your response</p>","0","pattern_enter_official_trials","","","","","","","","","","","","","","","","","","","","","","","","",""
"","","","","","html-keyboard-response","21","294354","0.0-2.0-5.0-0.0","5ba5d8b960f3d50001697104","F1","batch6","","null","<p class=block-text>Trial 1 out of 78</p>","null","pattern_show_trial_num","","","","","","","","","","","","","","","","","","","","","","","","",""
"","","","","","image-keyboard-response","22","298829","0.0-2.0-5.0-1.0","5ba5d8b960f3d50001697104","F1","batch6","","4472.70000000298","stim/no_45_1_w.png","j","pattern_response","true","j","pattern_25","4472.70000000298","true","1","","","","","","","","","","","","","","","","","","",""
"","","","","","html-keyboard-response","23","300146","0.0-2.0-5.0-0.1","5ba5d8b960f3d50001697104","F1","batch6","","null","<p class=block-text>Trial 2 out of 78</p>","null","pattern_show_trial_num","","","","","","","","","","","","","","","","","","","","","","","","",""
"","","","","","image-keyboard-response","24","302422","0.0-2.0-5.0-1.1","5ba5d8b960f3d50001697104","F1","batch6","","2273.699999999255","stim/no_28_2.png","j","pattern_response","true","j","pattern_11","2273.699999999255","true","2","","","","","","","","","","","","","","","","","","",""
"","","","","","html-keyboard-response","25","303738","0.0-2.0-5.0-0.2","5ba5d8b960f3d50001697104","F1","batch6","","null","<p class=block-text>Trial 3 out of 78</p>","null","pattern_show_trial_num","","","","","","","","","","","","","","","","","","","","","","","","",""
"","","","","","image-keyboard-response","26","307251","0.0-2.0-5.0-1.2","5ba5d8b960f3d50001697104","F1","batch6","","3510.300000000745","stim/no_37_2_w.png","j","pattern_response","true","j","pattern_19","3510.300000000745","true","3","","","","","","","","","","","","","","","","","","",""
"","","","","","html-keyboard-response","27","308571","0.0-2.0-5.0-0.3","5ba5d8b960f3d50001697104","F1","batch6","","null","<p class=block-text>Trial 4 out of 78</p>","null","pattern_show_trial_num","","","","","","","","","","","","","","","","","","","","","","","","",""
"","","","","","image-keyboard-response","28","312937","0.0-2.0-5.0-1.3","5ba5d8b960f3d50001697104","F1","batch6","","4363.900000002235","stim/no_39_1_w.png","j","pattern_response","true","j","pattern_21","4363.900000002235","true","4","","","","","","","","","","","","","","","","","","",""
"","","","","","html-keyboard-response","29","314247","0.0-2.0-5.0-0.4","5ba5d8b960f3d50001697104","F1","batch6","","null","<p class=block-text>Trial 5 out of 78</p>","null","pattern_show_trial_num","","","","","","","","","","","","","","","","","","","","","","","","",""
"","","","","","image-keyboard-response","30","315180","0.0-2.0-5.0-1.4","5ba5d8b960f3d50001697104","F1","batch6","","930.5","stim/yes_15_dia_b1u_b.png","f","pattern_response","true","f","pattern_44","930.5","true","5","","","","","","","","","","","","","","","","","","",""
"","","","","","html-keyboard-response","31","316499","0.0-2.0-5.0-0.5","5ba5d8b960f3d50001697104","F1","batch6","","null","<p class=block-text>Trial 6 out of 78</p>","null","pattern_show_trial_num","","","","","","","","","","","","","","","","","","","","","","","","",""
"","","","","","image-keyboard-response","32","317411","0.0-2.0-5.0-1.5","5ba5d8b960f3d50001697104","F1","batch6","","910.5999999977648","stim/yes_37_hor_w1_w.png","f","pattern_response","true","f","pattern_60","910.5999999977648","true","6","","","","","","","","","","","","","","","","","","",""
"","","","","","html-keyboard-response","33","318731","0.0-2.0-5.0-0.6","5ba5d8b960f3d50001697104","F1","batch6","","null","<p class=block-text>Trial 7 out of 78</p>","null","pattern_show_trial_num","","","","","","","","","","","","","","","","","","","","","","","","",""
"","","","","","image-keyboard-response","34","324257","0.0-2.0-5.0-1.6","5ba5d8b960f3d50001697104","F1","batch6","","5524","stim/no_67_1.png","j","pattern_response","true","j","pattern_39","5524","true","7","","","","","","","","","","","","","","","","","","",""
"","","","","","html-keyboard-response","35","325571","0.0-2.0-5.0-0.7","5ba5d8b960f3d50001697104","F1","batch6","","null","<p class=block-text>Trial 8 out of 78</p>","null","pattern_show_trial_num","","","","","","","","","","","","","","","","","","","","","","","","",""
"","","","","","image-keyboard-response","36","328008","0.0-2.0-5.0-1.7","5ba5d8b960f3d50001697104","F1","batch6","","2435.300000000745","stim/yes_51_dia_b1.png","j","pattern_response","false","f","pattern_72","2435.300000000745","false","7","","","","","","","","","","","","","","","","","","",""
"","","","","","html-keyboard-response","37","329323","0.0-2.0-5.0-0.8","5ba5d8b960f3d50001697104","F1","batch6","","null","<p class=block-text>Trial 9 out of 78</p>","null","pattern_show_trial_num","","","","","","","","","","","","","","","","","","","","","","","","",""
"","","","","","image-keyboard-response","38","332725","0.0-2.0-5.0-1.8","5ba5d8b960f3d50001697104","F1","batch6","","3400.099999997765","stim/no_33_1_b.png","j","pattern_response","true","j","pattern_15","3400.099999997765","true","8","","","","","","","","","","","","","","","","","","",""
"","","","","","html-keyboard-response","39","334044","0.0-2.0-5.0-0.9","5ba5d8b960f3d50001697104","F1","batch6","","null","<p class=block-text>Trial 10 out of 78</p>","null","pattern_show_trial_num","","","","","","","","","","","","","","","","","","","","","","","","",""
"","","","","","image-keyboard-response","40","335071","0.0-2.0-5.0-1.9","5ba5d8b960f3d50001697104","F1","batch6","","1025.699999999255","stim/yes_49_hor_w1_b.png","f","pattern_response","true","f","pattern_70","1025.699999999255","true","9","","","","","","","","","","","","","","","","","","",""
"","","","","","html-keyboard-response","41","336388","0.0-2.0-5.0-0.10","5ba5d8b960f3d50001697104","F1","batch6","","null","<p class=block-text>Trial 11 out of 78</p>","null","pattern_show_trial_num","","","","","","","","","","","","","","","","","","","","","","","","",""
"","","","","","image-keyboard-response","42","337289","0.0-2.0-5.0-1.10","5ba5d8b960f3d50001697104","F1","batch6","","899.9000000022352","stim/yes_29_hor_b1_b.png","f","pattern_response","true","f","pattern_52","899.9000000022352","true","10","","","","","","","","","","","","","","","","","","",""
"","","","","","html-keyboard-response","43","338604","0.0-2.0-5.0-0.11","5ba5d8b960f3d50001697104","F1","batch6","","null","<p class=block-text>Trial 12 out of 78</p>","null","pattern_show_trial_num","","","","","","","","","","","","","","","","","","","","","","","","",""
"","","","","","image-keyboard-response","44","341167","0.0-2.0-5.0-1.11","5ba5d8b960f3d50001697104","F1","batch6","","2561","stim/no_25_1_b.png","j","pattern_response","true","j","pattern_09","2561","true","11","","","","","","","","","","","","","","","","","","",""
"","","","","","html-keyboard-response","45","342484","0.0-2.0-5.0-0.12","5ba5d8b960f3d50001697104","F1","batch6","","null","<p class=block-text>Trial 13 out of 78</p>","null","pattern_show_trial_num","","","","","","","","","","","","","","","","","","","","","","","","",""
"","","","","","image-keyboard-response","46","347225","0.0-2.0-5.0-1.12","5ba5d8b960f3d50001697104","F1","batch6","","4739.099999997765","stim/no_53_1_b.png","j","pattern_response","true","j","pattern_33","4739.099999997765","true","12","","","","","","","","","","","","","","","","","","",""
"","","","","","html-keyboard-response","47","348540","0.0-2.0-5.0-0.13","5ba5d8b960f3d50001697104","F1","batch6","","null","<p class=block-text>Trial 14 out of 78</p>","null","pattern_show_trial_num","","","","","","","","","","","","","","","","","","","","","","","","",""
"","","","","","image-keyboard-response","48","349488","0.0-2.0-5.0-1.13","5ba5d8b960f3d50001697104","F1","batch6","","946.1000000014901","stim/yes_17_ver_b1_b.png","f","pattern_response","true","f","pattern_46","946.1000000014901","true","13","","","","","","","","","","","","","","","","","","",""
"","","","","","html-keyboard-response","49","350804","0.0-2.0-5.0-0.14","5ba5d8b960f3d50001697104","F1","batch6","","null","<p class=block-text>Trial 15 out of 78</p>","null","pattern_show_trial_num","","","","","","","","","","","","","","","","","","","","","","","","",""
"","","","","","image-keyboard-response","50","351749","0.0-2.0-5.0-1.14","5ba5d8b960f3d50001697104","F1","batch6","","943.8999999985099","stim/yes_36_ver_w1_w.png","f","pattern_response","true","f","pattern_58","943.8999999985099","true","14","","","","","","","","","","","","","","","","","","",""
"","","","","","html-keyboard-response","51","353068","0.0-2.0-5.0-0.15","5ba5d8b960f3d50001697104","F1","batch6","","null","<p class=block-text>Trial 16 out of 78</p>","null","pattern_show_trial_num","","","","","","","","","","","","","","","","","","","","","","","","",""
"","","","","","image-keyboard-response","52","355223","0.0-2.0-5.0-1.15","5ba5d8b960f3d50001697104","F1","batch6","","2153.39999999851","stim/no_30_1_b.png","j","pattern_response","true","j","pattern_13","2153.39999999851","true","15","","","","","","","","","","","","","","","","","","",""
"","","","","","html-keyboard-response","53","356540","0.0-2.0-5.0-0.16","5ba5d8b960f3d50001697104","F1","batch6","","null","<p class=block-text>Trial 17 out of 78</p>","null","pattern_show_trial_num","","","","","","","","","","","","","","","","","","","","","","","","",""
"","","","","","image-keyboard-response","54","360846","0.0-2.0-5.0-1.16","5ba5d8b960f3d50001697104","F1","batch6","","4304.199999999255","stim/no_58_1_w.png","j","pattern_response","true","j","pattern_35","4304.199999999255","true","16","","","","","","","","","","","","","","","","","","",""
"","","","","","html-keyboard-response","55","362164","0.0-2.0-5.0-0.17","5ba5d8b960f3d50001697104","F1","batch6","","null","<p class=block-text>Trial 18 out of 78</p>","null","pattern_show_trial_num","","","","","","","","","","","","","","","","","","","","","","","","",""
"","","","","","image-keyboard-response","56","365928","0.0-2.0-5.0-1.17","5ba5d8b960f3d50001697104","F1","batch6","","3761.10000000149","stim/no_49_2_b.png","j","pattern_response","true","j","pattern_29","3761.10000000149","true","17","","","","","","","","","","","","","","","","","","",""
"","","","","","html-keyboard-response","57","367244","0.0-2.0-5.0-0.18","5ba5d8b960f3d50001697104","F1","batch6","","null","<p class=block-text>Trial 19 out of 78</p>","null","pattern_show_trial_num","","","","","","","","","","","","","","","","","","","","","","","","",""
"","","","","","image-keyboard-response","58","368201","0.0-2.0-5.0-1.18","5ba5d8b960f3d50001697104","F1","batch6","","954.1999999992549","stim/no_12_1.png","j","pattern_response","true","j","pattern_01","954.1999999992549","true","18","","","","","","","","","","","","","","","","","","",""
"","","","","","html-keyboard-response","59","369512","0.0-2.0-5.0-0.19","5ba5d8b960f3d50001697104","F1","batch6","","null","<p class=block-text>Trial 20 out of 78</p>","null","pattern_show_trial_num","","","","","","","","","","","","","","","","","","","","","","","","",""
"","","","","","image-keyboard-response","60","370876","0.0-2.0-5.0-1.19","5ba5d8b960f3d50001697104","F1","batch6","","1362.2999999970198","stim/no_15_1_w.png","j","pattern_response","true","j","pattern_03","1362.2999999970198","true","19","","","","","","","","","","","","","","","","","","",""
"","","","","","html-keyboard-response","61","372196","0.0-2.0-5.0-0.20","5ba5d8b960f3d50001697104","F1","batch6","","null","<p class=block-text>Trial 21 out of 78</p>","null","pattern_show_trial_num","","","","","","","","","","","","","","","","","","","","","","","","",""
"","","","","","image-keyboard-response","62","375836","0.0-2.0-5.0-1.20","5ba5d8b960f3d50001697104","F1","batch6","","3637.199999999255","stim/yes_53_ver_b1_b.png","f","pattern_response","true","f","pattern_74","3637.199999999255","true","20","","","","","","","","","","","","","","","","","","",""
"","","","","","html-keyboard-response","63","377152","0.0-2.0-5.0-0.21","5ba5d8b960f3d50001697104","F1","batch6","","null","<p class=block-text>Trial 22 out of 78</p>","null","pattern_show_trial_num","","","","","","","","","","","","","","","","","","","","","","","","",""
"","","","","","image-keyboard-response","64","378549","0.0-2.0-5.0-1.21","5ba5d8b960f3d50001697104","F1","batch6","","1395","stim/no_18_1_b.png","j","pattern_response","true","j","pattern_05","1395","true","21","","","","","","","","","","","","","","","","","","",""
"","","","","","html-keyboard-response","65","379864","0.0-2.0-5.0-0.22","5ba5d8b960f3d50001697104","F1","batch6","","null","<p class=block-text>Trial 23 out of 78</p>","null","pattern_show_trial_num","","","","","","","","","","","","","","","","","","","","","","","","",""
"","","","","","image-keyboard-response","66","383393","0.0-2.0-5.0-1.22","5ba5d8b960f3d50001697104","F1","batch6","","3528.10000000149","stim/yes_42_dia_w1_w.png","f","pattern_response","true","f","pattern_64","3528.10000000149","true","22","","","","","","","","","","","","","","","","","","",""
"","","","","","html-keyboard-response","67","384709","0.0-2.0-5.0-0.23","5ba5d8b960f3d50001697104","F1","batch6","","null","<p class=block-text>Trial 24 out of 78</p>","null","pattern_show_trial_num","","","","","","","","","","","","","","","","","","","","","","","","",""
"","","","","","image-keyboard-response","68","391484","0.0-2.0-5.0-1.23","5ba5d8b960f3d50001697104","F1","batch6","","6773","stim/yes_63_dia_b1.png","f","pattern_response","true","f","pattern_78","6773","true","23","","","","","","","","","","","","","","","","","","",""
"","","","","","html-keyboard-response","69","392803","0.0-2.0-5.0-0.24","5ba5d8b960f3d50001697104","F1","batch6","","null","<p class=block-text>Trial 25 out of 78</p>","null","pattern_show_trial_num","","","","","","","","","","","","","","","","","","","","","","","","",""
"","","","","","image-keyboard-response","70","393644","0.0-2.0-5.0-1.24","5ba5d8b960f3d50001697104","F1","batch6","","838.8000000007451","stim/yes_12_hor_w1_w.png","f","pattern_response","true","f","pattern_42","838.8000000007451","true","24","","","","","","","","","","","","","","","","","","",""
"","","","","","html-keyboard-response","71","394965","0.0-2.0-5.0-0.25","5ba5d8b960f3d50001697104","F1","batch6","","null","<p class=block-text>Trial 26 out of 78</p>","null","pattern_show_trial_num","","","","","","","","","","","","","","","","","","","","","","","","",""
"","","","","","image-keyboard-response","72","399690","0.0-2.0-5.0-1.25","5ba5d8b960f3d50001697104","F1","batch6","","4723.199999999255","stim/no_47_1_b.png","j","pattern_response","true","j","pattern_27","4723.199999999255","true","25","","","","","","","","","","","","","","","","","","",""
"","","","","","html-keyboard-response","73","401005","0.0-2.0-5.0-0.26","5ba5d8b960f3d50001697104","F1","batch6","","null","<p class=block-text>Trial 27 out of 78</p>","null","pattern_show_trial_num","","","","","","","","","","","","","","","","","","","","","","","","",""
"","","","","","image-keyboard-response","74","401796","0.0-2.0-5.0-1.26","5ba5d8b960f3d50001697104","F1","batch6","","788.4000000022352","stim/yes_39_hor_w1_w.png","f","pattern_response","true","f","pattern_62","788.4000000022352","true","26","","","","","","","","","","","","","","","","","","",""
"","","","","","html-keyboard-response","75","403109","0.0-2.0-5.0-0.27","5ba5d8b960f3d50001697104","F1","batch6","","null","<p class=block-text>Trial 28 out of 78</p>","null","pattern_show_trial_num","","","","","","","","","","","","","","","","","","","","","","","","",""
"","","","","","image-keyboard-response","76","406665","0.0-2.0-5.0-1.27","5ba5d8b960f3d50001697104","F1","batch6","","3553.89999999851","stim/no_43_2_b.png","j","pattern_response","true","j","pattern_23","3553.89999999851","true","27","","","","","","","","","","","","","","","","","","",""
"","","","","","html-keyboard-response","77","407982","0.0-2.0-5.0-0.28","5ba5d8b960f3d50001697104","F1","batch6","","null","<p class=block-text>Trial 29 out of 78</p>","null","pattern_show_trial_num","","","","","","","","","","","","","","","","","","","","","","","","",""
"","","","","","image-keyboard-response","78","409020","0.0-2.0-5.0-1.28","5ba5d8b960f3d50001697104","F1","batch6","","1036.2999999970198","stim/yes_44_ver_w1_w.png","f","pattern_response","true","f","pattern_66","1036.2999999970198","true","28","","","","","","","","","","","","","","","","","","",""
"","","","","","html-keyboard-response","79","410334","0.0-2.0-5.0-0.29","5ba5d8b960f3d50001697104","F1","batch6","","null","<p class=block-text>Trial 30 out of 78</p>","null","pattern_show_trial_num","","","","","","","","","","","","","","","","","","","","","","","","",""
"","","","","","image-keyboard-response","80","411501","0.0-2.0-5.0-1.29","5ba5d8b960f3d50001697104","F1","batch6","","1165.0999999977648","stim/yes_30_ver_b1_b.png","f","pattern_response","true","f","pattern_54","1165.0999999977648","true","29","","","","","","","","","","","","","","","","","","",""
"","","","","","html-keyboard-response","81","412814","0.0-2.0-5.0-0.30","5ba5d8b960f3d50001697104","F1","batch6","","null","<p class=block-text>Trial 31 out of 78</p>","null","pattern_show_trial_num","","","","","","","","","","","","","","","","","","","","","","","","",""
"","","","","","image-keyboard-response","82","414023","0.0-2.0-5.0-1.30","5ba5d8b960f3d50001697104","F1","batch6","","1207.300000000745","stim/yes_33_dia_w1_w.png","f","pattern_response","true","f","pattern_56","1207.300000000745","true","30","","","","","","","","","","","","","","","","","","",""
"","","","","","html-keyboard-response","83","415338","0.0-2.0-5.0-0.31","5ba5d8b960f3d50001697104","F1","batch6","","null","<p class=block-text>Trial 32 out of 78</p>","null","pattern_show_trial_num","","","","","","","","","","","","","","","","","","","","","","","","",""
"","","","","","image-keyboard-response","84","416552","0.0-2.0-5.0-1.31","5ba5d8b960f3d50001697104","F1","batch6","","1212.9000000022352","stim/yes_46_ver_b1_b.png","f","pattern_response","true","f","pattern_68","1212.9000000022352","true","31","","","","","","","","","","","","","","","","","","",""
"","","","","","html-keyboard-response","85","417870","0.0-2.0-5.0-0.32","5ba5d8b960f3d50001697104","F1","batch6","","null","<p class=block-text>Trial 33 out of 78</p>","null","pattern_show_trial_num","","","","","","","","","","","","","","","","","","","","","","","","",""
"","","","","","image-keyboard-response","86","420674","0.0-2.0-5.0-1.32","5ba5d8b960f3d50001697104","F1","batch6","","2802.5","stim/no_36_1_b.png","j","pattern_response","true","j","pattern_17","2802.5","true","32","","","","","","","","","","","","","","","","","","",""
"","","","","","html-keyboard-response","87","421990","0.0-2.0-5.0-0.33","5ba5d8b960f3d50001697104","F1","batch6","","null","<p class=block-text>Trial 34 out of 78</p>","null","pattern_show_trial_num","","","","","","","","","","","","","","","","","","","","","","","","",""
"","","","","","image-keyboard-response","88","425777","0.0-2.0-5.0-1.33","5ba5d8b960f3d50001697104","F1","batch6","","3784.89999999851","stim/yes_70_ver_b1.png","f","pattern_response","true","f","pattern_80","3784.89999999851","true","33","","","","","","","","","","","","","","","","","","",""
"","","","","","html-keyboard-response","89","427090","0.0-2.0-5.0-0.34","5ba5d8b960f3d50001697104","F1","batch6","","null","<p class=block-text>Trial 35 out of 78</p>","null","pattern_show_trial_num","","","","","","","","","","","","","","","","","","","","","","","","",""
"","","","","","image-keyboard-response","90","429687","0.0-2.0-5.0-1.34","5ba5d8b960f3d50001697104","F1","batch6","","2595.199999999255","stim/yes_58_dia_w1_w.png","f","pattern_response","true","f","pattern_76","2595.199999999255","true","34","","","","","","","","","","","","","","","","","","",""
"","","","","","html-keyboard-response","91","431006","0.0-2.0-5.0-0.35","5ba5d8b960f3d50001697104","F1","batch6","","null","<p class=block-text>Trial 36 out of 78</p>","null","pattern_show_trial_num","","","","","","","","","","","","","","","","","","","","","","","","",""
"","","","","","image-keyboard-response","92","433551","0.0-2.0-5.0-1.35","5ba5d8b960f3d50001697104","F1","batch6","","2543.099999997765","stim/no_22_1_b.png","j","pattern_response","true","j","pattern_07","2543.099999997765","true","35","","","","","","","","","","","","","","","","","","",""
"","","","","","html-keyboard-response","93","434868","0.0-2.0-5.0-0.36","5ba5d8b960f3d50001697104","F1","batch6","","null","<p class=block-text>Trial 37 out of 78</p>","null","pattern_show_trial_num","","","","","","","","","","","","","","","","","","","","","","","","",""
"","","","","","image-keyboard-response","94","436118","0.0-2.0-5.0-1.36","5ba5d8b960f3d50001697104","F1","batch6","","1248","stim/yes_23_ver_b1.png","f","pattern_response","true","f","pattern_48","1248","true","36","","","","","","","","","","","","","","","","","","",""
"","","","","","html-keyboard-response","95","437439","0.0-2.0-5.0-0.37","5ba5d8b960f3d50001697104","F1","batch6","","null","<p class=block-text>Trial 38 out of 78</p>","null","pattern_show_trial_num","","","","","","","","","","","","","","","","","","","","","","","","",""
"","","","","","image-keyboard-response","96","438426","0.0-2.0-5.0-1.37","5ba5d8b960f3d50001697104","F1","batch6","","985.6999999992549","stim/yes_26_dia_w2_w.png","f","pattern_response","true","f","pattern_50","985.6999999992549","true","37","","","","","","","","","","","","","","","","","","",""
"","","","","","html-keyboard-response","97","439738","0.0-2.0-5.0-0.38","5ba5d8b960f3d50001697104","F1","batch6","","null","<p class=block-text>Trial 39 out of 78</p>","null","pattern_show_trial_num","","","","","","","","","","","","","","","","","","","","","","","","",""
"","","","","","image-keyboard-response","98","445102","0.0-2.0-5.0-1.38","5ba5d8b960f3d50001697104","F1","batch6","","5361.699999999255","stim/no_51_1.png","j","pattern_response","true","j","pattern_31","5361.699999999255","true","38","","","","","","","","","","","","","","","","","","",""
"","","","","","image-keyboard-response","99","448009","0.0-2.0-6.0","5ba5d8b960f3d50001697104","F1","batch6","","2392.800000000745","stim/empty_board.png","j","attention_check","true","j","","","","","500","[""f"",""j""]","","","","","","","","","","","","","","","","",""
"","","","","","html-keyboard-response","100","448820","0.0-2.0-7.0-0.0","5ba5d8b960f3d50001697104","F1","batch6","","null","<p class=block-text>Trial 40 out of 78</p>","null","pattern_show_trial_num","","","","","","","","","","","","","","","","","","","","","","","","",""
"","","","","","image-keyboard-response","101","452407","0.0-2.0-7.0-1.0","5ba5d8b960f3d50001697104","F1","batch6","","3585.099999997765","stim/yes_25_hor_b1_b.png","f","pattern_response","true","f","pattern_49","3585.099999997765","true","39","","","","","","","","","","","","","","","","","","",""
"","","","","","html-keyboard-response","102","453727","0.0-2.0-7.0-0.1","5ba5d8b960f3d50001697104","F1","batch6","","null","<p class=block-text>Trial 41 out of 78</p>","null","pattern_show_trial_num","","","","","","","","","","","","","","","","","","","","","","","","",""
"","","","","","image-keyboard-response","103","455346","0.0-2.0-7.0-1.1","5ba5d8b960f3d50001697104","F1","batch6","","1617.3999999985099","stim/yes_38_hor_b1_b.png","f","pattern_response","true","f","pattern_61","1617.3999999985099","true","40","","","","","","","","","","","","","","","","","","",""
"","","","","","html-keyboard-response","104","456663","0.0-2.0-7.0-0.2","5ba5d8b960f3d50001697104","F1","batch6","","null","<p class=block-text>Trial 42 out of 78</p>","null","pattern_show_trial_num","","","","","","","","","","","","","","","","","","","","","","","","",""
"","","","","","image-keyboard-response","105","457727","0.0-2.0-7.0-1.2","5ba5d8b960f3d50001697104","F1","batch6","","1062.0999999977648","stim/yes_17_dia_w1.png","f","pattern_response","true","f","pattern_45","1062.0999999977648","true","41","","","","","","","","","","","","","","","","","","",""
"","","","","","html-keyboard-response","106","459047","0.0-2.0-7.0-0.3","5ba5d8b960f3d50001697104","F1","batch6","","null","<p class=block-text>Trial 43 out of 78</p>","null","pattern_show_trial_num","","","","","","","","","","","","","","","","","","","","","","","","",""
"","","","","","image-keyboard-response","107","460637","0.0-2.0-7.0-1.3","5ba5d8b960f3d50001697104","F1","batch6","","1588.0999999977648","stim/no_13_2_b.png","j","pattern_response","true","j","pattern_02","1588.0999999977648","true","42","","","","","","","","","","","","","","","","","","",""
"","","","","","html-keyboard-response","108","461951","0.0-2.0-7.0-0.4","5ba5d8b960f3d50001697104","F1","batch6","","null","<p class=block-text>Trial 44 out of 78</p>","null","pattern_show_trial_num","","","","","","","","","","","","","","","","","","","","","","","","",""
"","","","","","image-keyboard-response","109","468532","0.0-2.0-7.0-1.4","5ba5d8b960f3d50001697104","F1","batch6","","6579.5","stim/yes_50_dia_w1.png","j","pattern_response","false","f","pattern_71","6579.5","false","42","","","","","","","","","","","","","","","","","","",""
"","","","","","html-keyboard-response","110","469847","0.0-2.0-7.0-0.5","5ba5d8b960f3d50001697104","F1","batch6","","null","<p class=block-text>Trial 45 out of 78</p>","null","pattern_show_trial_num","","","","","","","","","","","","","","","","","","","","","","","","",""
"","","","","","image-keyboard-response","111","471584","0.0-2.0-7.0-1.5","5ba5d8b960f3d50001697104","F1","batch6","","1734.699999999255","stim/no_23_1.png","j","pattern_response","true","j","pattern_08","1734.699999999255","true","43","","","","","","","","","","","","","","","","","","",""
"","","","","","html-keyboard-response","112","472902","0.0-2.0-7.0-0.6","5ba5d8b960f3d50001697104","F1","batch6","","null","<p class=block-text>Trial 46 out of 78</p>","null","pattern_show_trial_num","","","","","","","","","","","","","","","","","","","","","","","","",""
"","","","","","image-keyboard-response","113","474292","0.0-2.0-7.0-1.6","5ba5d8b960f3d50001697104","F1","batch6","","1388.5","stim/yes_43_ver_w1_w.png","f","pattern_response","true","f","pattern_65","1388.5","true","44","","","","","","","","","","","","","","","","","","",""
"","","","","","html-keyboard-response","114","475608","0.0-2.0-7.0-0.7","5ba5d8b960f3d50001697104","F1","batch6","","null","<p class=block-text>Trial 47 out of 78</p>","null","pattern_show_trial_num","","","","","","","","","","","","","","","","","","","","","","","","",""
"","","","","","image-keyboard-response","115","478035","0.0-2.0-7.0-1.7","5ba5d8b960f3d50001697104","F1","batch6","","2425.60000000149","stim/no_26_1_w.png","j","pattern_response","true","j","pattern_10","2425.60000000149","true","45","","","","","","","","","","","","","","","","","","",""
"","","","","","html-keyboard-response","116","479352","0.0-2.0-7.0-0.8","5ba5d8b960f3d50001697104","F1","batch6","","null","<p class=block-text>Trial 48 out of 78</p>","null","pattern_show_trial_num","","","","","","","","","","","","","","","","","","","","","","","","",""
"","","","","","image-keyboard-response","117","483294","0.0-2.0-7.0-1.8","5ba5d8b960f3d50001697104","F1","batch6","","3940.60000000149","stim/no_52_1.png","j","pattern_response","true","j","pattern_32","3940.60000000149","true","46","","","","","","","","","","","","","","","","","","",""
"","","","","","html-keyboard-response","118","484604","0.0-2.0-7.0-0.9","5ba5d8b960f3d50001697104","F1","batch6","","null","<p class=block-text>Trial 49 out of 78</p>","null","pattern_show_trial_num","","","","","","","","","","","","","","","","","","","","","","","","",""
"","","","","","image-keyboard-response","119","487022","0.0-2.0-7.0-1.9","5ba5d8b960f3d50001697104","F1","batch6","","2415.900000002235","stim/no_36_2_w.png","j","pattern_response","true","j","pattern_18","2415.900000002235","true","47","","","","","","","","","","","","","","","","","","",""
"","","","","","html-keyboard-response","120","488336","0.0-2.0-7.0-0.10","5ba5d8b960f3d50001697104","F1","batch6","","null","<p class=block-text>Trial 50 out of 78</p>","null","pattern_show_trial_num","","","","","","","","","","","","","","","","","","","","","","","","",""
"","","","","","image-keyboard-response","121","492569","0.0-2.0-7.0-1.10","5ba5d8b960f3d50001697104","F1","batch6","","4231.699999999255","stim/no_50_1.png","j","pattern_response","true","j","pattern_30","4231.699999999255","true","48","","","","","","","","","","","","","","","","","","",""
"","","","","","html-keyboard-response","122","493888","0.0-2.0-7.0-0.11","5ba5d8b960f3d50001697104","F1","batch6","","null","<p class=block-text>Trial 51 out of 78</p>","null","pattern_show_trial_num","","","","","","","","","","","","","","","","","","","","","","","","",""
"","","","","","image-keyboard-response","123","496881","0.0-2.0-7.0-1.11","5ba5d8b960f3d50001697104","F1","batch6","","2990.900000002235","stim/yes_48_dia_w1_w.png","j","pattern_response","false","f","pattern_69","2990.900000002235","false","48","","","","","","","","","","","","","","","","","","",""
"","","","","","html-keyboard-response","124","498200","0.0-2.0-7.0-0.12","5ba5d8b960f3d50001697104","F1","batch6","","null","<p class=block-text>Trial 52 out of 78</p>","null","pattern_show_trial_num","","","","","","","","","","","","","","","","","","","","","","","","",""
"","","","","","image-keyboard-response","125","502959","0.0-2.0-7.0-1.12","5ba5d8b960f3d50001697104","F1","batch6","","4757","stim/no_65_1_b.png","j","pattern_response","true","j","pattern_38","4757","true","49","","","","","","","","","","","","","","","","","","",""
"","","","","","html-keyboard-response","126","504280","0.0-2.0-7.0-0.13","5ba5d8b960f3d50001697104","F1","batch6","","null","<p class=block-text>Trial 53 out of 78</p>","null","pattern_show_trial_num","","","","","","","","","","","","","","","","","","","","","","","","",""
"","","","","","image-keyboard-response","127","505893","0.0-2.0-7.0-1.13","5ba5d8b960f3d50001697104","F1","batch6","","1610.699999999255","stim/no_42_1_w.png","j","pattern_response","true","j","pattern_22","1610.699999999255","true","50","","","","","","","","","","","","","","","","","","",""
"","","","","","html-keyboard-response","128","507209","0.0-2.0-7.0-0.14","5ba5d8b960f3d50001697104","F1","batch6","","null","<p class=block-text>Trial 54 out of 78</p>","null","pattern_show_trial_num","","","","","","","","","","","","","","","","","","","","","","","","",""
"","","","","","image-keyboard-response","129","508696","0.0-2.0-7.0-1.14","5ba5d8b960f3d50001697104","F1","batch6","","1485.5","stim/yes_45_hor_b2_b.png","f","pattern_response","true","f","pattern_67","1485.5","true","51","","","","","","","","","","","","","","","","","","",""
"","","","","","html-keyboard-response","130","510017","0.0-2.0-7.0-0.15","5ba5d8b960f3d50001697104","F1","batch6","","null","<p class=block-text>Trial 55 out of 78</p>","null","pattern_show_trial_num","","","","","","","","","","","","","","","","","","","","","","","","",""
"","","","","","image-keyboard-response","131","515339","0.0-2.0-7.0-1.15","5ba5d8b960f3d50001697104","F1","batch6","","5320.699999999255","stim/no_62_1_w.png","j","pattern_response","true","j","pattern_36","5320.699999999255","true","52","","","","","","","","","","","","","","","","","","",""
"","","","","","html-keyboard-response","132","516657","0.0-2.0-7.0-0.16","5ba5d8b960f3d50001697104","F1","batch6","","null","<p class=block-text>Trial 56 out of 78</p>","null","pattern_show_trial_num","","","","","","","","","","","","","","","","","","","","","","","","",""
"","","","","","image-keyboard-response","133","517600","0.0-2.0-7.0-1.16","5ba5d8b960f3d50001697104","F1","batch6","","941.1999999992549","stim/yes_29_ver_w1.png","f","pattern_response","true","f","pattern_53","941.1999999992549","true","53","","","","","","","","","","","","","","","","","","",""
"","","","","","html-keyboard-response","134","518917","0.0-2.0-7.0-0.17","5ba5d8b960f3d50001697104","F1","batch6","","null","<p class=block-text>Trial 57 out of 78</p>","null","pattern_show_trial_num","","","","","","","","","","","","","","","","","","","","","","","","",""
"","","","","","image-keyboard-response","135","520653","0.0-2.0-7.0-1.17","5ba5d8b960f3d50001697104","F1","batch6","","1734.6000000014901","stim/no_29_1_b.png","j","pattern_response","true","j","pattern_12","1734.6000000014901","true","54","","","","","","","","","","","","","","","","","","",""
"","","","","","html-keyboard-response","136","521969","0.0-2.0-7.0-0.18","5ba5d8b960f3d50001697104","F1","batch6","","null","<p class=block-text>Trial 58 out of 78</p>","null","pattern_show_trial_num","","","","","","","","","","","","","","","","","","","","","","","","",""
"","","","","","image-keyboard-response","137","525186","0.0-2.0-7.0-1.18","5ba5d8b960f3d50001697104","F1","batch6","","3215","stim/yes_37_dia_w1.png","j","pattern_response","false","f","pattern_59","3215","false","54","","","","","","","","","","","","","","","","","","",""
"","","","","","html-keyboard-response","138","526505","0.0-2.0-7.0-0.19","5ba5d8b960f3d50001697104","F1","batch6","","null","<p class=block-text>Trial 59 out of 78</p>","null","pattern_show_trial_num","","","","","","","","","","","","","","","","","","","","","","","","",""
"","","","","","image-keyboard-response","139","527392","0.0-2.0-7.0-1.19","5ba5d8b960f3d50001697104","F1","batch6","","885.1999999992549","stim/yes_55_hor_w1_w.png","f","pattern_response","true","f","pattern_75","885.1999999992549","true","55","","","","","","","","","","","","","","","","","","",""
"","","","","","html-keyboard-response","140","528713","0.0-2.0-7.0-0.20","5ba5d8b960f3d50001697104","F1","batch6","","null","<p class=block-text>Trial 60 out of 78</p>","null","pattern_show_trial_num","","","","","","","","","","","","","","","","","","","","","","","","",""
"","","","","","image-keyboard-response","141","529813","0.0-2.0-7.0-1.20","5ba5d8b960f3d50001697104","F1","batch6","","1098.3999999985099","stim/yes_28_ver_b1.png","f","pattern_response","true","f","pattern_51","1098.3999999985099","true","56","","","","","","","","","","","","","","","","","","",""
"","","","","","html-keyboard-response","142","531129","0.0-2.0-7.0-0.21","5ba5d8b960f3d50001697104","F1","batch6","","null","<p class=block-text>Trial 61 out of 78</p>","null","pattern_show_trial_num","","","","","","","","","","","","","","","","","","","","","","","","",""
"","","","","","image-keyboard-response","143","533233","0.0-2.0-7.0-1.21","5ba5d8b960f3d50001697104","F1","batch6","","2102.400000002235","stim/yes_31_hor_b1.png","f","pattern_response","true","f","pattern_55","2102.400000002235","true","57","","","","","","","","","","","","","","","","","","",""
"","","","","","html-keyboard-response","144","534553","0.0-2.0-7.0-0.22","5ba5d8b960f3d50001697104","F1","batch6","","null","<p class=block-text>Trial 62 out of 78</p>","null","pattern_show_trial_num","","","","","","","","","","","","","","","","","","","","","","","","",""
"","","","","","image-keyboard-response","145","535853","0.0-2.0-7.0-1.22","5ba5d8b960f3d50001697104","F1","batch6","","1297.699999999255","stim/no_17_1_w.png","j","pattern_response","true","j","pattern_04","1297.699999999255","true","58","","","","","","","","","","","","","","","","","","",""
"","","","","","html-keyboard-response","146","537166","0.0-2.0-7.0-0.23","5ba5d8b960f3d50001697104","F1","batch6","","null","<p class=block-text>Trial 63 out of 78</p>","null","pattern_show_trial_num","","","","","","","","","","","","","","","","","","","","","","","","",""
"","","","","","image-keyboard-response","147","539559","0.0-2.0-7.0-1.23","5ba5d8b960f3d50001697104","F1","batch6","","2392","stim/no_32_1_w.png","j","pattern_response","true","j","pattern_14","2392","true","59","","","","","","","","","","","","","","","","","","",""
"","","","","","html-keyboard-response","148","540874","0.0-2.0-7.0-0.24","5ba5d8b960f3d50001697104","F1","batch6","","null","<p class=block-text>Trial 64 out of 78</p>","null","pattern_show_trial_num","","","","","","","","","","","","","","","","","","","","","","","","",""
"","","","","","image-keyboard-response","149","541801","0.0-2.0-7.0-1.24","5ba5d8b960f3d50001697104","F1","batch6","","925.0999999977648","stim/yes_40_dia_b1_b.png","f","pattern_response","true","f","pattern_63","925.0999999977648","true","60","","","","","","","","","","","","","","","","","","",""
"","","","","","html-keyboard-response","150","543121","0.0-2.0-7.0-0.25","5ba5d8b960f3d50001697104","F1","batch6","","null","<p class=block-text>Trial 65 out of 78</p>","null","pattern_show_trial_num","","","","","","","","","","","","","","","","","","","","","","","","",""
"","","","","","image-keyboard-response","151","547032","0.0-2.0-7.0-1.25","5ba5d8b960f3d50001697104","F1","batch6","","3909.900000002235","stim/no_44_1.png","j","pattern_response","true","j","pattern_24","3909.900000002235","true","61","","","","","","","","","","","","","","","","","","",""
"","","","","","html-keyboard-response","152","548344","0.0-2.0-7.0-0.26","5ba5d8b960f3d50001697104","F1","batch6","","null","<p class=block-text>Trial 66 out of 78</p>","null","pattern_show_trial_num","","","","","","","","","","","","","","","","","","","","","","","","",""
"","","","","","image-keyboard-response","153","550774","0.0-2.0-7.0-1.26","5ba5d8b960f3d50001697104","F1","batch6","","2427.89999999851","stim/yes_67_hor_b1.png","f","pattern_response","true","f","pattern_79","2427.89999999851","true","62","","","","","","","","","","","","","","","","","","",""
"","","","","","html-keyboard-response","154","552090","0.0-2.0-7.0-0.27","5ba5d8b960f3d50001697104","F1","batch6","","null","<p class=block-text>Trial 67 out of 78</p>","null","pattern_show_trial_num","","","","","","","","","","","","","","","","","","","","","","","","",""
"","","","","","image-keyboard-response","155","554248","0.0-2.0-7.0-1.27","5ba5d8b960f3d50001697104","F1","batch6","","2155.60000000149","stim/no_38_1_b.png","j","pattern_response","true","j","pattern_20","2155.60000000149","true","63","","","","","","","","","","","","","","","","","","",""
"","","","","","html-keyboard-response","156","555562","0.0-2.0-7.0-0.28","5ba5d8b960f3d50001697104","F1","batch6","","null","<p class=block-text>Trial 68 out of 78</p>","null","pattern_show_trial_num","","","","","","","","","","","","","","","","","","","","","","","","",""
"","","","","","image-keyboard-response","157","556493","0.0-2.0-7.0-1.28","5ba5d8b960f3d50001697104","F1","batch6","","928.5","stim/yes_22_ver_w1.png","f","pattern_response","true","f","pattern_47","928.5","true","64","","","","","","","","","","","","","","","","","","",""
"","","","","","html-keyboard-response","158","557807","0.0-2.0-7.0-0.29","5ba5d8b960f3d50001697104","F1","batch6","","null","<p class=block-text>Trial 69 out of 78</p>","null","pattern_show_trial_num","","","","","","","","","","","","","","","","","","","","","","","","",""
"","","","","","image-keyboard-response","159","564030","0.0-2.0-7.0-1.29","5ba5d8b960f3d50001697104","F1","batch6","","6221.20000000298","stim/no_70_2.png","j","pattern_response","true","j","pattern_40","6221.20000000298","true","65","","","","","","","","","","","","","","","","","","",""
"","","","","","html-keyboard-response","160","565346","0.0-2.0-7.0-0.30","5ba5d8b960f3d50001697104","F1","batch6","","null","<p class=block-text>Trial 70 out of 78</p>","null","pattern_show_trial_num","","","","","","","","","","","","","","","","","","","","","","","","",""
"","","","","","image-keyboard-response","161","568433","0.0-2.0-7.0-1.30","5ba5d8b960f3d50001697104","F1","batch6","","3084.39999999851","stim/no_48_1_w.png","j","pattern_response","true","j","pattern_28","3084.39999999851","true","66","","","","","","","","","","","","","","","","","","",""
"","","","","","html-keyboard-response","162","569746","0.0-2.0-7.0-0.31","5ba5d8b960f3d50001697104","F1","batch6","","null","<p class=block-text>Trial 71 out of 78</p>","null","pattern_show_trial_num","","","","","","","","","","","","","","","","","","","","","","","","",""
"","","","","","image-keyboard-response","163","573587","0.0-2.0-7.0-1.31","5ba5d8b960f3d50001697104","F1","batch6","","3838","stim/yes_60_ver_b1_b.png","f","pattern_response","true","f","pattern_77","3838","true","67","","","","","","","","","","","","","","","","","","",""
"","","","","","html-keyboard-response","164","574907","0.0-2.0-7.0-0.32","5ba5d8b960f3d50001697104","F1","batch6","","null","<p class=block-text>Trial 72 out of 78</p>","null","pattern_show_trial_num","","","","","","","","","","","","","","","","","","","","","","","","",""
"","","","","","image-keyboard-response","165","577354","0.0-2.0-7.0-1.32","5ba5d8b960f3d50001697104","F1","batch6","","2445.599999997765","stim/no_34_1_b.png","j","pattern_response","true","j","pattern_16","2445.599999997765","true","68","","","","","","","","","","","","","","","","","","",""
"","","","","","html-keyboard-response","166","578675","0.0-2.0-7.0-0.33","5ba5d8b960f3d50001697104","F1","batch6","","null","<p class=block-text>Trial 73 out of 78</p>","null","pattern_show_trial_num","","","","","","","","","","","","","","","","","","","","","","","","",""
"","","","","","image-keyboard-response","167","580155","0.0-2.0-7.0-1.33","5ba5d8b960f3d50001697104","F1","batch6","","1478.699999999255","stim/yes_35_dia_b1.png","f","pattern_response","true","f","pattern_57","1478.699999999255","true","69","","","","","","","","","","","","","","","","","","",""
"","","","","","html-keyboard-response","168","581475","0.0-2.0-7.0-0.34","5ba5d8b960f3d50001697104","F1","batch6","","null","<p class=block-text>Trial 74 out of 78</p>","null","pattern_show_trial_num","","","","","","","","","","","","","","","","","","","","","","","","",""
"","","","","","image-keyboard-response","169","582609","0.0-2.0-7.0-1.34","5ba5d8b960f3d50001697104","F1","batch6","","1131.8999999985099","stim/yes_52_ver_w1.png","f","pattern_response","true","f","pattern_73","1131.8999999985099","true","70","","","","","","","","","","","","","","","","","","",""
"","","","","","html-keyboard-response","170","583919","0.0-2.0-7.0-0.35","5ba5d8b960f3d50001697104","F1","batch6","","null","<p class=block-text>Trial 75 out of 78</p>","null","pattern_show_trial_num","","","","","","","","","","","","","","","","","","","","","","","","",""
"","","","","","image-keyboard-response","171","586904","0.0-2.0-7.0-1.35","5ba5d8b960f3d50001697104","F1","batch6","","2983.39999999851","stim/no_46_1_b.png","j","pattern_response","true","j","pattern_26","2983.39999999851","true","71","","","","","","","","","","","","","","","","","","",""
"","","","","","html-keyboard-response","172","588214","0.0-2.0-7.0-0.36","5ba5d8b960f3d50001697104","F1","batch6","","null","<p class=block-text>Trial 76 out of 78</p>","null","pattern_show_trial_num","","","","","","","","","","","","","","","","","","","","","","","","",""
"","","","","","image-keyboard-response","173","589010","0.0-2.0-7.0-1.36","5ba5d8b960f3d50001697104","F1","batch6","","794.6000000014901","stim/yes_14_hor_b1_w.png","f","pattern_response","true","f","pattern_43","794.6000000014901","true","72","","","","","","","","","","","","","","","","","","",""
"","","","","","html-keyboard-response","174","590330","0.0-2.0-7.0-0.37","5ba5d8b960f3d50001697104","F1","batch6","","null","<p class=block-text>Trial 77 out of 78</p>","null","pattern_show_trial_num","","","","","","","","","","","","","","","","","","","","","","","","",""
"","","","","","image-keyboard-response","175","593826","0.0-2.0-7.0-1.37","5ba5d8b960f3d50001697104","F1","batch6","","3494.300000000745","stim/no_55_1_w.png","j","pattern_response","true","j","pattern_34","3494.300000000745","true","73","","","","","","","","","","","","","","","","","","",""
"","","","","","html-keyboard-response","176","595139","0.0-2.0-7.0-0.38","5ba5d8b960f3d50001697104","F1","batch6","","null","<p class=block-text>Trial 78 out of 78</p>","null","pattern_show_trial_num","","","","","","","","","","","","","","","","","","","","","","","","",""
"","","","","","image-keyboard-response","177","596882","0.0-2.0-7.0-1.38","5ba5d8b960f3d50001697104","F1","batch6","","1740.5","stim/no_20_1_w.png","j","pattern_response","true","j","pattern_06","1740.5","true","74","","","","","","","","","","","","","","","","","","",""
"","","","","","html-button-response","178","619457","0.0-2.0-8.0","5ba5d8b960f3d50001697104","F1","batch6","","22067.800000000745","<p class = block-text>This concludes the 4-in-a-row detection game.Thank you for your responses!<br>
            You responded correctly on 95% of the trials.<br>
            When you are ready, press ""Continue"" button to continue </p>","0","","","","","","","","","","","","","","","","","","","","","","","","","",""
"true","","","","","fullscreen","179","634456","0.0-3.0-0.0","5ba5d8b960f3d50001697104","F1","batch6","","","","","","","","","","","","","","","","","","","","","","","","","","","","","",""
"","","","","","instructions","180","855364","0.0-3.0-1.0-0.0-0.0","5ba5d8b960f3d50001697104","F1","batch6","[{""page_index"":0,""viewing_time"":50435.89999999851},{""page_index"":1,""viewing_time"":20582.199999999255},{""page_index"":2,""viewing_time"":24215.10000000149},{""page_index"":3,""viewing_time"":28551.89999999851},{""page_index"":4,""viewing_time"":28828.699999999255},{""page_index"":5,""viewing_time"":51672.20000000298},{""page_index"":6,""viewing_time"":16603.199999999255}]","220889.59999999776","","","tol-instructions","","","","","","","","","","","","","","","","","","","","","","","","",""
"","","","","","html-button-response","181","857329","0.0-3.0-1.0-1.0-0.0","5ba5d8b960f3d50001697104","F1","batch6","","1963.3999999985099","<p class=block-text> Let's answer a few questions <br>","0","tol_enter_quiz","","","","","","","","","","","","","","","","","","","","","","","","",""
"","","","","","html-button-response","182","863220","0.0-3.0-1.0-1.0-1.0","5ba5d8b960f3d50001697104","F1","batch6","","5887.60000000149","<p class = block-text>True or False: You can only move the ball on top of a peg. <br></p>","0","tol_quiz","true","","","","","","","","","","","","","","","","","","","","","","","",""
"","","","","","html-button-response","183","864925","0.0-3.0-1.0-1.0-2.0","5ba5d8b960f3d50001697104","F1","batch6","","1703","<p class = block-text>Correct! You can only move the ball on top of a peg.</p>","0","tol_quiz_feedback","","","","","","","","","","","","","","","","","","","","","","","","",""
"","","","","","html-button-response","184","871754","0.0-3.0-1.0-1.0-3.0","5ba5d8b960f3d50001697104","F1","batch6","","6826.89999999851","<p class = block-text>True or False: You should try to match your board with the target board with fewest moves possible. <br></p>","0","tol_quiz","true","","","","","","","","","","","","","","","","","","","","","","","",""
"","","","","","html-button-response","185","872835","0.0-3.0-1.0-1.0-4.0","5ba5d8b960f3d50001697104","F1","batch6","","1079.8999999985099","<p class = block-text>Correct! </p>","0","tol_quiz_feedback","","","","","","","","","","","","","","","","","","","","","","","","",""
"","","","","","html-button-response","186","877120","0.0-3.0-2.0","5ba5d8b960f3d50001697104","F1","batch6","","4283","<p class=block-text> Now that you've understood the game, let's practice a few easier examples before we start!<br> <br>","0","","","","","","","","","","","","","","","","","","","","","","","","","",""
"","","","","","single-stim-button","187","885035","0.0-3.0-3.0-0.0","5ba5d8b960f3d50001697104","F1","batch6","","7912","","","tol_practice","","","","","","","","","tol_peg_2","7912","7912","0","[[1,2,0],[0,0],[0]]","1","[[1,2,0],[0,0],[3]]","practice","7912","","","","","","","",""
"","","","","","single-stim-button","188","886259","0.0-3.0-3.0-1.0","5ba5d8b960f3d50001697104","F1","batch6","","1222","","","tol_practice","","","","","","","","","tol_peg_3","1222","1222","0","[[1,2,0],[0,0],[3]]","1","[[1,2,0],[0,0],[3]]","practice","1222","","","","","","","",""
"","","","","","poldrack-single-stim","189","887272","0.0-3.0-4.0","5ba5d8b960f3d50001697104","F1","batch6","","-1","","","tol_feedback","true","","","","","","","","","1000","1000","500","","","","","","-1","none","true","","0","","",""
"","","","","","single-stim-button","190","894730","0.0-3.0-5.0-0.0","5ba5d8b960f3d50001697104","F1","batch6","","7457","","","tol_practice","","","","","","","","","tol_peg_1","7457","7457","0","[[1,0,0],[3,0],[0]]","2","[[0,0,0],[3,1],[2]]","practice","7457","","","","","","","",""
"","","","","","single-stim-button","191","895793","0.0-3.0-5.0-1.0","5ba5d8b960f3d50001697104","F1","batch6","","1062","","","tol_practice","","","","","","","","","tol_peg_3","1062","1062","0","[[1,0,0],[3,0],[2]]","2","[[0,0,0],[3,1],[2]]","practice","1062","","","","","","","",""
"","","","","","single-stim-button","192","897085","0.0-3.0-5.1-0.1","5ba5d8b960f3d50001697104","F1","batch6","","1290","","","tol_practice","","","","","","","","","tol_peg_1","1290","1290","0","[[0,0,0],[3,0],[2]]","3","[[0,0,0],[3,1],[2]]","practice","1290","","","","","","","",""
"","","","","","single-stim-button","193","898048","0.0-3.0-5.1-1.1","5ba5d8b960f3d50001697104","F1","batch6","","963","","","tol_practice","","","","","","","","","tol_peg_2","963","963","0","[[0,0,0],[3,1],[2]]","3","[[0,0,0],[3,1],[2]]","practice","963","","","","","","","",""
"","","","","","poldrack-single-stim","194","899050","0.0-3.0-6.0","5ba5d8b960f3d50001697104","F1","batch6","","-1","","","tol_feedback","true","","","","","","","","","1000","1000","500","","","","","","-1","none","true","","0","","",""
"","","","","","single-stim-button","195","902692","0.0-3.0-7.0-0.0","5ba5d8b960f3d50001697104","F1","batch6","","3641","","","tol_practice","","","","","","","","","tol_peg_2","3641","3641","0","[[1,2,0],[0,0],[0]]","4","[[1,0,0],[2,0],[3]]","practice","3641","","","","","","","",""
"","","","","","single-stim-button","196","903401","0.0-3.0-7.0-1.0","5ba5d8b960f3d50001697104","F1","batch6","","708","","","tol_practice","","","","","","","","","tol_peg_3","708","708","0","[[1,2,0],[0,0],[3]]","4","[[1,0,0],[2,0],[3]]","practice","708","","","","","","","",""
"","","","","","single-stim-button","197","905055","0.0-3.0-7.1-0.1","5ba5d8b960f3d50001697104","F1","batch6","","1653","","","tol_practice","","","","","","","","","tol_peg_1","1653","1653","0","[[1,0,0],[0,0],[3]]","5","[[1,0,0],[2,0],[3]]","practice","1653","","","","","","","",""
"","","","","","single-stim-button","198","905774","0.0-3.0-7.1-1.1","5ba5d8b960f3d50001697104","F1","batch6","","719","","","tol_practice","","","","","","","","","tol_peg_2","719","719","0","[[1,0,0],[2,0],[3]]","5","[[1,0,0],[2,0],[3]]","practice","719","","","","","","","",""
"","","","","","poldrack-single-stim","199","906780","0.0-3.0-8.0","5ba5d8b960f3d50001697104","F1","batch6","","-1","","","tol_feedback","true","","","","","","","","","1000","1000","500","","","","","","-1","none","true","","0","","",""
"","","","","","html-button-response","200","922604","0.0-3.0-9.0","5ba5d8b960f3d50001697104","F1","batch6","","15821.5","<div class = centerbox><p class = center-block-text>Great job! You are done with practice trials<br>You are about to start official trials.<br> <br> Problem <strong>1</strong> out of 25 problems</p></div>","0","tol_instruction","","","","","","","","","","","","","","","","","","","","","","","","",""
"","","","","","single-stim-button","201","940440","0.0-3.0-10.0-0.0","5ba5d8b960f3d50001697104","F1","batch6","","16829","","","tol_tohand","","","","","","","","","tol_peg_2","16829","16829","0","[[1,2,0],[0,0],[0]]","1","[[1,3,0],[2,0],[0]]","0","0","","","","","","3","",""
"","","","","","single-stim-button","202","941152","0.0-3.0-10.0-1.0","5ba5d8b960f3d50001697104","F1","batch6","","712","","","tol_toboard","","","","","","","","","tol_peg_3","712","712","0","[[1,2,0],[0,0],[3]]","1","[[1,3,0],[2,0],[0]]","0","0","","","","","","3","",""
"","","","","","single-stim-button","203","942134","0.0-3.0-10.1-0.1","5ba5d8b960f3d50001697104","F1","batch6","","981","","","tol_tohand","","","","","","","","","tol_peg_1","981","981","0","[[1,0,0],[0,0],[3]]","2","[[1,3,0],[2,0],[0]]","0","0","","","","","","3","",""
"","","","","","single-stim-button","204","943136","0.0-3.0-10.1-1.1","5ba5d8b960f3d50001697104","F1","batch6","","1002","","","tol_toboard","","","","","","","","","tol_peg_2","1002","1002","0","[[1,0,0],[2,0],[3]]","2","[[1,3,0],[2,0],[0]]","0","0","","","","","","3","",""
"","","","","","single-stim-button","205","944113","0.0-3.0-10.2-0.2","5ba5d8b960f3d50001697104","F1","batch6","","976","","","tol_tohand","","","","","","","","","tol_peg_3","976","976","0","[[1,0,0],[2,0],[0]]","3","[[1,3,0],[2,0],[0]]","0","0","","","","","","3","",""
"","","","","","single-stim-button","206","945386","0.0-3.0-10.2-1.2","5ba5d8b960f3d50001697104","F1","batch6","","1272","","","tol_toboard","","","","","","","","","tol_peg_1","1272","1272","0","[[1,3,0],[2,0],[0]]","3","[[1,3,0],[2,0],[0]]","0","0","","","","","","3","",""
"","","","","","poldrack-single-stim","207","946392","0.0-3.0-11.0","5ba5d8b960f3d50001697104","F1","batch6","","-1","","","tol_feedback","true","","","","","","","","","1000","1000","500","","","","","","-1","none","true","16829","18786","","",""
"","","","","","html-button-response","208","947661","0.0-3.0-12.0","5ba5d8b960f3d50001697104","F1","batch6","","1268","<div class = centerbox><p class = center-block-text>problem <strong>2</strong> out of 25 problems</p></div>","0","tol_trial_num","","","","","","","","","","","","","","","","","","","","","","","","",""
"","","","","","single-stim-button","209","957892","0.0-3.0-13.0-0.0","5ba5d8b960f3d50001697104","F1","batch6","","10231","","","tol_tohand","","","","","","","","","tol_peg_1","10231","10231","0","[[1,0,0],[3,0],[0]]","1","[[2,1,3],[0,0],[0]]","1","0","","","","","","5","",""
"","","","","","single-stim-button","210","958883","0.0-3.0-13.0-1.0","5ba5d8b960f3d50001697104","F1","batch6","","990","","","tol_toboard","","","","","","","","","tol_peg_3","990","990","0","[[1,0,0],[3,0],[2]]","1","[[2,1,3],[0,0],[0]]","1","0","","","","","","5","",""
"","","","","","single-stim-button","211","961906","0.0-3.0-13.1-0.1","5ba5d8b960f3d50001697104","F1","batch6","","3021","","","tol_tohand","","","","","","","","","tol_peg_1","3021","3021","0","[[0,0,0],[3,0],[2]]","2","[[2,1,3],[0,0],[0]]","1","0","","","","","","5","",""
"","","","","","single-stim-button","212","962546","0.0-3.0-13.1-1.1","5ba5d8b960f3d50001697104","F1","batch6","","639","","","tol_toboard","","","","","","","","","tol_peg_2","639","639","0","[[0,0,0],[3,1],[2]]","2","[[2,1,3],[0,0],[0]]","1","0","","","","","","5","",""
"","","","","","single-stim-button","213","963408","0.0-3.0-13.2-0.2","5ba5d8b960f3d50001697104","F1","batch6","","862","","","tol_tohand","","","","","","","","","tol_peg_3","862","862","0","[[0,0,0],[3,1],[0]]","3","[[2,1,3],[0,0],[0]]","1","0","","","","","","5","",""
"","","","","","single-stim-button","214","964125","0.0-3.0-13.2-1.2","5ba5d8b960f3d50001697104","F1","batch6","","716","","","tol_toboard","","","","","","","","","tol_peg_1","716","716","0","[[2,0,0],[3,1],[0]]","3","[[2,1,3],[0,0],[0]]","1","0","","","","","","5","",""
"","","","","","single-stim-button","215","964980","0.0-3.0-13.3-0.3","5ba5d8b960f3d50001697104","F1","batch6","","854","","","tol_tohand","","","","","","","","","tol_peg_2","854","854","0","[[2,0,0],[3,0],[0]]","4","[[2,1,3],[0,0],[0]]","1","0","","","","","","5","",""
"","","","","","single-stim-button","216","965540","0.0-3.0-13.3-1.3","5ba5d8b960f3d50001697104","F1","batch6","","559","","","tol_toboard","","","","","","","","","tol_peg_1","559","559","0","[[2,1,0],[3,0],[0]]","4","[[2,1,3],[0,0],[0]]","1","0","","","","","","5","",""
"","","","","","single-stim-button","217","966280","0.0-3.0-13.4-0.4","5ba5d8b960f3d50001697104","F1","batch6","","739","","","tol_tohand","","","","","","","","","tol_peg_2","739","739","0","[[2,1,0],[0,0],[0]]","5","[[2,1,3],[0,0],[0]]","1","0","","","","","","5","",""
"","","","","","single-stim-button","218","967021","0.0-3.0-13.4-1.4","5ba5d8b960f3d50001697104","F1","batch6","","741","","","tol_toboard","","","","","","","","","tol_peg_1","741","741","0","[[2,1,3],[0,0],[0]]","5","[[2,1,3],[0,0],[0]]","1","0","","","","","","5","",""
"","","","","","poldrack-single-stim","219","968035","0.0-3.0-14.0","5ba5d8b960f3d50001697104","F1","batch6","","-1","","","tol_feedback","true","","","","","","","","","1000","1000","500","","","","","","-1","none","true","10231","15707","","",""
"","","","","","html-button-response","220","969136","0.0-3.0-15.0","5ba5d8b960f3d50001697104","F1","batch6","","1099.6000000014901","<div class = centerbox><p class = center-block-text>problem <strong>3</strong> out of 25 problems</p></div>","0","tol_trial_num","","","","","","","","","","","","","","","","","","","","","","","","",""
"","","","","","single-stim-button","221","976345","0.0-3.0-16.0-0.0","5ba5d8b960f3d50001697104","F1","batch6","","7209","","","tol_tohand","","","","","","","","","tol_peg_1","7209","7209","0","[[2,0,0],[0,0],[1]]","1","[[1,2,0],[3,0],[0]]","2","0","","","","","","4","",""
"","","","","","single-stim-button","222","977129","0.0-3.0-16.0-1.0","5ba5d8b960f3d50001697104","F1","batch6","","783","","","tol_toboard","","","","","","","","","tol_peg_2","783","783","0","[[2,0,0],[3,0],[1]]","1","[[1,2,0],[3,0],[0]]","2","0","","","","","","4","",""
"","","","","","single-stim-button","223","980040","0.0-3.0-16.1-0.1","5ba5d8b960f3d50001697104","F1","batch6","","2909","","","tol_tohand","","","","","","","","","tol_peg_1","2909","2909","0","[[0,0,0],[3,0],[1]]","2","[[1,2,0],[3,0],[0]]","2","0","","","","","","4","",""
"","","","","","single-stim-button","224","980764","0.0-3.0-16.1-1.1","5ba5d8b960f3d50001697104","F1","batch6","","724","","","tol_toboard","","","","","","","","","tol_peg_2","724","724","0","[[0,0,0],[3,2],[1]]","2","[[1,2,0],[3,0],[0]]","2","0","","","","","","4","",""
"","","","","","single-stim-button","225","981607","0.0-3.0-16.2-0.2","5ba5d8b960f3d50001697104","F1","batch6","","841","","","tol_tohand","","","","","","","","","tol_peg_3","841","841","0","[[0,0,0],[3,2],[0]]","3","[[1,2,0],[3,0],[0]]","2","0","","","","","","4","",""
"","","","","","single-stim-button","226","982237","0.0-3.0-16.2-1.2","5ba5d8b960f3d50001697104","F1","batch6","","630","","","tol_toboard","","","","","","","","","tol_peg_1","630","630","0","[[1,0,0],[3,2],[0]]","3","[[1,2,0],[3,0],[0]]","2","0","","","","","","4","",""
"","","","","","single-stim-button","227","982902","0.0-3.0-16.3-0.3","5ba5d8b960f3d50001697104","F1","batch6","","663","","","tol_tohand","","","","","","","","","tol_peg_2","663","663","0","[[1,0,0],[3,0],[0]]","4","[[1,2,0],[3,0],[0]]","2","0","","","","","","4","",""
"","","","","","single-stim-button","228","983316","0.0-3.0-16.3-1.3","5ba5d8b960f3d50001697104","F1","batch6","","414","","","tol_toboard","","","","","","","","","tol_peg_1","414","414","0","[[1,2,0],[3,0],[0]]","4","[[1,2,0],[3,0],[0]]","2","0","","","","","","4","",""
"","","","","","poldrack-single-stim","229","984319","0.0-3.0-17.0","5ba5d8b960f3d50001697104","F1","batch6","","-1","","","tol_feedback","true","","","","","","","","","1000","1000","500","","","","","","-1","none","true","7209","11622","","",""
"","","","","","html-button-response","230","985619","0.0-3.0-18.0","5ba5d8b960f3d50001697104","F1","batch6","","1299.699999999255","<div class = centerbox><p class = center-block-text>problem <strong>4</strong> out of 25 problems</p></div>","0","tol_trial_num","","","","","","","","","","","","","","","","","","","","","","","","",""
"","","","","","single-stim-button","231","994369","0.0-3.0-19.0-0.0","5ba5d8b960f3d50001697104","F1","batch6","","8748","","","tol_tohand","","","","","","","","","tol_peg_2","8748","8748","0","[[3,0,0],[2,0],[0]]","1","[[3,0,0],[1,0],[2]]","3","0","","","","","","3","",""
"","","","","","single-stim-button","232","994960","0.0-3.0-19.0-1.0","5ba5d8b960f3d50001697104","F1","batch6","","590","","","tol_toboard","","","","","","","","","tol_peg_1","590","590","0","[[3,1,0],[2,0],[0]]","1","[[3,0,0],[1,0],[2]]","3","0","","","","","","3","",""
"","","","","","single-stim-button","233","995711","0.0-3.0-19.1-0.1","5ba5d8b960f3d50001697104","F1","batch6","","750","","","tol_tohand","","","","","","","","","tol_peg_2","750","750","0","[[3,1,0],[0,0],[0]]","2","[[3,0,0],[1,0],[2]]","3","0","","","","","","3","",""
"","","","","","single-stim-button","234","996337","0.0-3.0-19.1-1.1","5ba5d8b960f3d50001697104","F1","batch6","","626","","","tol_toboard","","","","","","","","","tol_peg_3","626","626","0","[[3,1,0],[0,0],[2]]","2","[[3,0,0],[1,0],[2]]","3","0","","","","","","3","",""
"","","","","","single-stim-button","235","997039","0.0-3.0-19.2-0.2","5ba5d8b960f3d50001697104","F1","batch6","","700","","","tol_tohand","","","","","","","","","tol_peg_1","700","700","0","[[3,0,0],[0,0],[2]]","3","[[3,0,0],[1,0],[2]]","3","0","","","","","","3","",""
"","","","","","single-stim-button","236","997640","0.0-3.0-19.2-1.2","5ba5d8b960f3d50001697104","F1","batch6","","601","","","tol_toboard","","","","","","","","","tol_peg_2","601","601","0","[[3,0,0],[1,0],[2]]","3","[[3,0,0],[1,0],[2]]","3","0","","","","","","3","",""
"","","","","","poldrack-single-stim","237","998642","0.0-3.0-20.0","5ba5d8b960f3d50001697104","F1","batch6","","-1","","","tol_feedback","true","","","","","","","","","1000","1000","500","","","","","","-1","none","true","8748","10198","","",""
"","","","","","html-button-response","238","999704","0.0-3.0-21.0","5ba5d8b960f3d50001697104","F1","batch6","","1061.1000000014901","<div class = centerbox><p class = center-block-text>problem <strong>5</strong> out of 25 problems</p></div>","0","tol_trial_num","","","","","","","","","","","","","","","","","","","","","","","","",""
"","","","","","single-stim-button","239","1009231","0.0-3.0-22.0-0.0","5ba5d8b960f3d50001697104","F1","batch6","","9526","","","tol_tohand","","","","","","","","","tol_peg_1","9526","9526","0","[[0,0,0],[2,0],[3]]","1","[[0,0,0],[1,2],[3]]","4","0","","","","","","7","",""
"","","","","","single-stim-button","240","1078328","0.0-3.0-22.0-1.0","5ba5d8b960f3d50001697104","F1","batch6","","69095","","","tol_toboard","","","","","","","","","tol_peg_1","69095","69095","0","[[1,0,0],[2,0],[3]]","1","[[0,0,0],[1,2],[3]]","4","0","","","","","","7","",""
"","","","","","single-stim-button","241","1086120","0.0-3.0-22.1-0.1","5ba5d8b960f3d50001697104","F1","batch6","","7792","","","tol_tohand","","","","","","","","","tol_peg_3","7792","7792","0","[[1,0,0],[2,0],[0]]","2","[[0,0,0],[1,2],[3]]","4","0","","","","","","7","",""
"","","","","","single-stim-button","242","1092422","0.0-3.0-22.1-1.1","5ba5d8b960f3d50001697104","F1","batch6","","6300","","","tol_toboard","","","","","","","","","tol_peg_1","6300","6300","0","[[1,3,0],[2,0],[0]]","2","[[0,0,0],[1,2],[3]]","4","0","","","","","","7","",""
"","","","","","single-stim-button","243","1093476","0.0-3.0-22.2-0.2","5ba5d8b960f3d50001697104","F1","batch6","","1054","","","tol_tohand","","","","","","","","","tol_peg_2","1054","1054","0","[[1,3,0],[0,0],[0]]","3","[[0,0,0],[1,2],[3]]","4","0","","","","","","7","",""
"","","","","","single-stim-button","244","1100229","0.0-3.0-22.2-1.2","5ba5d8b960f3d50001697104","F1","batch6","","6751","","","tol_toboard","","","","","","","","","tol_peg_3","6751","6751","0","[[1,3,0],[0,0],[2]]","3","[[0,0,0],[1,2],[3]]","4","0","","","","","","7","",""
"","","","","","single-stim-button","245","1101699","0.0-3.0-22.3-0.3","5ba5d8b960f3d50001697104","F1","batch6","","1469","","","tol_tohand","","","","","","","","","tol_peg_1","1469","1469","0","[[1,0,0],[0,0],[2]]","4","[[0,0,0],[1,2],[3]]","4","0","","","","","","7","",""
"","","","","","single-stim-button","246","1102332","0.0-3.0-22.3-1.3","5ba5d8b960f3d50001697104","F1","batch6","","632","","","tol_toboard","","","","","","","","","tol_peg_2","632","632","0","[[1,0,0],[3,0],[2]]","4","[[0,0,0],[1,2],[3]]","4","0","","","","","","7","",""
"","","","","","single-stim-button","247","1108525","0.0-3.0-22.4-0.4","5ba5d8b960f3d50001697104","F1","batch6","","6193","","","tol_tohand","","","","","","","","","tol_peg_1","6193","6193","0","[[0,0,0],[3,0],[2]]","5","[[0,0,0],[1,2],[3]]","4","0","","","","","","7","",""
"","","","","","single-stim-button","248","1111539","0.0-3.0-22.4-1.4","5ba5d8b960f3d50001697104","F1","batch6","","3013","","","tol_toboard","","","","","","","","","tol_peg_2","3013","3013","0","[[0,0,0],[3,1],[2]]","5","[[0,0,0],[1,2],[3]]","4","0","","","","","","7","",""
"","","","","","single-stim-button","249","1112585","0.0-3.0-22.5-0.5","5ba5d8b960f3d50001697104","F1","batch6","","1045","","","tol_tohand","","","","","","","","","tol_peg_3","1045","1045","0","[[0,0,0],[3,1],[0]]","6","[[0,0,0],[1,2],[3]]","4","0","","","","","","7","",""
"","","","","","single-stim-button","250","1113653","0.0-3.0-22.5-1.5","5ba5d8b960f3d50001697104","F1","batch6","","1068","","","tol_toboard","","","","","","","","","tol_peg_1","1068","1068","0","[[2,0,0],[3,1],[0]]","6","[[0,0,0],[1,2],[3]]","4","0","","","","","","7","",""
"","","","","","single-stim-button","251","1115216","0.0-3.0-22.6-0.6","5ba5d8b960f3d50001697104","F1","batch6","","1561","","","tol_tohand","","","","","","","","","tol_peg_2","1561","1561","0","[[2,0,0],[3,0],[0]]","7","[[0,0,0],[1,2],[3]]","4","0","","","","","","7","",""
"","","","","","single-stim-button","252","1115853","0.0-3.0-22.6-1.6","5ba5d8b960f3d50001697104","F1","batch6","","637","","","tol_toboard","","","","","","","","","tol_peg_3","637","637","0","[[2,0,0],[3,0],[1]]","7","[[0,0,0],[1,2],[3]]","4","0","","","","","","7","",""
"","","","","","single-stim-button","253","1116409","0.0-3.0-22.7-0.7","5ba5d8b960f3d50001697104","F1","batch6","","555","","","tol_tohand","","","","","","","","","tol_peg_2","555","555","0","[[2,0,0],[0,0],[1]]","8","[[0,0,0],[1,2],[3]]","4","0","","","","","","7","",""
"","","","","","single-stim-button","254","1116969","0.0-3.0-22.7-1.7","5ba5d8b960f3d50001697104","F1","batch6","","558","","","tol_toboard","","","","","","","","","tol_peg_1","558","558","0","[[2,3,0],[0,0],[1]]","8","[[0,0,0],[1,2],[3]]","4","0","","","","","","7","",""
"","","","","","single-stim-button","255","1117980","0.0-3.0-22.8-0.8","5ba5d8b960f3d50001697104","F1","batch6","","1011","","","tol_tohand","","","","","","","","","tol_peg_3","1011","1011","0","[[2,3,0],[0,0],[0]]","9","[[0,0,0],[1,2],[3]]","4","0","","","","","","7","",""
"","","","","","single-stim-button","256","1118374","0.0-3.0-22.8-1.8","5ba5d8b960f3d50001697104","F1","batch6","","393","","","tol_toboard","","","","","","","","","tol_peg_2","393","393","0","[[2,3,0],[1,0],[0]]","9","[[0,0,0],[1,2],[3]]","4","0","","","","","","7","",""
"","","","","","single-stim-button","257","1119228","0.0-3.0-22.9-0.9","5ba5d8b960f3d50001697104","F1","batch6","","853","","","tol_tohand","","","","","","","","","tol_peg_1","853","853","0","[[2,0,0],[1,0],[0]]","10","[[0,0,0],[1,2],[3]]","4","0","","","","","","7","",""
"","","","","","single-stim-button","258","1120067","0.0-3.0-22.9-1.9","5ba5d8b960f3d50001697104","F1","batch6","","839","","","tol_toboard","","","","","","","","","tol_peg_3","839","839","0","[[2,0,0],[1,0],[3]]","10","[[0,0,0],[1,2],[3]]","4","0","","","","","","7","",""
"","","","","","single-stim-button","259","1120666","0.0-3.0-22.10-0.10","5ba5d8b960f3d50001697104","F1","batch6","","598","","","tol_tohand","","","","","","","","","tol_peg_1","598","598","0","[[0,0,0],[1,0],[3]]","11","[[0,0,0],[1,2],[3]]","4","0","","","","","","7","",""
"","","","","","single-stim-button","260","1121071","0.0-3.0-22.10-1.10","5ba5d8b960f3d50001697104","F1","batch6","","403","","","tol_toboard","","","","","","","","","tol_peg_2","403","403","0","[[0,0,0],[1,2],[3]]","11","[[0,0,0],[1,2],[3]]","4","0","","","","","","7","",""
"","","","","","poldrack-single-stim","261","1122076","0.0-3.0-23.0","5ba5d8b960f3d50001697104","F1","batch6","","-1","","","tol_feedback","true","","","","","","","","","1000","1000","500","","","","","","-1","none","true","9526","31657","","",""
"","","","","","html-button-response","262","1123473","0.0-3.0-24.0","5ba5d8b960f3d50001697104","F1","batch6","","1395.7999999970198","<div class = centerbox><p class = center-block-text>problem <strong>6</strong> out of 25 problems</p></div>","0","tol_trial_num","","","","","","","","","","","","","","","","","","","","","","","","",""
"","","","","","single-stim-button","263","1142837","0.0-3.0-25.0-0.0","5ba5d8b960f3d50001697104","F1","batch6","","19363","","","tol_tohand","","","","","","","","","tol_peg_3","19363","19363","0","[[0,0,0],[1,2],[0]]","1","[[1,0,0],[2,3],[0]]","5","0","","","","","","6","",""
"","","","","","single-stim-button","264","1143654","0.0-3.0-25.0-1.0","5ba5d8b960f3d50001697104","F1","batch6","","816","","","tol_toboard","","","","","","","","","tol_peg_1","816","816","0","[[3,0,0],[1,2],[0]]","1","[[1,0,0],[2,3],[0]]","5","0","","","","","","6","",""
"","","","","","single-stim-button","265","1161423","0.0-3.0-25.1-0.1","5ba5d8b960f3d50001697104","F1","batch6","","17768","","","tol_tohand","","","","","","","","","tol_peg_2","17768","17768","0","[[3,0,0],[1,0],[0]]","2","[[1,0,0],[2,3],[0]]","5","0","","","","","","6","",""
"","","","","","single-stim-button","266","1162129","0.0-3.0-25.1-1.1","5ba5d8b960f3d50001697104","F1","batch6","","705","","","tol_toboard","","","","","","","","","tol_peg_1","705","705","0","[[3,2,0],[1,0],[0]]","2","[[1,0,0],[2,3],[0]]","5","0","","","","","","6","",""
"","","","","","single-stim-button","267","1162872","0.0-3.0-25.2-0.2","5ba5d8b960f3d50001697104","F1","batch6","","742","","","tol_tohand","","","","","","","","","tol_peg_2","742","742","0","[[3,2,0],[0,0],[0]]","3","[[1,0,0],[2,3],[0]]","5","0","","","","","","6","",""
"","","","","","single-stim-button","268","1163423","0.0-3.0-25.2-1.2","5ba5d8b960f3d50001697104","F1","batch6","","550","","","tol_toboard","","","","","","","","","tol_peg_3","550","550","0","[[3,2,0],[0,0],[1]]","3","[[1,0,0],[2,3],[0]]","5","0","","","","","","6","",""
"","","","","","single-stim-button","269","1165149","0.0-3.0-25.3-0.3","5ba5d8b960f3d50001697104","F1","batch6","","1725","","","tol_tohand","","","","","","","","","tol_peg_1","1725","1725","0","[[3,0,0],[0,0],[1]]","4","[[1,0,0],[2,3],[0]]","5","0","","","","","","6","",""
"","","","","","single-stim-button","270","1165866","0.0-3.0-25.3-1.3","5ba5d8b960f3d50001697104","F1","batch6","","716","","","tol_toboard","","","","","","","","","tol_peg_2","716","716","0","[[3,0,0],[2,0],[1]]","4","[[1,0,0],[2,3],[0]]","5","0","","","","","","6","",""
"","","","","","single-stim-button","271","1166449","0.0-3.0-25.4-0.4","5ba5d8b960f3d50001697104","F1","batch6","","582","","","tol_tohand","","","","","","","","","tol_peg_1","582","582","0","[[0,0,0],[2,0],[1]]","5","[[1,0,0],[2,3],[0]]","5","0","","","","","","6","",""
"","","","","","single-stim-button","272","1167019","0.0-3.0-25.4-1.4","5ba5d8b960f3d50001697104","F1","batch6","","569","","","tol_toboard","","","","","","","","","tol_peg_2","569","569","0","[[0,0,0],[2,3],[1]]","5","[[1,0,0],[2,3],[0]]","5","0","","","","","","6","",""
"","","","","","single-stim-button","273","1167724","0.0-3.0-25.5-0.5","5ba5d8b960f3d50001697104","F1","batch6","","705","","","tol_tohand","","","","","","","","","tol_peg_3","705","705","0","[[0,0,0],[2,3],[0]]","6","[[1,0,0],[2,3],[0]]","5","0","","","","","","6","",""
"","","","","","single-stim-button","274","1168425","0.0-3.0-25.5-1.5","5ba5d8b960f3d50001697104","F1","batch6","","700","","","tol_toboard","","","","","","","","","tol_peg_1","700","700","0","[[1,0,0],[2,3],[0]]","6","[[1,0,0],[2,3],[0]]","5","0","","","","","","6","",""
"","","","","","poldrack-single-stim","275","1169430","0.0-3.0-26.0","5ba5d8b960f3d50001697104","F1","batch6","","-1","","","tol_feedback","true","","","","","","","","","1000","1000","500","","","","","","-1","none","true","19363","40885","","",""
"","","","","","html-button-response","276","1171929","0.0-3.0-27.0","5ba5d8b960f3d50001697104","F1","batch6","","2497.300000000745","<div class = centerbox><p class = center-block-text>problem <strong>7</strong> out of 25 problems</p></div>","0","tol_trial_num","","","","","","","","","","","","","","","","","","","","","","","","",""
"","","","","","single-stim-button","277","1196544","0.0-3.0-28.0-0.0","5ba5d8b960f3d50001697104","F1","batch6","","24615","","","tol_tohand","","","","","","","","","tol_peg_3","24615","24615","0","[[2,1,0],[0,0],[0]]","1","[[1,2,0],[3,0],[0]]","6","0","","","","","","5","",""
"","","","","","single-stim-button","278","1197034","0.0-3.0-28.0-1.0","5ba5d8b960f3d50001697104","F1","batch6","","488","","","tol_toboard","","","","","","","","","tol_peg_2","488","488","0","[[2,1,0],[3,0],[0]]","1","[[1,2,0],[3,0],[0]]","6","0","","","","","","5","",""
"","","","","","single-stim-button","279","1198128","0.0-3.0-28.1-0.1","5ba5d8b960f3d50001697104","F1","batch6","","1094","","","tol_tohand","","","","","","","","","tol_peg_1","1094","1094","0","[[2,0,0],[3,0],[0]]","2","[[1,2,0],[3,0],[0]]","6","0","","","","","","5","",""
"","","","","","single-stim-button","280","1202413","0.0-3.0-28.1-1.1","5ba5d8b960f3d50001697104","F1","batch6","","4283","","","tol_toboard","","","","","","","","","tol_peg_2","4283","4283","0","[[2,0,0],[3,1],[0]]","2","[[1,2,0],[3,0],[0]]","6","0","","","","","","5","",""
"","","","","","single-stim-button","281","1203153","0.0-3.0-28.2-0.2","5ba5d8b960f3d50001697104","F1","batch6","","740","","","tol_tohand","","","","","","","","","tol_peg_1","740","740","0","[[0,0,0],[3,1],[0]]","3","[[1,2,0],[3,0],[0]]","6","0","","","","","","5","",""
"","","","","","single-stim-button","282","1203928","0.0-3.0-28.2-1.2","5ba5d8b960f3d50001697104","F1","batch6","","774","","","tol_toboard","","","","","","","","","tol_peg_3","774","774","0","[[0,0,0],[3,1],[2]]","3","[[1,2,0],[3,0],[0]]","6","0","","","","","","5","",""
"","","","","","single-stim-button","283","1204563","0.0-3.0-28.3-0.3","5ba5d8b960f3d50001697104","F1","batch6","","635","","","tol_tohand","","","","","","","","","tol_peg_2","635","635","0","[[0,0,0],[3,0],[2]]","4","[[1,2,0],[3,0],[0]]","6","0","","","","","","5","",""
"","","","","","single-stim-button","284","1205051","0.0-3.0-28.3-1.3","5ba5d8b960f3d50001697104","F1","batch6","","487","","","tol_toboard","","","","","","","","","tol_peg_1","487","487","0","[[1,0,0],[3,0],[2]]","4","[[1,2,0],[3,0],[0]]","6","0","","","","","","5","",""
"","","","","","single-stim-button","285","1205644","0.0-3.0-28.4-0.4","5ba5d8b960f3d50001697104","F1","batch6","","592","","","tol_tohand","","","","","","","","","tol_peg_3","592","592","0","[[1,0,0],[3,0],[0]]","5","[[1,2,0],[3,0],[0]]","6","0","","","","","","5","",""
"","","","","","single-stim-button","286","1206831","0.0-3.0-28.4-1.4","5ba5d8b960f3d50001697104","F1","batch6","","1186","","","tol_toboard","","","","","","","","","tol_peg_1","1186","1186","0","[[1,2,0],[3,0],[0]]","5","[[1,2,0],[3,0],[0]]","6","0","","","","","","5","",""
"","","","","","poldrack-single-stim","287","1207840","0.0-3.0-29.0","5ba5d8b960f3d50001697104","F1","batch6","","-1","","","tol_feedback","true","","","","","","","","","1000","1000","500","","","","","","-1","none","true","24615","27676","","",""
"","","","","","html-button-response","288","1209240","0.0-3.0-30.0","5ba5d8b960f3d50001697104","F1","batch6","","1398.6000000014901","<div class = centerbox><p class = center-block-text>problem <strong>8</strong> out of 25 problems</p></div>","0","tol_trial_num","","","","","","","","","","","","","","","","","","","","","","","","",""
"","","","","","single-stim-button","289","1223963","0.0-3.0-31.0-0.0","5ba5d8b960f3d50001697104","F1","batch6","","14723","","","tol_tohand","","","","","","","","","tol_peg_3","14723","14723","0","[[0,0,0],[2,3],[0]]","1","[[1,2,0],[3,0],[0]]","7","0","","","","","","4","",""
"","","","","","single-stim-button","290","1224581","0.0-3.0-31.0-1.0","5ba5d8b960f3d50001697104","F1","batch6","","616","","","tol_toboard","","","","","","","","","tol_peg_1","616","616","0","[[1,0,0],[2,3],[0]]","1","[[1,2,0],[3,0],[0]]","7","0","","","","","","4","",""
"","","","","","single-stim-button","291","1232847","0.0-3.0-31.1-0.1","5ba5d8b960f3d50001697104","F1","batch6","","8266","","","tol_tohand","","","","","","","","","tol_peg_2","8266","8266","0","[[1,0,0],[2,0],[0]]","2","[[1,2,0],[3,0],[0]]","7","0","","","","","","4","",""
"","","","","","single-stim-button","292","1233564","0.0-3.0-31.1-1.1","5ba5d8b960f3d50001697104","F1","batch6","","715","","","tol_toboard","","","","","","","","","tol_peg_3","715","715","0","[[1,0,0],[2,0],[3]]","2","[[1,2,0],[3,0],[0]]","7","0","","","","","","4","",""
"","","","","","single-stim-button","293","1234094","0.0-3.0-31.2-0.2","5ba5d8b960f3d50001697104","F1","batch6","","529","","","tol_tohand","","","","","","","","","tol_peg_2","529","529","0","[[1,0,0],[0,0],[3]]","3","[[1,2,0],[3,0],[0]]","7","0","","","","","","4","",""
"","","","","","single-stim-button","294","1234905","0.0-3.0-31.2-1.2","5ba5d8b960f3d50001697104","F1","batch6","","811","","","tol_toboard","","","","","","","","","tol_peg_1","811","811","0","[[1,2,0],[0,0],[3]]","3","[[1,2,0],[3,0],[0]]","7","0","","","","","","4","",""
"","","","","","single-stim-button","295","1235697","0.0-3.0-31.3-0.3","5ba5d8b960f3d50001697104","F1","batch6","","790","","","tol_tohand","","","","","","","","","tol_peg_3","790","790","0","[[1,2,0],[0,0],[0]]","4","[[1,2,0],[3,0],[0]]","7","0","","","","","","4","",""
"","","","","","single-stim-button","296","1236106","0.0-3.0-31.3-1.3","5ba5d8b960f3d50001697104","F1","batch6","","409","","","tol_toboard","","","","","","","","","tol_peg_2","409","409","0","[[1,2,0],[3,0],[0]]","4","[[1,2,0],[3,0],[0]]","7","0","","","","","","4","",""
"","","","","","poldrack-single-stim","297","1237110","0.0-3.0-32.0","5ba5d8b960f3d50001697104","F1","batch6","","-1","","","tol_feedback","true","","","","","","","","","1000","1000","500","","","","","","-1","none","true","14723","24308","","",""
"","","","","","html-button-response","298","1237993","0.0-3.0-33.0","5ba5d8b960f3d50001697104","F1","batch6","","882.0999999977648","<div class = centerbox><p class = center-block-text>problem <strong>9</strong> out of 25 problems</p></div>","0","tol_trial_num","","","","","","","","","","","","","","","","","","","","","","","","",""
"","","","","","single-stim-button","299","1274652","0.0-3.0-34.0-0.0","5ba5d8b960f3d50001697104","F1","batch6","","36658","","","tol_tohand","","","","","","","","","tol_peg_3","36658","36658","0","[[3,2,0],[0,0],[0]]","1","[[2,1,0],[3,0],[0]]","8","0","","","","","","6","",""
"","","","","","single-stim-button","300","1275502","0.0-3.0-34.0-1.0","5ba5d8b960f3d50001697104","F1","batch6","","850","","","tol_toboard","","","","","","","","","tol_peg_2","850","850","0","[[3,2,0],[1,0],[0]]","1","[[2,1,0],[3,0],[0]]","8","0","","","","","","6","",""
"","","","","","single-stim-button","301","1277361","0.0-3.0-34.1-0.1","5ba5d8b960f3d50001697104","F1","batch6","","1858","","","tol_tohand","","","","","","","","","tol_peg_1","1858","1858","0","[[3,0,0],[1,0],[0]]","2","[[2,1,0],[3,0],[0]]","8","0","","","","","","6","",""
"","","","","","single-stim-button","302","1283862","0.0-3.0-34.1-1.1","5ba5d8b960f3d50001697104","F1","batch6","","6500","","","tol_toboard","","","","","","","","","tol_peg_2","6500","6500","0","[[3,0,0],[1,2],[0]]","2","[[2,1,0],[3,0],[0]]","8","0","","","","","","6","",""
"","","","","","single-stim-button","303","1284839","0.0-3.0-34.2-0.2","5ba5d8b960f3d50001697104","F1","batch6","","976","","","tol_tohand","","","","","","","","","tol_peg_1","976","976","0","[[0,0,0],[1,2],[0]]","3","[[2,1,0],[3,0],[0]]","8","0","","","","","","6","",""
"","","","","","single-stim-button","304","1285666","0.0-3.0-34.2-1.2","5ba5d8b960f3d50001697104","F1","batch6","","825","","","tol_toboard","","","","","","","","","tol_peg_3","825","825","0","[[0,0,0],[1,2],[3]]","3","[[2,1,0],[3,0],[0]]","8","0","","","","","","6","",""
"","","","","","single-stim-button","305","1286335","0.0-3.0-34.3-0.3","5ba5d8b960f3d50001697104","F1","batch6","","669","","","tol_tohand","","","","","","","","","tol_peg_2","669","669","0","[[0,0,0],[1,0],[3]]","4","[[2,1,0],[3,0],[0]]","8","0","","","","","","6","",""
"","","","","","single-stim-button","306","1286973","0.0-3.0-34.3-1.3","5ba5d8b960f3d50001697104","F1","batch6","","637","","","tol_toboard","","","","","","","","","tol_peg_1","637","637","0","[[2,0,0],[1,0],[3]]","4","[[2,1,0],[3,0],[0]]","8","0","","","","","","6","",""
"","","","","","single-stim-button","307","1287582","0.0-3.0-34.4-0.4","5ba5d8b960f3d50001697104","F1","batch6","","608","","","tol_tohand","","","","","","","","","tol_peg_2","608","608","0","[[2,0,0],[0,0],[3]]","5","[[2,1,0],[3,0],[0]]","8","0","","","","","","6","",""
"","","","","","single-stim-button","308","1288099","0.0-3.0-34.4-1.4","5ba5d8b960f3d50001697104","F1","batch6","","516","","","tol_toboard","","","","","","","","","tol_peg_1","516","516","0","[[2,1,0],[0,0],[3]]","5","[[2,1,0],[3,0],[0]]","8","0","","","","","","6","",""
"","","","","","single-stim-button","309","1291371","0.0-3.0-34.5-0.5","5ba5d8b960f3d50001697104","F1","batch6","","3271","","","tol_tohand","","","","","","","","","tol_peg_3","3271","3271","0","[[2,1,0],[0,0],[0]]","6","[[2,1,0],[3,0],[0]]","8","0","","","","","","6","",""
"","","","","","single-stim-button","310","1291789","0.0-3.0-34.5-1.5","5ba5d8b960f3d50001697104","F1","batch6","","417","","","tol_toboard","","","","","","","","","tol_peg_2","417","417","0","[[2,1,0],[3,0],[0]]","6","[[2,1,0],[3,0],[0]]","8","0","","","","","","6","",""
"","","","","","poldrack-single-stim","311","1292793","0.0-3.0-35.0","5ba5d8b960f3d50001697104","F1","batch6","","-1","","","tol_feedback","true","","","","","","","","","1000","1000","500","","","","","","-1","none","true","36658","44040","","",""
"","","","","","html-button-response","312","1293848","0.0-3.0-36.0","5ba5d8b960f3d50001697104","F1","batch6","","1054.5","<div class = centerbox><p class = center-block-text>problem <strong>10</strong> out of 25 problems</p></div>","0","tol_trial_num","","","","","","","","","","","","","","","","","","","","","","","","",""
"","","","","","single-stim-button","313","1300381","0.0-3.0-37.0-0.0","5ba5d8b960f3d50001697104","F1","batch6","","6531","","","tol_tohand","","","","","","","","","tol_peg_2","6531","6531","0","[[3,0,0],[0,0],[2]]","1","[[3,0,0],[2,1],[0]]","9","0","","","","","","3","",""
"","","","","","single-stim-button","314","1300974","0.0-3.0-37.0-1.0","5ba5d8b960f3d50001697104","F1","batch6","","593","","","tol_toboard","","","","","","","","","tol_peg_1","593","593","0","[[3,1,0],[0,0],[2]]","1","[[3,0,0],[2,1],[0]]","9","0","","","","","","3","",""
"","","","","","single-stim-button","315","1301782","0.0-3.0-37.1-0.1","5ba5d8b960f3d50001697104","F1","batch6","","807","","","tol_tohand","","","","","","","","","tol_peg_3","807","807","0","[[3,1,0],[0,0],[0]]","2","[[3,0,0],[2,1],[0]]","9","0","","","","","","3","",""
"","","","","","single-stim-button","316","1302223","0.0-3.0-37.1-1.1","5ba5d8b960f3d50001697104","F1","batch6","","440","","","tol_toboard","","","","","","","","","tol_peg_2","440","440","0","[[3,1,0],[2,0],[0]]","2","[[3,0,0],[2,1],[0]]","9","0","","","","","","3","",""
"","","","","","single-stim-button","317","1302899","0.0-3.0-37.2-0.2","5ba5d8b960f3d50001697104","F1","batch6","","676","","","tol_tohand","","","","","","","","","tol_peg_1","676","676","0","[[3,0,0],[2,0],[0]]","3","[[3,0,0],[2,1],[0]]","9","0","","","","","","3","",""
"","","","","","single-stim-button","318","1303313","0.0-3.0-37.2-1.2","5ba5d8b960f3d50001697104","F1","batch6","","413","","","tol_toboard","","","","","","","","","tol_peg_2","413","413","0","[[3,0,0],[2,1],[0]]","3","[[3,0,0],[2,1],[0]]","9","0","","","","","","3","",""
"","","","","","poldrack-single-stim","319","1304324","0.0-3.0-38.0","5ba5d8b960f3d50001697104","F1","batch6","","-1","","","tol_feedback","true","","","","","","","","","1000","1000","500","","","","","","-1","none","true","6531","8014","","",""
"","","","","","html-button-response","320","1305261","0.0-3.0-39.0","5ba5d8b960f3d50001697104","F1","batch6","","936.5","<div class = centerbox><p class = center-block-text>problem <strong>11</strong> out of 25 problems</p></div>","0","tol_trial_num","","","","","","","","","","","","","","","","","","","","","","","","",""
"","","","","","single-stim-button","321","1374136","0.0-3.0-40.0-0.0","5ba5d8b960f3d50001697104","F1","batch6","","68874","","","tol_tohand","","","","","","","","","tol_peg_1","68874","68874","0","[[1,0,0],[3,0],[0]]","1","[[2,0,0],[1,3],[0]]","10","0","","","","","","6","",""
"","","","","","single-stim-button","322","1378576","0.0-3.0-40.0-1.0","5ba5d8b960f3d50001697104","F1","batch6","","4439","","","tol_toboard","","","","","","","","","tol_peg_2","4439","4439","0","[[1,0,0],[3,2],[0]]","1","[[2,0,0],[1,3],[0]]","10","0","","","","","","6","",""
"","","","","","single-stim-button","323","1380742","0.0-3.0-40.1-0.1","5ba5d8b960f3d50001697104","F1","batch6","","2165","","","tol_tohand","","","","","","","","","tol_peg_1","2165","2165","0","[[0,0,0],[3,2],[0]]","2","[[2,0,0],[1,3],[0]]","10","0","","","","","","6","",""
"","","","","","single-stim-button","324","1381411","0.0-3.0-40.1-1.1","5ba5d8b960f3d50001697104","F1","batch6","","668","","","tol_toboard","","","","","","","","","tol_peg_3","668","668","0","[[0,0,0],[3,2],[1]]","2","[[2,0,0],[1,3],[0]]","10","0","","","","","","6","",""
"","","","","","single-stim-button","325","1382822","0.0-3.0-40.2-0.2","5ba5d8b960f3d50001697104","F1","batch6","","1410","","","tol_tohand","","","","","","","","","tol_peg_2","1410","1410","0","[[0,0,0],[3,0],[1]]","3","[[2,0,0],[1,3],[0]]","10","0","","","","","","6","",""
"","","","","","single-stim-button","326","1383830","0.0-3.0-40.2-1.2","5ba5d8b960f3d50001697104","F1","batch6","","1007","","","tol_toboard","","","","","","","","","tol_peg_1","1007","1007","0","[[2,0,0],[3,0],[1]]","3","[[2,0,0],[1,3],[0]]","10","0","","","","","","6","",""
"","","","","","single-stim-button","327","1385455","0.0-3.0-40.3-0.3","5ba5d8b960f3d50001697104","F1","batch6","","1624","","","tol_tohand","","","","","","","","","tol_peg_2","1624","1624","0","[[2,0,0],[0,0],[1]]","4","[[2,0,0],[1,3],[0]]","10","0","","","","","","6","",""
"","","","","","single-stim-button","328","1386154","0.0-3.0-40.3-1.3","5ba5d8b960f3d50001697104","F1","batch6","","698","","","tol_toboard","","","","","","","","","tol_peg_1","698","698","0","[[2,3,0],[0,0],[1]]","4","[[2,0,0],[1,3],[0]]","10","0","","","","","","6","",""
"","","","","","single-stim-button","329","1386904","0.0-3.0-40.4-0.4","5ba5d8b960f3d50001697104","F1","batch6","","750","","","tol_tohand","","","","","","","","","tol_peg_3","750","750","0","[[2,3,0],[0,0],[0]]","5","[[2,0,0],[1,3],[0]]","10","0","","","","","","6","",""
"","","","","","single-stim-button","330","1387311","0.0-3.0-40.4-1.4","5ba5d8b960f3d50001697104","F1","batch6","","406","","","tol_toboard","","","","","","","","","tol_peg_2","406","406","0","[[2,3,0],[1,0],[0]]","5","[[2,0,0],[1,3],[0]]","10","0","","","","","","6","",""
"","","","","","single-stim-button","331","1387930","0.0-3.0-40.5-0.5","5ba5d8b960f3d50001697104","F1","batch6","","619","","","tol_tohand","","","","","","","","","tol_peg_1","619","619","0","[[2,0,0],[1,0],[0]]","6","[[2,0,0],[1,3],[0]]","10","0","","","","","","6","",""
"","","","","","single-stim-button","332","1388339","0.0-3.0-40.5-1.5","5ba5d8b960f3d50001697104","F1","batch6","","409","","","tol_toboard","","","","","","","","","tol_peg_2","409","409","0","[[2,0,0],[1,3],[0]]","6","[[2,0,0],[1,3],[0]]","10","0","","","","","","6","",""
"","","","","","poldrack-single-stim","333","1389352","0.0-3.0-41.0","5ba5d8b960f3d50001697104","F1","batch6","","-1","","","tol_feedback","true","","","","","","","","","1000","1000","500","","","","","","-1","none","true","68874","75442","","",""
"","","","","","html-button-response","334","1390300","0.0-3.0-42.0","5ba5d8b960f3d50001697104","F1","batch6","","947","<div class = centerbox><p class = center-block-text>problem <strong>12</strong> out of 25 problems</p></div>","0","tol_trial_num","","","","","","","","","","","","","","","","","","","","","","","","",""
"","","","","","single-stim-button","335","1411283","0.0-3.0-43.0-0.0","5ba5d8b960f3d50001697104","F1","batch6","","20983","","","tol_tohand","","","","","","","","","tol_peg_1","20983","20983","0","[[1,0,0],[3,0],[0]]","1","[[2,3,0],[0,0],[1]]","11","0","","","","","","4","",""
"","","","","","single-stim-button","336","1411842","0.0-3.0-43.0-1.0","5ba5d8b960f3d50001697104","F1","batch6","","558","","","tol_toboard","","","","","","","","","tol_peg_2","558","558","0","[[1,0,0],[3,2],[0]]","1","[[2,3,0],[0,0],[1]]","11","0","","","","","","4","",""
"","","","","","single-stim-button","337","1412409","0.0-3.0-43.1-0.1","5ba5d8b960f3d50001697104","F1","batch6","","566","","","tol_tohand","","","","","","","","","tol_peg_1","566","566","0","[[0,0,0],[3,2],[0]]","2","[[2,3,0],[0,0],[1]]","11","0","","","","","","4","",""
"","","","","","single-stim-button","338","1413015","0.0-3.0-43.1-1.1","5ba5d8b960f3d50001697104","F1","batch6","","605","","","tol_toboard","","","","","","","","","tol_peg_3","605","605","0","[[0,0,0],[3,2],[1]]","2","[[2,3,0],[0,0],[1]]","11","0","","","","","","4","",""
"","","","","","single-stim-button","339","1413578","0.0-3.0-43.2-0.2","5ba5d8b960f3d50001697104","F1","batch6","","562","","","tol_tohand","","","","","","","","","tol_peg_2","562","562","0","[[0,0,0],[3,0],[1]]","3","[[2,3,0],[0,0],[1]]","11","0","","","","","","4","",""
"","","","","","single-stim-button","340","1414118","0.0-3.0-43.2-1.2","5ba5d8b960f3d50001697104","F1","batch6","","540","","","tol_toboard","","","","","","","","","tol_peg_1","540","540","0","[[2,0,0],[3,0],[1]]","3","[[2,3,0],[0,0],[1]]","11","0","","","","","","4","",""
"","","","","","single-stim-button","341","1414680","0.0-3.0-43.3-0.3","5ba5d8b960f3d50001697104","F1","batch6","","561","","","tol_tohand","","","","","","","","","tol_peg_2","561","561","0","[[2,0,0],[0,0],[1]]","4","[[2,3,0],[0,0],[1]]","11","0","","","","","","4","",""
"","","","","","single-stim-button","342","1415245","0.0-3.0-43.3-1.3","5ba5d8b960f3d50001697104","F1","batch6","","563","","","tol_toboard","","","","","","","","","tol_peg_1","563","563","0","[[2,3,0],[0,0],[1]]","4","[[2,3,0],[0,0],[1]]","11","0","","","","","","4","",""
"","","","","","poldrack-single-stim","343","1416250","0.0-3.0-44.0","5ba5d8b960f3d50001697104","F1","batch6","","-1","","","tol_feedback","true","","","","","","","","","1000","1000","500","","","","","","-1","none","true","20983","22672","","",""
"","","","","","html-button-response","344","1417094","0.0-3.0-45.0","5ba5d8b960f3d50001697104","F1","batch6","","842.6999999992549","<div class = centerbox><p class = center-block-text>problem <strong>13</strong> out of 25 problems</p></div>","0","tol_trial_num","","","","","","","","","","","","","","","","","","","","","","","","",""
"","","","","","single-stim-button","345","1422950","0.0-3.0-46.0-0.0","5ba5d8b960f3d50001697104","F1","batch6","","5854","","","tol_tohand","","","","","","","","","tol_peg_2","5854","5854","0","[[1,2,0],[0,0],[0]]","1","[[0,0,0],[2,3],[1]]","12","0","","","","","","4","",""
"","","","","","single-stim-button","346","1423624","0.0-3.0-46.0-1.0","5ba5d8b960f3d50001697104","F1","batch6","","674","","","tol_toboard","","","","","","","","","tol_peg_3","674","674","0","[[1,2,0],[0,0],[3]]","1","[[0,0,0],[2,3],[1]]","12","0","","","","","","4","",""
"","","","","","single-stim-button","347","1424353","0.0-3.0-46.1-0.1","5ba5d8b960f3d50001697104","F1","batch6","","727","","","tol_tohand","","","","","","","","","tol_peg_1","727","727","0","[[1,0,0],[0,0],[3]]","2","[[0,0,0],[2,3],[1]]","12","0","","","","","","4","",""
"","","","","","single-stim-button","348","1424883","0.0-3.0-46.1-1.1","5ba5d8b960f3d50001697104","F1","batch6","","529","","","tol_toboard","","","","","","","","","tol_peg_2","529","529","0","[[1,0,0],[2,0],[3]]","2","[[0,0,0],[2,3],[1]]","12","0","","","","","","4","",""
