"success","timeout","failed_images","failed_audio","failed_video","trial_type","trial_index","time_elapsed","internal_node_id","subject_id","study_id","session_id","task","rt","stimulus","response","item","answer","correct","spm_correct","spm_rt","view_history","mouse_click","stim_duration","block_duration","timing_post_trial","current_position","tol_num_moves_made","tol_target","tol_problem_id","tol_rt","key_press","possible_responses","tol_correct","preplanning","tol_rt_per_trial","tol_min_moves","fiar_detect_rt","fiar_detect_correct","total_correct_fiar_detect","post_trial_gap","choices"
"true","false","[]","[]","[]","preload","0","2657","0.0-0.0","5ba855d47c0ebe0001272f70","A3","batch1","","","","","","","","","","","","","","","","","","","","","","","","","","","","","",""
"true","","","","","fullscreen","1","19674","0.0-1.0-0.0","5ba855d47c0ebe0001272f70","A3","batch1","","","","","","","","","","","","","","","","","","","","","","","","","","","","","",""
"true","","","","","fullscreen","2","22375","0.0-2.0-0.0","5ba855d47c0ebe0001272f70","A3","batch1","spm_fullscreen","","","","","","","","","","","","","","","","","","","","","","","","","","","","",""
"","","","","","html-button-response","3","36353","0.0-2.0-1.0","5ba855d47c0ebe0001272f70","A3","batch1","","13975","<p class = block-text><b>Instructions</b> <br>This is a widely used intelligence test in research. <br>In this test, a figure with a missing piece will be presented.<br>Below the figure are alternative pieces to complete the figure, only one of which is correct.<br> Different figures might involve different principles for obtaining the missing piece<br>Your job is to select the most logical piece to complete the figure.</p>","0","","","","","","","","","","","","","","","","","","","","","","","","","",""
"","","","","","html-keyboard-response","4","37170","0.0-2.0-2.0-0.0","5ba855d47c0ebe0001272f70","A3","batch1","spm_show_trial_num","null","<p class=block-text>Trial 1 out of 60</p>","null","","","","","","","","","","","","","","","","","","","","","","","","","",""
"","","","","","image-button-response","5","48859","0.0-2.0-2.0-1.0","5ba855d47c0ebe0001272f70","A3","batch1","spm_respsonse","11678","img/question_1_1.jpeg","3","mat_01","4","1","1","11678","","","","","","","","","","","","","","","","","","","","",""
"","","","","","html-keyboard-response","6","49925","0.0-2.0-2.0-0.1","5ba855d47c0ebe0001272f70","A3","batch1","spm_show_trial_num","null","<p class=block-text>Trial 2 out of 60</p>","null","","","","","","","","","","","","","","","","","","","","","","","","","",""
"","","","","","image-button-response","7","53139","0.0-2.0-2.0-1.1","5ba855d47c0ebe0001272f70","A3","batch1","spm_respsonse","3206","img/question_1_2.jpeg","4","mat_02","5","1","1","3206","","","","","","","","","","","","","","","","","","","","",""
"","","","","","html-keyboard-response","8","54199","0.0-2.0-2.0-0.2","5ba855d47c0ebe0001272f70","A3","batch1","spm_show_trial_num","null","<p class=block-text>Trial 3 out of 60</p>","null","","","","","","","","","","","","","","","","","","","","","","","","","",""
"","","","","","image-button-response","9","56651","0.0-2.0-2.0-1.2","5ba855d47c0ebe0001272f70","A3","batch1","spm_respsonse","2443","img/question_1_3.jpeg","0","mat_03","1","1","1","2443","","","","","","","","","","","","","","","","","","","","",""
"","","","","","html-keyboard-response","10","57731","0.0-2.0-2.0-0.3","5ba855d47c0ebe0001272f70","A3","batch1","spm_show_trial_num","null","<p class=block-text>Trial 4 out of 60</p>","null","","","","","","","","","","","","","","","","","","","","","","","","","",""
"","","","","","image-button-response","11","63556","0.0-2.0-2.0-1.3","5ba855d47c0ebe0001272f70","A3","batch1","spm_respsonse","5819","img/question_1_4.jpeg","1","mat_04","2","1","1","5819","","","","","","","","","","","","","","","","","","","","",""
"","","","","","html-keyboard-response","12","64632","0.0-2.0-2.0-0.4","5ba855d47c0ebe0001272f70","A3","batch1","spm_show_trial_num","null","<p class=block-text>Trial 5 out of 60</p>","null","","","","","","","","","","","","","","","","","","","","","","","","","",""
"","","","","","image-button-response","13","70253","0.0-2.0-2.0-1.4","5ba855d47c0ebe0001272f70","A3","batch1","spm_respsonse","5612","img/question_1_5.jpeg","5","mat_05","6","1","1","5612","","","","","","","","","","","","","","","","","","","","",""
"","","","","","html-keyboard-response","14","71321","0.0-2.0-2.0-0.5","5ba855d47c0ebe0001272f70","A3","batch1","spm_show_trial_num","null","<p class=block-text>Trial 6 out of 60</p>","null","","","","","","","","","","","","","","","","","","","","","","","","","",""
"","","","","","image-button-response","15","75779","0.0-2.0-2.0-1.5","5ba855d47c0ebe0001272f70","A3","batch1","spm_respsonse","4445","img/question_1_6.jpeg","2","mat_06","3","1","1","4445","","","","","","","","","","","","","","","","","","","","",""
"","","","","","html-keyboard-response","16","76852","0.0-2.0-2.0-0.6","5ba855d47c0ebe0001272f70","A3","batch1","spm_show_trial_num","null","<p class=block-text>Trial 7 out of 60</p>","null","","","","","","","","","","","","","","","","","","","","","","","","","",""
"","","","","","image-button-response","17","83034","0.0-2.0-2.0-1.6","5ba855d47c0ebe0001272f70","A3","batch1","spm_respsonse","6173","img/question_1_7.jpeg","5","mat_07","6","1","1","6173","","","","","","","","","","","","","","","","","","","","",""
"","","","","","html-keyboard-response","18","84108","0.0-2.0-2.0-0.7","5ba855d47c0ebe0001272f70","A3","batch1","spm_show_trial_num","null","<p class=block-text>Trial 8 out of 60</p>","null","","","","","","","","","","","","","","","","","","","","","","","","","",""
"","","","","","image-button-response","19","91222","0.0-2.0-2.0-1.7","5ba855d47c0ebe0001272f70","A3","batch1","spm_respsonse","7107","img/question_1_8.jpeg","1","mat_08","2","1","1","7107","","","","","","","","","","","","","","","","","","","","",""
"","","","","","html-keyboard-response","20","92284","0.0-2.0-2.0-0.8","5ba855d47c0ebe0001272f70","A3","batch1","spm_show_trial_num","null","<p class=block-text>Trial 9 out of 60</p>","null","","","","","","","","","","","","","","","","","","","","","","","","","",""
"","","","","","image-button-response","21","99366","0.0-2.0-2.0-1.8","5ba855d47c0ebe0001272f70","A3","batch1","spm_respsonse","7075","img/question_1_9.jpeg","0","mat_09","1","1","1","7075","","","","","","","","","","","","","","","","","","","","",""
"","","","","","html-keyboard-response","22","100440","0.0-2.0-2.0-0.9","5ba855d47c0ebe0001272f70","A3","batch1","spm_show_trial_num","null","<p class=block-text>Trial 10 out of 60</p>","null","","","","","","","","","","","","","","","","","","","","","","","","","",""
"","","","","","image-button-response","23","106337","0.0-2.0-2.0-1.9","5ba855d47c0ebe0001272f70","A3","batch1","spm_respsonse","5890","img/question_1_10.jpeg","2","mat_10","3","1","1","5890","","","","","","","","","","","","","","","","","","","","",""
"","","","","","html-keyboard-response","24","107399","0.0-2.0-2.0-0.10","5ba855d47c0ebe0001272f70","A3","batch1","spm_show_trial_num","null","<p class=block-text>Trial 11 out of 60</p>","null","","","","","","","","","","","","","","","","","","","","","","","","","",""
"","","","","","image-button-response","25","128114","0.0-2.0-2.0-1.10","5ba855d47c0ebe0001272f70","A3","batch1","spm_respsonse","20706","img/question_1_11.jpeg","3","mat_11","4","1","1","20706","","","","","","","","","","","","","","","","","","","","",""
"","","","","","html-keyboard-response","26","129175","0.0-2.0-2.0-0.11","5ba855d47c0ebe0001272f70","A3","batch1","spm_show_trial_num","null","<p class=block-text>Trial 12 out of 60</p>","null","","","","","","","","","","","","","","","","","","","","","","","","","",""
"","","","","","image-button-response","27","141116","0.0-2.0-2.0-1.11","5ba855d47c0ebe0001272f70","A3","batch1","spm_respsonse","11933","img/question_1_12.jpeg","4","mat_12","5","1","1","11933","","","","","","","","","","","","","","","","","","","","",""
"","","","","","html-keyboard-response","28","142187","0.0-2.0-2.0-0.12","5ba855d47c0ebe0001272f70","A3","batch1","spm_show_trial_num","null","<p class=block-text>Trial 13 out of 60</p>","null","","","","","","","","","","","","","","","","","","","","","","","","","",""
"","","","","","image-button-response","29","146263","0.0-2.0-2.0-1.12","5ba855d47c0ebe0001272f70","A3","batch1","spm_respsonse","4068","img/question_2_1.jpeg","1","mat_13","2","1","1","4068","","","","","","","","","","","","","","","","","","","","",""
"","","","","","html-keyboard-response","30","147325","0.0-2.0-2.0-0.13","5ba855d47c0ebe0001272f70","A3","batch1","spm_show_trial_num","null","<p class=block-text>Trial 14 out of 60</p>","null","","","","","","","","","","","","","","","","","","","","","","","","","",""
"","","","","","image-button-response","31","153318","0.0-2.0-2.0-1.13","5ba855d47c0ebe0001272f70","A3","batch1","spm_respsonse","5986","img/question_2_2.jpeg","5","mat_14","6","1","1","5986","","","","","","","","","","","","","","","","","","","","",""
"","","","","","html-keyboard-response","32","154388","0.0-2.0-2.0-0.14","5ba855d47c0ebe0001272f70","A3","batch1","spm_show_trial_num","null","<p class=block-text>Trial 15 out of 60</p>","null","","","","","","","","","","","","","","","","","","","","","","","","","",""
"","","","","","image-button-response","33","158151","0.0-2.0-2.0-1.14","5ba855d47c0ebe0001272f70","A3","batch1","spm_respsonse","3757","img/question_2_3.jpeg","0","mat_15","1","1","1","3757","","","","","","","","","","","","","","","","","","","","",""
"","","","","","html-keyboard-response","34","159220","0.0-2.0-2.0-0.15","5ba855d47c0ebe0001272f70","A3","batch1","spm_show_trial_num","null","<p class=block-text>Trial 16 out of 60</p>","null","","","","","","","","","","","","","","","","","","","","","","","","","",""
"","","","","","image-button-response","35","166259","0.0-2.0-2.0-1.15","5ba855d47c0ebe0001272f70","A3","batch1","spm_respsonse","7033","img/question_2_4.jpeg","1","mat_16","2","1","1","7033","","","","","","","","","","","","","","","","","","","","",""
"","","","","","html-keyboard-response","36","167327","0.0-2.0-2.0-0.16","5ba855d47c0ebe0001272f70","A3","batch1","spm_show_trial_num","null","<p class=block-text>Trial 17 out of 60</p>","null","","","","","","","","","","","","","","","","","","","","","","","","","",""
"","","","","","image-button-response","37","171646","0.0-2.0-2.0-1.16","5ba855d47c0ebe0001272f70","A3","batch1","spm_respsonse","4312","img/question_2_5.jpeg","0","mat_17","1","1","1","4312","","","","","","","","","","","","","","","","","","","","",""
"","","","","","html-keyboard-response","38","172714","0.0-2.0-2.0-0.17","5ba855d47c0ebe0001272f70","A3","batch1","spm_show_trial_num","null","<p class=block-text>Trial 18 out of 60</p>","null","","","","","","","","","","","","","","","","","","","","","","","","","",""
"","","","","","image-button-response","39","180489","0.0-2.0-2.0-1.17","5ba855d47c0ebe0001272f70","A3","batch1","spm_respsonse","7767","img/question_2_6.jpeg","2","mat_18","3","1","1","7767","","","","","","","","","","","","","","","","","","","","",""
"","","","","","html-keyboard-response","40","181561","0.0-2.0-2.0-0.18","5ba855d47c0ebe0001272f70","A3","batch1","spm_show_trial_num","null","<p class=block-text>Trial 19 out of 60</p>","null","","","","","","","","","","","","","","","","","","","","","","","","","",""
"","","","","","image-button-response","41","190799","0.0-2.0-2.0-1.18","5ba855d47c0ebe0001272f70","A3","batch1","spm_respsonse","9232","img/question_2_7.jpeg","4","mat_19","5","1","1","9232","","","","","","","","","","","","","","","","","","","","",""
"","","","","","html-keyboard-response","42","191865","0.0-2.0-2.0-0.19","5ba855d47c0ebe0001272f70","A3","batch1","spm_show_trial_num","null","<p class=block-text>Trial 20 out of 60</p>","null","","","","","","","","","","","","","","","","","","","","","","","","","",""
"","","","","","image-button-response","43","198802","0.0-2.0-2.0-1.19","5ba855d47c0ebe0001272f70","A3","batch1","spm_respsonse","6932","img/question_2_8.jpeg","5","mat_20","6","1","1","6932","","","","","","","","","","","","","","","","","","","","",""
"","","","","","html-keyboard-response","44","199865","0.0-2.0-2.0-0.20","5ba855d47c0ebe0001272f70","A3","batch1","spm_show_trial_num","null","<p class=block-text>Trial 21 out of 60</p>","null","","","","","","","","","","","","","","","","","","","","","","","","","",""
"","","","","","image-button-response","45","206050","0.0-2.0-2.0-1.20","5ba855d47c0ebe0001272f70","A3","batch1","spm_respsonse","6178","img/question_2_9.jpeg","3","mat_21","4","1","1","6178","","","","","","","","","","","","","","","","","","","","",""
"","","","","","html-keyboard-response","46","207116","0.0-2.0-2.0-0.21","5ba855d47c0ebe0001272f70","A3","batch1","spm_show_trial_num","null","<p class=block-text>Trial 22 out of 60</p>","null","","","","","","","","","","","","","","","","","","","","","","","","","",""
"","","","","","image-button-response","47","216234","0.0-2.0-2.0-1.21","5ba855d47c0ebe0001272f70","A3","batch1","spm_respsonse","9110","img/question_2_10.jpeg","2","mat_22","3","1","1","9110","","","","","","","","","","","","","","","","","","","","",""
"","","","","","html-keyboard-response","48","217302","0.0-2.0-2.0-0.22","5ba855d47c0ebe0001272f70","A3","batch1","spm_show_trial_num","null","<p class=block-text>Trial 23 out of 60</p>","null","","","","","","","","","","","","","","","","","","","","","","","","","",""
"","","","","","image-button-response","49","222642","0.0-2.0-2.0-1.22","5ba855d47c0ebe0001272f70","A3","batch1","spm_respsonse","5334","img/question_2_11.jpeg","3","mat_23","4","1","1","5334","","","","","","","","","","","","","","","","","","","","",""
"","","","","","html-keyboard-response","50","223701","0.0-2.0-2.0-0.23","5ba855d47c0ebe0001272f70","A3","batch1","spm_show_trial_num","null","<p class=block-text>Trial 24 out of 60</p>","null","","","","","","","","","","","","","","","","","","","","","","","","","",""
"","","","","","image-button-response","51","232521","0.0-2.0-2.0-1.23","5ba855d47c0ebe0001272f70","A3","batch1","spm_respsonse","8813","img/question_2_12.jpeg","4","mat_24","5","1","1","8813","","","","","","","","","","","","","","","","","","","","",""
"","","","","","html-button-response","52","234424","0.0-2.0-3.0","5ba855d47c0ebe0001272f70","A3","batch1","attention_check","1643","<p class = block-text>Attention check: Please choose 1<br></p>","0","","","true","","","","","","","","","","","","","","","","","","","","","","",""
"","","","","","html-keyboard-response","53","235238","0.0-2.0-4.0-0.0","5ba855d47c0ebe0001272f70","A3","batch1","spm_show_trial_num","null","<p class=block-text>Trial 25 out of 60</p>","null","","","","","","","","","","","","","","","","","","","","","","","","","",""
"","","","","","image-button-response","54","242549","0.0-2.0-4.0-1.0","5ba855d47c0ebe0001272f70","A3","batch1","spm_respsonse","7304","img/question_3_1.jpeg","7","mat_25","8","1","1","7304","","","","","","","","","","","","","","","","","","","","",""
"","","","","","html-keyboard-response","55","243616","0.0-2.0-4.0-0.1","5ba855d47c0ebe0001272f70","A3","batch1","spm_show_trial_num","null","<p class=block-text>Trial 26 out of 60</p>","null","","","","","","","","","","","","","","","","","","","","","","","","","",""
"","","","","","image-button-response","56","250375","0.0-2.0-4.0-1.1","5ba855d47c0ebe0001272f70","A3","batch1","spm_respsonse","6751","img/question_3_2.jpeg","1","mat_26","2","1","1","6751","","","","","","","","","","","","","","","","","","","","",""
"","","","","","html-keyboard-response","57","251452","0.0-2.0-4.0-0.2","5ba855d47c0ebe0001272f70","A3","batch1","spm_show_trial_num","null","<p class=block-text>Trial 27 out of 60</p>","null","","","","","","","","","","","","","","","","","","","","","","","","","",""
"","","","","","image-button-response","58","267386","0.0-2.0-4.0-1.2","5ba855d47c0ebe0001272f70","A3","batch1","spm_respsonse","15927","img/question_3_3.jpeg","2","mat_27","3","1","1","15927","","","","","","","","","","","","","","","","","","","","",""
"","","","","","html-keyboard-response","59","268457","0.0-2.0-4.0-0.3","5ba855d47c0ebe0001272f70","A3","batch1","spm_show_trial_num","null","<p class=block-text>Trial 28 out of 60</p>","null","","","","","","","","","","","","","","","","","","","","","","","","","",""
"","","","","","image-button-response","60","279002","0.0-2.0-4.0-1.3","5ba855d47c0ebe0001272f70","A3","batch1","spm_respsonse","10538","img/question_3_4.jpeg","7","mat_28","8","1","1","10538","","","","","","","","","","","","","","","","","","","","",""
"","","","","","html-keyboard-response","61","280063","0.0-2.0-4.0-0.4","5ba855d47c0ebe0001272f70","A3","batch1","spm_show_trial_num","null","<p class=block-text>Trial 29 out of 60</p>","null","","","","","","","","","","","","","","","","","","","","","","","","","",""
"","","","","","image-button-response","62","287591","0.0-2.0-4.0-1.4","5ba855d47c0ebe0001272f70","A3","batch1","spm_respsonse","7521","img/question_3_5.jpeg","6","mat_29","7","1","1","7521","","","","","","","","","","","","","","","","","","","","",""
"","","","","","html-keyboard-response","63","288661","0.0-2.0-4.0-0.5","5ba855d47c0ebe0001272f70","A3","batch1","spm_show_trial_num","null","<p class=block-text>Trial 30 out of 60</p>","null","","","","","","","","","","","","","","","","","","","","","","","","","",""
"","","","","","image-button-response","64","297860","0.0-2.0-4.0-1.5","5ba855d47c0ebe0001272f70","A3","batch1","spm_respsonse","9192","img/question_3_6.jpeg","3","mat_30","4","1","1","9192","","","","","","","","","","","","","","","","","","","","",""
"","","","","","html-keyboard-response","65","298925","0.0-2.0-4.0-0.6","5ba855d47c0ebe0001272f70","A3","batch1","spm_show_trial_num","null","<p class=block-text>Trial 31 out of 60</p>","null","","","","","","","","","","","","","","","","","","","","","","","","","",""
"","","","","","image-button-response","66","305829","0.0-2.0-4.0-1.6","5ba855d47c0ebe0001272f70","A3","batch1","spm_respsonse","6897","img/question_3_7.jpeg","4","mat_31","5","1","1","6897","","","","","","","","","","","","","","","","","","","","",""
"","","","","","html-keyboard-response","67","306894","0.0-2.0-4.0-0.7","5ba855d47c0ebe0001272f70","A3","batch1","spm_show_trial_num","null","<p class=block-text>Trial 32 out of 60</p>","null","","","","","","","","","","","","","","","","","","","","","","","","","",""
"","","","","","image-button-response","68","362436","0.0-2.0-4.0-1.7","5ba855d47c0ebe0001272f70","A3","batch1","spm_respsonse","55534","img/question_3_8.jpeg","6","mat_32","1","0","0","55534","","","","","","","","","","","","","","","","","","","","",""
"","","","","","html-keyboard-response","69","363502","0.0-2.0-4.0-0.8","5ba855d47c0ebe0001272f70","A3","batch1","spm_show_trial_num","null","<p class=block-text>Trial 33 out of 60</p>","null","","","","","","","","","","","","","","","","","","","","","","","","","",""
"","","","","","image-button-response","70","374236","0.0-2.0-4.0-1.8","5ba855d47c0ebe0001272f70","A3","batch1","spm_respsonse","10727","img/question_3_9.jpeg","6","mat_33","7","1","1","10727","","","","","","","","","","","","","","","","","","","","",""
"","","","","","html-keyboard-response","71","375300","0.0-2.0-4.0-0.9","5ba855d47c0ebe0001272f70","A3","batch1","spm_show_trial_num","null","<p class=block-text>Trial 34 out of 60</p>","null","","","","","","","","","","","","","","","","","","","","","","","","","",""
"","","","","","image-button-response","72","392156","0.0-2.0-4.0-1.9","5ba855d47c0ebe0001272f70","A3","batch1","spm_respsonse","16849","img/question_3_10.jpeg","5","mat_34","6","1","1","16849","","","","","","","","","","","","","","","","","","","","",""
"","","","","","html-keyboard-response","73","393222","0.0-2.0-4.0-0.10","5ba855d47c0ebe0001272f70","A3","batch1","spm_show_trial_num","null","<p class=block-text>Trial 35 out of 60</p>","null","","","","","","","","","","","","","","","","","","","","","","","","","",""
"","","","","","image-button-response","74","414270","0.0-2.0-4.0-1.10","5ba855d47c0ebe0001272f70","A3","batch1","spm_respsonse","21042","img/question_3_11.jpeg","0","mat_35","1","1","1","21042","","","","","","","","","","","","","","","","","","","","",""
"","","","","","html-keyboard-response","75","415334","0.0-2.0-4.0-0.11","5ba855d47c0ebe0001272f70","A3","batch1","spm_show_trial_num","null","<p class=block-text>Trial 36 out of 60</p>","null","","","","","","","","","","","","","","","","","","","","","","","","","",""
"","","","","","image-button-response","76","480864","0.0-2.0-4.0-1.11","5ba855d47c0ebe0001272f70","A3","batch1","spm_respsonse","65521","img/question_3_12.jpeg","1","mat_36","2","1","1","65521","","","","","","","","","","","","","","","","","","","","",""
"","","","","","html-keyboard-response","77","481941","0.0-2.0-4.0-0.12","5ba855d47c0ebe0001272f70","A3","batch1","spm_show_trial_num","null","<p class=block-text>Trial 37 out of 60</p>","null","","","","","","","","","","","","","","","","","","","","","","","","","",""
"","","","","","image-button-response","78","484671","0.0-2.0-4.0-1.12","5ba855d47c0ebe0001272f70","A3","batch1","spm_respsonse","2724","img/question_4_1.jpeg","2","mat_37","3","1","1","2724","","","","","","","","","","","","","","","","","","","","",""
"","","","","","html-keyboard-response","79","485743","0.0-2.0-4.0-0.13","5ba855d47c0ebe0001272f70","A3","batch1","spm_show_trial_num","null","<p class=block-text>Trial 38 out of 60</p>","null","","","","","","","","","","","","","","","","","","","","","","","","","",""
"","","","","","image-button-response","80","491212","0.0-2.0-4.0-1.13","5ba855d47c0ebe0001272f70","A3","batch1","spm_respsonse","5462","img/question_4_2.jpeg","3","mat_38","4","1","1","5462","","","","","","","","","","","","","","","","","","","","",""
"","","","","","html-keyboard-response","81","492269","0.0-2.0-4.0-0.14","5ba855d47c0ebe0001272f70","A3","batch1","spm_show_trial_num","null","<p class=block-text>Trial 39 out of 60</p>","null","","","","","","","","","","","","","","","","","","","","","","","","","",""
"","","","","","image-button-response","82","497440","0.0-2.0-4.0-1.14","5ba855d47c0ebe0001272f70","A3","batch1","spm_respsonse","5164","img/question_4_3.jpeg","2","mat_39","3","1","1","5164","","","","","","","","","","","","","","","","","","","","",""
"","","","","","html-keyboard-response","83","498511","0.0-2.0-4.0-0.15","5ba855d47c0ebe0001272f70","A3","batch1","spm_show_trial_num","null","<p class=block-text>Trial 40 out of 60</p>","null","","","","","","","","","","","","","","","","","","","","","","","","","",""
"","","","","","image-button-response","84","506897","0.0-2.0-4.0-1.15","5ba855d47c0ebe0001272f70","A3","batch1","spm_respsonse","8379","img/question_4_4.jpeg","6","mat_40","7","1","1","8379","","","","","","","","","","","","","","","","","","","","",""
"","","","","","html-keyboard-response","85","507962","0.0-2.0-4.0-0.16","5ba855d47c0ebe0001272f70","A3","batch1","spm_show_trial_num","null","<p class=block-text>Trial 41 out of 60</p>","null","","","","","","","","","","","","","","","","","","","","","","","","","",""
"","","","","","image-button-response","86","519065","0.0-2.0-4.0-1.16","5ba855d47c0ebe0001272f70","A3","batch1","spm_respsonse","11095","img/question_4_5.jpeg","7","mat_41","8","1","1","11095","","","","","","","","","","","","","","","","","","","","",""
"","","","","","html-keyboard-response","87","520135","0.0-2.0-4.0-0.17","5ba855d47c0ebe0001272f70","A3","batch1","spm_show_trial_num","null","<p class=block-text>Trial 42 out of 60</p>","null","","","","","","","","","","","","","","","","","","","","","","","","","",""
"","","","","","image-button-response","88","527956","0.0-2.0-4.0-1.17","5ba855d47c0ebe0001272f70","A3","batch1","spm_respsonse","7812","img/question_4_6.jpeg","4","mat_42","6","0","0","7812","","","","","","","","","","","","","","","","","","","","",""
"","","","","","html-keyboard-response","89","529030","0.0-2.0-4.0-0.18","5ba855d47c0ebe0001272f70","A3","batch1","spm_show_trial_num","null","<p class=block-text>Trial 43 out of 60</p>","null","","","","","","","","","","","","","","","","","","","","","","","","","",""
"","","","","","image-button-response","90","547797","0.0-2.0-4.0-1.18","5ba855d47c0ebe0001272f70","A3","batch1","spm_respsonse","18759","img/question_4_7.jpeg","4","mat_43","5","1","1","18759","","","","","","","","","","","","","","","","","","","","",""
"","","","","","html-keyboard-response","91","548869","0.0-2.0-4.0-0.19","5ba855d47c0ebe0001272f70","A3","batch1","spm_show_trial_num","null","<p class=block-text>Trial 44 out of 60</p>","null","","","","","","","","","","","","","","","","","","","","","","","","","",""
"","","","","","image-button-response","92","560768","0.0-2.0-4.0-1.19","5ba855d47c0ebe0001272f70","A3","batch1","spm_respsonse","11893","img/question_4_8.jpeg","3","mat_44","4","1","1","11893","","","","","","","","","","","","","","","","","","","","",""
"","","","","","html-keyboard-response","93","561839","0.0-2.0-4.0-0.20","5ba855d47c0ebe0001272f70","A3","batch1","spm_show_trial_num","null","<p class=block-text>Trial 45 out of 60</p>","null","","","","","","","","","","","","","","","","","","","","","","","","","",""
"","","","","","image-button-response","94","632019","0.0-2.0-4.0-1.20","5ba855d47c0ebe0001272f70","A3","batch1","spm_respsonse","70173","img/question_4_9.jpeg","4","mat_45","1","0","0","70173","","","","","","","","","","","","","","","","","","","","",""
"","","","","","html-keyboard-response","95","633090","0.0-2.0-4.0-0.21","5ba855d47c0ebe0001272f70","A3","batch1","spm_show_trial_num","null","<p class=block-text>Trial 46 out of 60</p>","null","","","","","","","","","","","","","","","","","","","","","","","","","",""
"","","","","","image-button-response","96","645940","0.0-2.0-4.0-1.21","5ba855d47c0ebe0001272f70","A3","batch1","spm_respsonse","12842","img/question_4_10.jpeg","1","mat_46","2","1","1","12842","","","","","","","","","","","","","","","","","","","","",""
"","","","","","html-keyboard-response","97","647002","0.0-2.0-4.0-0.22","5ba855d47c0ebe0001272f70","A3","batch1","spm_show_trial_num","null","<p class=block-text>Trial 47 out of 60</p>","null","","","","","","","","","","","","","","","","","","","","","","","","","",""
"","","","","","image-button-response","98","688297","0.0-2.0-4.0-1.22","5ba855d47c0ebe0001272f70","A3","batch1","spm_respsonse","41286","img/question_4_11.jpeg","6","mat_47","5","0","0","41286","","","","","","","","","","","","","","","","","","","","",""
"","","","","","html-keyboard-response","99","689375","0.0-2.0-4.0-0.23","5ba855d47c0ebe0001272f70","A3","batch1","spm_show_trial_num","null","<p class=block-text>Trial 48 out of 60</p>","null","","","","","","","","","","","","","","","","","","","","","","","","","",""
"","","","","","image-button-response","100","756948","0.0-2.0-4.0-1.23","5ba855d47c0ebe0001272f70","A3","batch1","spm_respsonse","67566","img/question_4_12.jpeg","6","mat_48","6","0","0","67566","","","","","","","","","","","","","","","","","","","","",""
"","","","","","html-keyboard-response","101","758020","0.0-2.0-4.0-0.24","5ba855d47c0ebe0001272f70","A3","batch1","spm_show_trial_num","null","<p class=block-text>Trial 49 out of 60</p>","null","","","","","","","","","","","","","","","","","","","","","","","","","",""
"","","","","","image-button-response","102","770020","0.0-2.0-4.0-1.24","5ba855d47c0ebe0001272f70","A3","batch1","spm_respsonse","11993","img/question_5_1.jpeg","6","mat_49","7","1","1","11993","","","","","","","","","","","","","","","","","","","","",""
"","","","","","html-keyboard-response","103","771090","0.0-2.0-4.0-0.25","5ba855d47c0ebe0001272f70","A3","batch1","spm_show_trial_num","null","<p class=block-text>Trial 50 out of 60</p>","null","","","","","","","","","","","","","","","","","","","","","","","","","",""
"","","","","","image-button-response","104","786701","0.0-2.0-4.0-1.25","5ba855d47c0ebe0001272f70","A3","batch1","spm_respsonse","15601","img/question_5_2.jpeg","5","mat_50","6","1","1","15601","","","","","","","","","","","","","","","","","","","","",""
"","","","","","html-keyboard-response","105","787768","0.0-2.0-4.0-0.26","5ba855d47c0ebe0001272f70","A3","batch1","spm_show_trial_num","null","<p class=block-text>Trial 51 out of 60</p>","null","","","","","","","","","","","","","","","","","","","","","","","","","",""
"","","","","","image-button-response","106","796294","0.0-2.0-4.0-1.26","5ba855d47c0ebe0001272f70","A3","batch1","spm_respsonse","8517","img/question_5_3.jpeg","7","mat_51","8","1","1","8517","","","","","","","","","","","","","","","","","","","","",""
"","","","","","html-keyboard-response","107","797354","0.0-2.0-4.0-0.27","5ba855d47c0ebe0001272f70","A3","batch1","spm_show_trial_num","null","<p class=block-text>Trial 52 out of 60</p>","null","","","","","","","","","","","","","","","","","","","","","","","","","",""
"","","","","","image-button-response","108","819588","0.0-2.0-4.0-1.27","5ba855d47c0ebe0001272f70","A3","batch1","spm_respsonse","22226","img/question_5_4.jpeg","1","mat_52","2","1","1","22226","","","","","","","","","","","","","","","","","","","","",""
"","","","","","html-keyboard-response","109","820658","0.0-2.0-4.0-0.28","5ba855d47c0ebe0001272f70","A3","batch1","spm_show_trial_num","null","<p class=block-text>Trial 53 out of 60</p>","null","","","","","","","","","","","","","","","","","","","","","","","","","",""
"","","","","","image-button-response","110","860371","0.0-2.0-4.0-1.28","5ba855d47c0ebe0001272f70","A3","batch1","spm_respsonse","39705","img/question_5_5.jpeg","0","mat_53","1","1","1","39705","","","","","","","","","","","","","","","","","","","","",""
"","","","","","html-keyboard-response","111","861436","0.0-2.0-4.0-0.29","5ba855d47c0ebe0001272f70","A3","batch1","spm_show_trial_num","null","<p class=block-text>Trial 54 out of 60</p>","null","","","","","","","","","","","","","","","","","","","","","","","","","",""
"","","","","","image-button-response","112","1057416","0.0-2.0-4.0-1.29","5ba855d47c0ebe0001272f70","A3","batch1","spm_respsonse","195973","img/question_5_6.jpeg","4","mat_54","5","1","1","195973","","","","","","","","","","","","","","","","","","","","",""
"","","","","","html-keyboard-response","113","1058485","0.0-2.0-4.0-0.30","5ba855d47c0ebe0001272f70","A3","batch1","spm_show_trial_num","null","<p class=block-text>Trial 55 out of 60</p>","null","","","","","","","","","","","","","","","","","","","","","","","","","",""
"","","","","","image-button-response","114","1086209","0.0-2.0-4.0-1.30","5ba855d47c0ebe0001272f70","A3","batch1","spm_respsonse","27715","img/question_5_7.jpeg","0","mat_55","1","1","1","27715","","","","","","","","","","","","","","","","","","","","",""
"","","","","","html-keyboard-response","115","1087271","0.0-2.0-4.0-0.31","5ba855d47c0ebe0001272f70","A3","batch1","spm_show_trial_num","null","<p class=block-text>Trial 56 out of 60</p>","null","","","","","","","","","","","","","","","","","","","","","","","","","",""
"","","","","","image-button-response","116","1101963","0.0-2.0-4.0-1.31","5ba855d47c0ebe0001272f70","A3","batch1","spm_respsonse","14685","img/question_5_8.jpeg","5","mat_56","6","1","1","14685","","","","","","","","","","","","","","","","","","","","",""
"","","","","","html-keyboard-response","117","1103036","0.0-2.0-4.0-0.32","5ba855d47c0ebe0001272f70","A3","batch1","spm_show_trial_num","null","<p class=block-text>Trial 57 out of 60</p>","null","","","","","","","","","","","","","","","","","","","","","","","","","",""
"","","","","","image-button-response","118","1118834","0.0-2.0-4.0-1.32","5ba855d47c0ebe0001272f70","A3","batch1","spm_respsonse","15790","img/question_5_9.jpeg","2","mat_57","3","1","1","15790","","","","","","","","","","","","","","","","","","","","",""
"","","","","","html-keyboard-response","119","1119903","0.0-2.0-4.0-0.33","5ba855d47c0ebe0001272f70","A3","batch1","spm_show_trial_num","null","<p class=block-text>Trial 58 out of 60</p>","null","","","","","","","","","","","","","","","","","","","","","","","","","",""
"","","","","","image-button-response","120","1180799","0.0-2.0-4.0-1.33","5ba855d47c0ebe0001272f70","A3","batch1","spm_respsonse","60889","img/question_5_10.jpeg","1","mat_58","2","1","1","60889","","","","","","","","","","","","","","","","","","","","",""
"","","","","","html-keyboard-response","121","1181867","0.0-2.0-4.0-0.34","5ba855d47c0ebe0001272f70","A3","batch1","spm_show_trial_num","null","<p class=block-text>Trial 59 out of 60</p>","null","","","","","","","","","","","","","","","","","","","","","","","","","",""
"","","","","","image-button-response","122","1334062","0.0-2.0-4.0-1.34","5ba855d47c0ebe0001272f70","A3","batch1","spm_respsonse","152188","img/question_5_11.jpeg","3","mat_59","4","1","1","152188","","","","","","","","","","","","","","","","","","","","",""
"","","","","","html-keyboard-response","123","1335132","0.0-2.0-4.0-0.35","5ba855d47c0ebe0001272f70","A3","batch1","spm_show_trial_num","null","<p class=block-text>Trial 60 out of 60</p>","null","","","","","","","","","","","","","","","","","","","","","","","","","",""
"","","","","","image-button-response","124","1384708","0.0-2.0-4.0-1.35","5ba855d47c0ebe0001272f70","A3","batch1","spm_respsonse","49570","img/question_5_12.jpeg","6","mat_60","5","0","0","49570","","","","","","","","","","","","","","","","","","","","",""
"","","","","","html-button-response","125","1387406","0.0-2.0-5.0","5ba855d47c0ebe0001272f70","A3","batch1","spm_goodbye","2434","<p class= block-text>This concludes the Standard Progressive Matrix game. Thank you for your responses!<br> When you are ready, click the button continue</p>","0","","","","","","","","","","","","","","","","","","","","","","","","","",""
"true","","","","","fullscreen","126","1389540","0.0-3.0-0.0","5ba855d47c0ebe0001272f70","A3","batch1","","","","","","","","","","","","","","","","","","","","","","","","","","","","","",""
"","","","","","instructions","127","1453692","0.0-3.0-1.0-0.0-0.0","5ba855d47c0ebe0001272f70","A3","batch1","tol-instructions","64149","","","","","","","","[{""page_index"":0,""viewing_time"":7824},{""page_index"":1,""viewing_time"":4244},{""page_index"":2,""viewing_time"":2876},{""page_index"":3,""viewing_time"":15131},{""page_index"":4,""viewing_time"":24237},{""page_index"":5,""viewing_time"":6902},{""page_index"":6,""viewing_time"":2935}]","","","","","","","","","","","","","","","","","","","",""
"","","","","","html-button-response","128","1454621","0.0-3.0-1.0-1.0-0.0","5ba855d47c0ebe0001272f70","A3","batch1","tol_enter_quiz","928","<p class=block-text> Let's answer a few questions <br>","0","","","","","","","","","","","","","","","","","","","","","","","","","",""
"","","","","","html-button-response","129","1459371","0.0-3.0-1.0-1.0-1.0","5ba855d47c0ebe0001272f70","A3","batch1","tol_quiz","4748","<p class = block-text>True or False: You can only move the ball on top of a peg. <br></p>","1","","","false","","","","","","","","","","","","","","","","","","","","","","",""
"","","","","","html-button-response","130","1460853","0.0-3.0-1.0-1.0-2.0","5ba855d47c0ebe0001272f70","A3","batch1","tol_quiz_feedback","1481","<p class = block-text>Incorrect. Remember, you can only move the ball on top of a peg.</p>","0","","","","","","","","","","","","","","","","","","","","","","","","","",""
"","","","","","html-button-response","131","1463767","0.0-3.0-1.0-1.0-3.0","5ba855d47c0ebe0001272f70","A3","batch1","tol_quiz","2912","<p class = block-text>True or False: You should try to match your board with the target board with fewest moves possible. <br></p>","0","","","true","","","","","","","","","","","","","","","","","","","","","","",""
"","","","","","html-button-response","132","1464401","0.0-3.0-1.0-1.0-4.0","5ba855d47c0ebe0001272f70","A3","batch1","tol_quiz_feedback","632","<p class = block-text>Correct! </p>","0","","","","","","","","","","","","","","","","","","","","","","","","","",""
"","","","","","html-button-response","133","1465372","0.0-3.0-1.0-2.0-0.0","5ba855d47c0ebe0001272f70","A3","batch1","","968","<p class = block-text>You made too many incorrect choices.</p><p class = block-text>You will now repeat the instructions and quiz</p>","0","","","","","","","","","","","","","","","","","","","","","","","","","",""
"","","","","","instructions","134","1478245","0.0-3.0-1.1-0.1-0.1","5ba855d47c0ebe0001272f70","A3","batch1","tol-instructions","12871","","","","","","","","[{""page_index"":0,""viewing_time"":3777},{""page_index"":1,""viewing_time"":5066},{""page_index"":2,""viewing_time"":1171},{""page_index"":3,""viewing_time"":1204},{""page_index"":4,""viewing_time"":304},{""page_index"":5,""viewing_time"":354},{""page_index"":6,""viewing_time"":995}]","","","","","","","","","","","","","","","","","","","",""
"","","","","","html-button-response","135","1479009","0.0-3.0-1.1-1.1-0.1","5ba855d47c0ebe0001272f70","A3","batch1","tol_enter_quiz","763","<p class=block-text> Let's answer a few questions <br>","0","","","","","","","","","","","","","","","","","","","","","","","","","",""
"","","","","","html-button-response","136","1481266","0.0-3.0-1.1-1.1-1.1","5ba855d47c0ebe0001272f70","A3","batch1","tol_quiz","2255","<p class = block-text>True or False: You can only move the ball on top of a peg. <br></p>","0","","","true","","","","","","","","","","","","","","","","","","","","","","",""
"","","","","","html-button-response","137","1481970","0.0-3.0-1.1-1.1-2.1","5ba855d47c0ebe0001272f70","A3","batch1","tol_quiz_feedback","702","<p class = block-text>Correct! You can only move the ball on top of a peg.</p>","0","","","","","","","","","","","","","","","","","","","","","","","","","",""
"","","","","","html-button-response","138","1483756","0.0-3.0-1.1-1.1-3.1","5ba855d47c0ebe0001272f70","A3","batch1","tol_quiz","1785","<p class = block-text>True or False: You should try to match your board with the target board with fewest moves possible. <br></p>","0","","","true","","","","","","","","","","","","","","","","","","","","","","",""
"","","","","","html-button-response","139","1484264","0.0-3.0-1.1-1.1-4.1","5ba855d47c0ebe0001272f70","A3","batch1","tol_quiz_feedback","506","<p class = block-text>Correct! </p>","0","","","","","","","","","","","","","","","","","","","","","","","","","",""
"","","","","","html-button-response","140","1487449","0.0-3.0-2.0","5ba855d47c0ebe0001272f70","A3","batch1","","3183","<p class=block-text> Now that you've understood the game, let's practice a few easier examples before we start!<br> <br>","0","","","","","","","","","","","","","","","","","","","","","","","","","",""
"","","","","","single-stim-button","141","1496584","0.0-3.0-3.0-0.0","5ba855d47c0ebe0001272f70","A3","batch1","tol_practice","9133","","","","","","","","","tol_peg_1","9133","9133","0","[[1,0,0],[3,0],[0]]","1","[[1,2,0],[0,0],[3]]","practice","9133","","","","","","","","","","",""
"","","","","","single-stim-button","142","1499643","0.0-3.0-3.0-1.0","5ba855d47c0ebe0001272f70","A3","batch1","tol_practice","3057","","","","","","","","","tol_peg_1","3057","3057","0","[[1,2,0],[3,0],[0]]","1","[[1,2,0],[0,0],[3]]","practice","3057","","","","","","","","","","",""
"","","","","","single-stim-button","143","1500627","0.0-3.0-3.1-0.1","5ba855d47c0ebe0001272f70","A3","batch1","tol_practice","983","","","","","","","","","tol_peg_2","983","983","0","[[1,2,0],[0,0],[0]]","2","[[1,2,0],[0,0],[3]]","practice","983","","","","","","","","","","",""
"","","","","","single-stim-button","144","1502789","0.0-3.0-3.1-1.1","5ba855d47c0ebe0001272f70","A3","batch1","tol_practice","2160","","","","","","","","","tol_peg_3","2160","2160","0","[[1,2,0],[0,0],[3]]","2","[[1,2,0],[0,0],[3]]","practice","2160","","","","","","","","","","",""
"","","","","","poldrack-single-stim","145","1503803","0.0-3.0-4.0","5ba855d47c0ebe0001272f70","A3","batch1","tol_feedback","-1","","","","","true","","","","","1000","1000","500","","","","","","-1","none","true","","0","","","","","",""
"","","","","","single-stim-button","146","1513108","0.0-3.0-5.0-0.0","5ba855d47c0ebe0001272f70","A3","batch1","tol_practice","9304","","","","","","","","","tol_peg_1","9304","9304","0","[[1,0,0],[3,0],[0]]","3","[[0,0,0],[3,1],[2]]","practice","9304","","","","","","","","","","",""
"","","","","","single-stim-button","147","1514336","0.0-3.0-5.0-1.0","5ba855d47c0ebe0001272f70","A3","batch1","tol_practice","1227","","","","","","","","","tol_peg_3","1227","1227","0","[[1,0,0],[3,0],[2]]","3","[[0,0,0],[3,1],[2]]","practice","1227","","","","","","","","","","",""
"","","","","","single-stim-button","148","1515250","0.0-3.0-5.1-0.1","5ba855d47c0ebe0001272f70","A3","batch1","tol_practice","914","","","","","","","","","tol_peg_1","914","914","0","[[0,0,0],[3,0],[2]]","4","[[0,0,0],[3,1],[2]]","practice","914","","","","","","","","","","",""
"","","","","","single-stim-button","149","1515948","0.0-3.0-5.1-1.1","5ba855d47c0ebe0001272f70","A3","batch1","tol_practice","697","","","","","","","","","tol_peg_2","697","697","0","[[0,0,0],[3,1],[2]]","4","[[0,0,0],[3,1],[2]]","practice","697","","","","","","","","","","",""
"","","","","","poldrack-single-stim","150","1516957","0.0-3.0-6.0","5ba855d47c0ebe0001272f70","A3","batch1","tol_feedback","-1","","","","","true","","","","","1000","1000","500","","","","","","-1","none","true","","0","","","","","",""
"","","","","","single-stim-button","151","1523817","0.0-3.0-7.0-0.0","5ba855d47c0ebe0001272f70","A3","batch1","tol_practice","6859","","","","","","","","","tol_peg_2","6859","6859","0","[[1,2,0],[0,0],[0]]","5","[[1,0,0],[2,0],[3]]","practice","6859","","","","","","","","","","",""
"","","","","","single-stim-button","152","1524655","0.0-3.0-7.0-1.0","5ba855d47c0ebe0001272f70","A3","batch1","tol_practice","837","","","","","","","","","tol_peg_3","837","837","0","[[1,2,0],[0,0],[3]]","5","[[1,0,0],[2,0],[3]]","practice","837","","","","","","","","","","",""
"","","","","","single-stim-button","153","1525544","0.0-3.0-7.1-0.1","5ba855d47c0ebe0001272f70","A3","batch1","tol_practice","889","","","","","","","","","tol_peg_1","889","889","0","[[1,0,0],[0,0],[3]]","6","[[1,0,0],[2,0],[3]]","practice","889","","","","","","","","","","",""
"","","","","","single-stim-button","154","1526024","0.0-3.0-7.1-1.1","5ba855d47c0ebe0001272f70","A3","batch1","tol_practice","479","","","","","","","","","tol_peg_2","479","479","0","[[1,0,0],[2,0],[3]]","6","[[1,0,0],[2,0],[3]]","practice","479","","","","","","","","","","",""
"","","","","","poldrack-single-stim","155","1527033","0.0-3.0-8.0","5ba855d47c0ebe0001272f70","A3","batch1","tol_feedback","-1","","","","","true","","","","","1000","1000","500","","","","","","-1","none","true","","0","","","","","",""
"","","","","","html-button-response","156","1528937","0.0-3.0-9.0","5ba855d47c0ebe0001272f70","A3","batch1","tol_instruction","1903","<div class = centerbox><p class = center-block-text>Great job! You are done with practice trials<br>You are about to start official trials.<br> <br> Problem <strong>1</strong> out of 25 problems</p></div>","0","","","","","","","","","","","","","","","","","","","","","","","","","",""
"","","","","","single-stim-button","157","1539175","0.0-3.0-10.0-0.0","5ba855d47c0ebe0001272f70","A3","batch1","tol_tohand","9225","","","","","","","","","tol_peg_1","9225","9225","0","[[1,0,0],[3,0],[0]]","1","[[1,3,0],[2,0],[0]]","0","0","","","","","","3","","","","",""
"","","","","","single-stim-button","158","1539888","0.0-3.0-10.0-1.0","5ba855d47c0ebe0001272f70","A3","batch1","tol_toboard","712","","","","","","","","","tol_peg_3","712","712","0","[[1,0,0],[3,0],[2]]","1","[[1,3,0],[2,0],[0]]","0","0","","","","","","3","","","","",""
"","","","","","single-stim-button","159","1540478","0.0-3.0-10.1-0.1","5ba855d47c0ebe0001272f70","A3","batch1","tol_tohand","590","","","","","","","","","tol_peg_2","590","590","0","[[1,0,0],[0,0],[2]]","2","[[1,3,0],[2,0],[0]]","0","0","","","","","","3","","","","",""
"","","","","","single-stim-button","160","1541248","0.0-3.0-10.1-1.1","5ba855d47c0ebe0001272f70","A3","batch1","tol_toboard","770","","","","","","","","","tol_peg_1","770","770","0","[[1,3,0],[0,0],[2]]","2","[[1,3,0],[2,0],[0]]","0","0","","","","","","3","","","","",""
"","","","","","single-stim-button","161","1541859","0.0-3.0-10.2-0.2","5ba855d47c0ebe0001272f70","A3","batch1","tol_tohand","611","","","","","","","","","tol_peg_3","611","611","0","[[1,3,0],[0,0],[0]]","3","[[1,3,0],[2,0],[0]]","0","0","","","","","","3","","","","",""
"","","","","","single-stim-button","162","1542221","0.0-3.0-10.2-1.2","5ba855d47c0ebe0001272f70","A3","batch1","tol_toboard","361","","","","","","","","","tol_peg_2","361","361","0","[[1,3,0],[2,0],[0]]","3","[[1,3,0],[2,0],[0]]","0","0","","","","","","3","","","","",""
"","","","","","poldrack-single-stim","163","1543229","0.0-3.0-11.0","5ba855d47c0ebe0001272f70","A3","batch1","tol_feedback","-1","","","","","true","","","","","1000","1000","500","","","","","","-1","none","true","9225","10426","","","","","",""
"","","","","","html-button-response","164","1543853","0.0-3.0-12.0","5ba855d47c0ebe0001272f70","A3","batch1","tol_trial_num","623","<div class = centerbox><p class = center-block-text>problem <strong>2</strong> out of 25 problems</p></div>","0","","","","","","","","","","","","","","","","","","","","","","","","","",""
"","","","","","single-stim-button","165","1560613","0.0-3.0-13.0-0.0","5ba855d47c0ebe0001272f70","A3","batch1","tol_tohand","16758","","","","","","","","","tol_peg_1","16758","16758","0","[[1,0,0],[3,0],[0]]","1","[[2,1,3],[0,0],[0]]","1","0","","","","","","5","","","","",""
"","","","","","single-stim-button","166","1561570","0.0-3.0-13.0-1.0","5ba855d47c0ebe0001272f70","A3","batch1","tol_toboard","955","","","","","","","","","tol_peg_3","955","955","0","[[1,0,0],[3,0],[2]]","1","[[2,1,3],[0,0],[0]]","1","0","","","","","","5","","","","",""
"","","","","","single-stim-button","167","1565723","0.0-3.0-13.1-0.1","5ba855d47c0ebe0001272f70","A3","batch1","tol_tohand","4152","","","","","","","","","tol_peg_1","4152","4152","0","[[0,0,0],[3,0],[2]]","2","[[2,1,3],[0,0],[0]]","1","0","","","","","","5","","","","",""
"","","","","","single-stim-button","168","1567036","0.0-3.0-13.1-1.1","5ba855d47c0ebe0001272f70","A3","batch1","tol_toboard","1312","","","","","","","","","tol_peg_2","1312","1312","0","[[0,0,0],[3,1],[2]]","2","[[2,1,3],[0,0],[0]]","1","0","","","","","","5","","","","",""
"","","","","","single-stim-button","169","1567696","0.0-3.0-13.2-0.2","5ba855d47c0ebe0001272f70","A3","batch1","tol_tohand","660","","","","","","","","","tol_peg_3","660","660","0","[[0,0,0],[3,1],[0]]","3","[[2,1,3],[0,0],[0]]","1","0","","","","","","5","","","","",""
"","","","","","single-stim-button","170","1568410","0.0-3.0-13.2-1.2","5ba855d47c0ebe0001272f70","A3","batch1","tol_toboard","713","","","","","","","","","tol_peg_1","713","713","0","[[2,0,0],[3,1],[0]]","3","[[2,1,3],[0,0],[0]]","1","0","","","","","","5","","","","",""
"","","","","","single-stim-button","171","1569803","0.0-3.0-13.3-0.3","5ba855d47c0ebe0001272f70","A3","batch1","tol_tohand","1392","","","","","","","","","tol_peg_2","1392","1392","0","[[2,0,0],[3,0],[0]]","4","[[2,1,3],[0,0],[0]]","1","0","","","","","","5","","","","",""
"","","","","","single-stim-button","172","1570231","0.0-3.0-13.3-1.3","5ba855d47c0ebe0001272f70","A3","batch1","tol_toboard","427","","","","","","","","","tol_peg_1","427","427","0","[[2,1,0],[3,0],[0]]","4","[[2,1,3],[0,0],[0]]","1","0","","","","","","5","","","","",""
"","","","","","single-stim-button","173","1570697","0.0-3.0-13.4-0.4","5ba855d47c0ebe0001272f70","A3","batch1","tol_tohand","466","","","","","","","","","tol_peg_2","466","466","0","[[2,1,0],[0,0],[0]]","5","[[2,1,3],[0,0],[0]]","1","0","","","","","","5","","","","",""
"","","","","","single-stim-button","174","1571030","0.0-3.0-13.4-1.4","5ba855d47c0ebe0001272f70","A3","batch1","tol_toboard","332","","","","","","","","","tol_peg_1","332","332","0","[[2,1,3],[0,0],[0]]","5","[[2,1,3],[0,0],[0]]","1","0","","","","","","5","","","","",""
"","","","","","poldrack-single-stim","175","1572047","0.0-3.0-14.0","5ba855d47c0ebe0001272f70","A3","batch1","tol_feedback","-1","","","","","true","","","","","1000","1000","500","","","","","","-1","none","true","16758","23428","","","","","",""
"","","","","","html-button-response","176","1572690","0.0-3.0-15.0","5ba855d47c0ebe0001272f70","A3","batch1","tol_trial_num","642","<div class = centerbox><p class = center-block-text>problem <strong>3</strong> out of 25 problems</p></div>","0","","","","","","","","","","","","","","","","","","","","","","","","","",""
"","","","","","single-stim-button","177","1577364","0.0-3.0-16.0-0.0","5ba855d47c0ebe0001272f70","A3","batch1","tol_tohand","4672","","","","","","","","","tol_peg_1","4672","4672","0","[[2,0,0],[0,0],[1]]","1","[[1,2,0],[3,0],[0]]","2","0","","","","","","4","","","","",""
"","","","","","single-stim-button","178","1577998","0.0-3.0-16.0-1.0","5ba855d47c0ebe0001272f70","A3","batch1","tol_toboard","633","","","","","","","","","tol_peg_2","633","633","0","[[2,0,0],[3,0],[1]]","1","[[1,2,0],[3,0],[0]]","2","0","","","","","","4","","","","",""
"","","","","","single-stim-button","179","1579613","0.0-3.0-16.1-0.1","5ba855d47c0ebe0001272f70","A3","batch1","tol_tohand","1615","","","","","","","","","tol_peg_1","1615","1615","0","[[0,0,0],[3,0],[1]]","2","[[1,2,0],[3,0],[0]]","2","0","","","","","","4","","","","",""
"","","","","","single-stim-button","180","1580193","0.0-3.0-16.1-1.1","5ba855d47c0ebe0001272f70","A3","batch1","tol_toboard","580","","","","","","","","","tol_peg_2","580","580","0","[[0,0,0],[3,2],[1]]","2","[[1,2,0],[3,0],[0]]","2","0","","","","","","4","","","","",""
"","","","","","single-stim-button","181","1580762","0.0-3.0-16.2-0.2","5ba855d47c0ebe0001272f70","A3","batch1","tol_tohand","569","","","","","","","","","tol_peg_3","569","569","0","[[0,0,0],[3,2],[0]]","3","[[1,2,0],[3,0],[0]]","2","0","","","","","","4","","","","",""
"","","","","","single-stim-button","182","1581350","0.0-3.0-16.2-1.2","5ba855d47c0ebe0001272f70","A3","batch1","tol_toboard","587","","","","","","","","","tol_peg_1","587","587","0","[[1,0,0],[3,2],[0]]","3","[[1,2,0],[3,0],[0]]","2","0","","","","","","4","","","","",""
"","","","","","single-stim-button","183","1581761","0.0-3.0-16.3-0.3","5ba855d47c0ebe0001272f70","A3","batch1","tol_tohand","409","","","","","","","","","tol_peg_2","409","409","0","[[1,0,0],[3,0],[0]]","4","[[1,2,0],[3,0],[0]]","2","0","","","","","","4","","","","",""
"","","","","","single-stim-button","184","1582049","0.0-3.0-16.3-1.3","5ba855d47c0ebe0001272f70","A3","batch1","tol_toboard","287","","","","","","","","","tol_peg_1","287","287","0","[[1,2,0],[3,0],[0]]","4","[[1,2,0],[3,0],[0]]","2","0","","","","","","4","","","","",""
"","","","","","poldrack-single-stim","185","1583066","0.0-3.0-17.0","5ba855d47c0ebe0001272f70","A3","batch1","tol_feedback","-1","","","","","true","","","","","1000","1000","500","","","","","","-1","none","true","4672","7265","","","","","",""
"","","","","","html-button-response","186","1583623","0.0-3.0-18.0","5ba855d47c0ebe0001272f70","A3","batch1","tol_trial_num","555","<div class = centerbox><p class = center-block-text>problem <strong>4</strong> out of 25 problems</p></div>","0","","","","","","","","","","","","","","","","","","","","","","","","","",""
"","","","","","single-stim-button","187","1586115","0.0-3.0-19.0-0.0","5ba855d47c0ebe0001272f70","A3","batch1","tol_tohand","2490","","","","","","","","","tol_peg_2","2490","2490","0","[[3,0,0],[2,0],[0]]","1","[[3,0,0],[1,0],[2]]","3","0","","","","","","3","","","","",""
"","","","","","single-stim-button","188","1586459","0.0-3.0-19.0-1.0","5ba855d47c0ebe0001272f70","A3","batch1","tol_toboard","344","","","","","","","","","tol_peg_3","344","344","0","[[3,0,0],[2,0],[1]]","1","[[3,0,0],[1,0],[2]]","3","0","","","","","","3","","","","",""
"","","","","","single-stim-button","189","1589869","0.0-3.0-19.1-0.1","5ba855d47c0ebe0001272f70","A3","batch1","tol_tohand","3409","","","","","","","","","tol_peg_2","3409","3409","0","[[3,0,0],[0,0],[1]]","2","[[3,0,0],[1,0],[2]]","3","0","","","","","","3","","","","",""
"","","","","","single-stim-button","190","1594900","0.0-3.0-19.1-1.1","5ba855d47c0ebe0001272f70","A3","batch1","tol_toboard","5030","","","","","","","","","tol_peg_1","5030","5030","0","[[3,2,0],[0,0],[1]]","2","[[3,0,0],[1,0],[2]]","3","0","","","","","","3","","","","",""
"","","","","","single-stim-button","191","1595518","0.0-3.0-19.2-0.2","5ba855d47c0ebe0001272f70","A3","batch1","tol_tohand","618","","","","","","","","","tol_peg_3","618","618","0","[[3,2,0],[0,0],[0]]","3","[[3,0,0],[1,0],[2]]","3","0","","","","","","3","","","","",""
"","","","","","single-stim-button","192","1595894","0.0-3.0-19.2-1.2","5ba855d47c0ebe0001272f70","A3","batch1","tol_toboard","375","","","","","","","","","tol_peg_2","375","375","0","[[3,2,0],[1,0],[0]]","3","[[3,0,0],[1,0],[2]]","3","0","","","","","","3","","","","",""
"","","","","","single-stim-button","193","1596581","0.0-3.0-19.3-0.3","5ba855d47c0ebe0001272f70","A3","batch1","tol_tohand","686","","","","","","","","","tol_peg_1","686","686","0","[[3,0,0],[1,0],[0]]","4","[[3,0,0],[1,0],[2]]","3","0","","","","","","3","","","","",""
"","","","","","single-stim-button","194","1597122","0.0-3.0-19.3-1.3","5ba855d47c0ebe0001272f70","A3","batch1","tol_toboard","539","","","","","","","","","tol_peg_3","539","539","0","[[3,0,0],[1,0],[2]]","4","[[3,0,0],[1,0],[2]]","3","0","","","","","","3","","","","",""
"","","","","","poldrack-single-stim","195","1598135","0.0-3.0-20.0","5ba855d47c0ebe0001272f70","A3","batch1","tol_feedback","-1","","","","","true","","","","","1000","1000","500","","","","","","-1","none","true","2490","7203","","","","","",""
"","","","","","html-button-response","196","1598715","0.0-3.0-21.0","5ba855d47c0ebe0001272f70","A3","batch1","tol_trial_num","578","<div class = centerbox><p class = center-block-text>problem <strong>5</strong> out of 25 problems</p></div>","0","","","","","","","","","","","","","","","","","","","","","","","","","",""
"","","","","","single-stim-button","197","1602340","0.0-3.0-22.0-0.0","5ba855d47c0ebe0001272f70","A3","batch1","tol_tohand","3624","","","","","","","","","tol_peg_2","3624","3624","0","[[1,0,0],[0,0],[3]]","1","[[0,0,0],[1,2],[3]]","4","0","","","","","","7","","","","",""
"","","","","","single-stim-button","198","1603410","0.0-3.0-22.0-1.0","5ba855d47c0ebe0001272f70","A3","batch1","tol_toboard","1070","","","","","","","","","tol_peg_1","1070","1070","0","[[1,2,0],[0,0],[3]]","1","[[0,0,0],[1,2],[3]]","4","0","","","","","","7","","","","",""
"","","","","","single-stim-button","199","1606940","0.0-3.0-22.1-0.1","5ba855d47c0ebe0001272f70","A3","batch1","tol_tohand","3530","","","","","","","","","tol_peg_1","3530","3530","0","[[1,0,0],[0,0],[3]]","2","[[0,0,0],[1,2],[3]]","4","0","","","","","","7","","","","",""
"","","","","","single-stim-button","200","1607281","0.0-3.0-22.1-1.1","5ba855d47c0ebe0001272f70","A3","batch1","tol_toboard","340","","","","","","","","","tol_peg_2","340","340","0","[[1,0,0],[2,0],[3]]","2","[[0,0,0],[1,2],[3]]","4","0","","","","","","7","","","","",""
"","","","","","single-stim-button","201","1608784","0.0-3.0-22.2-0.2","5ba855d47c0ebe0001272f70","A3","batch1","tol_tohand","1501","","","","","","","","","tol_peg_2","1501","1501","0","[[1,0,0],[0,0],[3]]","3","[[0,0,0],[1,2],[3]]","4","0","","","","","","7","","","","",""
"","","","","","single-stim-button","202","1611278","0.0-3.0-22.2-1.2","5ba855d47c0ebe0001272f70","A3","batch1","tol_toboard","2493","","","","","","","","","tol_peg_1","2493","2493","0","[[1,2,0],[0,0],[3]]","3","[[0,0,0],[1,2],[3]]","4","0","","","","","","7","","","","",""
"","","","","","single-stim-button","203","1611861","0.0-3.0-22.3-0.3","5ba855d47c0ebe0001272f70","A3","batch1","tol_tohand","582","","","","","","","","","tol_peg_1","582","582","0","[[1,0,0],[0,0],[3]]","4","[[0,0,0],[1,2],[3]]","4","0","","","","","","7","","","","",""
"","","","","","single-stim-button","204","1613459","0.0-3.0-22.3-1.3","5ba855d47c0ebe0001272f70","A3","batch1","tol_toboard","1597","","","","","","","","","tol_peg_2","1597","1597","0","[[1,0,0],[2,0],[3]]","4","[[0,0,0],[1,2],[3]]","4","0","","","","","","7","","","","",""
"","","","","","single-stim-button","205","1613964","0.0-3.0-22.4-0.4","5ba855d47c0ebe0001272f70","A3","batch1","tol_tohand","504","","","","","","","","","tol_peg_1","504","504","0","[[0,0,0],[2,0],[3]]","5","[[0,0,0],[1,2],[3]]","4","0","","","","","","7","","","","",""
"","","","","","single-stim-button","206","1614626","0.0-3.0-22.4-1.4","5ba855d47c0ebe0001272f70","A3","batch1","tol_toboard","662","","","","","","","","","tol_peg_2","662","662","0","[[0,0,0],[2,1],[3]]","5","[[0,0,0],[1,2],[3]]","4","0","","","","","","7","","","","",""
"","","","","","single-stim-button","207","1615235","0.0-3.0-22.5-0.5","5ba855d47c0ebe0001272f70","A3","batch1","tol_tohand","609","","","","","","","","","tol_peg_2","609","609","0","[[0,0,0],[2,0],[3]]","6","[[0,0,0],[1,2],[3]]","4","0","","","","","","7","","","","",""
"","","","","","single-stim-button","208","1616910","0.0-3.0-22.5-1.5","5ba855d47c0ebe0001272f70","A3","batch1","tol_toboard","1675","","","","","","","","","tol_peg_2","1675","1675","0","[[0,0,0],[2,1],[3]]","6","[[0,0,0],[1,2],[3]]","4","0","","","","","","7","","","","",""
"","","","","","single-stim-button","209","1628469","0.0-3.0-22.6-0.6","5ba855d47c0ebe0001272f70","A3","batch1","tol_tohand","11557","","","","","","","","","tol_peg_2","11557","11557","0","[[0,0,0],[2,0],[3]]","7","[[0,0,0],[1,2],[3]]","4","0","","","","","","7","","","","",""
"","","","","","single-stim-button","210","1631979","0.0-3.0-22.6-1.6","5ba855d47c0ebe0001272f70","A3","batch1","tol_toboard","3509","","","","","","","","","tol_peg_1","3509","3509","0","[[1,0,0],[2,0],[3]]","7","[[0,0,0],[1,2],[3]]","4","0","","","","","","7","","","","",""
"","","","","","single-stim-button","211","1636089","0.0-3.0-22.7-0.7","5ba855d47c0ebe0001272f70","A3","batch1","tol_tohand","4109","","","","","","","","","tol_peg_3","4109","4109","0","[[1,0,0],[2,0],[0]]","8","[[0,0,0],[1,2],[3]]","4","0","","","","","","7","","","","",""
"","","","","","single-stim-button","212","1637657","0.0-3.0-22.7-1.7","5ba855d47c0ebe0001272f70","A3","batch1","tol_toboard","1568","","","","","","","","","tol_peg_1","1568","1568","0","[[1,3,0],[2,0],[0]]","8","[[0,0,0],[1,2],[3]]","4","0","","","","","","7","","","","",""
"","","","","","single-stim-button","213","1638269","0.0-3.0-22.8-0.8","5ba855d47c0ebe0001272f70","A3","batch1","tol_tohand","610","","","","","","","","","tol_peg_2","610","610","0","[[1,3,0],[0,0],[0]]","9","[[0,0,0],[1,2],[3]]","4","0","","","","","","7","","","","",""
"","","","","","single-stim-button","214","1639000","0.0-3.0-22.8-1.8","5ba855d47c0ebe0001272f70","A3","batch1","tol_toboard","731","","","","","","","","","tol_peg_3","731","731","0","[[1,3,0],[0,0],[2]]","9","[[0,0,0],[1,2],[3]]","4","0","","","","","","7","","","","",""
"","","","","","single-stim-button","215","1639662","0.0-3.0-22.9-0.9","5ba855d47c0ebe0001272f70","A3","batch1","tol_tohand","661","","","","","","","","","tol_peg_1","661","661","0","[[1,0,0],[0,0],[2]]","10","[[0,0,0],[1,2],[3]]","4","0","","","","","","7","","","","",""
"","","","","","single-stim-button","216","1651836","0.0-3.0-22.9-1.9","5ba855d47c0ebe0001272f70","A3","batch1","tol_toboard","12173","","","","","","","","","tol_peg_1","12173","12173","0","[[1,3,0],[0,0],[2]]","10","[[0,0,0],[1,2],[3]]","4","0","","","","","","7","","","","",""
"","","","","","single-stim-button","217","1654282","0.0-3.0-22.10-0.10","5ba855d47c0ebe0001272f70","A3","batch1","tol_tohand","2446","","","","","","","","","tol_peg_1","2446","2446","0","[[1,0,0],[0,0],[2]]","11","[[0,0,0],[1,2],[3]]","4","0","","","","","","7","","","","",""
"","","","","","single-stim-button","218","1658323","0.0-3.0-22.10-1.10","5ba855d47c0ebe0001272f70","A3","batch1","tol_toboard","4039","","","","","","","","","tol_peg_2","4039","4039","0","[[1,0,0],[3,0],[2]]","11","[[0,0,0],[1,2],[3]]","4","0","","","","","","7","","","","",""
"","","","","","single-stim-button","219","1659016","0.0-3.0-22.11-0.11","5ba855d47c0ebe0001272f70","A3","batch1","tol_tohand","693","","","","","","","","","tol_peg_1","693","693","0","[[0,0,0],[3,0],[2]]","12","[[0,0,0],[1,2],[3]]","4","0","","","","","","7","","","","",""
"","","","","","single-stim-button","220","1659338","0.0-3.0-22.11-1.11","5ba855d47c0ebe0001272f70","A3","batch1","tol_toboard","322","","","","","","","","","tol_peg_2","322","322","0","[[0,0,0],[3,1],[2]]","12","[[0,0,0],[1,2],[3]]","4","0","","","","","","7","","","","",""
"","","","","","single-stim-button","221","1660315","0.0-3.0-22.12-0.12","5ba855d47c0ebe0001272f70","A3","batch1","tol_tohand","976","","","","","","","","","tol_peg_2","976","976","0","[[0,0,0],[3,0],[2]]","13","[[0,0,0],[1,2],[3]]","4","0","","","","","","7","","","","",""
"","","","","","single-stim-button","222","1661680","0.0-3.0-22.12-1.12","5ba855d47c0ebe0001272f70","A3","batch1","tol_toboard","1365","","","","","","","","","tol_peg_2","1365","1365","0","[[0,0,0],[3,1],[2]]","13","[[0,0,0],[1,2],[3]]","4","0","","","","","","7","","","","",""
"","","","","","single-stim-button","223","1662674","0.0-3.0-22.13-0.13","5ba855d47c0ebe0001272f70","A3","batch1","tol_tohand","992","","","","","","","","","tol_peg_2","992","992","0","[[0,0,0],[3,0],[2]]","14","[[0,0,0],[1,2],[3]]","4","0","","","","","","7","","","","",""
"","","","","","single-stim-button","224","1664527","0.0-3.0-22.13-1.13","5ba855d47c0ebe0001272f70","A3","batch1","tol_toboard","1853","","","","","","","","","tol_peg_1","1853","1853","0","[[1,0,0],[3,0],[2]]","14","[[0,0,0],[1,2],[3]]","4","0","","","","","","7","","","","",""
"","","","","","single-stim-button","225","1665587","0.0-3.0-22.14-0.14","5ba855d47c0ebe0001272f70","A3","batch1","tol_tohand","1060","","","","","","","","","tol_peg_3","1060","1060","0","[[1,0,0],[3,0],[0]]","15","[[0,0,0],[1,2],[3]]","4","0","","","","","","7","","","","",""
"","","","","","single-stim-button","226","1666489","0.0-3.0-22.14-1.14","5ba855d47c0ebe0001272f70","A3","batch1","tol_toboard","901","","","","","","","","","tol_peg_1","901","901","0","[[1,2,0],[3,0],[0]]","15","[[0,0,0],[1,2],[3]]","4","0","","","","","","7","","","","",""
"","","","","","single-stim-button","227","1667352","0.0-3.0-22.15-0.15","5ba855d47c0ebe0001272f70","A3","batch1","tol_tohand","862","","","","","","","","","tol_peg_2","862","862","0","[[1,2,0],[0,0],[0]]","16","[[0,0,0],[1,2],[3]]","4","0","","","","","","7","","","","",""
"","","","","","single-stim-button","228","1669007","0.0-3.0-22.15-1.15","5ba855d47c0ebe0001272f70","A3","batch1","tol_toboard","1655","","","","","","","","","tol_peg_3","1655","1655","0","[[1,2,0],[0,0],[3]]","16","[[0,0,0],[1,2],[3]]","4","0","","","","","","7","","","","",""
"","","","","","single-stim-button","229","1669511","0.0-3.0-22.16-0.16","5ba855d47c0ebe0001272f70","A3","batch1","tol_tohand","503","","","","","","","","","tol_peg_1","503","503","0","[[1,0,0],[0,0],[3]]","17","[[0,0,0],[1,2],[3]]","4","0","","","","","","7","","","","",""
"","","","","","single-stim-button","230","1669795","0.0-3.0-22.16-1.16","5ba855d47c0ebe0001272f70","A3","batch1","tol_toboard","283","","","","","","","","","tol_peg_2","283","283","0","[[1,0,0],[2,0],[3]]","17","[[0,0,0],[1,2],[3]]","4","0","","","","","","7","","","","",""
"","","","","","single-stim-button","231","1670445","0.0-3.0-22.17-0.17","5ba855d47c0ebe0001272f70","A3","batch1","tol_tohand","650","","","","","","","","","tol_peg_2","650","650","0","[[1,0,0],[0,0],[3]]","18","[[0,0,0],[1,2],[3]]","4","0","","","","","","7","","","","",""
"","","","","","single-stim-button","232","1671839","0.0-3.0-22.17-1.17","5ba855d47c0ebe0001272f70","A3","batch1","tol_toboard","1393","","","","","","","","","tol_peg_1","1393","1393","0","[[1,2,0],[0,0],[3]]","18","[[0,0,0],[1,2],[3]]","4","0","","","","","","7","","","","",""
"","","","","","single-stim-button","233","1672890","0.0-3.0-22.18-0.18","5ba855d47c0ebe0001272f70","A3","batch1","tol_tohand","1051","","","","","","","","","tol_peg_1","1051","1051","0","[[1,0,0],[0,0],[3]]","19","[[0,0,0],[1,2],[3]]","4","0","","","","","","7","","","","",""
"","","","","","single-stim-button","234","1673449","0.0-3.0-22.18-1.18","5ba855d47c0ebe0001272f70","A3","batch1","tol_toboard","558","","","","","","","","","tol_peg_2","558","558","0","[[1,0,0],[2,0],[3]]","19","[[0,0,0],[1,2],[3]]","4","0","","","","","","7","","","","",""
"","","","","","single-stim-button","235","1696792","0.0-3.0-22.19-0.19","5ba855d47c0ebe0001272f70","A3","batch1","tol_tohand","23342","","","","","","","","","tol_peg_2","23342","23342","0","[[1,0,0],[0,0],[3]]","20","[[0,0,0],[1,2],[3]]","4","0","","","","","","7","","","","",""
"","","","","","single-stim-button","236","1697830","0.0-3.0-22.19-1.19","5ba855d47c0ebe0001272f70","A3","batch1","tol_toboard","1037","","","","","","","","","tol_peg_1","1037","1037","0","[[1,2,0],[0,0],[3]]","20","[[0,0,0],[1,2],[3]]","4","0","","","","","","7","","","","",""
"","","","","","single-stim-button","237","1701405","0.0-3.0-22.20-0.20","5ba855d47c0ebe0001272f70","A3","batch1","tol_tohand","3573","","","","","","","","","tol_peg_3","3573","3573","0","[[1,2,0],[0,0],[0]]","21","[[0,0,0],[1,2],[3]]","4","0","","","","","","7","","","","",""
"","","","","","single-stim-button","238","1704048","0.0-3.0-22.20-1.20","5ba855d47c0ebe0001272f70","A3","batch1","tol_toboard","2643","","","","","","","","","tol_peg_1","2643","2643","0","[[1,2,3],[0,0],[0]]","21","[[0,0,0],[1,2],[3]]","4","0","","","","","","7","","","","",""
"","","","","","single-stim-button","239","1707066","0.0-3.0-22.21-0.21","5ba855d47c0ebe0001272f70","A3","batch1","tol_tohand","3017","","","","","","","","","tol_peg_1","3017","3017","0","[[1,2,0],[0,0],[0]]","22","[[0,0,0],[1,2],[3]]","4","0","","","","","","7","","","","",""
"","","","","","single-stim-button","240","1710524","0.0-3.0-22.21-1.21","5ba855d47c0ebe0001272f70","A3","batch1","tol_toboard","3457","","","","","","","","","tol_peg_3","3457","3457","0","[[1,2,0],[0,0],[3]]","22","[[0,0,0],[1,2],[3]]","4","0","","","","","","7","","","","",""
"","","","","","single-stim-button","241","1713058","0.0-3.0-22.22-0.22","5ba855d47c0ebe0001272f70","A3","batch1","tol_tohand","2533","","","","","","","","","tol_peg_1","2533","2533","0","[[1,0,0],[0,0],[3]]","23","[[0,0,0],[1,2],[3]]","4","0","","","","","","7","","","","",""
"","","","","","single-stim-button","242","1715742","0.0-3.0-22.22-1.22","5ba855d47c0ebe0001272f70","A3","batch1","tol_toboard","2684","","","","","","","","","tol_peg_2","2684","2684","0","[[1,0,0],[2,0],[3]]","23","[[0,0,0],[1,2],[3]]","4","0","","","","","","7","","","","",""
"","","","","","single-stim-button","243","1716302","0.0-3.0-22.23-0.23","5ba855d47c0ebe0001272f70","A3","batch1","tol_tohand","558","","","","","","","","","tol_peg_3","558","558","0","[[1,0,0],[2,0],[0]]","24","[[0,0,0],[1,2],[3]]","4","0","","","","","","7","","","","",""
"","","","","","single-stim-button","244","1716828","0.0-3.0-22.23-1.23","5ba855d47c0ebe0001272f70","A3","batch1","tol_toboard","525","","","","","","","","","tol_peg_2","525","525","0","[[1,0,0],[2,3],[0]]","24","[[0,0,0],[1,2],[3]]","4","0","","","","","","7","","","","",""
"","","","","","single-stim-button","245","1717572","0.0-3.0-22.24-0.24","5ba855d47c0ebe0001272f70","A3","batch1","tol_tohand","743","","","","","","","","","tol_peg_1","743","743","0","[[0,0,0],[2,3],[0]]","25","[[0,0,0],[1,2],[3]]","4","0","","","","","","7","","","","",""
"","","","","","single-stim-button","246","1718691","0.0-3.0-22.24-1.24","5ba855d47c0ebe0001272f70","A3","batch1","tol_toboard","1119","","","","","","","","","tol_peg_3","1119","1119","0","[[0,0,0],[2,3],[1]]","25","[[0,0,0],[1,2],[3]]","4","0","","","","","","7","","","","",""
"","","","","","single-stim-button","247","1719686","0.0-3.0-22.25-0.25","5ba855d47c0ebe0001272f70","A3","batch1","tol_tohand","994","","","","","","","","","tol_peg_2","994","994","0","[[0,0,0],[2,0],[1]]","26","[[0,0,0],[1,2],[3]]","4","0","","","","","","7","","","","",""
"","","","","","single-stim-button","248","1721365","0.0-3.0-22.25-1.25","5ba855d47c0ebe0001272f70","A3","batch1","tol_toboard","1677","","","","","","","","","tol_peg_1","1677","1677","0","[[3,0,0],[2,0],[1]]","26","[[0,0,0],[1,2],[3]]","4","0","","","","","","7","","","","",""
"","","","","","single-stim-button","249","1727182","0.0-3.0-22.26-0.26","5ba855d47c0ebe0001272f70","A3","batch1","tol_tohand","5817","","","","","","","","","tol_peg_2","5817","5817","0","[[3,0,0],[0,0],[1]]","27","[[0,0,0],[1,2],[3]]","4","0","","","","","","7","","","","",""
"","","","","","single-stim-button","250","1727852","0.0-3.0-22.26-1.26","5ba855d47c0ebe0001272f70","A3","batch1","tol_toboard","670","","","","","","","","","tol_peg_1","670","670","0","[[3,2,0],[0,0],[1]]","27","[[0,0,0],[1,2],[3]]","4","0","","","","","","7","","","","",""
"","","","","","single-stim-button","251","1728426","0.0-3.0-22.27-0.27","5ba855d47c0ebe0001272f70","A3","batch1","tol_tohand","573","","","","","","","","","tol_peg_3","573","573","0","[[3,2,0],[0,0],[0]]","28","[[0,0,0],[1,2],[3]]","4","0","","","","","","7","","","","",""
"","","","","","single-stim-button","252","1728963","0.0-3.0-22.27-1.27","5ba855d47c0ebe0001272f70","A3","batch1","tol_toboard","537","","","","","","","","","tol_peg_2","537","537","0","[[3,2,0],[1,0],[0]]","28","[[0,0,0],[1,2],[3]]","4","0","","","","","","7","","","","",""
"","","","","","single-stim-button","253","1731284","0.0-3.0-22.28-0.28","5ba855d47c0ebe0001272f70","A3","batch1","tol_tohand","2321","","","","","","","","","tol_peg_1","2321","2321","0","[[3,0,0],[1,0],[0]]","29","[[0,0,0],[1,2],[3]]","4","0","","","","","","7","","","","",""
"","","","","","single-stim-button","254","1731711","0.0-3.0-22.28-1.28","5ba855d47c0ebe0001272f70","A3","batch1","tol_toboard","426","","","","","","","","","tol_peg_2","426","426","0","[[3,0,0],[1,2],[0]]","29","[[0,0,0],[1,2],[3]]","4","0","","","","","","7","","","","",""
"","","","","","single-stim-button","255","1732172","0.0-3.0-22.29-0.29","5ba855d47c0ebe0001272f70","A3","batch1","tol_tohand","460","","","","","","","","","tol_peg_1","460","460","0","[[0,0,0],[1,2],[0]]","30","[[0,0,0],[1,2],[3]]","4","0","","","","","","7","","","","",""
"","","","","","single-stim-button","256","1732519","0.0-3.0-22.29-1.29","5ba855d47c0ebe0001272f70","A3","batch1","tol_toboard","346","","","","","","","","","tol_peg_3","346","346","0","[[0,0,0],[1,2],[3]]","30","[[0,0,0],[1,2],[3]]","4","0","","","","","","7","","","","",""
"","","","","","poldrack-single-stim","257","1733526","0.0-3.0-23.0","5ba855d47c0ebe0001272f70","A3","batch1","tol_feedback","-1","","","","","true","","","","","1000","1000","500","","","","","","-1","none","true","3624","80451","","","","","",""
"","","","","","html-button-response","258","1734101","0.0-3.0-24.0","5ba855d47c0ebe0001272f70","A3","batch1","tol_trial_num","573","<div class = centerbox><p class = center-block-text>problem <strong>6</strong> out of 25 problems</p></div>","0","","","","","","","","","","","","","","","","","","","","","","","","","",""
"","","","","","single-stim-button","259","1751450","0.0-3.0-25.0-0.0","5ba855d47c0ebe0001272f70","A3","batch1","tol_tohand","17348","","","","","","","","","tol_peg_3","17348","17348","0","[[0,0,0],[1,2],[0]]","1","[[1,0,0],[2,3],[0]]","5","0","","","","","","6","","","","",""
"","","","","","single-stim-button","260","1752466","0.0-3.0-25.0-1.0","5ba855d47c0ebe0001272f70","A3","batch1","tol_toboard","1015","","","","","","","","","tol_peg_1","1015","1015","0","[[3,0,0],[1,2],[0]]","1","[[1,0,0],[2,3],[0]]","5","0","","","","","","6","","","","",""
"","","","","","single-stim-button","261","1753022","0.0-3.0-25.1-0.1","5ba855d47c0ebe0001272f70","A3","batch1","tol_tohand","556","","","","","","","","","tol_peg_2","556","556","0","[[3,0,0],[1,0],[0]]","2","[[1,0,0],[2,3],[0]]","5","0","","","","","","6","","","","",""
"","","","","","single-stim-button","262","1753387","0.0-3.0-25.1-1.1","5ba855d47c0ebe0001272f70","A3","batch1","tol_toboard","364","","","","","","","","","tol_peg_3","364","364","0","[[3,0,0],[1,0],[2]]","2","[[1,0,0],[2,3],[0]]","5","0","","","","","","6","","","","",""
"","","","","","single-stim-button","263","1755243","0.0-3.0-25.2-0.2","5ba855d47c0ebe0001272f70","A3","batch1","tol_tohand","1856","","","","","","","","","tol_peg_2","1856","1856","0","[[3,0,0],[0,0],[2]]","3","[[1,0,0],[2,3],[0]]","5","0","","","","","","6","","","","",""
"","","","","","single-stim-button","264","1755980","0.0-3.0-25.2-1.2","5ba855d47c0ebe0001272f70","A3","batch1","tol_toboard","736","","","","","","","","","tol_peg_1","736","736","0","[[3,1,0],[0,0],[2]]","3","[[1,0,0],[2,3],[0]]","5","0","","","","","","6","","","","",""
"","","","","","single-stim-button","265","1756702","0.0-3.0-25.3-0.3","5ba855d47c0ebe0001272f70","A3","batch1","tol_tohand","722","","","","","","","","","tol_peg_3","722","722","0","[[3,1,0],[0,0],[0]]","4","[[1,0,0],[2,3],[0]]","5","0","","","","","","6","","","","",""
"","","","","","single-stim-button","266","1757466","0.0-3.0-25.3-1.3","5ba855d47c0ebe0001272f70","A3","batch1","tol_toboard","763","","","","","","","","","tol_peg_2","763","763","0","[[3,1,0],[2,0],[0]]","4","[[1,0,0],[2,3],[0]]","5","0","","","","","","6","","","","",""
"","","","","","single-stim-button","267","1758286","0.0-3.0-25.4-0.4","5ba855d47c0ebe0001272f70","A3","batch1","tol_tohand","820","","","","","","","","","tol_peg_1","820","820","0","[[3,0,0],[2,0],[0]]","5","[[1,0,0],[2,3],[0]]","5","0","","","","","","6","","","","",""
"","","","","","single-stim-button","268","1758950","0.0-3.0-25.4-1.4","5ba855d47c0ebe0001272f70","A3","batch1","tol_toboard","663","","","","","","","","","tol_peg_3","663","663","0","[[3,0,0],[2,0],[1]]","5","[[1,0,0],[2,3],[0]]","5","0","","","","","","6","","","","",""
"","","","","","single-stim-button","269","1759744","0.0-3.0-25.5-0.5","5ba855d47c0ebe0001272f70","A3","batch1","tol_tohand","794","","","","","","","","","tol_peg_1","794","794","0","[[0,0,0],[2,0],[1]]","6","[[1,0,0],[2,3],[0]]","5","0","","","","","","6","","","","",""
"","","","","","single-stim-button","270","1760356","0.0-3.0-25.5-1.5","5ba855d47c0ebe0001272f70","A3","batch1","tol_toboard","611","","","","","","","","","tol_peg_2","611","611","0","[[0,0,0],[2,3],[1]]","6","[[1,0,0],[2,3],[0]]","5","0","","","","","","6","","","","",""
"","","","","","single-stim-button","271","1760773","0.0-3.0-25.6-0.6","5ba855d47c0ebe0001272f70","A3","batch1","tol_tohand","416","","","","","","","","","tol_peg_3","416","416","0","[[0,0,0],[2,3],[0]]","7","[[1,0,0],[2,3],[0]]","5","0","","","","","","6","","","","",""
"","","","","","single-stim-button","272","1761156","0.0-3.0-25.6-1.6","5ba855d47c0ebe0001272f70","A3","batch1","tol_toboard","383","","","","","","","","","tol_peg_1","383","383","0","[[1,0,0],[2,3],[0]]","7","[[1,0,0],[2,3],[0]]","5","0","","","","","","6","","","","",""
"","","","","","poldrack-single-stim","273","1762173","0.0-3.0-26.0","5ba855d47c0ebe0001272f70","A3","batch1","tol_feedback","-1","","","","","true","","","","","1000","1000","500","","","","","","-1","none","true","17348","22512","","","","","",""
"","","","","","html-button-response","274","1762749","0.0-3.0-27.0","5ba855d47c0ebe0001272f70","A3","batch1","tol_trial_num","574","<div class = centerbox><p class = center-block-text>problem <strong>7</strong> out of 25 problems</p></div>","0","","","","","","","","","","","","","","","","","","","","","","","","","",""
"","","","","","single-stim-button","275","1772900","0.0-3.0-28.0-0.0","5ba855d47c0ebe0001272f70","A3","batch1","tol_tohand","10149","","","","","","","","","tol_peg_1","10149","10149","0","[[2,0,0],[0,0],[3]]","1","[[1,2,0],[3,0],[0]]","6","0","","","","","","5","","","","",""
"","","","","","single-stim-button","276","1773224","0.0-3.0-28.0-1.0","5ba855d47c0ebe0001272f70","A3","batch1","tol_toboard","324","","","","","","","","","tol_peg_2","324","324","0","[[2,0,0],[1,0],[3]]","1","[[1,2,0],[3,0],[0]]","6","0","","","","","","5","","","","",""
"","","","","","single-stim-button","277","1773700","0.0-3.0-28.1-0.1","5ba855d47c0ebe0001272f70","A3","batch1","tol_tohand","475","","","","","","","","","tol_peg_1","475","475","0","[[0,0,0],[1,0],[3]]","2","[[1,2,0],[3,0],[0]]","6","0","","","","","","5","","","","",""
"","","","","","single-stim-button","278","1777156","0.0-3.0-28.1-1.1","5ba855d47c0ebe0001272f70","A3","batch1","tol_toboard","3454","","","","","","","","","tol_peg_2","3454","3454","0","[[0,0,0],[1,2],[3]]","2","[[1,2,0],[3,0],[0]]","6","0","","","","","","5","","","","",""
"","","","","","single-stim-button","279","1779014","0.0-3.0-28.2-0.2","5ba855d47c0ebe0001272f70","A3","batch1","tol_tohand","1857","","","","","","","","","tol_peg_3","1857","1857","0","[[0,0,0],[1,2],[0]]","3","[[1,2,0],[3,0],[0]]","6","0","","","","","","5","","","","",""
"","","","","","single-stim-button","280","1779791","0.0-3.0-28.2-1.2","5ba855d47c0ebe0001272f70","A3","batch1","tol_toboard","777","","","","","","","","","tol_peg_1","777","777","0","[[3,0,0],[1,2],[0]]","3","[[1,2,0],[3,0],[0]]","6","0","","","","","","5","","","","",""
"","","","","","single-stim-button","281","1786040","0.0-3.0-28.3-0.3","5ba855d47c0ebe0001272f70","A3","batch1","tol_tohand","6248","","","","","","","","","tol_peg_2","6248","6248","0","[[3,0,0],[1,0],[0]]","4","[[1,2,0],[3,0],[0]]","6","0","","","","","","5","","","","",""
"","","","","","single-stim-button","282","1786894","0.0-3.0-28.3-1.3","5ba855d47c0ebe0001272f70","A3","batch1","tol_toboard","853","","","","","","","","","tol_peg_3","853","853","0","[[3,0,0],[1,0],[2]]","4","[[1,2,0],[3,0],[0]]","6","0","","","","","","5","","","","",""
"","","","","","single-stim-button","283","1787505","0.0-3.0-28.4-0.4","5ba855d47c0ebe0001272f70","A3","batch1","tol_tohand","610","","","","","","","","","tol_peg_2","610","610","0","[[3,0,0],[0,0],[2]]","5","[[1,2,0],[3,0],[0]]","6","0","","","","","","5","","","","",""
"","","","","","single-stim-button","284","1787915","0.0-3.0-28.4-1.4","5ba855d47c0ebe0001272f70","A3","batch1","tol_toboard","409","","","","","","","","","tol_peg_1","409","409","0","[[3,1,0],[0,0],[2]]","5","[[1,2,0],[3,0],[0]]","6","0","","","","","","5","","","","",""
"","","","","","single-stim-button","285","1788928","0.0-3.0-28.5-0.5","5ba855d47c0ebe0001272f70","A3","batch1","tol_tohand","1011","","","","","","","","","tol_peg_1","1011","1011","0","[[3,0,0],[0,0],[2]]","6","[[1,2,0],[3,0],[0]]","6","0","","","","","","5","","","","",""
"","","","","","single-stim-button","286","1789322","0.0-3.0-28.5-1.5","5ba855d47c0ebe0001272f70","A3","batch1","tol_toboard","394","","","","","","","","","tol_peg_2","394","394","0","[[3,0,0],[1,0],[2]]","6","[[1,2,0],[3,0],[0]]","6","0","","","","","","5","","","","",""
"","","","","","single-stim-button","287","1789742","0.0-3.0-28.6-0.6","5ba855d47c0ebe0001272f70","A3","batch1","tol_tohand","417","","","","","","","","","tol_peg_1","417","417","0","[[0,0,0],[1,0],[2]]","7","[[1,2,0],[3,0],[0]]","6","0","","","","","","5","","","","",""
"","","","","","single-stim-button","288","1791604","0.0-3.0-28.6-1.6","5ba855d47c0ebe0001272f70","A3","batch1","tol_toboard","1861","","","","","","","","","tol_peg_1","1861","1861","0","[[3,0,0],[1,0],[2]]","7","[[1,2,0],[3,0],[0]]","6","0","","","","","","5","","","","",""
"","","","","","single-stim-button","289","1792754","0.0-3.0-28.7-0.7","5ba855d47c0ebe0001272f70","A3","batch1","tol_tohand","1150","","","","","","","","","tol_peg_3","1150","1150","0","[[3,0,0],[1,0],[0]]","8","[[1,2,0],[3,0],[0]]","6","0","","","","","","5","","","","",""
"","","","","","single-stim-button","290","1793683","0.0-3.0-28.7-1.7","5ba855d47c0ebe0001272f70","A3","batch1","tol_toboard","929","","","","","","","","","tol_peg_2","929","929","0","[[3,0,0],[1,2],[0]]","8","[[1,2,0],[3,0],[0]]","6","0","","","","","","5","","","","",""
"","","","","","single-stim-button","291","1794090","0.0-3.0-28.8-0.8","5ba855d47c0ebe0001272f70","A3","batch1","tol_tohand","406","","","","","","","","","tol_peg_1","406","406","0","[[0,0,0],[1,2],[0]]","9","[[1,2,0],[3,0],[0]]","6","0","","","","","","5","","","","",""
"","","","","","single-stim-button","292","1794486","0.0-3.0-28.8-1.8","5ba855d47c0ebe0001272f70","A3","batch1","tol_toboard","396","","","","","","","","","tol_peg_3","396","396","0","[[0,0,0],[1,2],[3]]","9","[[1,2,0],[3,0],[0]]","6","0","","","","","","5","","","","",""
"","","","","","single-stim-button","293","1796840","0.0-3.0-28.9-0.9","5ba855d47c0ebe0001272f70","A3","batch1","tol_tohand","2353","","","","","","","","","tol_peg_2","2353","2353","0","[[0,0,0],[1,0],[3]]","10","[[1,2,0],[3,0],[0]]","6","0","","","","","","5","","","","",""
"","","","","","single-stim-button","294","1800631","0.0-3.0-28.9-1.9","5ba855d47c0ebe0001272f70","A3","batch1","tol_toboard","3790","","","","","","","","","tol_peg_1","3790","3790","0","[[2,0,0],[1,0],[3]]","10","[[1,2,0],[3,0],[0]]","6","0","","","","","","5","","","","",""
"","","","","","single-stim-button","295","1801534","0.0-3.0-28.10-0.10","5ba855d47c0ebe0001272f70","A3","batch1","tol_tohand","902","","","","","","","","","tol_peg_2","902","902","0","[[2,0,0],[0,0],[3]]","11","[[1,2,0],[3,0],[0]]","6","0","","","","","","5","","","","",""
"","","","","","single-stim-button","296","1801932","0.0-3.0-28.10-1.10","5ba855d47c0ebe0001272f70","A3","batch1","tol_toboard","398","","","","","","","","","tol_peg_1","398","398","0","[[2,1,0],[0,0],[3]]","11","[[1,2,0],[3,0],[0]]","6","0","","","","","","5","","","","",""
"","","","","","single-stim-button","297","1803935","0.0-3.0-28.11-0.11","5ba855d47c0ebe0001272f70","A3","batch1","tol_tohand","2002","","","","","","","","","tol_peg_3","2002","2002","0","[[2,1,0],[0,0],[0]]","12","[[1,2,0],[3,0],[0]]","6","0","","","","","","5","","","","",""
"","","","","","single-stim-button","298","1804329","0.0-3.0-28.11-1.11","5ba855d47c0ebe0001272f70","A3","batch1","tol_toboard","393","","","","","","","","","tol_peg_2","393","393","0","[[2,1,0],[3,0],[0]]","12","[[1,2,0],[3,0],[0]]","6","0","","","","","","5","","","","",""
"","","","","","single-stim-button","299","1806235","0.0-3.0-28.12-0.12","5ba855d47c0ebe0001272f70","A3","batch1","tol_tohand","1906","","","","","","","","","tol_peg_1","1906","1906","0","[[2,0,0],[3,0],[0]]","13","[[1,2,0],[3,0],[0]]","6","0","","","","","","5","","","","",""
"","","","","","single-stim-button","300","1806573","0.0-3.0-28.12-1.12","5ba855d47c0ebe0001272f70","A3","batch1","tol_toboard","338","","","","","","","","","tol_peg_2","338","338","0","[[2,0,0],[3,1],[0]]","13","[[1,2,0],[3,0],[0]]","6","0","","","","","","5","","","","",""
"","","","","","single-stim-button","301","1807088","0.0-3.0-28.13-0.13","5ba855d47c0ebe0001272f70","A3","batch1","tol_tohand","513","","","","","","","","","tol_peg_1","513","513","0","[[0,0,0],[3,1],[0]]","14","[[1,2,0],[3,0],[0]]","6","0","","","","","","5","","","","",""
"","","","","","single-stim-button","302","1807506","0.0-3.0-28.13-1.13","5ba855d47c0ebe0001272f70","A3","batch1","tol_toboard","418","","","","","","","","","tol_peg_3","418","418","0","[[0,0,0],[3,1],[2]]","14","[[1,2,0],[3,0],[0]]","6","0","","","","","","5","","","","",""
"","","","","","single-stim-button","303","1808195","0.0-3.0-28.14-0.14","5ba855d47c0ebe0001272f70","A3","batch1","tol_tohand","689","","","","","","","","","tol_peg_2","689","689","0","[[0,0,0],[3,0],[2]]","15","[[1,2,0],[3,0],[0]]","6","0","","","","","","5","","","","",""
"","","","","","single-stim-button","304","1808506","0.0-3.0-28.14-1.14","5ba855d47c0ebe0001272f70","A3","batch1","tol_toboard","310","","","","","","","","","tol_peg_1","310","310","0","[[1,0,0],[3,0],[2]]","15","[[1,2,0],[3,0],[0]]","6","0","","","","","","5","","","","",""
"","","","","","single-stim-button","305","1808879","0.0-3.0-28.15-0.15","5ba855d47c0ebe0001272f70","A3","batch1","tol_tohand","373","","","","","","","","","tol_peg_3","373","373","0","[[1,0,0],[3,0],[0]]","16","[[1,2,0],[3,0],[0]]","6","0","","","","","","5","","","","",""
"","","","","","single-stim-button","306","1809209","0.0-3.0-28.15-1.15","5ba855d47c0ebe0001272f70","A3","batch1","tol_toboard","330","","","","","","","","","tol_peg_1","330","330","0","[[1,2,0],[3,0],[0]]","16","[[1,2,0],[3,0],[0]]","6","0","","","","","","5","","","","",""
"","","","","","poldrack-single-stim","307","1810221","0.0-3.0-29.0","5ba855d47c0ebe0001272f70","A3","batch1","tol_feedback","-1","","","","","true","","","","","1000","1000","500","","","","","","-1","none","true","10149","31061","","","","","",""
"","","","","","html-button-response","308","1810741","0.0-3.0-30.0","5ba855d47c0ebe0001272f70","A3","batch1","tol_trial_num","519","<div class = centerbox><p class = center-block-text>problem <strong>8</strong> out of 25 problems</p></div>","0","","","","","","","","","","","","","","","","","","","","","","","","","",""
"","","","","","single-stim-button","309","1814822","0.0-3.0-31.0-0.0","5ba855d47c0ebe0001272f70","A3","batch1","tol_tohand","4080","","","","","","","","","tol_peg_3","4080","4080","0","[[0,0,0],[2,3],[0]]","1","[[1,2,0],[3,0],[0]]","7","0","","","","","","4","","","","",""
"","","","","","single-stim-button","310","1815333","0.0-3.0-31.0-1.0","5ba855d47c0ebe0001272f70","A3","batch1","tol_toboard","510","","","","","","","","","tol_peg_1","510","510","0","[[1,0,0],[2,3],[0]]","1","[[1,2,0],[3,0],[0]]","7","0","","","","","","4","","","","",""
"","","","","","single-stim-button","311","1816318","0.0-3.0-31.1-0.1","5ba855d47c0ebe0001272f70","A3","batch1","tol_tohand","983","","","","","","","","","tol_peg_2","983","983","0","[[1,0,0],[2,0],[0]]","2","[[1,2,0],[3,0],[0]]","7","0","","","","","","4","","","","",""
"","","","","","single-stim-button","312","1816694","0.0-3.0-31.1-1.1","5ba855d47c0ebe0001272f70","A3","batch1","tol_toboard","376","","","","","","","","","tol_peg_3","376","376","0","[[1,0,0],[2,0],[3]]","2","[[1,2,0],[3,0],[0]]","7","0","","","","","","4","","","","",""
"","","","","","single-stim-button","313","1817159","0.0-3.0-31.2-0.2","5ba855d47c0ebe0001272f70","A3","batch1","tol_tohand","464","","","","","","","","","tol_peg_2","464","464","0","[[1,0,0],[0,0],[3]]","3","[[1,2,0],[3,0],[0]]","7","0","","","","","","4","","","","",""
"","","","","","single-stim-button","314","1817708","0.0-3.0-31.2-1.2","5ba855d47c0ebe0001272f70","A3","batch1","tol_toboard","547","","","","","","","","","tol_peg_1","547","547","0","[[1,2,0],[0,0],[3]]","3","[[1,2,0],[3,0],[0]]","7","0","","","","","","4","","","","",""
"","","","","","single-stim-button","315","1818063","0.0-3.0-31.3-0.3","5ba855d47c0ebe0001272f70","A3","batch1","tol_tohand","354","","","","","","","","","tol_peg_3","354","354","0","[[1,2,0],[0,0],[0]]","4","[[1,2,0],[3,0],[0]]","7","0","","","","","","4","","","","",""
"","","","","","single-stim-button","316","1818386","0.0-3.0-31.3-1.3","5ba855d47c0ebe0001272f70","A3","batch1","tol_toboard","323","","","","","","","","","tol_peg_2","323","323","0","[[1,2,0],[3,0],[0]]","4","[[1,2,0],[3,0],[0]]","7","0","","","","","","4","","","","",""
"","","","","","poldrack-single-stim","317","1819404","0.0-3.0-32.0","5ba855d47c0ebe0001272f70","A3","batch1","tol_feedback","-1","","","","","true","","","","","1000","1000","500","","","","","","-1","none","true","4080","5881","","","","","",""
"","","","","","html-button-response","318","1819897","0.0-3.0-33.0","5ba855d47c0ebe0001272f70","A3","batch1","tol_trial_num","492","<div class = centerbox><p class = center-block-text>problem <strong>9</strong> out of 25 problems</p></div>","0","","","","","","","","","","","","","","","","","","","","","","","","","",""
"","","","","","single-stim-button","319","1823090","0.0-3.0-34.0-0.0","5ba855d47c0ebe0001272f70","A3","batch1","tol_tohand","3192","","","","","","","","","tol_peg_1","3192","3192","0","[[3,0,0],[0,0],[1]]","1","[[2,1,0],[3,0],[0]]","8","0","","","","","","6","","","","",""
"","","","","","single-stim-button","320","1823826","0.0-3.0-34.0-1.0","5ba855d47c0ebe0001272f70","A3","batch1","tol_toboard","736","","","","","","","","","tol_peg_2","736","736","0","[[3,0,0],[2,0],[1]]","1","[[2,1,0],[3,0],[0]]","8","0","","","","","","6","","","","",""
"","","","","","single-stim-button","321","1828059","0.0-3.0-34.1-0.1","5ba855d47c0ebe0001272f70","A3","batch1","tol_tohand","4232","","","","","","","","","tol_peg_1","4232","4232","0","[[0,0,0],[2,0],[1]]","2","[[2,1,0],[3,0],[0]]","8","0","","","","","","6","","","","",""
"","","","","","single-stim-button","322","1829199","0.0-3.0-34.1-1.1","5ba855d47c0ebe0001272f70","A3","batch1","tol_toboard","1140","","","","","","","","","tol_peg_2","1140","1140","0","[[0,0,0],[2,3],[1]]","2","[[2,1,0],[3,0],[0]]","8","0","","","","","","6","","","","",""
"","","","","","single-stim-button","323","1831315","0.0-3.0-34.2-0.2","5ba855d47c0ebe0001272f70","A3","batch1","tol_tohand","2115","","","","","","","","","tol_peg_3","2115","2115","0","[[0,0,0],[2,3],[0]]","3","[[2,1,0],[3,0],[0]]","8","0","","","","","","6","","","","",""
"","","","","","single-stim-button","324","1831764","0.0-3.0-34.2-1.2","5ba855d47c0ebe0001272f70","A3","batch1","tol_toboard","449","","","","","","","","","tol_peg_1","449","449","0","[[1,0,0],[2,3],[0]]","3","[[2,1,0],[3,0],[0]]","8","0","","","","","","6","","","","",""
"","","","","","single-stim-button","325","1832460","0.0-3.0-34.3-0.3","5ba855d47c0ebe0001272f70","A3","batch1","tol_tohand","695","","","","","","","","","tol_peg_2","695","695","0","[[1,0,0],[2,0],[0]]","4","[[2,1,0],[3,0],[0]]","8","0","","","","","","6","","","","",""
"","","","","","single-stim-button","326","1832807","0.0-3.0-34.3-1.3","5ba855d47c0ebe0001272f70","A3","batch1","tol_toboard","347","","","","","","","","","tol_peg_3","347","347","0","[[1,0,0],[2,0],[3]]","4","[[2,1,0],[3,0],[0]]","8","0","","","","","","6","","","","",""
"","","","","","single-stim-button","327","1835926","0.0-3.0-34.4-0.4","5ba855d47c0ebe0001272f70","A3","batch1","tol_tohand","3117","","","","","","","","","tol_peg_1","3117","3117","0","[[0,0,0],[2,0],[3]]","5","[[2,1,0],[3,0],[0]]","8","0","","","","","","6","","","","",""
"","","","","","single-stim-button","328","1838247","0.0-3.0-34.4-1.4","5ba855d47c0ebe0001272f70","A3","batch1","tol_toboard","2321","","","","","","","","","tol_peg_1","2321","2321","0","[[1,0,0],[2,0],[3]]","5","[[2,1,0],[3,0],[0]]","8","0","","","","","","6","","","","",""
"","","","","","single-stim-button","329","1845064","0.0-3.0-34.5-0.5","5ba855d47c0ebe0001272f70","A3","batch1","tol_tohand","6815","","","","","","","","","tol_peg_3","6815","6815","0","[[1,0,0],[2,0],[0]]","6","[[2,1,0],[3,0],[0]]","8","0","","","","","","6","","","","",""
"","","","","","single-stim-button","330","1845655","0.0-3.0-34.5-1.5","5ba855d47c0ebe0001272f70","A3","batch1","tol_toboard","590","","","","","","","","","tol_peg_1","590","590","0","[[1,3,0],[2,0],[0]]","6","[[2,1,0],[3,0],[0]]","8","0","","","","","","6","","","","",""
"","","","","","single-stim-button","331","1846040","0.0-3.0-34.6-0.6","5ba855d47c0ebe0001272f70","A3","batch1","tol_tohand","385","","","","","","","","","tol_peg_2","385","385","0","[[1,3,0],[0,0],[0]]","7","[[2,1,0],[3,0],[0]]","8","0","","","","","","6","","","","",""
"","","","","","single-stim-button","332","1846361","0.0-3.0-34.6-1.6","5ba855d47c0ebe0001272f70","A3","batch1","tol_toboard","319","","","","","","","","","tol_peg_3","319","319","0","[[1,3,0],[0,0],[2]]","7","[[2,1,0],[3,0],[0]]","8","0","","","","","","6","","","","",""
"","","","","","single-stim-button","333","1847931","0.0-3.0-34.7-0.7","5ba855d47c0ebe0001272f70","A3","batch1","tol_tohand","1569","","","","","","","","","tol_peg_1","1569","1569","0","[[1,0,0],[0,0],[2]]","8","[[2,1,0],[3,0],[0]]","8","0","","","","","","6","","","","",""
"","","","","","single-stim-button","334","1848702","0.0-3.0-34.7-1.7","5ba855d47c0ebe0001272f70","A3","batch1","tol_toboard","770","","","","","","","","","tol_peg_2","770","770","0","[[1,0,0],[3,0],[2]]","8","[[2,1,0],[3,0],[0]]","8","0","","","","","","6","","","","",""
"","","","","","single-stim-button","335","1849202","0.0-3.0-34.8-0.8","5ba855d47c0ebe0001272f70","A3","batch1","tol_tohand","500","","","","","","","","","tol_peg_1","500","500","0","[[0,0,0],[3,0],[2]]","9","[[2,1,0],[3,0],[0]]","8","0","","","","","","6","","","","",""
"","","","","","single-stim-button","336","1849522","0.0-3.0-34.8-1.8","5ba855d47c0ebe0001272f70","A3","batch1","tol_toboard","319","","","","","","","","","tol_peg_2","319","319","0","[[0,0,0],[3,1],[2]]","9","[[2,1,0],[3,0],[0]]","8","0","","","","","","6","","","","",""
"","","","","","single-stim-button","337","1850091","0.0-3.0-34.9-0.9","5ba855d47c0ebe0001272f70","A3","batch1","tol_tohand","569","","","","","","","","","tol_peg_3","569","569","0","[[0,0,0],[3,1],[0]]","10","[[2,1,0],[3,0],[0]]","8","0","","","","","","6","","","","",""
"","","","","","single-stim-button","338","1850511","0.0-3.0-34.9-1.9","5ba855d47c0ebe0001272f70","A3","batch1","tol_toboard","419","","","","","","","","","tol_peg_1","419","419","0","[[2,0,0],[3,1],[0]]","10","[[2,1,0],[3,0],[0]]","8","0","","","","","","6","","","","",""
"","","","","","single-stim-button","339","1851085","0.0-3.0-34.10-0.10","5ba855d47c0ebe0001272f70","A3","batch1","tol_tohand","573","","","","","","","","","tol_peg_2","573","573","0","[[2,0,0],[3,0],[0]]","11","[[2,1,0],[3,0],[0]]","8","0","","","","","","6","","","","",""
"","","","","","single-stim-button","340","1851382","0.0-3.0-34.10-1.10","5ba855d47c0ebe0001272f70","A3","batch1","tol_toboard","297","","","","","","","","","tol_peg_1","297","297","0","[[2,1,0],[3,0],[0]]","11","[[2,1,0],[3,0],[0]]","8","0","","","","","","6","","","","",""
"","","","","","poldrack-single-stim","341","1852396","0.0-3.0-35.0","5ba855d47c0ebe0001272f70","A3","batch1","tol_feedback","-1","","","","","true","","","","","1000","1000","500","","","","","","-1","none","true","3192","23762","","","","","",""
"","","","","","html-button-response","342","1852862","0.0-3.0-36.0","5ba855d47c0ebe0001272f70","A3","batch1","tol_trial_num","464","<div class = centerbox><p class = center-block-text>problem <strong>10</strong> out of 25 problems</p></div>","0","","","","","","","","","","","","","","","","","","","","","","","","","",""
"","","","","","single-stim-button","343","1857368","0.0-3.0-37.0-0.0","5ba855d47c0ebe0001272f70","A3","batch1","tol_tohand","4505","","","","","","","","","tol_peg_2","4505","4505","0","[[3,0,0],[0,0],[2]]","1","[[3,0,0],[2,1],[0]]","9","0","","","","","","3","","","","",""
"","","","","","single-stim-button","344","1858223","0.0-3.0-37.0-1.0","5ba855d47c0ebe0001272f70","A3","batch1","tol_toboard","853","","","","","","","","","tol_peg_2","853","853","0","[[3,0,0],[1,0],[2]]","1","[[3,0,0],[2,1],[0]]","9","0","","","","","","3","","","","",""
"","","","","","single-stim-button","345","1859539","0.0-3.0-37.1-0.1","5ba855d47c0ebe0001272f70","A3","batch1","tol_tohand","1315","","","","","","","","","tol_peg_2","1315","1315","0","[[3,0,0],[0,0],[2]]","2","[[3,0,0],[2,1],[0]]","9","0","","","","","","3","","","","",""
"","","","","","single-stim-button","346","1859901","0.0-3.0-37.1-1.1","5ba855d47c0ebe0001272f70","A3","batch1","tol_toboard","362","","","","","","","","","tol_peg_1","362","362","0","[[3,1,0],[0,0],[2]]","2","[[3,0,0],[2,1],[0]]","9","0","","","","","","3","","","","",""
"","","","","","single-stim-button","347","1860277","0.0-3.0-37.2-0.2","5ba855d47c0ebe0001272f70","A3","batch1","tol_tohand","375","","","","","","","","","tol_peg_3","375","375","0","[[3,1,0],[0,0],[0]]","3","[[3,0,0],[2,1],[0]]","9","0","","","","","","3","","","","",""
"","","","","","single-stim-button","348","1860573","0.0-3.0-37.2-1.2","5ba855d47c0ebe0001272f70","A3","batch1","tol_toboard","296","","","","","","","","","tol_peg_2","296","296","0","[[3,1,0],[2,0],[0]]","3","[[3,0,0],[2,1],[0]]","9","0","","","","","","3","","","","",""
"","","","","","single-stim-button","349","1861267","0.0-3.0-37.3-0.3","5ba855d47c0ebe0001272f70","A3","batch1","tol_tohand","694","","","","","","","","","tol_peg_2","694","694","0","[[3,1,0],[0,0],[0]]","4","[[3,0,0],[2,1],[0]]","9","0","","","","","","3","","","","",""
"","","","","","single-stim-button","350","1862180","0.0-3.0-37.3-1.3","5ba855d47c0ebe0001272f70","A3","batch1","tol_toboard","912","","","","","","","","","tol_peg_2","912","912","0","[[3,1,0],[2,0],[0]]","4","[[3,0,0],[2,1],[0]]","9","0","","","","","","3","","","","",""
"","","","","","single-stim-button","351","1862567","0.0-3.0-37.4-0.4","5ba855d47c0ebe0001272f70","A3","batch1","tol_tohand","386","","","","","","","","","tol_peg_1","386","386","0","[[3,0,0],[2,0],[0]]","5","[[3,0,0],[2,1],[0]]","9","0","","","","","","3","","","","",""
"","","","","","single-stim-button","352","1862866","0.0-3.0-37.4-1.4","5ba855d47c0ebe0001272f70","A3","batch1","tol_toboard","298","","","","","","","","","tol_peg_2","298","298","0","[[3,0,0],[2,1],[0]]","5","[[3,0,0],[2,1],[0]]","9","0","","","","","","3","","","","",""
"","","","","","poldrack-single-stim","353","1863869","0.0-3.0-38.0","5ba855d47c0ebe0001272f70","A3","batch1","tol_feedback","-1","","","","","true","","","","","1000","1000","500","","","","","","-1","none","true","4505","7275","","","","","",""
"","","","","","html-button-response","354","1864339","0.0-3.0-39.0","5ba855d47c0ebe0001272f70","A3","batch1","tol_trial_num","470","<div class = centerbox><p class = center-block-text>problem <strong>11</strong> out of 25 problems</p></div>","0","","","","","","","","","","","","","","","","","","","","","","","","","",""
"","","","","","single-stim-button","355","1868730","0.0-3.0-40.0-0.0","5ba855d47c0ebe0001272f70","A3","batch1","tol_tohand","4388","","","","","","","","","tol_peg_1","4388","4388","0","[[1,0,0],[3,0],[0]]","1","[[2,0,0],[1,3],[0]]","10","0","","","","","","6","","","","",""
"","","","","","single-stim-button","356","1869810","0.0-3.0-40.0-1.0","5ba855d47c0ebe0001272f70","A3","batch1","tol_toboard","1079","","","","","","","","","tol_peg_3","1079","1079","0","[[1,0,0],[3,0],[2]]","1","[[2,0,0],[1,3],[0]]","10","0","","","","","","6","","","","",""
"","","","","","single-stim-button","357","1871855","0.0-3.0-40.1-0.1","5ba855d47c0ebe0001272f70","A3","batch1","tol_tohand","2044","","","","","","","","","tol_peg_2","2044","2044","0","[[1,0,0],[0,0],[2]]","2","[[2,0,0],[1,3],[0]]","10","0","","","","","","6","","","","",""
"","","","","","single-stim-button","358","1872399","0.0-3.0-40.1-1.1","5ba855d47c0ebe0001272f70","A3","batch1","tol_toboard","544","","","","","","","","","tol_peg_1","544","544","0","[[1,3,0],[0,0],[2]]","2","[[2,0,0],[1,3],[0]]","10","0","","","","","","6","","","","",""
