"success","timeout","failed_images","failed_audio","failed_video","trial_type","trial_index","time_elapsed","internal_node_id","subject_id","study_id","session_id","task","rt","stimulus","response","item","answer","correct","spm_correct","spm_rt","view_history","fiar_detect_rt","fiar_detect_correct","total_correct_fiar_detect","post_trial_gap","choices","mouse_click","stim_duration","block_duration","timing_post_trial","current_position","tol_num_moves_made","tol_target","tol_problem_id","tol_rt","key_press","possible_responses","tol_correct","preplanning","tol_rt_per_trial","tol_min_moves"
"true","false","[]","[]","[]","preload","0","7287","0.0-0.0","5baff18baf6e8c000116be28","E1","batch5","","","","","","","","","","","","","","","","","","","","","","","","","","","","","",""
"true","","","","","fullscreen","1","21620","0.0-1.0-0.0","5baff18baf6e8c000116be28","E1","batch5","","","","","","","","","","","","","","","","","","","","","","","","","","","","","",""
"true","","","","","fullscreen","2","25950","0.0-2.0-0.0","5baff18baf6e8c000116be28","E1","batch5","spm_fullscreen","","","","","","","","","","","","","","","","","","","","","","","","","","","","",""
"","","","","","html-button-response","3","43920","0.0-2.0-1.0","5baff18baf6e8c000116be28","E1","batch5","","17966.099999904633","<p class = block-text><b>Instructions</b> <br>This is a widely used intelligence test in research. <br>In this test, a figure with a missing piece will be presented.<br>Below the figure are alternative pieces to complete the figure, only one of which is correct.<br> Different figures might involve different principles for obtaining the missing piece<br>Your job is to select the most logical piece to complete the figure.</p>","0","","","","","","","","","","","","","","","","","","","","","","","","","",""
"","","","","","html-keyboard-response","4","44727","0.0-2.0-2.0-0.0","5baff18baf6e8c000116be28","E1","batch5","spm_show_trial_num","null","<p class=block-text>Trial 1 out of 60</p>","null","","","","","","","","","","","","","","","","","","","","","","","","","",""
"","","","","","image-button-response","5","66705","0.0-2.0-2.0-1.0","5baff18baf6e8c000116be28","E1","batch5","spm_respsonse","21962.5","img/question_1_1.jpeg","3","mat_01","4","1","1","21962.5","","","","","","","","","","","","","","","","","","","","",""
"","","","","","html-keyboard-response","6","67776","0.0-2.0-2.0-0.1","5baff18baf6e8c000116be28","E1","batch5","spm_show_trial_num","null","<p class=block-text>Trial 2 out of 60</p>","null","","","","","","","","","","","","","","","","","","","","","","","","","",""
"","","","","","image-button-response","7","73265","0.0-2.0-2.0-1.1","5baff18baf6e8c000116be28","E1","batch5","spm_respsonse","5484.399999976158","img/question_1_2.jpeg","4","mat_02","5","1","1","5484.399999976158","","","","","","","","","","","","","","","","","","","","",""
"","","","","","html-keyboard-response","8","74345","0.0-2.0-2.0-0.2","5baff18baf6e8c000116be28","E1","batch5","spm_show_trial_num","null","<p class=block-text>Trial 3 out of 60</p>","null","","","","","","","","","","","","","","","","","","","","","","","","","",""
"","","","","","image-button-response","9","77369","0.0-2.0-2.0-1.2","5baff18baf6e8c000116be28","E1","batch5","spm_respsonse","3019.3000000715256","img/question_1_3.jpeg","0","mat_03","1","1","1","3019.3000000715256","","","","","","","","","","","","","","","","","","","","",""
"","","","","","html-keyboard-response","10","78429","0.0-2.0-2.0-0.3","5baff18baf6e8c000116be28","E1","batch5","spm_show_trial_num","null","<p class=block-text>Trial 4 out of 60</p>","null","","","","","","","","","","","","","","","","","","","","","","","","","",""
"","","","","","image-button-response","11","82473","0.0-2.0-2.0-1.3","5baff18baf6e8c000116be28","E1","batch5","spm_respsonse","4039","img/question_1_4.jpeg","1","mat_04","2","1","1","4039","","","","","","","","","","","","","","","","","","","","",""
"","","","","","html-keyboard-response","12","83545","0.0-2.0-2.0-0.4","5baff18baf6e8c000116be28","E1","batch5","spm_show_trial_num","null","<p class=block-text>Trial 5 out of 60</p>","null","","","","","","","","","","","","","","","","","","","","","","","","","",""
"","","","","","image-button-response","13","88057","0.0-2.0-2.0-1.4","5baff18baf6e8c000116be28","E1","batch5","spm_respsonse","4507.5","img/question_1_5.jpeg","5","mat_05","6","1","1","4507.5","","","","","","","","","","","","","","","","","","","","",""
"","","","","","html-keyboard-response","14","89125","0.0-2.0-2.0-0.5","5baff18baf6e8c000116be28","E1","batch5","spm_show_trial_num","null","<p class=block-text>Trial 6 out of 60</p>","null","","","","","","","","","","","","","","","","","","","","","","","","","",""
"","","","","","image-button-response","15","93385","0.0-2.0-2.0-1.5","5baff18baf6e8c000116be28","E1","batch5","spm_respsonse","4255.100000023842","img/question_1_6.jpeg","2","mat_06","3","1","1","4255.100000023842","","","","","","","","","","","","","","","","","","","","",""
"","","","","","html-keyboard-response","16","94441","0.0-2.0-2.0-0.6","5baff18baf6e8c000116be28","E1","batch5","spm_show_trial_num","null","<p class=block-text>Trial 7 out of 60</p>","null","","","","","","","","","","","","","","","","","","","","","","","","","",""
"","","","","","image-button-response","17","102344","0.0-2.0-2.0-1.6","5baff18baf6e8c000116be28","E1","batch5","spm_respsonse","7898.200000047684","img/question_1_7.jpeg","5","mat_07","6","1","1","7898.200000047684","","","","","","","","","","","","","","","","","","","","",""
"","","","","","html-keyboard-response","18","103422","0.0-2.0-2.0-0.7","5baff18baf6e8c000116be28","E1","batch5","spm_show_trial_num","null","<p class=block-text>Trial 8 out of 60</p>","null","","","","","","","","","","","","","","","","","","","","","","","","","",""
"","","","","","image-button-response","19","113704","0.0-2.0-2.0-1.7","5baff18baf6e8c000116be28","E1","batch5","spm_respsonse","10277.699999928474","img/question_1_8.jpeg","1","mat_08","2","1","1","10277.699999928474","","","","","","","","","","","","","","","","","","","","",""
"","","","","","html-keyboard-response","20","114772","0.0-2.0-2.0-0.8","5baff18baf6e8c000116be28","E1","batch5","spm_show_trial_num","null","<p class=block-text>Trial 9 out of 60</p>","null","","","","","","","","","","","","","","","","","","","","","","","","","",""
"","","","","","image-button-response","21","124681","0.0-2.0-2.0-1.8","5baff18baf6e8c000116be28","E1","batch5","spm_respsonse","9903.399999976158","img/question_1_9.jpeg","0","mat_09","1","1","1","9903.399999976158","","","","","","","","","","","","","","","","","","","","",""
"","","","","","html-keyboard-response","22","125752","0.0-2.0-2.0-0.9","5baff18baf6e8c000116be28","E1","batch5","spm_show_trial_num","null","<p class=block-text>Trial 10 out of 60</p>","null","","","","","","","","","","","","","","","","","","","","","","","","","",""
"","","","","","image-button-response","23","138656","0.0-2.0-2.0-1.9","5baff18baf6e8c000116be28","E1","batch5","spm_respsonse","12900.199999928474","img/question_1_10.jpeg","2","mat_10","3","1","1","12900.199999928474","","","","","","","","","","","","","","","","","","","","",""
"","","","","","html-keyboard-response","24","139720","0.0-2.0-2.0-0.10","5baff18baf6e8c000116be28","E1","batch5","spm_show_trial_num","null","<p class=block-text>Trial 11 out of 60</p>","null","","","","","","","","","","","","","","","","","","","","","","","","","",""
"","","","","","image-button-response","25","186336","0.0-2.0-2.0-1.10","5baff18baf6e8c000116be28","E1","batch5","spm_respsonse","46611.60000002384","img/question_1_11.jpeg","3","mat_11","4","1","1","46611.60000002384","","","","","","","","","","","","","","","","","","","","",""
"","","","","","html-keyboard-response","26","187396","0.0-2.0-2.0-0.11","5baff18baf6e8c000116be28","E1","batch5","spm_show_trial_num","null","<p class=block-text>Trial 12 out of 60</p>","null","","","","","","","","","","","","","","","","","","","","","","","","","",""
"","","","","","image-button-response","27","241192","0.0-2.0-2.0-1.11","5baff18baf6e8c000116be28","E1","batch5","spm_respsonse","53790.5","img/question_1_12.jpeg","4","mat_12","5","1","1","53790.5","","","","","","","","","","","","","","","","","","","","",""
"","","","","","html-keyboard-response","28","242256","0.0-2.0-2.0-0.12","5baff18baf6e8c000116be28","E1","batch5","spm_show_trial_num","null","<p class=block-text>Trial 13 out of 60</p>","null","","","","","","","","","","","","","","","","","","","","","","","","","",""
"","","","","","image-button-response","29","245504","0.0-2.0-2.0-1.12","5baff18baf6e8c000116be28","E1","batch5","spm_respsonse","3243.7999999523163","img/question_2_1.jpeg","1","mat_13","2","1","1","3243.7999999523163","","","","","","","","","","","","","","","","","","","","",""
"","","","","","html-keyboard-response","30","246568","0.0-2.0-2.0-0.13","5baff18baf6e8c000116be28","E1","batch5","spm_show_trial_num","null","<p class=block-text>Trial 14 out of 60</p>","null","","","","","","","","","","","","","","","","","","","","","","","","","",""
"","","","","","image-button-response","31","253280","0.0-2.0-2.0-1.13","5baff18baf6e8c000116be28","E1","batch5","spm_respsonse","6707.299999952316","img/question_2_2.jpeg","5","mat_14","6","1","1","6707.299999952316","","","","","","","","","","","","","","","","","","","","",""
"","","","","","html-keyboard-response","32","254348","0.0-2.0-2.0-0.14","5baff18baf6e8c000116be28","E1","batch5","spm_show_trial_num","null","<p class=block-text>Trial 15 out of 60</p>","null","","","","","","","","","","","","","","","","","","","","","","","","","",""
"","","","","","image-button-response","33","259376","0.0-2.0-2.0-1.14","5baff18baf6e8c000116be28","E1","batch5","spm_respsonse","5022.600000023842","img/question_2_3.jpeg","0","mat_15","1","1","1","5022.600000023842","","","","","","","","","","","","","","","","","","","","",""
"","","","","","html-keyboard-response","34","260439","0.0-2.0-2.0-0.15","5baff18baf6e8c000116be28","E1","batch5","spm_show_trial_num","null","<p class=block-text>Trial 16 out of 60</p>","null","","","","","","","","","","","","","","","","","","","","","","","","","",""
"","","","","","image-button-response","35","269832","0.0-2.0-2.0-1.15","5baff18baf6e8c000116be28","E1","batch5","spm_respsonse","9388.799999952316","img/question_2_4.jpeg","1","mat_16","2","1","1","9388.799999952316","","","","","","","","","","","","","","","","","","","","",""
"","","","","","html-keyboard-response","36","270900","0.0-2.0-2.0-0.16","5baff18baf6e8c000116be28","E1","batch5","spm_show_trial_num","null","<p class=block-text>Trial 17 out of 60</p>","null","","","","","","","","","","","","","","","","","","","","","","","","","",""
"","","","","","image-button-response","37","284080","0.0-2.0-2.0-1.16","5baff18baf6e8c000116be28","E1","batch5","spm_respsonse","13174.700000047684","img/question_2_5.jpeg","0","mat_17","1","1","1","13174.700000047684","","","","","","","","","","","","","","","","","","","","",""
"","","","","","html-keyboard-response","38","285151","0.0-2.0-2.0-0.17","5baff18baf6e8c000116be28","E1","batch5","spm_show_trial_num","null","<p class=block-text>Trial 18 out of 60</p>","null","","","","","","","","","","","","","","","","","","","","","","","","","",""
"","","","","","image-button-response","39","298624","0.0-2.0-2.0-1.17","5baff18baf6e8c000116be28","E1","batch5","spm_respsonse","13468.700000047684","img/question_2_6.jpeg","2","mat_18","3","1","1","13468.700000047684","","","","","","","","","","","","","","","","","","","","",""
"","","","","","html-keyboard-response","40","299684","0.0-2.0-2.0-0.18","5baff18baf6e8c000116be28","E1","batch5","spm_show_trial_num","null","<p class=block-text>Trial 19 out of 60</p>","null","","","","","","","","","","","","","","","","","","","","","","","","","",""
"","","","","","image-button-response","41","315648","0.0-2.0-2.0-1.18","5baff18baf6e8c000116be28","E1","batch5","spm_respsonse","15959.100000023842","img/question_2_7.jpeg","4","mat_19","5","1","1","15959.100000023842","","","","","","","","","","","","","","","","","","","","",""
"","","","","","html-keyboard-response","42","316725","0.0-2.0-2.0-0.19","5baff18baf6e8c000116be28","E1","batch5","spm_show_trial_num","null","<p class=block-text>Trial 20 out of 60</p>","null","","","","","","","","","","","","","","","","","","","","","","","","","",""
"","","","","","image-button-response","43","322944","0.0-2.0-2.0-1.19","5baff18baf6e8c000116be28","E1","batch5","spm_respsonse","6213.399999976158","img/question_2_8.jpeg","5","mat_20","6","1","1","6213.399999976158","","","","","","","","","","","","","","","","","","","","",""
"","","","","","html-keyboard-response","44","324002","0.0-2.0-2.0-0.20","5baff18baf6e8c000116be28","E1","batch5","spm_show_trial_num","null","<p class=block-text>Trial 21 out of 60</p>","null","","","","","","","","","","","","","","","","","","","","","","","","","",""
"","","","","","image-button-response","45","328496","0.0-2.0-2.0-1.20","5baff18baf6e8c000116be28","E1","batch5","spm_respsonse","4489.700000047684","img/question_2_9.jpeg","3","mat_21","4","1","1","4489.700000047684","","","","","","","","","","","","","","","","","","","","",""
"","","","","","html-keyboard-response","46","329576","0.0-2.0-2.0-0.21","5baff18baf6e8c000116be28","E1","batch5","spm_show_trial_num","null","<p class=block-text>Trial 22 out of 60</p>","null","","","","","","","","","","","","","","","","","","","","","","","","","",""
"","","","","","image-button-response","47","338816","0.0-2.0-2.0-1.21","5baff18baf6e8c000116be28","E1","batch5","spm_respsonse","9235.799999952316","img/question_2_10.jpeg","2","mat_22","3","1","1","9235.799999952316","","","","","","","","","","","","","","","","","","","","",""
"","","","","","html-keyboard-response","48","339878","0.0-2.0-2.0-0.22","5baff18baf6e8c000116be28","E1","batch5","spm_show_trial_num","null","<p class=block-text>Trial 23 out of 60</p>","null","","","","","","","","","","","","","","","","","","","","","","","","","",""
"","","","","","image-button-response","49","349344","0.0-2.0-2.0-1.22","5baff18baf6e8c000116be28","E1","batch5","spm_respsonse","9462","img/question_2_11.jpeg","3","mat_23","4","1","1","9462","","","","","","","","","","","","","","","","","","","","",""
"","","","","","html-keyboard-response","50","350427","0.0-2.0-2.0-0.23","5baff18baf6e8c000116be28","E1","batch5","spm_show_trial_num","null","<p class=block-text>Trial 24 out of 60</p>","null","","","","","","","","","","","","","","","","","","","","","","","","","",""
"","","","","","image-button-response","51","359208","0.0-2.0-2.0-1.23","5baff18baf6e8c000116be28","E1","batch5","spm_respsonse","8777.100000023842","img/question_2_12.jpeg","4","mat_24","5","1","1","8777.100000023842","","","","","","","","","","","","","","","","","","","","",""
"","","","","","html-button-response","52","362321","0.0-2.0-3.0","5baff18baf6e8c000116be28","E1","batch5","attention_check","2858.7000000476837","<p class = block-text>Attention check: Please choose 1<br></p>","0","","","true","","","","","","","","","","","","","","","","","","","","","","",""
"","","","","","html-keyboard-response","53","363122","0.0-2.0-4.0-0.0","5baff18baf6e8c000116be28","E1","batch5","spm_show_trial_num","null","<p class=block-text>Trial 25 out of 60</p>","null","","","","","","","","","","","","","","","","","","","","","","","","","",""
"","","","","","image-button-response","54","368337","0.0-2.0-4.0-1.0","5baff18baf6e8c000116be28","E1","batch5","spm_respsonse","5209.5","img/question_3_1.jpeg","7","mat_25","8","1","1","5209.5","","","","","","","","","","","","","","","","","","","","",""
"","","","","","html-keyboard-response","55","369415","0.0-2.0-4.0-0.1","5baff18baf6e8c000116be28","E1","batch5","spm_show_trial_num","null","<p class=block-text>Trial 26 out of 60</p>","null","","","","","","","","","","","","","","","","","","","","","","","","","",""
"","","","","","image-button-response","56","378665","0.0-2.0-4.0-1.1","5baff18baf6e8c000116be28","E1","batch5","spm_respsonse","9245.399999976158","img/question_3_2.jpeg","1","mat_26","2","1","1","9245.399999976158","","","","","","","","","","","","","","","","","","","","",""
"","","","","","html-keyboard-response","57","379724","0.0-2.0-4.0-0.2","5baff18baf6e8c000116be28","E1","batch5","spm_show_trial_num","null","<p class=block-text>Trial 27 out of 60</p>","null","","","","","","","","","","","","","","","","","","","","","","","","","",""
"","","","","","image-button-response","58","449616","0.0-2.0-4.0-1.2","5baff18baf6e8c000116be28","E1","batch5","spm_respsonse","69887.80000007153","img/question_3_3.jpeg","2","mat_27","3","1","1","69887.80000007153","","","","","","","","","","","","","","","","","","","","",""
"","","","","","html-keyboard-response","59","450681","0.0-2.0-4.0-0.3","5baff18baf6e8c000116be28","E1","batch5","spm_show_trial_num","null","<p class=block-text>Trial 28 out of 60</p>","null","","","","","","","","","","","","","","","","","","","","","","","","","",""
"","","","","","image-button-response","60","474080","0.0-2.0-4.0-1.3","5baff18baf6e8c000116be28","E1","batch5","spm_respsonse","23394.299999952316","img/question_3_4.jpeg","7","mat_28","8","1","1","23394.299999952316","","","","","","","","","","","","","","","","","","","","",""
"","","","","","html-keyboard-response","61","475150","0.0-2.0-4.0-0.4","5baff18baf6e8c000116be28","E1","batch5","spm_show_trial_num","null","<p class=block-text>Trial 29 out of 60</p>","null","","","","","","","","","","","","","","","","","","","","","","","","","",""
"","","","","","image-button-response","62","486352","0.0-2.0-4.0-1.4","5baff18baf6e8c000116be28","E1","batch5","spm_respsonse","11198","img/question_3_5.jpeg","6","mat_29","7","1","1","11198","","","","","","","","","","","","","","","","","","","","",""
"","","","","","html-keyboard-response","63","487419","0.0-2.0-4.0-0.5","5baff18baf6e8c000116be28","E1","batch5","spm_show_trial_num","null","<p class=block-text>Trial 30 out of 60</p>","null","","","","","","","","","","","","","","","","","","","","","","","","","",""
"","","","","","image-button-response","64","495064","0.0-2.0-4.0-1.5","5baff18baf6e8c000116be28","E1","batch5","spm_respsonse","7640.600000023842","img/question_3_6.jpeg","3","mat_30","4","1","1","7640.600000023842","","","","","","","","","","","","","","","","","","","","",""
"","","","","","html-keyboard-response","65","496139","0.0-2.0-4.0-0.6","5baff18baf6e8c000116be28","E1","batch5","spm_show_trial_num","null","<p class=block-text>Trial 31 out of 60</p>","null","","","","","","","","","","","","","","","","","","","","","","","","","",""
"","","","","","image-button-response","66","505040","0.0-2.0-4.0-1.6","5baff18baf6e8c000116be28","E1","batch5","spm_respsonse","8895.300000071526","img/question_3_7.jpeg","4","mat_31","5","1","1","8895.300000071526","","","","","","","","","","","","","","","","","","","","",""
"","","","","","html-keyboard-response","67","506115","0.0-2.0-4.0-0.7","5baff18baf6e8c000116be28","E1","batch5","spm_show_trial_num","null","<p class=block-text>Trial 32 out of 60</p>","null","","","","","","","","","","","","","","","","","","","","","","","","","",""
"","","","","","image-button-response","68","531280","0.0-2.0-4.0-1.7","5baff18baf6e8c000116be28","E1","batch5","spm_respsonse","25160.899999976158","img/question_3_8.jpeg","0","mat_32","1","1","1","25160.899999976158","","","","","","","","","","","","","","","","","","","","",""
"","","","","","html-keyboard-response","69","532354","0.0-2.0-4.0-0.8","5baff18baf6e8c000116be28","E1","batch5","spm_show_trial_num","null","<p class=block-text>Trial 33 out of 60</p>","null","","","","","","","","","","","","","","","","","","","","","","","","","",""
"","","","","","image-button-response","70","547888","0.0-2.0-4.0-1.8","5baff18baf6e8c000116be28","E1","batch5","spm_respsonse","15529.099999904633","img/question_3_9.jpeg","6","mat_33","7","1","1","15529.099999904633","","","","","","","","","","","","","","","","","","","","",""
"","","","","","html-keyboard-response","71","548966","0.0-2.0-4.0-0.9","5baff18baf6e8c000116be28","E1","batch5","spm_show_trial_num","null","<p class=block-text>Trial 34 out of 60</p>","null","","","","","","","","","","","","","","","","","","","","","","","","","",""
"","","","","","image-button-response","72","577376","0.0-2.0-4.0-1.9","5baff18baf6e8c000116be28","E1","batch5","spm_respsonse","28405.5","img/question_3_10.jpeg","5","mat_34","6","1","1","28405.5","","","","","","","","","","","","","","","","","","","","",""
"","","","","","html-keyboard-response","73","578433","0.0-2.0-4.0-0.10","5baff18baf6e8c000116be28","E1","batch5","spm_show_trial_num","null","<p class=block-text>Trial 35 out of 60</p>","null","","","","","","","","","","","","","","","","","","","","","","","","","",""
"","","","","","image-button-response","74","604496","0.0-2.0-4.0-1.10","5baff18baf6e8c000116be28","E1","batch5","spm_respsonse","26058.600000023842","img/question_3_11.jpeg","5","mat_35","1","0","0","26058.600000023842","","","","","","","","","","","","","","","","","","","","",""
"","","","","","html-keyboard-response","75","605558","0.0-2.0-4.0-0.11","5baff18baf6e8c000116be28","E1","batch5","spm_show_trial_num","null","<p class=block-text>Trial 36 out of 60</p>","null","","","","","","","","","","","","","","","","","","","","","","","","","",""
"","","","","","image-button-response","76","635680","0.0-2.0-4.0-1.11","5baff18baf6e8c000116be28","E1","batch5","spm_respsonse","30117.100000023842","img/question_3_12.jpeg","1","mat_36","2","1","1","30117.100000023842","","","","","","","","","","","","","","","","","","","","",""
"","","","","","html-keyboard-response","77","636750","0.0-2.0-4.0-0.12","5baff18baf6e8c000116be28","E1","batch5","spm_show_trial_num","null","<p class=block-text>Trial 37 out of 60</p>","null","","","","","","","","","","","","","","","","","","","","","","","","","",""
"","","","","","image-button-response","78","641888","0.0-2.0-4.0-1.12","5baff18baf6e8c000116be28","E1","batch5","spm_respsonse","5133.599999904633","img/question_4_1.jpeg","2","mat_37","3","1","1","5133.599999904633","","","","","","","","","","","","","","","","","","","","",""
"","","","","","html-keyboard-response","79","642953","0.0-2.0-4.0-0.13","5baff18baf6e8c000116be28","E1","batch5","spm_show_trial_num","null","<p class=block-text>Trial 38 out of 60</p>","null","","","","","","","","","","","","","","","","","","","","","","","","","",""
"","","","","","image-button-response","80","648231","0.0-2.0-4.0-1.13","5baff18baf6e8c000116be28","E1","batch5","spm_respsonse","5273.099999904633","img/question_4_2.jpeg","3","mat_38","4","1","1","5273.099999904633","","","","","","","","","","","","","","","","","","","","",""
"","","","","","html-keyboard-response","81","649286","0.0-2.0-4.0-0.14","5baff18baf6e8c000116be28","E1","batch5","spm_show_trial_num","null","<p class=block-text>Trial 39 out of 60</p>","null","","","","","","","","","","","","","","","","","","","","","","","","","",""
"","","","","","image-button-response","82","655544","0.0-2.0-4.0-1.14","5baff18baf6e8c000116be28","E1","batch5","spm_respsonse","6252.299999952316","img/question_4_3.jpeg","2","mat_39","3","1","1","6252.299999952316","","","","","","","","","","","","","","","","","","","","",""
"","","","","","html-keyboard-response","83","656604","0.0-2.0-4.0-0.15","5baff18baf6e8c000116be28","E1","batch5","spm_show_trial_num","null","<p class=block-text>Trial 40 out of 60</p>","null","","","","","","","","","","","","","","","","","","","","","","","","","",""
"","","","","","image-button-response","84","671112","0.0-2.0-4.0-1.15","5baff18baf6e8c000116be28","E1","batch5","spm_respsonse","14503","img/question_4_4.jpeg","6","mat_40","7","1","1","14503","","","","","","","","","","","","","","","","","","","","",""
"","","","","","html-keyboard-response","85","672185","0.0-2.0-4.0-0.16","5baff18baf6e8c000116be28","E1","batch5","spm_show_trial_num","null","<p class=block-text>Trial 41 out of 60</p>","null","","","","","","","","","","","","","","","","","","","","","","","","","",""
"","","","","","image-button-response","86","688720","0.0-2.0-4.0-1.16","5baff18baf6e8c000116be28","E1","batch5","spm_respsonse","16529.5","img/question_4_5.jpeg","7","mat_41","8","1","1","16529.5","","","","","","","","","","","","","","","","","","","","",""
"","","","","","html-keyboard-response","87","689795","0.0-2.0-4.0-0.17","5baff18baf6e8c000116be28","E1","batch5","spm_show_trial_num","null","<p class=block-text>Trial 42 out of 60</p>","null","","","","","","","","","","","","","","","","","","","","","","","","","",""
"","","","","","image-button-response","88","701984","0.0-2.0-4.0-1.17","5baff18baf6e8c000116be28","E1","batch5","spm_respsonse","12184.199999928474","img/question_4_6.jpeg","5","mat_42","6","1","1","12184.199999928474","","","","","","","","","","","","","","","","","","","","",""
"","","","","","html-keyboard-response","89","703060","0.0-2.0-4.0-0.18","5baff18baf6e8c000116be28","E1","batch5","spm_show_trial_num","null","<p class=block-text>Trial 43 out of 60</p>","null","","","","","","","","","","","","","","","","","","","","","","","","","",""
"","","","","","image-button-response","90","726768","0.0-2.0-4.0-1.18","5baff18baf6e8c000116be28","E1","batch5","spm_respsonse","23703.399999976158","img/question_4_7.jpeg","4","mat_43","5","1","1","23703.399999976158","","","","","","","","","","","","","","","","","","","","",""
"","","","","","html-keyboard-response","91","727838","0.0-2.0-4.0-0.19","5baff18baf6e8c000116be28","E1","batch5","spm_show_trial_num","null","<p class=block-text>Trial 44 out of 60</p>","null","","","","","","","","","","","","","","","","","","","","","","","","","",""
"","","","","","image-button-response","92","739056","0.0-2.0-4.0-1.19","5baff18baf6e8c000116be28","E1","batch5","spm_respsonse","11213.5","img/question_4_8.jpeg","3","mat_44","4","1","1","11213.5","","","","","","","","","","","","","","","","","","","","",""
"","","","","","html-keyboard-response","93","740122","0.0-2.0-4.0-0.20","5baff18baf6e8c000116be28","E1","batch5","spm_show_trial_num","null","<p class=block-text>Trial 45 out of 60</p>","null","","","","","","","","","","","","","","","","","","","","","","","","","",""
"","","","","","image-button-response","94","754727","0.0-2.0-4.0-1.20","5baff18baf6e8c000116be28","E1","batch5","spm_respsonse","14600.800000071526","img/question_4_9.jpeg","0","mat_45","1","1","1","14600.800000071526","","","","","","","","","","","","","","","","","","","","",""
"","","","","","html-keyboard-response","95","755799","0.0-2.0-4.0-0.21","5baff18baf6e8c000116be28","E1","batch5","spm_show_trial_num","null","<p class=block-text>Trial 46 out of 60</p>","null","","","","","","","","","","","","","","","","","","","","","","","","","",""
"","","","","","image-button-response","96","779520","0.0-2.0-4.0-1.21","5baff18baf6e8c000116be28","E1","batch5","spm_respsonse","23715.899999976158","img/question_4_10.jpeg","1","mat_46","2","1","1","23715.899999976158","","","","","","","","","","","","","","","","","","","","",""
"","","","","","html-keyboard-response","97","780588","0.0-2.0-4.0-0.22","5baff18baf6e8c000116be28","E1","batch5","spm_show_trial_num","null","<p class=block-text>Trial 47 out of 60</p>","null","","","","","","","","","","","","","","","","","","","","","","","","","",""
"","","","","","image-button-response","98","840088","0.0-2.0-4.0-1.22","5baff18baf6e8c000116be28","E1","batch5","spm_respsonse","59495.199999928474","img/question_4_11.jpeg","4","mat_47","5","1","1","59495.199999928474","","","","","","","","","","","","","","","","","","","","",""
"","","","","","html-keyboard-response","99","841157","0.0-2.0-4.0-0.23","5baff18baf6e8c000116be28","E1","batch5","spm_show_trial_num","null","<p class=block-text>Trial 48 out of 60</p>","null","","","","","","","","","","","","","","","","","","","","","","","","","",""
"","","","","","image-button-response","100","887808","0.0-2.0-4.0-1.23","5baff18baf6e8c000116be28","E1","batch5","spm_respsonse","46646.60000002384","img/question_4_12.jpeg","5","mat_48","6","1","1","46646.60000002384","","","","","","","","","","","","","","","","","","","","",""
"","","","","","html-keyboard-response","101","888874","0.0-2.0-4.0-0.24","5baff18baf6e8c000116be28","E1","batch5","spm_show_trial_num","null","<p class=block-text>Trial 49 out of 60</p>","null","","","","","","","","","","","","","","","","","","","","","","","","","",""
"","","","","","image-button-response","102","912672","0.0-2.0-4.0-1.24","5baff18baf6e8c000116be28","E1","batch5","spm_respsonse","23793.099999904633","img/question_5_1.jpeg","6","mat_49","7","1","1","23793.099999904633","","","","","","","","","","","","","","","","","","","","",""
"","","","","","html-keyboard-response","103","913736","0.0-2.0-4.0-0.25","5baff18baf6e8c000116be28","E1","batch5","spm_show_trial_num","null","<p class=block-text>Trial 50 out of 60</p>","null","","","","","","","","","","","","","","","","","","","","","","","","","",""
"","","","","","image-button-response","104","939736","0.0-2.0-4.0-1.25","5baff18baf6e8c000116be28","E1","batch5","spm_respsonse","25995.799999952316","img/question_5_2.jpeg","5","mat_50","6","1","1","25995.799999952316","","","","","","","","","","","","","","","","","","","","",""
"","","","","","html-keyboard-response","105","940809","0.0-2.0-4.0-0.26","5baff18baf6e8c000116be28","E1","batch5","spm_show_trial_num","null","<p class=block-text>Trial 51 out of 60</p>","null","","","","","","","","","","","","","","","","","","","","","","","","","",""
"","","","","","image-button-response","106","971415","0.0-2.0-4.0-1.26","5baff18baf6e8c000116be28","E1","batch5","spm_respsonse","30601.700000047684","img/question_5_3.jpeg","7","mat_51","8","1","1","30601.700000047684","","","","","","","","","","","","","","","","","","","","",""
"","","","","","html-keyboard-response","107","972483","0.0-2.0-4.0-0.27","5baff18baf6e8c000116be28","E1","batch5","spm_show_trial_num","null","<p class=block-text>Trial 52 out of 60</p>","null","","","","","","","","","","","","","","","","","","","","","","","","","",""
"","","","","","image-button-response","108","987312","0.0-2.0-4.0-1.27","5baff18baf6e8c000116be28","E1","batch5","spm_respsonse","14824.5","img/question_5_4.jpeg","1","mat_52","2","1","1","14824.5","","","","","","","","","","","","","","","","","","","","",""
"","","","","","html-keyboard-response","109","988393","0.0-2.0-4.0-0.28","5baff18baf6e8c000116be28","E1","batch5","spm_show_trial_num","null","<p class=block-text>Trial 53 out of 60</p>","null","","","","","","","","","","","","","","","","","","","","","","","","","",""
"","","","","","image-button-response","110","1017424","0.0-2.0-4.0-1.28","5baff18baf6e8c000116be28","E1","batch5","spm_respsonse","29025.799999952316","img/question_5_5.jpeg","0","mat_53","1","1","1","29025.799999952316","","","","","","","","","","","","","","","","","","","","",""
"","","","","","html-keyboard-response","111","1018498","0.0-2.0-4.0-0.29","5baff18baf6e8c000116be28","E1","batch5","spm_show_trial_num","null","<p class=block-text>Trial 54 out of 60</p>","null","","","","","","","","","","","","","","","","","","","","","","","","","",""
"","","","","","image-button-response","112","1067896","0.0-2.0-4.0-1.29","5baff18baf6e8c000116be28","E1","batch5","spm_respsonse","49394","img/question_5_6.jpeg","4","mat_54","5","1","1","49394","","","","","","","","","","","","","","","","","","","","",""
"","","","","","html-keyboard-response","113","1068961","0.0-2.0-4.0-0.30","5baff18baf6e8c000116be28","E1","batch5","spm_show_trial_num","null","<p class=block-text>Trial 55 out of 60</p>","null","","","","","","","","","","","","","","","","","","","","","","","","","",""
"","","","","","image-button-response","114","1080728","0.0-2.0-4.0-1.30","5baff18baf6e8c000116be28","E1","batch5","spm_respsonse","11762.200000047684","img/question_5_7.jpeg","0","mat_55","1","1","1","11762.200000047684","","","","","","","","","","","","","","","","","","","","",""
"","","","","","html-keyboard-response","115","1081795","0.0-2.0-4.0-0.31","5baff18baf6e8c000116be28","E1","batch5","spm_show_trial_num","null","<p class=block-text>Trial 56 out of 60</p>","null","","","","","","","","","","","","","","","","","","","","","","","","","",""
"","","","","","image-button-response","116","1113872","0.0-2.0-4.0-1.31","5baff18baf6e8c000116be28","E1","batch5","spm_respsonse","32071.5","img/question_5_8.jpeg","2","mat_56","6","0","0","32071.5","","","","","","","","","","","","","","","","","","","","",""
"","","","","","html-keyboard-response","117","1114926","0.0-2.0-4.0-0.32","5baff18baf6e8c000116be28","E1","batch5","spm_show_trial_num","null","<p class=block-text>Trial 57 out of 60</p>","null","","","","","","","","","","","","","","","","","","","","","","","","","",""
"","","","","","image-button-response","118","1143911","0.0-2.0-4.0-1.32","5baff18baf6e8c000116be28","E1","batch5","spm_respsonse","28980","img/question_5_9.jpeg","2","mat_57","3","1","1","28980","","","","","","","","","","","","","","","","","","","","",""
"","","","","","html-keyboard-response","119","1144978","0.0-2.0-4.0-0.33","5baff18baf6e8c000116be28","E1","batch5","spm_show_trial_num","null","<p class=block-text>Trial 58 out of 60</p>","null","","","","","","","","","","","","","","","","","","","","","","","","","",""
"","","","","","image-button-response","120","1166936","0.0-2.0-4.0-1.33","5baff18baf6e8c000116be28","E1","batch5","spm_respsonse","21953.300000071526","img/question_5_10.jpeg","6","mat_58","2","0","0","21953.300000071526","","","","","","","","","","","","","","","","","","","","",""
"","","","","","html-keyboard-response","121","1168005","0.0-2.0-4.0-0.34","5baff18baf6e8c000116be28","E1","batch5","spm_show_trial_num","null","<p class=block-text>Trial 59 out of 60</p>","null","","","","","","","","","","","","","","","","","","","","","","","","","",""
"","","","","","image-button-response","122","1220056","0.0-2.0-4.0-1.34","5baff18baf6e8c000116be28","E1","batch5","spm_respsonse","52045.700000047684","img/question_5_11.jpeg","6","mat_59","4","0","0","52045.700000047684","","","","","","","","","","","","","","","","","","","","",""
"","","","","","html-keyboard-response","123","1221130","0.0-2.0-4.0-0.35","5baff18baf6e8c000116be28","E1","batch5","spm_show_trial_num","null","<p class=block-text>Trial 60 out of 60</p>","null","","","","","","","","","","","","","","","","","","","","","","","","","",""
"","","","","","image-button-response","124","1244944","0.0-2.0-4.0-1.35","5baff18baf6e8c000116be28","E1","batch5","spm_respsonse","23809.100000023842","img/question_5_12.jpeg","0","mat_60","5","0","0","23809.100000023842","","","","","","","","","","","","","","","","","","","","",""
"","","","","","html-button-response","125","1247496","0.0-2.0-5.0","5baff18baf6e8c000116be28","E1","batch5","spm_goodbye","2299.399999976158","<p class= block-text>This concludes the Standard Progressive Matrix game. Thank you for your responses!<br> When you are ready, click the button continue</p>","0","","","","","","","","","","","","","","","","","","","","","","","","","",""
"true","","","","","fullscreen","126","1261131","0.0-3.0-0.0","5baff18baf6e8c000116be28","E1","batch5","","","","","","","","","","","","","","","","","","","","","","","","","","","","","",""
"","","","","","instructions","127","1289440","0.0-3.0-1.0-0.0","5baff18baf6e8c000116be28","E1","batch5","","28305.699999928474","","","","","","","","[{""page_index"":0,""viewing_time"":20065.899999976158},{""page_index"":1,""viewing_time"":8239.299999952316}]","","","","","","","","","","","","","","","","","","","",""
"","","","","","html-button-response","128","1291320","0.0-3.0-1.0-1.0-0.0","5baff18baf6e8c000116be28","E1","batch5","pattern_enter_quiz","1879.2000000476837","<p class=block-text> Let's answer a few questions <br>","0","","","","","","","","","","","","","","","","","","","","","","","","","",""
"","","","","","html-button-response","129","1302264","0.0-3.0-1.0-1.0-1.0","5baff18baf6e8c000116be28","E1","batch5","pattern_quiz","10942.899999976158","<p class = block-text>True or False: You will have as much time as you want to make each choice. <br></p>","0","","","false","","","","","","","","","","","","","","","","","","","","","","",""
"","","","","","html-button-response","130","1304752","0.0-3.0-1.0-1.0-2.0","5baff18baf6e8c000116be28","E1","batch5","pattern_quiz_feedback","2486.4000000953674","<p class = block-text>Incorrect. Remember, You should make your choice as fast as you can.</p>","0","","","","","","","","","","","","","","","","","","","","","","","","","",""
"","","","","","html-button-response","131","1308623","0.0-3.0-1.0-1.0-3.0","5baff18baf6e8c000116be28","E1","batch5","pattern_quiz","3870.2999999523163","<p class = block-text>True or False: You will look for 4 pieces in black or white color connected in a row either horizontally, vertically or diagonally. <br></p>","0","","","true","","","","","","","","","","","","","","","","","","","","","","",""
"","","","","","html-button-response","132","1309655","0.0-3.0-1.0-1.0-4.0","5baff18baf6e8c000116be28","E1","batch5","pattern_quiz_feedback","1031","<p class = block-text>Correct! </p>","0","","","","","","","","","","","","","","","","","","","","","","","","","",""
"","","","","","html-button-response","133","1313696","0.0-3.0-1.0-2.0-0.0","5baff18baf6e8c000116be28","E1","batch5","","4038.8000000715256","<p class = block-text>You made too many incorrect choices.</p><p class = block-text>You will now repeat the instruction and quiz</p>","0","","","","","","","","","","","","","","","","","","","","","","","","","",""
"","","","","","instructions","134","1323160","0.0-3.0-1.1-0.1","5baff18baf6e8c000116be28","E1","batch5","","9462.799999952316","","","","","","","","[{""page_index"":0,""viewing_time"":6342.399999976158},{""page_index"":1,""viewing_time"":3120.100000023842}]","","","","","","","","","","","","","","","","","","","",""
"","","","","","html-button-response","135","1324336","0.0-3.0-1.1-1.1-0.1","5baff18baf6e8c000116be28","E1","batch5","pattern_enter_quiz","1175.2000000476837","<p class=block-text> Let's answer a few questions <br>","0","","","","","","","","","","","","","","","","","","","","","","","","","",""
"","","","","","html-button-response","136","1328071","0.0-3.0-1.1-1.1-1.1","5baff18baf6e8c000116be28","E1","batch5","pattern_quiz","3734.4000000953674","<p class = block-text>True or False: You will have as much time as you want to make each choice. <br></p>","1","","","true","","","","","","","","","","","","","","","","","","","","","","",""
"","","","","","html-button-response","137","1330096","0.0-3.0-1.1-1.1-2.1","5baff18baf6e8c000116be28","E1","batch5","pattern_quiz_feedback","2023.5","<p class = block-text>Correct! You should make your choice <strong> as fast as you can</strong>.</p>","0","","","","","","","","","","","","","","","","","","","","","","","","","",""
"","","","","","html-button-response","138","1333664","0.0-3.0-1.1-1.1-3.1","5baff18baf6e8c000116be28","E1","batch5","pattern_quiz","3567","<p class = block-text>True or False: You will look for 4 pieces in black or white color connected in a row either horizontally, vertically or diagonally. <br></p>","0","","","true","","","","","","","","","","","","","","","","","","","","","","",""
"","","","","","html-button-response","139","1334640","0.0-3.0-1.1-1.1-4.1","5baff18baf6e8c000116be28","E1","batch5","pattern_quiz_feedback","974.7000000476837","<p class = block-text>Correct! </p>","0","","","","","","","","","","","","","","","","","","","","","","","","","",""
"","","","","","html-button-response","140","1337976","0.0-3.0-2.0","5baff18baf6e8c000116be28","E1","batch5","pattern_enter_practice","3335","<p class=block-text> Now that you've understood the game, let's do a few practice trials before we start!<br> <br>","0","","","","","","","","","","","","","","","","","","","","","","","","","",""
"","","","","","image-keyboard-response","141","1341295","0.0-3.0-3.0-0.0","5baff18baf6e8c000116be28","E1","batch5","pattern_practice","3316","stim/prac_yes_20_dia_b1.png","f","","f","true","","","","","","","","","","","","","","","","","","","","","","",""
"","","","","","html-keyboard-response","142","1342319","0.0-3.0-3.0-1.0","5baff18baf6e8c000116be28","E1","batch5","pattern_feedback","null","<p style=""font-size:30px;color:green;"">Correct!</p>","null","","","","","","","","","","","","","","","","","","","","","","","","","",""
"","","","","","image-keyboard-response","143","1343392","0.0-3.0-3.0-0.1","5baff18baf6e8c000116be28","E1","batch5","pattern_practice","1069.5","stim/prac_yes_18_hor_w1.png","f","","f","true","","","","","","","","","","","","","","","","","","","","","","",""
"","","","","","html-keyboard-response","144","1344412","0.0-3.0-3.0-1.1","5baff18baf6e8c000116be28","E1","batch5","pattern_feedback","null","<p style=""font-size:30px;color:green;"">Correct!</p>","null","","","","","","","","","","","","","","","","","","","","","","","","","",""
"","","","","","image-keyboard-response","145","1346615","0.0-3.0-3.0-0.2","5baff18baf6e8c000116be28","E1","batch5","pattern_practice","2198.899999976158","stim/prac_no_16_1.png","j","","j","true","","","","","","","","","","","","","","","","","","","","","","",""
"","","","","","html-keyboard-response","146","1347624","0.0-3.0-3.0-1.2","5baff18baf6e8c000116be28","E1","batch5","pattern_feedback","null","<p style=""font-size:30px;color:green;"">Correct!</p>","null","","","","","","","","","","","","","","","","","","","","","","","","","",""
"","","","","","image-keyboard-response","147","1348938","0.0-3.0-3.0-0.3","5baff18baf6e8c000116be28","E1","batch5","pattern_practice","1310.2000000476837","stim/prac_no_18_1.png","j","","j","true","","","","","","","","","","","","","","","","","","","","","","",""
"","","","","","html-keyboard-response","148","1349958","0.0-3.0-3.0-1.3","5baff18baf6e8c000116be28","E1","batch5","pattern_feedback","null","<p style=""font-size:30px;color:green;"">Correct!</p>","null","","","","","","","","","","","","","","","","","","","","","","","","","",""
"","","","","","image-keyboard-response","149","1350988","0.0-3.0-3.0-0.4","5baff18baf6e8c000116be28","E1","batch5","pattern_practice","1027.7000000476837","stim/prac_yes_16_ver_w1.png","f","","f","true","","","","","","","","","","","","","","","","","","","","","","",""
"","","","","","html-keyboard-response","150","1352007","0.0-3.0-3.0-1.4","5baff18baf6e8c000116be28","E1","batch5","pattern_feedback","null","<p style=""font-size:30px;color:green;"">Correct!</p>","null","","","","","","","","","","","","","","","","","","","","","","","","","",""
"","","","","","html-button-response","151","1357247","0.0-3.0-4.0","5baff18baf6e8c000116be28","E1","batch5","pattern_enter_official_trials","5238.100000023842","<p class=block-text> Good job! You are done with practice trials!<br>
        You responded correctly on 100% of the trials.<br>
        Press the button below to start official trials. Now you won't see any feedback about your response</p>","0","","","","","","","","","","","","","","","","","","","","","","","","","",""
"","","","","","html-keyboard-response","152","1358050","0.0-3.0-5.0-0.0","5baff18baf6e8c000116be28","E1","batch5","pattern_show_trial_num","null","<p class=block-text>Trial 1 out of 78</p>","null","","","","","","","","","","","","","","","","","","","","","","","","","",""
"","","","","","image-keyboard-response","153","1359758","0.0-3.0-5.0-1.0","5baff18baf6e8c000116be28","E1","batch5","pattern_response","1701.8999999761581","stim/yes_33_dia_w1_w.png","f","pattern_56","f","true","","","","1701.8999999761581","true","1","","","","","","","","","","","","","","","","",""
"","","","","","html-keyboard-response","154","1361080","0.0-3.0-5.0-0.1","5baff18baf6e8c000116be28","E1","batch5","pattern_show_trial_num","null","<p class=block-text>Trial 2 out of 78</p>","null","","","","","","","","","","","","","","","","","","","","","","","","","",""
"","","","","","image-keyboard-response","155","1365508","0.0-3.0-5.0-1.1","5baff18baf6e8c000116be28","E1","batch5","pattern_response","4424.700000047684","stim/no_47_1_b.png","j","pattern_27","j","true","","","","4424.700000047684","true","2","","","","","","","","","","","","","","","","",""
"","","","","","html-keyboard-response","156","1366830","0.0-3.0-5.0-0.2","5baff18baf6e8c000116be28","E1","batch5","pattern_show_trial_num","null","<p class=block-text>Trial 3 out of 78</p>","null","","","","","","","","","","","","","","","","","","","","","","","","","",""
"","","","","","image-keyboard-response","157","1369484","0.0-3.0-5.0-1.2","5baff18baf6e8c000116be28","E1","batch5","pattern_response","2650.5","stim/no_22_1_b.png","j","pattern_07","j","true","","","","2650.5","true","3","","","","","","","","","","","","","","","","",""
"","","","","","html-keyboard-response","158","1370805","0.0-3.0-5.0-0.3","5baff18baf6e8c000116be28","E1","batch5","pattern_show_trial_num","null","<p class=block-text>Trial 4 out of 78</p>","null","","","","","","","","","","","","","","","","","","","","","","","","","",""
"","","","","","image-keyboard-response","159","1373764","0.0-3.0-5.0-1.3","5baff18baf6e8c000116be28","E1","batch5","pattern_response","2954.7000000476837","stim/no_25_1_b.png","j","pattern_09","j","true","","","","2954.7000000476837","true","4","","","","","","","","","","","","","","","","",""
"","","","","","html-keyboard-response","160","1375076","0.0-3.0-5.0-0.4","5baff18baf6e8c000116be28","E1","batch5","pattern_show_trial_num","null","<p class=block-text>Trial 5 out of 78</p>","null","","","","","","","","","","","","","","","","","","","","","","","","","",""
"","","","","","image-keyboard-response","161","1381422","0.0-3.0-5.0-1.4","5baff18baf6e8c000116be28","E1","batch5","pattern_response","6341.200000047684","stim/no_39_1_w.png","j","pattern_21","j","true","","","","6341.200000047684","true","5","","","","","","","","","","","","","","","","",""
"","","","","","html-keyboard-response","162","1382738","0.0-3.0-5.0-0.5","5baff18baf6e8c000116be28","E1","batch5","pattern_show_trial_num","null","<p class=block-text>Trial 6 out of 78</p>","null","","","","","","","","","","","","","","","","","","","","","","","","","",""
"","","","","","image-keyboard-response","163","1383641","0.0-3.0-5.0-1.5","5baff18baf6e8c000116be28","E1","batch5","pattern_response","897.8999999761581","stim/yes_30_ver_b1_b.png","f","pattern_54","f","true","","","","897.8999999761581","true","6","","","","","","","","","","","","","","","","",""
"","","","","","html-keyboard-response","164","1384960","0.0-3.0-5.0-0.6","5baff18baf6e8c000116be28","E1","batch5","pattern_show_trial_num","null","<p class=block-text>Trial 7 out of 78</p>","null","","","","","","","","","","","","","","","","","","","","","","","","","",""
"","","","","","image-keyboard-response","165","1385850","0.0-3.0-5.0-1.6","5baff18baf6e8c000116be28","E1","batch5","pattern_response","886.2999999523163","stim/yes_15_dia_b1u_b.png","f","pattern_44","f","true","","","","886.2999999523163","true","7","","","","","","","","","","","","","","","","",""
"","","","","","html-keyboard-response","166","1387168","0.0-3.0-5.0-0.7","5baff18baf6e8c000116be28","E1","batch5","pattern_show_trial_num","null","<p class=block-text>Trial 8 out of 78</p>","null","","","","","","","","","","","","","","","","","","","","","","","","","",""
"","","","","","image-keyboard-response","167","1387925","0.0-3.0-5.0-1.7","5baff18baf6e8c000116be28","E1","batch5","pattern_response","754.3000000715256","stim/yes_46_ver_b1_b.png","f","pattern_68","f","true","","","","754.3000000715256","true","8","","","","","","","","","","","","","","","","",""
"","","","","","html-keyboard-response","168","1389237","0.0-3.0-5.0-0.8","5baff18baf6e8c000116be28","E1","batch5","pattern_show_trial_num","null","<p class=block-text>Trial 9 out of 78</p>","null","","","","","","","","","","","","","","","","","","","","","","","","","",""
"","","","","","image-keyboard-response","169","1390723","0.0-3.0-5.0-1.8","5baff18baf6e8c000116be28","E1","batch5","pattern_response","1482.7000000476837","stim/no_12_1.png","j","pattern_01","j","true","","","","1482.7000000476837","true","9","","","","","","","","","","","","","","","","",""
"","","","","","html-keyboard-response","170","1392052","0.0-3.0-5.0-0.9","5baff18baf6e8c000116be28","E1","batch5","pattern_show_trial_num","null","<p class=block-text>Trial 10 out of 78</p>","null","","","","","","","","","","","","","","","","","","","","","","","","","",""
"","","","","","image-keyboard-response","171","1396241","0.0-3.0-5.0-1.9","5baff18baf6e8c000116be28","E1","batch5","pattern_response","4185.800000071526","stim/no_30_1_b.png","j","pattern_13","j","true","","","","4185.800000071526","true","10","","","","","","","","","","","","","","","","",""
"","","","","","html-keyboard-response","172","1397551","0.0-3.0-5.0-0.10","5baff18baf6e8c000116be28","E1","batch5","pattern_show_trial_num","null","<p class=block-text>Trial 11 out of 78</p>","null","","","","","","","","","","","","","","","","","","","","","","","","","",""
"","","","","","image-keyboard-response","173","1403049","0.0-3.0-5.0-1.10","5baff18baf6e8c000116be28","E1","batch5","pattern_response","5494","stim/no_37_2_w.png","j","pattern_19","j","true","","","","5494","true","11","","","","","","","","","","","","","","","","",""
"","","","","","html-keyboard-response","174","1404356","0.0-3.0-5.0-0.11","5baff18baf6e8c000116be28","E1","batch5","pattern_show_trial_num","null","<p class=block-text>Trial 12 out of 78</p>","null","","","","","","","","","","","","","","","","","","","","","","","","","",""
"","","","","","image-keyboard-response","175","1405328","0.0-3.0-5.0-1.11","5baff18baf6e8c000116be28","E1","batch5","pattern_response","967.3999999761581","stim/yes_53_ver_b1_b.png","f","pattern_74","f","true","","","","967.3999999761581","true","12","","","","","","","","","","","","","","","","",""
"","","","","","html-keyboard-response","176","1406656","0.0-3.0-5.0-0.12","5baff18baf6e8c000116be28","E1","batch5","pattern_show_trial_num","null","<p class=block-text>Trial 13 out of 78</p>","null","","","","","","","","","","","","","","","","","","","","","","","","","",""
"","","","","","image-keyboard-response","177","1407559","0.0-3.0-5.0-1.12","5baff18baf6e8c000116be28","E1","batch5","pattern_response","900.2000000476837","stim/yes_29_hor_b1_b.png","f","pattern_52","f","true","","","","900.2000000476837","true","13","","","","","","","","","","","","","","","","",""
"","","","","","html-keyboard-response","178","1408867","0.0-3.0-5.0-0.13","5baff18baf6e8c000116be28","E1","batch5","pattern_show_trial_num","null","<p class=block-text>Trial 14 out of 78</p>","null","","","","","","","","","","","","","","","","","","","","","","","","","",""
"","","","","","image-keyboard-response","179","1412382","0.0-3.0-5.0-1.13","5baff18baf6e8c000116be28","E1","batch5","pattern_response","3510.600000023842","stim/no_28_2.png","j","pattern_11","j","true","","","","3510.600000023842","true","14","","","","","","","","","","","","","","","","",""
"","","","","","html-keyboard-response","180","1413687","0.0-3.0-5.0-0.14","5baff18baf6e8c000116be28","E1","batch5","pattern_show_trial_num","null","<p class=block-text>Trial 15 out of 78</p>","null","","","","","","","","","","","","","","","","","","","","","","","","","",""
"","","","","","image-keyboard-response","181","1416023","0.0-3.0-5.0-1.14","5baff18baf6e8c000116be28","E1","batch5","pattern_response","2331","stim/no_18_1_b.png","j","pattern_05","j","true","","","","2331","true","15","","","","","","","","","","","","","","","","",""
"","","","","","html-keyboard-response","182","1417345","0.0-3.0-5.0-0.15","5baff18baf6e8c000116be28","E1","batch5","pattern_show_trial_num","null","<p class=block-text>Trial 16 out of 78</p>","null","","","","","","","","","","","","","","","","","","","","","","","","","",""
"","","","","","image-keyboard-response","183","1422419","0.0-3.0-5.0-1.15","5baff18baf6e8c000116be28","E1","batch5","pattern_response","5069","stim/no_33_1_b.png","j","pattern_15","j","true","","","","5069","true","16","","","","","","","","","","","","","","","","",""
"","","","","","html-keyboard-response","184","1423733","0.0-3.0-5.0-0.16","5baff18baf6e8c000116be28","E1","batch5","pattern_show_trial_num","null","<p class=block-text>Trial 17 out of 78</p>","null","","","","","","","","","","","","","","","","","","","","","","","","","",""
"","","","","","image-keyboard-response","185","1429032","0.0-3.0-5.0-1.16","5baff18baf6e8c000116be28","E1","batch5","pattern_response","5294.600000023842","stim/no_36_1_b.png","j","pattern_17","j","true","","","","5294.600000023842","true","17","","","","","","","","","","","","","","","","",""
"","","","","","html-keyboard-response","186","1430351","0.0-3.0-5.0-0.17","5baff18baf6e8c000116be28","E1","batch5","pattern_show_trial_num","null","<p class=block-text>Trial 18 out of 78</p>","null","","","","","","","","","","","","","","","","","","","","","","","","","",""
"","","","","","image-keyboard-response","187","1431621","0.0-3.0-5.0-1.17","5baff18baf6e8c000116be28","E1","batch5","pattern_response","1265.7000000476837","stim/no_15_1_w.png","j","pattern_03","j","true","","","","1265.7000000476837","true","18","","","","","","","","","","","","","","","","",""
"","","","","","html-keyboard-response","188","1432933","0.0-3.0-5.0-0.18","5baff18baf6e8c000116be28","E1","batch5","pattern_show_trial_num","null","<p class=block-text>Trial 19 out of 78</p>","null","","","","","","","","","","","","","","","","","","","","","","","","","",""
"","","","","","image-keyboard-response","189","1434219","0.0-3.0-5.0-1.18","5baff18baf6e8c000116be28","E1","batch5","pattern_response","1282","stim/yes_12_hor_w1_w.png","f","pattern_42","f","true","","","","1282","true","19","","","","","","","","","","","","","","","","",""
"","","","","","html-keyboard-response","190","1435537","0.0-3.0-5.0-0.19","5baff18baf6e8c000116be28","E1","batch5","pattern_show_trial_num","null","<p class=block-text>Trial 20 out of 78</p>","null","","","","","","","","","","","","","","","","","","","","","","","","","",""
"","","","","","image-keyboard-response","191","1444945","0.0-3.0-5.0-1.19","5baff18baf6e8c000116be28","E1","batch5","pattern_response","9405.300000071526","stim/no_58_1_w.png","j","pattern_35","j","true","","","","9405.300000071526","true","20","","","","","","","","","","","","","","","","",""
"","","","","","html-keyboard-response","192","1446269","0.0-3.0-5.0-0.20","5baff18baf6e8c000116be28","E1","batch5","pattern_show_trial_num","null","<p class=block-text>Trial 21 out of 78</p>","null","","","","","","","","","","","","","","","","","","","","","","","","","",""
"","","","","","image-keyboard-response","193","1447638","0.0-3.0-5.0-1.20","5baff18baf6e8c000116be28","E1","batch5","pattern_response","1364.6999999284744","stim/yes_37_hor_w1_w.png","f","pattern_60","f","true","","","","1364.6999999284744","true","21","","","","","","","","","","","","","","","","",""
"","","","","","html-keyboard-response","194","1448965","0.0-3.0-5.0-0.21","5baff18baf6e8c000116be28","E1","batch5","pattern_show_trial_num","null","<p class=block-text>Trial 22 out of 78</p>","null","","","","","","","","","","","","","","","","","","","","","","","","","",""
"","","","","","image-keyboard-response","195","1449778","0.0-3.0-5.0-1.21","5baff18baf6e8c000116be28","E1","batch5","pattern_response","810.2000000476837","stim/yes_39_hor_w1_w.png","f","pattern_62","f","true","","","","810.2000000476837","true","22","","","","","","","","","","","","","","","","",""
"","","","","","html-keyboard-response","196","1451085","0.0-3.0-5.0-0.22","5baff18baf6e8c000116be28","E1","batch5","pattern_show_trial_num","null","<p class=block-text>Trial 23 out of 78</p>","null","","","","","","","","","","","","","","","","","","","","","","","","","",""
"","","","","","image-keyboard-response","197","1452048","0.0-3.0-5.0-1.22","5baff18baf6e8c000116be28","E1","batch5","pattern_response","959.5","stim/yes_17_ver_b1_b.png","f","pattern_46","f","true","","","","959.5","true","23","","","","","","","","","","","","","","","","",""
"","","","","","html-keyboard-response","198","1453363","0.0-3.0-5.0-0.23","5baff18baf6e8c000116be28","E1","batch5","pattern_show_trial_num","null","<p class=block-text>Trial 24 out of 78</p>","null","","","","","","","","","","","","","","","","","","","","","","","","","",""
"","","","","","image-keyboard-response","199","1458998","0.0-3.0-5.0-1.23","5baff18baf6e8c000116be28","E1","batch5","pattern_response","5631","stim/yes_63_dia_b1.png","f","pattern_78","f","true","","","","5631","true","24","","","","","","","","","","","","","","","","",""
"","","","","","html-keyboard-response","200","1460325","0.0-3.0-5.0-0.24","5baff18baf6e8c000116be28","E1","batch5","pattern_show_trial_num","null","<p class=block-text>Trial 25 out of 78</p>","null","","","","","","","","","","","","","","","","","","","","","","","","","",""
"","","","","","image-keyboard-response","201","1461556","0.0-3.0-5.0-1.24","5baff18baf6e8c000116be28","E1","batch5","pattern_response","1226.6000000238419","stim/yes_49_hor_w1_b.png","f","pattern_70","f","true","","","","1226.6000000238419","true","25","","","","","","","","","","","","","","","","",""
"","","","","","html-keyboard-response","202","1462866","0.0-3.0-5.0-0.25","5baff18baf6e8c000116be28","E1","batch5","pattern_show_trial_num","null","<p class=block-text>Trial 26 out of 78</p>","null","","","","","","","","","","","","","","","","","","","","","","","","","",""
"","","","","","image-keyboard-response","203","1470366","0.0-3.0-5.0-1.25","5baff18baf6e8c000116be28","E1","batch5","pattern_response","7497.399999976158","stim/no_53_1_b.png","j","pattern_33","j","true","","","","7497.399999976158","true","26","","","","","","","","","","","","","","","","",""
"","","","","","html-keyboard-response","204","1471678","0.0-3.0-5.0-0.26","5baff18baf6e8c000116be28","E1","batch5","pattern_show_trial_num","null","<p class=block-text>Trial 27 out of 78</p>","null","","","","","","","","","","","","","","","","","","","","","","","","","",""
"","","","","","image-keyboard-response","205","1476695","0.0-3.0-5.0-1.26","5baff18baf6e8c000116be28","E1","batch5","pattern_response","5012.699999928474","stim/no_49_2_b.png","j","pattern_29","j","true","","","","5012.699999928474","true","27","","","","","","","","","","","","","","","","",""
"","","","","","html-keyboard-response","206","1478008","0.0-3.0-5.0-0.27","5baff18baf6e8c000116be28","E1","batch5","pattern_show_trial_num","null","<p class=block-text>Trial 28 out of 78</p>","null","","","","","","","","","","","","","","","","","","","","","","","","","",""
"","","","","","image-keyboard-response","207","1479704","0.0-3.0-5.0-1.27","5baff18baf6e8c000116be28","E1","batch5","pattern_response","1691.3999999761581","stim/yes_36_ver_w1_w.png","f","pattern_58","f","true","","","","1691.3999999761581","true","28","","","","","","","","","","","","","","","","",""
"","","","","","html-keyboard-response","208","1481021","0.0-3.0-5.0-0.28","5baff18baf6e8c000116be28","E1","batch5","pattern_show_trial_num","null","<p class=block-text>Trial 29 out of 78</p>","null","","","","","","","","","","","","","","","","","","","","","","","","","",""
"","","","","","image-keyboard-response","209","1485461","0.0-3.0-5.0-1.28","5baff18baf6e8c000116be28","E1","batch5","pattern_response","4436.700000047684","stim/yes_44_ver_w1_w.png","j","pattern_66","f","false","","","","4436.700000047684","false","28","","","","","","","","","","","","","","","","",""
"","","","","","html-keyboard-response","210","1486777","0.0-3.0-5.0-0.29","5baff18baf6e8c000116be28","E1","batch5","pattern_show_trial_num","null","<p class=block-text>Trial 30 out of 78</p>","null","","","","","","","","","","","","","","","","","","","","","","","","","",""
"","","","","","image-keyboard-response","211","1495848","0.0-3.0-5.0-1.29","5baff18baf6e8c000116be28","E1","batch5","pattern_response","9066.199999928474","stim/no_67_1.png","j","pattern_39","j","true","","","","9066.199999928474","true","29","","","","","","","","","","","","","","","","",""
"","","","","","html-keyboard-response","212","1497159","0.0-3.0-5.0-0.30","5baff18baf6e8c000116be28","E1","batch5","pattern_show_trial_num","null","<p class=block-text>Trial 31 out of 78</p>","null","","","","","","","","","","","","","","","","","","","","","","","","","",""
"","","","","","image-keyboard-response","213","1498211","0.0-3.0-5.0-1.30","5baff18baf6e8c000116be28","E1","batch5","pattern_response","1047.7000000476837","stim/yes_23_ver_b1.png","f","pattern_48","f","true","","","","1047.7000000476837","true","30","","","","","","","","","","","","","","","","",""
"","","","","","html-keyboard-response","214","1499528","0.0-3.0-5.0-0.31","5baff18baf6e8c000116be28","E1","batch5","pattern_show_trial_num","null","<p class=block-text>Trial 32 out of 78</p>","null","","","","","","","","","","","","","","","","","","","","","","","","","",""
"","","","","","image-keyboard-response","215","1506482","0.0-3.0-5.0-1.31","5baff18baf6e8c000116be28","E1","batch5","pattern_response","6951.199999928474","stim/no_45_1_w.png","j","pattern_25","j","true","","","","6951.199999928474","true","31","","","","","","","","","","","","","","","","",""
"","","","","","html-keyboard-response","216","1507792","0.0-3.0-5.0-0.32","5baff18baf6e8c000116be28","E1","batch5","pattern_show_trial_num","null","<p class=block-text>Trial 33 out of 78</p>","null","","","","","","","","","","","","","","","","","","","","","","","","","",""
"","","","","","image-keyboard-response","217","1515007","0.0-3.0-5.0-1.32","5baff18baf6e8c000116be28","E1","batch5","pattern_response","7209.900000095367","stim/yes_58_dia_w1_w.png","j","pattern_76","f","false","","","","7209.900000095367","false","31","","","","","","","","","","","","","","","","",""
"","","","","","html-keyboard-response","218","1516327","0.0-3.0-5.0-0.33","5baff18baf6e8c000116be28","E1","batch5","pattern_show_trial_num","null","<p class=block-text>Trial 34 out of 78</p>","null","","","","","","","","","","","","","","","","","","","","","","","","","",""
"","","","","","image-keyboard-response","219","1517532","0.0-3.0-5.0-1.33","5baff18baf6e8c000116be28","E1","batch5","pattern_response","1200.0999999046326","stim/yes_26_dia_w2_w.png","f","pattern_50","f","true","","","","1200.0999999046326","true","32","","","","","","","","","","","","","","","","",""
"","","","","","html-keyboard-response","220","1518850","0.0-3.0-5.0-0.34","5baff18baf6e8c000116be28","E1","batch5","pattern_show_trial_num","null","<p class=block-text>Trial 35 out of 78</p>","null","","","","","","","","","","","","","","","","","","","","","","","","","",""
"","","","","","image-keyboard-response","221","1522050","0.0-3.0-5.0-1.34","5baff18baf6e8c000116be28","E1","batch5","pattern_response","3196","stim/yes_42_dia_w1_w.png","j","pattern_64","f","false","","","","3196","false","32","","","","","","","","","","","","","","","","",""
"","","","","","html-keyboard-response","222","1523370","0.0-3.0-5.0-0.35","5baff18baf6e8c000116be28","E1","batch5","pattern_show_trial_num","null","<p class=block-text>Trial 36 out of 78</p>","null","","","","","","","","","","","","","","","","","","","","","","","","","",""
"","","","","","image-keyboard-response","223","1528512","0.0-3.0-5.0-1.35","5baff18baf6e8c000116be28","E1","batch5","pattern_response","5138","stim/yes_51_dia_b1.png","f","pattern_72","f","true","","","","5138","true","33","","","","","","","","","","","","","","","","",""
"","","","","","html-keyboard-response","224","1529836","0.0-3.0-5.0-0.36","5baff18baf6e8c000116be28","E1","batch5","pattern_show_trial_num","null","<p class=block-text>Trial 37 out of 78</p>","null","","","","","","","","","","","","","","","","","","","","","","","","","",""
"","","","","","image-keyboard-response","225","1535666","0.0-3.0-5.0-1.36","5baff18baf6e8c000116be28","E1","batch5","pattern_response","5824.700000047684","stim/no_51_1.png","j","pattern_31","j","true","","","","5824.700000047684","true","34","","","","","","","","","","","","","","","","",""
"","","","","","html-keyboard-response","226","1536985","0.0-3.0-5.0-0.37","5baff18baf6e8c000116be28","E1","batch5","pattern_show_trial_num","null","<p class=block-text>Trial 38 out of 78</p>","null","","","","","","","","","","","","","","","","","","","","","","","","","",""
"","","","","","image-keyboard-response","227","1539322","0.0-3.0-5.0-1.37","5baff18baf6e8c000116be28","E1","batch5","pattern_response","2333.100000023842","stim/yes_70_ver_b1.png","f","pattern_80","f","true","","","","2333.100000023842","true","35","","","","","","","","","","","","","","","","",""
"","","","","","html-keyboard-response","228","1540639","0.0-3.0-5.0-0.38","5baff18baf6e8c000116be28","E1","batch5","pattern_show_trial_num","null","<p class=block-text>Trial 39 out of 78</p>","null","","","","","","","","","","","","","","","","","","","","","","","","","",""
"","","","","","image-keyboard-response","229","1543981","0.0-3.0-5.0-1.38","5baff18baf6e8c000116be28","E1","batch5","pattern_response","3337.899999976158","stim/no_43_2_b.png","j","pattern_23","j","true","","","","3337.899999976158","true","36","","","","","","","","","","","","","","","","",""
"","","","","","image-keyboard-response","230","1547073","0.0-3.0-6.0","5baff18baf6e8c000116be28","E1","batch5","attention_check","2580.4000000953674","stim/empty_board.png","j","","j","true","","","","","","","500","[""f"",""j""]","","","","","","","","","","","","","","",""
"","","","","","html-keyboard-response","231","1547885","0.0-3.0-7.0-0.0","5baff18baf6e8c000116be28","E1","batch5","pattern_show_trial_num","null","<p class=block-text>Trial 40 out of 78</p>","null","","","","","","","","","","","","","","","","","","","","","","","","","",""
"","","","","","image-keyboard-response","232","1550203","0.0-3.0-7.0-1.0","5baff18baf6e8c000116be28","E1","batch5","pattern_response","2314.100000023842","stim/yes_45_hor_b2_b.png","f","pattern_67","f","true","","","","2314.100000023842","true","37","","","","","","","","","","","","","","","","",""
"","","","","","html-keyboard-response","233","1551521","0.0-3.0-7.0-0.1","5baff18baf6e8c000116be28","E1","batch5","pattern_show_trial_num","null","<p class=block-text>Trial 41 out of 78</p>","null","","","","","","","","","","","","","","","","","","","","","","","","","",""
"","","","","","image-keyboard-response","234","1556238","0.0-3.0-7.0-1.1","5baff18baf6e8c000116be28","E1","batch5","pattern_response","4713.299999952316","stim/no_42_1_w.png","j","pattern_22","j","true","","","","4713.299999952316","true","38","","","","","","","","","","","","","","","","",""
"","","","","","html-keyboard-response","235","1557550","0.0-3.0-7.0-0.2","5baff18baf6e8c000116be28","E1","batch5","pattern_show_trial_num","null","<p class=block-text>Trial 42 out of 78</p>","null","","","","","","","","","","","","","","","","","","","","","","","","","",""
"","","","","","image-keyboard-response","236","1562874","0.0-3.0-7.0-1.2","5baff18baf6e8c000116be28","E1","batch5","pattern_response","5319.399999976158","stim/no_50_1.png","j","pattern_30","j","true","","","","5319.399999976158","true","39","","","","","","","","","","","","","","","","",""
"","","","","","html-keyboard-response","237","1564183","0.0-3.0-7.0-0.3","5baff18baf6e8c000116be28","E1","batch5","pattern_show_trial_num","null","<p class=block-text>Trial 43 out of 78</p>","null","","","","","","","","","","","","","","","","","","","","","","","","","",""
"","","","","","image-keyboard-response","238","1566230","0.0-3.0-7.0-1.3","5baff18baf6e8c000116be28","E1","batch5","pattern_response","2042.5","stim/yes_17_dia_w1.png","f","pattern_45","f","true","","","","2042.5","true","40","","","","","","","","","","","","","","","","",""
"","","","","","html-keyboard-response","239","1567552","0.0-3.0-7.0-0.4","5baff18baf6e8c000116be28","E1","batch5","pattern_show_trial_num","null","<p class=block-text>Trial 44 out of 78</p>","null","","","","","","","","","","","","","","","","","","","","","","","","","",""
"","","","","","image-keyboard-response","240","1568669","0.0-3.0-7.0-1.4","5baff18baf6e8c000116be28","E1","batch5","pattern_response","1114.1000000238419","stim/yes_60_ver_b1_b.png","f","pattern_77","f","true","","","","1114.1000000238419","true","41","","","","","","","","","","","","","","","","",""
"","","","","","html-keyboard-response","241","1569986","0.0-3.0-7.0-0.5","5baff18baf6e8c000116be28","E1","batch5","pattern_show_trial_num","null","<p class=block-text>Trial 45 out of 78</p>","null","","","","","","","","","","","","","","","","","","","","","","","","","",""
"","","","","","image-keyboard-response","242","1575550","0.0-3.0-7.0-1.5","5baff18baf6e8c000116be28","E1","batch5","pattern_response","5560.799999952316","stim/yes_37_dia_w1.png","j","pattern_59","f","false","","","","5560.799999952316","false","41","","","","","","","","","","","","","","","","",""
"","","","","","html-keyboard-response","243","1576876","0.0-3.0-7.0-0.6","5baff18baf6e8c000116be28","E1","batch5","pattern_show_trial_num","null","<p class=block-text>Trial 46 out of 78</p>","null","","","","","","","","","","","","","","","","","","","","","","","","","",""
"","","","","","image-keyboard-response","244","1577843","0.0-3.0-7.0-1.6","5baff18baf6e8c000116be28","E1","batch5","pattern_response","962.1000000238419","stim/yes_67_hor_b1.png","f","pattern_79","f","true","","","","962.1000000238419","true","42","","","","","","","","","","","","","","","","",""
"","","","","","html-keyboard-response","245","1579168","0.0-3.0-7.0-0.7","5baff18baf6e8c000116be28","E1","batch5","pattern_show_trial_num","null","<p class=block-text>Trial 47 out of 78</p>","null","","","","","","","","","","","","","","","","","","","","","","","","","",""
"","","","","","image-keyboard-response","246","1582018","0.0-3.0-7.0-1.7","5baff18baf6e8c000116be28","E1","batch5","pattern_response","2846.399999976158","stim/yes_35_dia_b1.png","j","pattern_57","f","false","","","","2846.399999976158","false","42","","","","","","","","","","","","","","","","",""
"","","","","","html-keyboard-response","247","1583331","0.0-3.0-7.0-0.8","5baff18baf6e8c000116be28","E1","batch5","pattern_show_trial_num","null","<p class=block-text>Trial 48 out of 78</p>","null","","","","","","","","","","","","","","","","","","","","","","","","","",""
"","","","","","image-keyboard-response","248","1596003","0.0-3.0-7.0-1.8","5baff18baf6e8c000116be28","E1","batch5","pattern_response","12675.700000047684","stim/no_70_2.png","j","pattern_40","j","true","","","","12675.700000047684","true","43","","","","","","","","","","","","","","","","",""
"","","","","","html-keyboard-response","249","1597324","0.0-3.0-7.0-0.9","5baff18baf6e8c000116be28","E1","batch5","pattern_show_trial_num","null","<p class=block-text>Trial 49 out of 78</p>","null","","","","","","","","","","","","","","","","","","","","","","","","","",""
"","","","","","image-keyboard-response","250","1604686","0.0-3.0-7.0-1.9","5baff18baf6e8c000116be28","E1","batch5","pattern_response","7357.199999928474","stim/no_44_1.png","j","pattern_24","j","true","","","","7357.199999928474","true","44","","","","","","","","","","","","","","","","",""
"","","","","","html-keyboard-response","251","1606007","0.0-3.0-7.0-0.10","5baff18baf6e8c000116be28","E1","batch5","pattern_show_trial_num","null","<p class=block-text>Trial 50 out of 78</p>","null","","","","","","","","","","","","","","","","","","","","","","","","","",""
"","","","","","image-keyboard-response","252","1607780","0.0-3.0-7.0-1.10","5baff18baf6e8c000116be28","E1","batch5","pattern_response","1768.3999999761581","stim/yes_55_hor_w1_w.png","f","pattern_75","f","true","","","","1768.3999999761581","true","45","","","","","","","","","","","","","","","","",""
"","","","","","html-keyboard-response","253","1609100","0.0-3.0-7.0-0.11","5baff18baf6e8c000116be28","E1","batch5","pattern_show_trial_num","null","<p class=block-text>Trial 51 out of 78</p>","null","","","","","","","","","","","","","","","","","","","","","","","","","",""
"","","","","","image-keyboard-response","254","1613550","0.0-3.0-7.0-1.11","5baff18baf6e8c000116be28","E1","batch5","pattern_response","4446.399999976158","stim/yes_50_dia_w1.png","f","pattern_71","f","true","","","","4446.399999976158","true","46","","","","","","","","","","","","","","","","",""
"","","","","","html-keyboard-response","255","1614867","0.0-3.0-7.0-0.12","5baff18baf6e8c000116be28","E1","batch5","pattern_show_trial_num","null","<p class=block-text>Trial 52 out of 78</p>","null","","","","","","","","","","","","","","","","","","","","","","","","","",""
"","","","","","image-keyboard-response","256","1615836","0.0-3.0-7.0-1.12","5baff18baf6e8c000116be28","E1","batch5","pattern_response","964.8999999761581","stim/yes_22_ver_w1.png","f","pattern_47","f","true","","","","964.8999999761581","true","47","","","","","","","","","","","","","","","","",""
"","","","","","html-keyboard-response","257","1617170","0.0-3.0-7.0-0.13","5baff18baf6e8c000116be28","E1","batch5","pattern_show_trial_num","null","<p class=block-text>Trial 53 out of 78</p>","null","","","","","","","","","","","","","","","","","","","","","","","","","",""
"","","","","","image-keyboard-response","258","1620405","0.0-3.0-7.0-1.13","5baff18baf6e8c000116be28","E1","batch5","pattern_response","3232.600000023842","stim/no_17_1_w.png","j","pattern_04","j","true","","","","3232.600000023842","true","48","","","","","","","","","","","","","","","","",""
"","","","","","html-keyboard-response","259","1621717","0.0-3.0-7.0-0.14","5baff18baf6e8c000116be28","E1","batch5","pattern_show_trial_num","null","<p class=block-text>Trial 54 out of 78</p>","null","","","","","","","","","","","","","","","","","","","","","","","","","",""
"","","","","","image-keyboard-response","260","1628066","0.0-3.0-7.0-1.14","5baff18baf6e8c000116be28","E1","batch5","pattern_response","6345.299999952316","stim/no_38_1_b.png","j","pattern_20","j","true","","","","6345.299999952316","true","49","","","","","","","","","","","","","","","","",""
"","","","","","html-keyboard-response","261","1629381","0.0-3.0-7.0-0.15","5baff18baf6e8c000116be28","E1","batch5","pattern_show_trial_num","null","<p class=block-text>Trial 55 out of 78</p>","null","","","","","","","","","","","","","","","","","","","","","","","","","",""
"","","","","","image-keyboard-response","262","1631833","0.0-3.0-7.0-1.15","5baff18baf6e8c000116be28","E1","batch5","pattern_response","2447.7999999523163","stim/yes_31_hor_b1.png","f","pattern_55","f","true","","","","2447.7999999523163","true","50","","","","","","","","","","","","","","","","",""
"","","","","","html-keyboard-response","263","1633149","0.0-3.0-7.0-0.16","5baff18baf6e8c000116be28","E1","batch5","pattern_show_trial_num","null","<p class=block-text>Trial 56 out of 78</p>","null","","","","","","","","","","","","","","","","","","","","","","","","","",""
"","","","","","image-keyboard-response","264","1635164","0.0-3.0-7.0-1.16","5baff18baf6e8c000116be28","E1","batch5","pattern_response","2011.2000000476837","stim/no_13_2_b.png","j","pattern_02","j","true","","","","2011.2000000476837","true","51","","","","","","","","","","","","","","","","",""
"","","","","","html-keyboard-response","265","1636479","0.0-3.0-7.0-0.17","5baff18baf6e8c000116be28","E1","batch5","pattern_show_trial_num","null","<p class=block-text>Trial 57 out of 78</p>","null","","","","","","","","","","","","","","","","","","","","","","","","","",""
"","","","","","image-keyboard-response","266","1639534","0.0-3.0-7.0-1.17","5baff18baf6e8c000116be28","E1","batch5","pattern_response","3052.399999976158","stim/no_20_1_w.png","j","pattern_06","j","true","","","","3052.399999976158","true","52","","","","","","","","","","","","","","","","",""
"","","","","","html-keyboard-response","267","1640849","0.0-3.0-7.0-0.18","5baff18baf6e8c000116be28","E1","batch5","pattern_show_trial_num","null","<p class=block-text>Trial 58 out of 78</p>","null","","","","","","","","","","","","","","","","","","","","","","","","","",""
"","","","","","image-keyboard-response","268","1647710","0.0-3.0-7.0-1.18","5baff18baf6e8c000116be28","E1","batch5","pattern_response","6857.899999976158","stim/no_36_2_w.png","j","pattern_18","j","true","","","","6857.899999976158","true","53","","","","","","","","","","","","","","","","",""
"","","","","","html-keyboard-response","269","1649033","0.0-3.0-7.0-0.19","5baff18baf6e8c000116be28","E1","batch5","pattern_show_trial_num","null","<p class=block-text>Trial 59 out of 78</p>","null","","","","","","","","","","","","","","","","","","","","","","","","","",""
"","","","","","image-keyboard-response","270","1650847","0.0-3.0-7.0-1.19","5baff18baf6e8c000116be28","E1","batch5","pattern_response","1808.6999999284744","stim/yes_52_ver_w1.png","f","pattern_73","f","true","","","","1808.6999999284744","true","54","","","","","","","","","","","","","","","","",""
"","","","","","html-keyboard-response","271","1652167","0.0-3.0-7.0-0.20","5baff18baf6e8c000116be28","E1","batch5","pattern_show_trial_num","null","<p class=block-text>Trial 60 out of 78</p>","null","","","","","","","","","","","","","","","","","","","","","","","","","",""
"","","","","","image-keyboard-response","272","1660535","0.0-3.0-7.0-1.20","5baff18baf6e8c000116be28","E1","batch5","pattern_response","8359.5","stim/no_62_1_w.png","j","pattern_36","j","true","","","","8359.5","true","55","","","","","","","","","","","","","","","","",""
"","","","","","html-keyboard-response","273","1661852","0.0-3.0-7.0-0.21","5baff18baf6e8c000116be28","E1","batch5","pattern_show_trial_num","null","<p class=block-text>Trial 61 out of 78</p>","null","","","","","","","","","","","","","","","","","","","","","","","","","",""
"","","","","","image-keyboard-response","274","1663149","0.0-3.0-7.0-1.21","5baff18baf6e8c000116be28","E1","batch5","pattern_response","1293.1999999284744","stim/yes_28_ver_b1.png","f","pattern_51","f","true","","","","1293.1999999284744","true","56","","","","","","","","","","","","","","","","",""
"","","","","","html-keyboard-response","275","1664468","0.0-3.0-7.0-0.22","5baff18baf6e8c000116be28","E1","batch5","pattern_show_trial_num","null","<p class=block-text>Trial 62 out of 78</p>","null","","","","","","","","","","","","","","","","","","","","","","","","","",""
"","","","","","image-keyboard-response","276","1670342","0.0-3.0-7.0-1.22","5baff18baf6e8c000116be28","E1","batch5","pattern_response","5872","stim/no_46_1_b.png","j","pattern_26","j","true","","","","5872","true","57","","","","","","","","","","","","","","","","",""
"","","","","","html-keyboard-response","277","1671651","0.0-3.0-7.0-0.23","5baff18baf6e8c000116be28","E1","batch5","pattern_show_trial_num","null","<p class=block-text>Trial 63 out of 78</p>","null","","","","","","","","","","","","","","","","","","","","","","","","","",""
"","","","","","image-keyboard-response","278","1680160","0.0-3.0-7.0-1.23","5baff18baf6e8c000116be28","E1","batch5","pattern_response","8505.5","stim/no_55_1_w.png","j","pattern_34","j","true","","","","8505.5","true","58","","","","","","","","","","","","","","","","",""
"","","","","","html-keyboard-response","279","1681484","0.0-3.0-7.0-0.24","5baff18baf6e8c000116be28","E1","batch5","pattern_show_trial_num","null","<p class=block-text>Trial 64 out of 78</p>","null","","","","","","","","","","","","","","","","","","","","","","","","","",""
"","","","","","image-keyboard-response","280","1687722","0.0-3.0-7.0-1.24","5baff18baf6e8c000116be28","E1","batch5","pattern_response","6233.400000095367","stim/no_52_1.png","j","pattern_32","j","true","","","","6233.400000095367","true","59","","","","","","","","","","","","","","","","",""
"","","","","","html-keyboard-response","281","1689033","0.0-3.0-7.0-0.25","5baff18baf6e8c000116be28","E1","batch5","pattern_show_trial_num","null","<p class=block-text>Trial 65 out of 78</p>","null","","","","","","","","","","","","","","","","","","","","","","","","","",""
"","","","","","image-keyboard-response","282","1690022","0.0-3.0-7.0-1.25","5baff18baf6e8c000116be28","E1","batch5","pattern_response","984.7000000476837","stim/yes_25_hor_b1_b.png","f","pattern_49","f","true","","","","984.7000000476837","true","60","","","","","","","","","","","","","","","","",""
"","","","","","html-keyboard-response","283","1691340","0.0-3.0-7.0-0.26","5baff18baf6e8c000116be28","E1","batch5","pattern_show_trial_num","null","<p class=block-text>Trial 66 out of 78</p>","null","","","","","","","","","","","","","","","","","","","","","","","","","",""
"","","","","","image-keyboard-response","284","1697445","0.0-3.0-7.0-1.26","5baff18baf6e8c000116be28","E1","batch5","pattern_response","6088.600000023842","stim/no_48_1_w.png","j","pattern_28","j","true","","","","6088.600000023842","true","61","","","","","","","","","","","","","","","","",""
"","","","","","html-keyboard-response","285","1698766","0.0-3.0-7.0-0.27","5baff18baf6e8c000116be28","E1","batch5","pattern_show_trial_num","null","<p class=block-text>Trial 67 out of 78</p>","null","","","","","","","","","","","","","","","","","","","","","","","","","",""
"","","","","","image-keyboard-response","286","1702289","0.0-3.0-7.0-1.27","5baff18baf6e8c000116be28","E1","batch5","pattern_response","3518.7000000476837","stim/yes_40_dia_b1_b.png","f","pattern_63","f","true","","","","3518.7000000476837","true","62","","","","","","","","","","","","","","","","",""
"","","","","","html-keyboard-response","287","1703615","0.0-3.0-7.0-0.28","5baff18baf6e8c000116be28","E1","batch5","pattern_show_trial_num","null","<p class=block-text>Trial 68 out of 78</p>","null","","","","","","","","","","","","","","","","","","","","","","","","","",""
"","","","","","image-keyboard-response","288","1705960","0.0-3.0-7.0-1.28","5baff18baf6e8c000116be28","E1","batch5","pattern_response","2340.4000000953674","stim/no_26_1_w.png","j","pattern_10","j","true","","","","2340.4000000953674","true","63","","","","","","","","","","","","","","","","",""
"","","","","","html-keyboard-response","289","1707267","0.0-3.0-7.0-0.29","5baff18baf6e8c000116be28","E1","batch5","pattern_show_trial_num","null","<p class=block-text>Trial 69 out of 78</p>","null","","","","","","","","","","","","","","","","","","","","","","","","","",""
"","","","","","image-keyboard-response","290","1711592","0.0-3.0-7.0-1.29","5baff18baf6e8c000116be28","E1","batch5","pattern_response","4321.200000047684","stim/no_29_1_b.png","j","pattern_12","j","true","","","","4321.200000047684","true","64","","","","","","","","","","","","","","","","",""
"","","","","","html-keyboard-response","291","1712909","0.0-3.0-7.0-0.30","5baff18baf6e8c000116be28","E1","batch5","pattern_show_trial_num","null","<p class=block-text>Trial 70 out of 78</p>","null","","","","","","","","","","","","","","","","","","","","","","","","","",""
"","","","","","image-keyboard-response","292","1723064","0.0-3.0-7.0-1.30","5baff18baf6e8c000116be28","E1","batch5","pattern_response","10149.200000047684","stim/yes_48_dia_w1_w.png","f","pattern_69","f","true","","","","10149.200000047684","true","65","","","","","","","","","","","","","","","","",""
"","","","","","html-keyboard-response","293","1724381","0.0-3.0-7.0-0.31","5baff18baf6e8c000116be28","E1","batch5","pattern_show_trial_num","null","<p class=block-text>Trial 71 out of 78</p>","null","","","","","","","","","","","","","","","","","","","","","","","","","",""
"","","","","","image-keyboard-response","294","1730192","0.0-3.0-7.0-1.31","5baff18baf6e8c000116be28","E1","batch5","pattern_response","5806.100000023842","stim/no_34_1_b.png","j","pattern_16","j","true","","","","5806.100000023842","true","66","","","","","","","","","","","","","","","","",""
"","","","","","html-keyboard-response","295","1731521","0.0-3.0-7.0-0.32","5baff18baf6e8c000116be28","E1","batch5","pattern_show_trial_num","null","<p class=block-text>Trial 72 out of 78</p>","null","","","","","","","","","","","","","","","","","","","","","","","","","",""
"","","","","","image-keyboard-response","296","1734192","0.0-3.0-7.0-1.32","5baff18baf6e8c000116be28","E1","batch5","pattern_response","2668.399999976158","stim/yes_43_ver_w1_w.png","f","pattern_65","f","true","","","","2668.399999976158","true","67","","","","","","","","","","","","","","","","",""
"","","","","","html-keyboard-response","297","1735508","0.0-3.0-7.0-0.33","5baff18baf6e8c000116be28","E1","batch5","pattern_show_trial_num","null","<p class=block-text>Trial 73 out of 78</p>","null","","","","","","","","","","","","","","","","","","","","","","","","","",""
"","","","","","image-keyboard-response","298","1736501","0.0-3.0-7.0-1.33","5baff18baf6e8c000116be28","E1","batch5","pattern_response","989.1000000238419","stim/yes_14_hor_b1_w.png","f","pattern_43","f","true","","","","989.1000000238419","true","68","","","","","","","","","","","","","","","","",""
"","","","","","html-keyboard-response","299","1737816","0.0-3.0-7.0-0.34","5baff18baf6e8c000116be28","E1","batch5","pattern_show_trial_num","null","<p class=block-text>Trial 74 out of 78</p>","null","","","","","","","","","","","","","","","","","","","","","","","","","",""
"","","","","","image-keyboard-response","300","1752819","0.0-3.0-7.0-1.34","5baff18baf6e8c000116be28","E1","batch5","pattern_response","14999.200000047684","stim/no_65_1_b.png","j","pattern_38","j","true","","","","14999.200000047684","true","69","","","","","","","","","","","","","","","","",""
"","","","","","html-keyboard-response","301","1754145","0.0-3.0-7.0-0.35","5baff18baf6e8c000116be28","E1","batch5","pattern_show_trial_num","null","<p class=block-text>Trial 75 out of 78</p>","null","","","","","","","","","","","","","","","","","","","","","","","","","",""
"","","","","","image-keyboard-response","302","1757563","0.0-3.0-7.0-1.35","5baff18baf6e8c000116be28","E1","batch5","pattern_response","3415.7000000476837","stim/no_23_1.png","j","pattern_08","j","true","","","","3415.7000000476837","true","70","","","","","","","","","","","","","","","","",""
"","","","","","html-keyboard-response","303","1758874","0.0-3.0-7.0-0.36","5baff18baf6e8c000116be28","E1","batch5","pattern_show_trial_num","null","<p class=block-text>Trial 76 out of 78</p>","null","","","","","","","","","","","","","","","","","","","","","","","","","",""
"","","","","","image-keyboard-response","304","1760366","0.0-3.0-7.0-1.36","5baff18baf6e8c000116be28","E1","batch5","pattern_response","1489.3999999761581","stim/yes_29_ver_w1.png","f","pattern_53","f","true","","","","1489.3999999761581","true","71","","","","","","","","","","","","","","","","",""
"","","","","","html-keyboard-response","305","1761675","0.0-3.0-7.0-0.37","5baff18baf6e8c000116be28","E1","batch5","pattern_show_trial_num","null","<p class=block-text>Trial 77 out of 78</p>","null","","","","","","","","","","","","","","","","","","","","","","","","","",""
"","","","","","image-keyboard-response","306","1762701","0.0-3.0-7.0-1.37","5baff18baf6e8c000116be28","E1","batch5","pattern_response","1022.7000000476837","stim/yes_38_hor_b1_b.png","f","pattern_61","f","true","","","","1022.7000000476837","true","72","","","","","","","","","","","","","","","","",""
"","","","","","html-keyboard-response","307","1764012","0.0-3.0-7.0-0.38","5baff18baf6e8c000116be28","E1","batch5","pattern_show_trial_num","null","<p class=block-text>Trial 78 out of 78</p>","null","","","","","","","","","","","","","","","","","","","","","","","","","",""
"","","","","","image-keyboard-response","308","1767821","0.0-3.0-7.0-1.38","5baff18baf6e8c000116be28","E1","batch5","pattern_response","3806.0999999046326","stim/no_32_1_w.png","j","pattern_14","j","true","","","","3806.0999999046326","true","73","","","","","","","","","","","","","","","","",""
"","","","","","html-button-response","309","1795703","0.0-3.0-8.0","5baff18baf6e8c000116be28","E1","batch5","","27367.600000023842","<p class = block-text>This concludes the 4-in-a-row detection game.Thank you for your responses!<br>
            You responded correctly on 94% of the trials.<br>
            When you are ready, press ""Continue"" button to continue </p>","0","","","","","","","","","","","","","","","","","","","","","","","","","",""
"true","","","","","fullscreen","310","1799081","0.0-4.0-0.0","5baff18baf6e8c000116be28","E1","batch5","","","","","","","","","","","","","","","","","","","","","","","","","","","","","",""
"","","","","","instructions","311","1893959","0.0-4.0-1.0-0.0-0.0","5baff18baf6e8c000116be28","E1","batch5","tol-instructions","94876.5","","","","","","","","[{""page_index"":0,""viewing_time"":17708.399999976158},{""page_index"":1,""viewing_time"":7599.899999976158},{""page_index"":2,""viewing_time"":11016},{""page_index"":3,""viewing_time"":10400.100000023842},{""page_index"":4,""viewing_time"":10495.899999976158},{""page_index"":5,""viewing_time"":33880.200000047684},{""page_index"":6,""viewing_time"":3775.6999999284744}]","","","","","","","","","","","","","","","","","","","",""
"","","","","","html-button-response","312","1895056","0.0-4.0-1.0-1.0-0.0","5baff18baf6e8c000116be28","E1","batch5","tol_enter_quiz","1095.6999999284744","<p class=block-text> Let's answer a few questions <br>","0","","","","","","","","","","","","","","","","","","","","","","","","","",""
"","","","","","html-button-response","313","1903856","0.0-4.0-1.0-1.0-1.0","5baff18baf6e8c000116be28","E1","batch5","tol_quiz","8799","<p class = block-text>True or False: You can only move the ball on top of a peg. <br></p>","1","","","false","","","","","","","","","","","","","","","","","","","","","","",""
"","","","","","html-button-response","314","1907992","0.0-4.0-1.0-1.0-2.0","5baff18baf6e8c000116be28","E1","batch5","tol_quiz_feedback","4134.600000023842","<p class = block-text>Incorrect. Remember, you can only move the ball on top of a peg.</p>","0","","","","","","","","","","","","","","","","","","","","","","","","","",""
"","","","","","html-button-response","315","1911168","0.0-4.0-1.0-1.0-3.0","5baff18baf6e8c000116be28","E1","batch5","tol_quiz","3174.899999976158","<p class = block-text>True or False: You should try to match your board with the target board with fewest moves possible. <br></p>","0","","","true","","","","","","","","","","","","","","","","","","","","","","",""
"","","","","","html-button-response","316","1911967","0.0-4.0-1.0-1.0-4.0","5baff18baf6e8c000116be28","E1","batch5","tol_quiz_feedback","798.6000000238419","<p class = block-text>Correct! </p>","0","","","","","","","","","","","","","","","","","","","","","","","","","",""
"","","","","","html-button-response","317","1913775","0.0-4.0-1.0-2.0-0.0","5baff18baf6e8c000116be28","E1","batch5","","1806.6999999284744","<p class = block-text>You made too many incorrect choices.</p><p class = block-text>You will now repeat the instructions and quiz</p>","0","","","","","","","","","","","","","","","","","","","","","","","","","",""
"","","","","","instructions","318","1944006","0.0-4.0-1.1-0.1-0.1","5baff18baf6e8c000116be28","E1","batch5","tol-instructions","30231.399999976158","","","","","","","","[{""page_index"":0,""viewing_time"":3431.6999999284744},{""page_index"":1,""viewing_time"":2584},{""page_index"":2,""viewing_time"":2448},{""page_index"":3,""viewing_time"":6607.700000047684},{""page_index"":4,""viewing_time"":4584.399999976158},{""page_index"":5,""viewing_time"":6639.899999976158},{""page_index"":6,""viewing_time"":3935.399999976158}]","","","","","","","","","","","","","","","","","","","",""
"","","","","","html-button-response","319","1945063","0.0-4.0-1.1-1.1-0.1","5baff18baf6e8c000116be28","E1","batch5","tol_enter_quiz","1055.7999999523163","<p class=block-text> Let's answer a few questions <br>","0","","","","","","","","","","","","","","","","","","","","","","","","","",""
"","","","","","html-button-response","320","1947207","0.0-4.0-1.1-1.1-1.1","5baff18baf6e8c000116be28","E1","batch5","tol_quiz","2142.600000023842","<p class = block-text>True or False: You can only move the ball on top of a peg. <br></p>","0","","","true","","","","","","","","","","","","","","","","","","","","","","",""
"","","","","","html-button-response","321","1948951","0.0-4.0-1.1-1.1-2.1","5baff18baf6e8c000116be28","E1","batch5","tol_quiz_feedback","1743.5","<p class = block-text>Correct! You can only move the ball on top of a peg.</p>","0","","","","","","","","","","","","","","","","","","","","","","","","","",""
"","","","","","html-button-response","322","1951927","0.0-4.0-1.1-1.1-3.1","5baff18baf6e8c000116be28","E1","batch5","tol_quiz","2975","<p class = block-text>True or False: You should try to match your board with the target board with fewest moves possible. <br></p>","0","","","true","","","","","","","","","","","","","","","","","","","","","","",""
"","","","","","html-button-response","323","1952815","0.0-4.0-1.1-1.1-4.1","5baff18baf6e8c000116be28","E1","batch5","tol_quiz_feedback","886.8999999761581","<p class = block-text>Correct! </p>","0","","","","","","","","","","","","","","","","","","","","","","","","","",""
"","","","","","html-button-response","324","1954822","0.0-4.0-2.0","5baff18baf6e8c000116be28","E1","batch5","","2006.5","<p class=block-text> Now that you've understood the game, let's practice a few easier examples before we start!<br> <br>","0","","","","","","","","","","","","","","","","","","","","","","","","","",""
"","","","","","single-stim-button","325","1957538","0.0-4.0-3.0-0.0","5baff18baf6e8c000116be28","E1","batch5","tol_practice","2713","","","","","","","","","","","","","","tol_peg_2","2713","2713","0","[[1,2,0],[0,0],[0]]","1","[[1,2,0],[0,0],[3]]","practice","2713","","","","","",""
"","","","","","single-stim-button","326","1959159","0.0-4.0-3.0-1.0","5baff18baf6e8c000116be28","E1","batch5","tol_practice","1621","","","","","","","","","","","","","","tol_peg_3","1621","1621","0","[[1,2,0],[0,0],[3]]","1","[[1,2,0],[0,0],[3]]","practice","1621","","","","","",""
"","","","","","poldrack-single-stim","327","1960176","0.0-4.0-4.0","5baff18baf6e8c000116be28","E1","batch5","tol_feedback","-1","","","","","true","","","","","","","","","","1000","1000","500","","","","","","-1","none","true","","0",""
"","","","","","single-stim-button","328","1966343","0.0-4.0-5.0-0.0","5baff18baf6e8c000116be28","E1","batch5","tol_practice","6166","","","","","","","","","","","","","","tol_peg_1","6166","6166","0","[[1,0,0],[3,0],[0]]","2","[[0,0,0],[3,1],[2]]","practice","6166","","","","","",""
"","","","","","single-stim-button","329","1967279","0.0-4.0-5.0-1.0","5baff18baf6e8c000116be28","E1","batch5","tol_practice","935","","","","","","","","","","","","","","tol_peg_3","935","935","0","[[1,0,0],[3,0],[2]]","2","[[0,0,0],[3,1],[2]]","practice","935","","","","","",""
"","","","","","single-stim-button","330","1968695","0.0-4.0-5.1-0.1","5baff18baf6e8c000116be28","E1","batch5","tol_practice","1415","","","","","","","","","","","","","","tol_peg_1","1415","1415","0","[[0,0,0],[3,0],[2]]","3","[[0,0,0],[3,1],[2]]","practice","1415","","","","","",""
"","","","","","single-stim-button","331","1969895","0.0-4.0-5.1-1.1","5baff18baf6e8c000116be28","E1","batch5","tol_practice","1199","","","","","","","","","","","","","","tol_peg_2","1199","1199","0","[[0,0,0],[3,1],[2]]","3","[[0,0,0],[3,1],[2]]","practice","1199","","","","","",""
"","","","","","poldrack-single-stim","332","1970902","0.0-4.0-6.0","5baff18baf6e8c000116be28","E1","batch5","tol_feedback","-1","","","","","true","","","","","","","","","","1000","1000","500","","","","","","-1","none","true","","0",""
"","","","","","single-stim-button","333","1974943","0.0-4.0-7.0-0.0","5baff18baf6e8c000116be28","E1","batch5","tol_practice","4040","","","","","","","","","","","","","","tol_peg_2","4040","4040","0","[[1,2,0],[0,0],[0]]","4","[[1,0,0],[2,0],[3]]","practice","4040","","","","","",""
"","","","","","single-stim-button","334","1975639","0.0-4.0-7.0-1.0","5baff18baf6e8c000116be28","E1","batch5","tol_practice","695","","","","","","","","","","","","","","tol_peg_3","695","695","0","[[1,2,0],[0,0],[3]]","4","[[1,0,0],[2,0],[3]]","practice","695","","","","","",""
"","","","","","single-stim-button","335","1976543","0.0-4.0-7.1-0.1","5baff18baf6e8c000116be28","E1","batch5","tol_practice","903","","","","","","","","","","","","","","tol_peg_1","903","903","0","[[1,0,0],[0,0],[3]]","5","[[1,0,0],[2,0],[3]]","practice","903","","","","","",""
"","","","","","single-stim-button","336","1977552","0.0-4.0-7.1-1.1","5baff18baf6e8c000116be28","E1","batch5","tol_practice","1007","","","","","","","","","","","","","","tol_peg_2","1007","1007","0","[[1,0,0],[2,0],[3]]","5","[[1,0,0],[2,0],[3]]","practice","1007","","","","","",""
"","","","","","poldrack-single-stim","337","1978567","0.0-4.0-8.0","5baff18baf6e8c000116be28","E1","batch5","tol_feedback","-1","","","","","true","","","","","","","","","","1000","1000","500","","","","","","-1","none","true","","0",""
"","","","","","html-button-response","338","1981199","0.0-4.0-9.0","5baff18baf6e8c000116be28","E1","batch5","tol_instruction","2631","<div class = centerbox><p class = center-block-text>Great job! You are done with practice trials<br>You are about to start official trials.<br> <br> Problem <strong>1</strong> out of 25 problems</p></div>","0","","","","","","","","","","","","","","","","","","","","","","","","","",""
"","","","","","single-stim-button","339","1987239","0.0-4.0-10.0-0.0","5baff18baf6e8c000116be28","E1","batch5","tol_tohand","5022","","","","","","","","","","","","","","tol_peg_2","5022","5022","0","[[1,2,0],[0,0],[0]]","1","[[1,3,0],[2,0],[0]]","0","0","","","","","","3"
"","","","","","single-stim-button","340","1987951","0.0-4.0-10.0-1.0","5baff18baf6e8c000116be28","E1","batch5","tol_toboard","711","","","","","","","","","","","","","","tol_peg_3","711","711","0","[[1,2,0],[0,0],[3]]","1","[[1,3,0],[2,0],[0]]","0","0","","","","","","3"
"","","","","","single-stim-button","341","1989600","0.0-4.0-10.1-0.1","5baff18baf6e8c000116be28","E1","batch5","tol_tohand","1647","","","","","","","","","","","","","","tol_peg_1","1647","1647","0","[[1,0,0],[0,0],[3]]","2","[[1,3,0],[2,0],[0]]","0","0","","","","","","3"
"","","","","","single-stim-button","342","1990600","0.0-4.0-10.1-1.1","5baff18baf6e8c000116be28","E1","batch5","tol_toboard","999","","","","","","","","","","","","","","tol_peg_2","999","999","0","[[1,0,0],[2,0],[3]]","2","[[1,3,0],[2,0],[0]]","0","0","","","","","","3"
"","","","","","single-stim-button","343","1993448","0.0-4.0-10.2-0.2","5baff18baf6e8c000116be28","E1","batch5","tol_tohand","2847","","","","","","","","","","","","","","tol_peg_3","2847","2847","0","[[1,0,0],[2,0],[0]]","3","[[1,3,0],[2,0],[0]]","0","0","","","","","","3"
