"success","timeout","failed_images","failed_audio","failed_video","trial_type","trial_index","time_elapsed","internal_node_id","subject_id","study_id","session_id","view_history","rt","task","stimulus","response","correct","mouse_click","stim_duration","block_duration","timing_post_trial","current_position","tol_num_moves_made","tol_target","tol_problem_id","tol_rt","key_press","possible_responses","tol_correct","preplanning","tol_rt_per_trial","tol_min_moves","item","answer","spm_correct","spm_rt","fiar_detect_rt","fiar_detect_correct","total_correct_fiar_detect","post_trial_gap","choices"
"true","false","[]","[]","[]","preload","0","932","0.0-0.0","5bb101078f3bd70001e51bfe","E1","batch5","","","","","","","","","","","","","","","","","","","","","","","","","","","","","",""
"true","","","","","fullscreen","1","11030","0.0-1.0-0.0","5bb101078f3bd70001e51bfe","E1","batch5","","","","","","","","","","","","","","","","","","","","","","","","","","","","","",""
"true","","","","","fullscreen","2","14518","0.0-2.0-0.0","5bb101078f3bd70001e51bfe","E1","batch5","","","","","","","","","","","","","","","","","","","","","","","","","","","","","",""
"","","","","","instructions","3","75845","0.0-2.0-1.0-0.0-0.0","5bb101078f3bd70001e51bfe","E1","batch5","[{""page_index"":0,""viewing_time"":10922},{""page_index"":1,""viewing_time"":5897.5999999996275},{""page_index"":2,""viewing_time"":2772},{""page_index"":3,""viewing_time"":11856.100000000093},{""page_index"":4,""viewing_time"":16208.100000000093},{""page_index"":5,""viewing_time"":9773.700000000186},{""page_index"":6,""viewing_time"":3896}]","61325.59999999963","tol-instructions","","","","","","","","","","","","","","","","","","","","","","","","","","",""
"","","","","","html-button-response","4","77191","0.0-2.0-1.0-1.0-0.0","5bb101078f3bd70001e51bfe","E1","batch5","","1345.5","tol_enter_quiz","<p class=block-text> Let's answer a few questions <br>","0","","","","","","","","","","","","","","","","","","","","","","","","",""
"","","","","","html-button-response","5","82495","0.0-2.0-1.0-1.0-1.0","5bb101078f3bd70001e51bfe","E1","batch5","","5303.200000000186","tol_quiz","<p class = block-text>True or False: You can only move the ball on top of a peg. <br></p>","0","true","","","","","","","","","","","","","","","","","","","","","","","",""
"","","","","","html-button-response","6","83649","0.0-2.0-1.0-1.0-2.0","5bb101078f3bd70001e51bfe","E1","batch5","","1153.1000000000931","tol_quiz_feedback","<p class = block-text>Correct! You can only move the ball on top of a peg.</p>","0","","","","","","","","","","","","","","","","","","","","","","","","",""
"","","","","","html-button-response","7","86485","0.0-2.0-1.0-1.0-3.0","5bb101078f3bd70001e51bfe","E1","batch5","","2835.399999999907","tol_quiz","<p class = block-text>True or False: You should try to match your board with the target board with fewest moves possible. <br></p>","0","true","","","","","","","","","","","","","","","","","","","","","","","",""
"","","","","","html-button-response","8","87381","0.0-2.0-1.0-1.0-4.0","5bb101078f3bd70001e51bfe","E1","batch5","","895.2000000001863","tol_quiz_feedback","<p class = block-text>Correct! </p>","0","","","","","","","","","","","","","","","","","","","","","","","","",""
"","","","","","html-button-response","9","89369","0.0-2.0-2.0","5bb101078f3bd70001e51bfe","E1","batch5","","1987.5","","<p class=block-text> Now that you've understood the game, let's practice a few easier examples before we start!<br> <br>","0","","","","","","","","","","","","","","","","","","","","","","","","",""
"","","","","","single-stim-button","10","93608","0.0-2.0-3.0-0.0","5bb101078f3bd70001e51bfe","E1","batch5","","4239","tol_practice","","","","tol_peg_2","4239","4239","0","[[1,2,0],[0,0],[0]]","1","[[1,2,0],[0,0],[3]]","practice","4239","","","","","","","","","","","","","","",""
"","","","","","single-stim-button","11","97855","0.0-2.0-3.0-1.0","5bb101078f3bd70001e51bfe","E1","batch5","","4246","tol_practice","","","","tol_peg_3","4246","4246","0","[[1,2,0],[0,0],[3]]","1","[[1,2,0],[0,0],[3]]","practice","4246","","","","","","","","","","","","","","",""
"","","","","","poldrack-single-stim","12","98861","0.0-2.0-4.0","5bb101078f3bd70001e51bfe","E1","batch5","","-1","tol_feedback","","","true","","1000","1000","500","","","","","","-1","none","true","","0","","","","","","","","","",""
"","","","","","single-stim-button","13","104283","0.0-2.0-5.0-0.0","5bb101078f3bd70001e51bfe","E1","batch5","","5421","tol_practice","","","","tol_peg_1","5421","5421","0","[[1,0,0],[3,0],[0]]","2","[[0,0,0],[3,1],[2]]","practice","5421","","","","","","","","","","","","","","",""
"","","","","","single-stim-button","14","106575","0.0-2.0-5.0-1.0","5bb101078f3bd70001e51bfe","E1","batch5","","2292","tol_practice","","","","tol_peg_3","2292","2292","0","[[1,0,0],[3,0],[2]]","2","[[0,0,0],[3,1],[2]]","practice","2292","","","","","","","","","","","","","","",""
"","","","","","single-stim-button","15","113059","0.0-2.0-5.1-0.1","5bb101078f3bd70001e51bfe","E1","batch5","","6483","tol_practice","","","","tol_peg_1","6483","6483","0","[[0,0,0],[3,0],[2]]","3","[[0,0,0],[3,1],[2]]","practice","6483","","","","","","","","","","","","","","",""
"","","","","","single-stim-button","16","119345","0.0-2.0-5.1-1.1","5bb101078f3bd70001e51bfe","E1","batch5","","6286","tol_practice","","","","tol_peg_1","6286","6286","0","[[1,0,0],[3,0],[2]]","3","[[0,0,0],[3,1],[2]]","practice","6286","","","","","","","","","","","","","","",""
"","","","","","single-stim-button","17","120499","0.0-2.0-5.2-0.2","5bb101078f3bd70001e51bfe","E1","batch5","","1154","tol_practice","","","","tol_peg_2","1154","1154","0","[[1,0,0],[0,0],[2]]","4","[[0,0,0],[3,1],[2]]","practice","1154","","","","","","","","","","","","","","",""
"","","","","","single-stim-button","18","122405","0.0-2.0-5.2-1.2","5bb101078f3bd70001e51bfe","E1","batch5","","1906","tol_practice","","","","tol_peg_1","1906","1906","0","[[1,3,0],[0,0],[2]]","4","[[0,0,0],[3,1],[2]]","practice","1906","","","","","","","","","","","","","","",""
"","","","","","single-stim-button","19","124663","0.0-2.0-5.3-0.3","5bb101078f3bd70001e51bfe","E1","batch5","","2258","tol_practice","","","","tol_peg_1","2258","2258","0","[[1,0,0],[0,0],[2]]","5","[[0,0,0],[3,1],[2]]","practice","2258","","","","","","","","","","","","","","",""
"","","","","","single-stim-button","20","138630","0.0-2.0-5.3-1.3","5bb101078f3bd70001e51bfe","E1","batch5","","13967","tol_practice","","","","tol_peg_1","13967","13967","0","[[1,3,0],[0,0],[2]]","5","[[0,0,0],[3,1],[2]]","practice","13967","","","","","","","","","","","","","","",""
"","","","","","single-stim-button","21","139671","0.0-2.0-5.4-0.4","5bb101078f3bd70001e51bfe","E1","batch5","","1039","tol_practice","","","","tol_peg_1","1039","1039","0","[[1,0,0],[0,0],[2]]","6","[[0,0,0],[3,1],[2]]","practice","1039","","","","","","","","","","","","","","",""
"","","","","","single-stim-button","22","147620","0.0-2.0-5.4-1.4","5bb101078f3bd70001e51bfe","E1","batch5","","7949","tol_practice","","","","tol_peg_1","7949","7949","0","[[1,3,0],[0,0],[2]]","6","[[0,0,0],[3,1],[2]]","practice","7949","","","","","","","","","","","","","","",""
"","","","","","single-stim-button","23","148598","0.0-2.0-5.5-0.5","5bb101078f3bd70001e51bfe","E1","batch5","","977","tol_practice","","","","tol_peg_3","977","977","0","[[1,3,0],[0,0],[0]]","7","[[0,0,0],[3,1],[2]]","practice","977","","","","","","","","","","","","","","",""
"","","","","","single-stim-button","24","151778","0.0-2.0-5.5-1.5","5bb101078f3bd70001e51bfe","E1","batch5","","3180","tol_practice","","","","tol_peg_2","3180","3180","0","[[1,3,0],[2,0],[0]]","7","[[0,0,0],[3,1],[2]]","practice","3180","","","","","","","","","","","","","","",""
"","","","","","single-stim-button","25","156712","0.0-2.0-5.6-0.6","5bb101078f3bd70001e51bfe","E1","batch5","","4933","tol_practice","","","","tol_peg_1","4933","4933","0","[[1,0,0],[2,0],[0]]","8","[[0,0,0],[3,1],[2]]","practice","4933","","","","","","","","","","","","","","",""
"","","","","","single-stim-button","26","158043","0.0-2.0-5.6-1.6","5bb101078f3bd70001e51bfe","E1","batch5","","1330","tol_practice","","","","tol_peg_3","1330","1330","0","[[1,0,0],[2,0],[3]]","8","[[0,0,0],[3,1],[2]]","practice","1330","","","","","","","","","","","","","","",""
"","","","","","single-stim-button","27","163910","0.0-2.0-5.7-0.7","5bb101078f3bd70001e51bfe","E1","batch5","","5867","tol_practice","","","","tol_peg_1","5867","5867","0","[[0,0,0],[2,0],[3]]","9","[[0,0,0],[3,1],[2]]","practice","5867","","","","","","","","","","","","","","",""
"","","","","","single-stim-button","28","167714","0.0-2.0-5.7-1.7","5bb101078f3bd70001e51bfe","E1","batch5","","3804","tol_practice","","","","tol_peg_1","3804","3804","0","[[1,0,0],[2,0],[3]]","9","[[0,0,0],[3,1],[2]]","practice","3804","","","","","","","","","","","","","","",""
"","","","","","single-stim-button","29","171072","0.0-2.0-5.8-0.8","5bb101078f3bd70001e51bfe","E1","batch5","","3357","tol_practice","","","","tol_peg_3","3357","3357","0","[[1,0,0],[2,0],[0]]","10","[[0,0,0],[3,1],[2]]","practice","3357","","","","","","","","","","","","","","",""
"","","","","","single-stim-button","30","172194","0.0-2.0-5.8-1.8","5bb101078f3bd70001e51bfe","E1","batch5","","1121","tol_practice","","","","tol_peg_2","1121","1121","0","[[1,0,0],[2,3],[0]]","10","[[0,0,0],[3,1],[2]]","practice","1121","","","","","","","","","","","","","","",""
"","","","","","single-stim-button","31","174838","0.0-2.0-5.9-0.9","5bb101078f3bd70001e51bfe","E1","batch5","","2643","tol_practice","","","","tol_peg_2","2643","2643","0","[[1,0,0],[2,0],[0]]","11","[[0,0,0],[3,1],[2]]","practice","2643","","","","","","","","","","","","","","",""
"","","","","","single-stim-button","32","175798","0.0-2.0-5.9-1.9","5bb101078f3bd70001e51bfe","E1","batch5","","960","tol_practice","","","","tol_peg_1","960","960","0","[[1,3,0],[2,0],[0]]","11","[[0,0,0],[3,1],[2]]","practice","960","","","","","","","","","","","","","","",""
"","","","","","single-stim-button","33","176696","0.0-2.0-5.10-0.10","5bb101078f3bd70001e51bfe","E1","batch5","","898","tol_practice","","","","tol_peg_2","898","898","0","[[1,3,0],[0,0],[0]]","12","[[0,0,0],[3,1],[2]]","practice","898","","","","","","","","","","","","","","",""
"","","","","","single-stim-button","34","177737","0.0-2.0-5.10-1.10","5bb101078f3bd70001e51bfe","E1","batch5","","1041","tol_practice","","","","tol_peg_3","1041","1041","0","[[1,3,0],[0,0],[2]]","12","[[0,0,0],[3,1],[2]]","practice","1041","","","","","","","","","","","","","","",""
"","","","","","single-stim-button","35","181224","0.0-2.0-5.11-0.11","5bb101078f3bd70001e51bfe","E1","batch5","","3487","tol_practice","","","","tol_peg_1","3487","3487","0","[[1,0,0],[0,0],[2]]","13","[[0,0,0],[3,1],[2]]","practice","3487","","","","","","","","","","","","","","",""
"","","","","","single-stim-button","36","182296","0.0-2.0-5.11-1.11","5bb101078f3bd70001e51bfe","E1","batch5","","1071","tol_practice","","","","tol_peg_2","1071","1071","0","[[1,0,0],[3,0],[2]]","13","[[0,0,0],[3,1],[2]]","practice","1071","","","","","","","","","","","","","","",""
"","","","","","single-stim-button","37","182874","0.0-2.0-5.12-0.12","5bb101078f3bd70001e51bfe","E1","batch5","","578","tol_practice","","","","tol_peg_1","578","578","0","[[0,0,0],[3,0],[2]]","14","[[0,0,0],[3,1],[2]]","practice","578","","","","","","","","","","","","","","",""
"","","","","","single-stim-button","38","184060","0.0-2.0-5.12-1.12","5bb101078f3bd70001e51bfe","E1","batch5","","1186","tol_practice","","","","tol_peg_2","1186","1186","0","[[0,0,0],[3,1],[2]]","14","[[0,0,0],[3,1],[2]]","practice","1186","","","","","","","","","","","","","","",""
"","","","","","poldrack-single-stim","39","185062","0.0-2.0-6.0","5bb101078f3bd70001e51bfe","E1","batch5","","-1","tol_feedback","","","true","","1000","1000","500","","","","","","-1","none","true","","0","","","","","","","","","",""
"","","","","","single-stim-button","40","191142","0.0-2.0-7.0-0.0","5bb101078f3bd70001e51bfe","E1","batch5","","6079","tol_practice","","","","tol_peg_2","6079","6079","0","[[1,2,0],[0,0],[0]]","15","[[1,0,0],[2,0],[3]]","practice","6079","","","","","","","","","","","","","","",""
"","","","","","single-stim-button","41","192072","0.0-2.0-7.0-1.0","5bb101078f3bd70001e51bfe","E1","batch5","","929","tol_practice","","","","tol_peg_3","929","929","0","[[1,2,0],[0,0],[3]]","15","[[1,0,0],[2,0],[3]]","practice","929","","","","","","","","","","","","","","",""
"","","","","","single-stim-button","42","193866","0.0-2.0-7.1-0.1","5bb101078f3bd70001e51bfe","E1","batch5","","1794","tol_practice","","","","tol_peg_1","1794","1794","0","[[1,0,0],[0,0],[3]]","16","[[1,0,0],[2,0],[3]]","practice","1794","","","","","","","","","","","","","","",""
"","","","","","single-stim-button","43","195069","0.0-2.0-7.1-1.1","5bb101078f3bd70001e51bfe","E1","batch5","","1202","tol_practice","","","","tol_peg_2","1202","1202","0","[[1,0,0],[2,0],[3]]","16","[[1,0,0],[2,0],[3]]","practice","1202","","","","","","","","","","","","","","",""
"","","","","","poldrack-single-stim","44","196084","0.0-2.0-8.0","5bb101078f3bd70001e51bfe","E1","batch5","","-1","tol_feedback","","","true","","1000","1000","500","","","","","","-1","none","true","","0","","","","","","","","","",""
"","","","","","html-button-response","45","198499","0.0-2.0-9.0","5bb101078f3bd70001e51bfe","E1","batch5","","2413.1999999997206","tol_instruction","<div class = centerbox><p class = center-block-text>Great job! You are done with practice trials<br>You are about to start official trials.<br> <br> Problem <strong>1</strong> out of 25 problems</p></div>","0","","","","","","","","","","","","","","","","","","","","","","","","",""
"","","","","","single-stim-button","46","206889","0.0-2.0-10.0-0.0","5bb101078f3bd70001e51bfe","E1","batch5","","7388","tol_tohand","","","","tol_peg_2","7388","7388","0","[[1,2,0],[0,0],[0]]","1","[[1,3,0],[2,0],[0]]","0","0","","","","","","3","","","","","","","","",""
"","","","","","single-stim-button","47","207787","0.0-2.0-10.0-1.0","5bb101078f3bd70001e51bfe","E1","batch5","","898","tol_toboard","","","","tol_peg_3","898","898","0","[[1,2,0],[0,0],[3]]","1","[[1,3,0],[2,0],[0]]","0","0","","","","","","3","","","","","","","","",""
"","","","","","single-stim-button","48","208907","0.0-2.0-10.1-0.1","5bb101078f3bd70001e51bfe","E1","batch5","","1119","tol_tohand","","","","tol_peg_1","1119","1119","0","[[1,0,0],[0,0],[3]]","2","[[1,3,0],[2,0],[0]]","0","0","","","","","","3","","","","","","","","",""
"","","","","","single-stim-button","49","209837","0.0-2.0-10.1-1.1","5bb101078f3bd70001e51bfe","E1","batch5","","929","tol_toboard","","","","tol_peg_2","929","929","0","[[1,0,0],[2,0],[3]]","2","[[1,3,0],[2,0],[0]]","0","0","","","","","","3","","","","","","","","",""
"","","","","","single-stim-button","50","210623","0.0-2.0-10.2-0.2","5bb101078f3bd70001e51bfe","E1","batch5","","785","tol_tohand","","","","tol_peg_3","785","785","0","[[1,0,0],[2,0],[0]]","3","[[1,3,0],[2,0],[0]]","0","0","","","","","","3","","","","","","","","",""
"","","","","","single-stim-button","51","211519","0.0-2.0-10.2-1.2","5bb101078f3bd70001e51bfe","E1","batch5","","895","tol_toboard","","","","tol_peg_1","895","895","0","[[1,3,0],[2,0],[0]]","3","[[1,3,0],[2,0],[0]]","0","0","","","","","","3","","","","","","","","",""
"","","","","","poldrack-single-stim","52","212531","0.0-2.0-11.0","5bb101078f3bd70001e51bfe","E1","batch5","","-1","tol_feedback","","","true","","1000","1000","500","","","","","","-1","none","true","7388","9292","","","","","","","","","",""
"","","","","","html-button-response","53","214779","0.0-2.0-12.0","5bb101078f3bd70001e51bfe","E1","batch5","","2246.7000000001863","tol_trial_num","<div class = centerbox><p class = center-block-text>problem <strong>2</strong> out of 25 problems</p></div>","0","","","","","","","","","","","","","","","","","","","","","","","","",""
"","","","","","single-stim-button","54","226574","0.0-2.0-13.0-0.0","5bb101078f3bd70001e51bfe","E1","batch5","","11795","tol_tohand","","","","tol_peg_1","11795","11795","0","[[1,0,0],[3,0],[0]]","1","[[2,1,3],[0,0],[0]]","1","0","","","","","","5","","","","","","","","",""
"","","","","","single-stim-button","55","227455","0.0-2.0-13.0-1.0","5bb101078f3bd70001e51bfe","E1","batch5","","879","tol_toboard","","","","tol_peg_2","879","879","0","[[1,0,0],[3,2],[0]]","1","[[2,1,3],[0,0],[0]]","1","0","","","","","","5","","","","","","","","",""
"","","","","","single-stim-button","56","228961","0.0-2.0-13.1-0.1","5bb101078f3bd70001e51bfe","E1","batch5","","1506","tol_tohand","","","","tol_peg_1","1506","1506","0","[[0,0,0],[3,2],[0]]","2","[[2,1,3],[0,0],[0]]","1","0","","","","","","5","","","","","","","","",""
"","","","","","single-stim-button","57","229843","0.0-2.0-13.1-1.1","5bb101078f3bd70001e51bfe","E1","batch5","","881","tol_toboard","","","","tol_peg_3","881","881","0","[[0,0,0],[3,2],[1]]","2","[[2,1,3],[0,0],[0]]","1","0","","","","","","5","","","","","","","","",""
"","","","","","single-stim-button","58","231933","0.0-2.0-13.2-0.2","5bb101078f3bd70001e51bfe","E1","batch5","","2090","tol_tohand","","","","tol_peg_2","2090","2090","0","[[0,0,0],[3,0],[1]]","3","[[2,1,3],[0,0],[0]]","1","0","","","","","","5","","","","","","","","",""
"","","","","","single-stim-button","59","232831","0.0-2.0-13.2-1.2","5bb101078f3bd70001e51bfe","E1","batch5","","897","tol_toboard","","","","tol_peg_1","897","897","0","[[2,0,0],[3,0],[1]]","3","[[2,1,3],[0,0],[0]]","1","0","","","","","","5","","","","","","","","",""
"","","","","","single-stim-button","60","234721","0.0-2.0-13.3-0.3","5bb101078f3bd70001e51bfe","E1","batch5","","1890","tol_tohand","","","","tol_peg_3","1890","1890","0","[[2,0,0],[3,0],[0]]","4","[[2,1,3],[0,0],[0]]","1","0","","","","","","5","","","","","","","","",""
"","","","","","single-stim-button","61","235747","0.0-2.0-13.3-1.3","5bb101078f3bd70001e51bfe","E1","batch5","","1026","tol_toboard","","","","tol_peg_1","1026","1026","0","[[2,1,0],[3,0],[0]]","4","[[2,1,3],[0,0],[0]]","1","0","","","","","","5","","","","","","","","",""
"","","","","","single-stim-button","62","236483","0.0-2.0-13.4-0.4","5bb101078f3bd70001e51bfe","E1","batch5","","735","tol_tohand","","","","tol_peg_2","735","735","0","[[2,1,0],[0,0],[0]]","5","[[2,1,3],[0,0],[0]]","1","0","","","","","","5","","","","","","","","",""
"","","","","","single-stim-button","63","237381","0.0-2.0-13.4-1.4","5bb101078f3bd70001e51bfe","E1","batch5","","898","tol_toboard","","","","tol_peg_1","898","898","0","[[2,1,3],[0,0],[0]]","5","[[2,1,3],[0,0],[0]]","1","0","","","","","","5","","","","","","","","",""
"","","","","","poldrack-single-stim","64","238386","0.0-2.0-14.0","5bb101078f3bd70001e51bfe","E1","batch5","","-1","tol_feedback","","","true","","1000","1000","500","","","","","","-1","none","true","11795","18016","","","","","","","","","",""
"","","","","","html-button-response","65","239431","0.0-2.0-15.0","5bb101078f3bd70001e51bfe","E1","batch5","","1044","tol_trial_num","<div class = centerbox><p class = center-block-text>problem <strong>3</strong> out of 25 problems</p></div>","0","","","","","","","","","","","","","","","","","","","","","","","","",""
"","","","","","single-stim-button","66","248611","0.0-2.0-16.0-0.0","5bb101078f3bd70001e51bfe","E1","batch5","","9179","tol_tohand","","","","tol_peg_1","9179","9179","0","[[2,0,0],[0,0],[1]]","1","[[1,2,0],[3,0],[0]]","2","0","","","","","","4","","","","","","","","",""
"","","","","","single-stim-button","67","249773","0.0-2.0-16.0-1.0","5bb101078f3bd70001e51bfe","E1","batch5","","1162","tol_toboard","","","","tol_peg_2","1162","1162","0","[[2,0,0],[3,0],[1]]","1","[[1,2,0],[3,0],[0]]","2","0","","","","","","4","","","","","","","","",""
"","","","","","single-stim-button","68","252665","0.0-2.0-16.1-0.1","5bb101078f3bd70001e51bfe","E1","batch5","","2891","tol_tohand","","","","tol_peg_1","2891","2891","0","[[0,0,0],[3,0],[1]]","2","[[1,2,0],[3,0],[0]]","2","0","","","","","","4","","","","","","","","",""
"","","","","","single-stim-button","69","253417","0.0-2.0-16.1-1.1","5bb101078f3bd70001e51bfe","E1","batch5","","752","tol_toboard","","","","tol_peg_2","752","752","0","[[0,0,0],[3,2],[1]]","2","[[1,2,0],[3,0],[0]]","2","0","","","","","","4","","","","","","","","",""
"","","","","","single-stim-button","70","254378","0.0-2.0-16.2-0.2","5bb101078f3bd70001e51bfe","E1","batch5","","961","tol_tohand","","","","tol_peg_3","961","961","0","[[0,0,0],[3,2],[0]]","3","[[1,2,0],[3,0],[0]]","2","0","","","","","","4","","","","","","","","",""
"","","","","","single-stim-button","71","255356","0.0-2.0-16.2-1.2","5bb101078f3bd70001e51bfe","E1","batch5","","977","tol_toboard","","","","tol_peg_1","977","977","0","[[1,0,0],[3,2],[0]]","3","[[1,2,0],[3,0],[0]]","2","0","","","","","","4","","","","","","","","",""
"","","","","","single-stim-button","72","255933","0.0-2.0-16.3-0.3","5bb101078f3bd70001e51bfe","E1","batch5","","575","tol_tohand","","","","tol_peg_2","575","575","0","[[1,0,0],[3,0],[0]]","4","[[1,2,0],[3,0],[0]]","2","0","","","","","","4","","","","","","","","",""
"","","","","","single-stim-button","73","256661","0.0-2.0-16.3-1.3","5bb101078f3bd70001e51bfe","E1","batch5","","727","tol_toboard","","","","tol_peg_1","727","727","0","[[1,2,0],[3,0],[0]]","4","[[1,2,0],[3,0],[0]]","2","0","","","","","","4","","","","","","","","",""
"","","","","","poldrack-single-stim","74","257672","0.0-2.0-17.0","5bb101078f3bd70001e51bfe","E1","batch5","","-1","tol_feedback","","","true","","1000","1000","500","","","","","","-1","none","true","9179","13606","","","","","","","","","",""
"","","","","","html-button-response","75","258576","0.0-2.0-18.0","5bb101078f3bd70001e51bfe","E1","batch5","","903.2000000001863","tol_trial_num","<div class = centerbox><p class = center-block-text>problem <strong>4</strong> out of 25 problems</p></div>","0","","","","","","","","","","","","","","","","","","","","","","","","",""
"","","","","","single-stim-button","76","265668","0.0-2.0-19.0-0.0","5bb101078f3bd70001e51bfe","E1","batch5","","7091","tol_tohand","","","","tol_peg_2","7091","7091","0","[[3,0,0],[2,0],[0]]","1","[[3,0,0],[1,0],[2]]","3","0","","","","","","3","","","","","","","","",""
"","","","","","single-stim-button","77","266406","0.0-2.0-19.0-1.0","5bb101078f3bd70001e51bfe","E1","batch5","","737","tol_toboard","","","","tol_peg_1","737","737","0","[[3,1,0],[2,0],[0]]","1","[[3,0,0],[1,0],[2]]","3","0","","","","","","3","","","","","","","","",""
"","","","","","single-stim-button","78","267207","0.0-2.0-19.1-0.1","5bb101078f3bd70001e51bfe","E1","batch5","","799","tol_tohand","","","","tol_peg_2","799","799","0","[[3,1,0],[0,0],[0]]","2","[[3,0,0],[1,0],[2]]","3","0","","","","","","3","","","","","","","","",""
"","","","","","single-stim-button","79","268104","0.0-2.0-19.1-1.1","5bb101078f3bd70001e51bfe","E1","batch5","","897","tol_toboard","","","","tol_peg_3","897","897","0","[[3,1,0],[0,0],[2]]","2","[[3,0,0],[1,0],[2]]","3","0","","","","","","3","","","","","","","","",""
"","","","","","single-stim-button","80","269098","0.0-2.0-19.2-0.2","5bb101078f3bd70001e51bfe","E1","batch5","","993","tol_tohand","","","","tol_peg_1","993","993","0","[[3,0,0],[0,0],[2]]","3","[[3,0,0],[1,0],[2]]","3","0","","","","","","3","","","","","","","","",""
"","","","","","single-stim-button","81","269802","0.0-2.0-19.2-1.2","5bb101078f3bd70001e51bfe","E1","batch5","","703","tol_toboard","","","","tol_peg_2","703","703","0","[[3,0,0],[1,0],[2]]","3","[[3,0,0],[1,0],[2]]","3","0","","","","","","3","","","","","","","","",""
"","","","","","poldrack-single-stim","82","270804","0.0-2.0-20.0","5bb101078f3bd70001e51bfe","E1","batch5","","-1","tol_feedback","","","true","","1000","1000","500","","","","","","-1","none","true","7091","8883","","","","","","","","","",""
"","","","","","html-button-response","83","271786","0.0-2.0-21.0","5bb101078f3bd70001e51bfe","E1","batch5","","982","tol_trial_num","<div class = centerbox><p class = center-block-text>problem <strong>5</strong> out of 25 problems</p></div>","0","","","","","","","","","","","","","","","","","","","","","","","","",""
"","","","","","single-stim-button","84","302890","0.0-2.0-22.0-0.0","5bb101078f3bd70001e51bfe","E1","batch5","","31103","tol_tohand","","","","tol_peg_3","31103","31103","0","[[1,0,0],[2,0],[0]]","1","[[0,0,0],[1,2],[3]]","4","0","","","","","","7","","","","","","","","",""
"","","","","","single-stim-button","85","303788","0.0-2.0-22.0-1.0","5bb101078f3bd70001e51bfe","E1","batch5","","897","tol_toboard","","","","tol_peg_2","897","897","0","[[1,0,0],[2,3],[0]]","1","[[0,0,0],[1,2],[3]]","4","0","","","","","","7","","","","","","","","",""
"","","","","","single-stim-button","86","304638","0.0-2.0-22.1-0.1","5bb101078f3bd70001e51bfe","E1","batch5","","849","tol_tohand","","","","tol_peg_1","849","849","0","[[0,0,0],[2,3],[0]]","2","[[0,0,0],[1,2],[3]]","4","0","","","","","","7","","","","","","","","",""
"","","","","","single-stim-button","87","305679","0.0-2.0-22.1-1.1","5bb101078f3bd70001e51bfe","E1","batch5","","1040","tol_toboard","","","","tol_peg_3","1040","1040","0","[[0,0,0],[2,3],[1]]","2","[[0,0,0],[1,2],[3]]","4","0","","","","","","7","","","","","","","","",""
"","","","","","single-stim-button","88","311921","0.0-2.0-22.2-0.2","5bb101078f3bd70001e51bfe","E1","batch5","","6241","tol_tohand","","","","tol_peg_2","6241","6241","0","[[0,0,0],[2,0],[1]]","3","[[0,0,0],[1,2],[3]]","4","0","","","","","","7","","","","","","","","",""
"","","","","","single-stim-button","89","312770","0.0-2.0-22.2-1.2","5bb101078f3bd70001e51bfe","E1","batch5","","849","tol_toboard","","","","tol_peg_1","849","849","0","[[3,0,0],[2,0],[1]]","3","[[0,0,0],[1,2],[3]]","4","0","","","","","","7","","","","","","","","",""
"","","","","","single-stim-button","90","316795","0.0-2.0-22.3-0.3","5bb101078f3bd70001e51bfe","E1","batch5","","4024","tol_tohand","","","","tol_peg_2","4024","4024","0","[[3,0,0],[0,0],[1]]","4","[[0,0,0],[1,2],[3]]","4","0","","","","","","7","","","","","","","","",""
"","","","","","single-stim-button","91","317722","0.0-2.0-22.3-1.3","5bb101078f3bd70001e51bfe","E1","batch5","","927","tol_toboard","","","","tol_peg_1","927","927","0","[[3,2,0],[0,0],[1]]","4","[[0,0,0],[1,2],[3]]","4","0","","","","","","7","","","","","","","","",""
"","","","","","single-stim-button","92","318717","0.0-2.0-22.4-0.4","5bb101078f3bd70001e51bfe","E1","batch5","","993","tol_tohand","","","","tol_peg_3","993","993","0","[[3,2,0],[0,0],[0]]","5","[[0,0,0],[1,2],[3]]","4","0","","","","","","7","","","","","","","","",""
"","","","","","single-stim-button","93","319791","0.0-2.0-22.4-1.4","5bb101078f3bd70001e51bfe","E1","batch5","","1074","tol_toboard","","","","tol_peg_2","1074","1074","0","[[3,2,0],[1,0],[0]]","5","[[0,0,0],[1,2],[3]]","4","0","","","","","","7","","","","","","","","",""
"","","","","","single-stim-button","94","320830","0.0-2.0-22.5-0.5","5bb101078f3bd70001e51bfe","E1","batch5","","1039","tol_tohand","","","","tol_peg_1","1039","1039","0","[[3,0,0],[1,0],[0]]","6","[[0,0,0],[1,2],[3]]","4","0","","","","","","7","","","","","","","","",""
"","","","","","single-stim-button","95","321569","0.0-2.0-22.5-1.5","5bb101078f3bd70001e51bfe","E1","batch5","","738","tol_toboard","","","","tol_peg_2","738","738","0","[[3,0,0],[1,2],[0]]","6","[[0,0,0],[1,2],[3]]","4","0","","","","","","7","","","","","","","","",""
"","","","","","single-stim-button","96","322065","0.0-2.0-22.6-0.6","5bb101078f3bd70001e51bfe","E1","batch5","","495","tol_tohand","","","","tol_peg_1","495","495","0","[[0,0,0],[1,2],[0]]","7","[[0,0,0],[1,2],[3]]","4","0","","","","","","7","","","","","","","","",""
"","","","","","single-stim-button","97","322915","0.0-2.0-22.6-1.6","5bb101078f3bd70001e51bfe","E1","batch5","","850","tol_toboard","","","","tol_peg_3","850","850","0","[[0,0,0],[1,2],[3]]","7","[[0,0,0],[1,2],[3]]","4","0","","","","","","7","","","","","","","","",""
"","","","","","poldrack-single-stim","98","323920","0.0-2.0-23.0","5bb101078f3bd70001e51bfe","E1","batch5","","-1","tol_feedback","","","true","","1000","1000","500","","","","","","-1","none","true","31103","44744","","","","","","","","","",""
"","","","","","html-button-response","99","324917","0.0-2.0-24.0","5bb101078f3bd70001e51bfe","E1","batch5","","995.5","tol_trial_num","<div class = centerbox><p class = center-block-text>problem <strong>6</strong> out of 25 problems</p></div>","0","","","","","","","","","","","","","","","","","","","","","","","","",""
"","","","","","single-stim-button","100","340063","0.0-2.0-25.0-0.0","5bb101078f3bd70001e51bfe","E1","batch5","","15145","tol_tohand","","","","tol_peg_3","15145","15145","0","[[0,0,0],[1,2],[0]]","1","[[1,0,0],[2,3],[0]]","5","0","","","","","","6","","","","","","","","",""
"","","","","","single-stim-button","101","341265","0.0-2.0-25.0-1.0","5bb101078f3bd70001e51bfe","E1","batch5","","1202","tol_toboard","","","","tol_peg_1","1202","1202","0","[[3,0,0],[1,2],[0]]","1","[[1,0,0],[2,3],[0]]","5","0","","","","","","6","","","","","","","","",""
"","","","","","single-stim-button","102","342563","0.0-2.0-25.1-0.1","5bb101078f3bd70001e51bfe","E1","batch5","","1298","tol_tohand","","","","tol_peg_2","1298","1298","0","[[3,0,0],[1,0],[0]]","2","[[1,0,0],[2,3],[0]]","5","0","","","","","","6","","","","","","","","",""
"","","","","","single-stim-button","103","343797","0.0-2.0-25.1-1.1","5bb101078f3bd70001e51bfe","E1","batch5","","1233","tol_toboard","","","","tol_peg_3","1233","1233","0","[[3,0,0],[1,0],[2]]","2","[[1,0,0],[2,3],[0]]","5","0","","","","","","6","","","","","","","","",""
"","","","","","single-stim-button","104","348603","0.0-2.0-25.2-0.2","5bb101078f3bd70001e51bfe","E1","batch5","","4805","tol_tohand","","","","tol_peg_2","4805","4805","0","[[3,0,0],[0,0],[2]]","3","[[1,0,0],[2,3],[0]]","5","0","","","","","","6","","","","","","","","",""
"","","","","","single-stim-button","105","349469","0.0-2.0-25.2-1.2","5bb101078f3bd70001e51bfe","E1","batch5","","865","tol_toboard","","","","tol_peg_1","865","865","0","[[3,1,0],[0,0],[2]]","3","[[1,0,0],[2,3],[0]]","5","0","","","","","","6","","","","","","","","",""
"","","","","","single-stim-button","106","350447","0.0-2.0-25.3-0.3","5bb101078f3bd70001e51bfe","E1","batch5","","977","tol_tohand","","","","tol_peg_3","977","977","0","[[3,1,0],[0,0],[0]]","4","[[1,0,0],[2,3],[0]]","5","0","","","","","","6","","","","","","","","",""
"","","","","","single-stim-button","107","351519","0.0-2.0-25.3-1.3","5bb101078f3bd70001e51bfe","E1","batch5","","1072","tol_toboard","","","","tol_peg_2","1072","1072","0","[[3,1,0],[2,0],[0]]","4","[[1,0,0],[2,3],[0]]","5","0","","","","","","6","","","","","","","","",""
"","","","","","single-stim-button","108","353057","0.0-2.0-25.4-0.4","5bb101078f3bd70001e51bfe","E1","batch5","","1538","tol_tohand","","","","tol_peg_1","1538","1538","0","[[3,0,0],[2,0],[0]]","5","[[1,0,0],[2,3],[0]]","5","0","","","","","","6","","","","","","","","",""
"","","","","","single-stim-button","109","353939","0.0-2.0-25.4-1.4","5bb101078f3bd70001e51bfe","E1","batch5","","882","tol_toboard","","","","tol_peg_3","882","882","0","[[3,0,0],[2,0],[1]]","5","[[1,0,0],[2,3],[0]]","5","0","","","","","","6","","","","","","","","",""
"","","","","","single-stim-button","110","355061","0.0-2.0-25.5-0.5","5bb101078f3bd70001e51bfe","E1","batch5","","1122","tol_tohand","","","","tol_peg_1","1122","1122","0","[[0,0,0],[2,0],[1]]","6","[[1,0,0],[2,3],[0]]","5","0","","","","","","6","","","","","","","","",""
"","","","","","single-stim-button","111","356037","0.0-2.0-25.5-1.5","5bb101078f3bd70001e51bfe","E1","batch5","","975","tol_toboard","","","","tol_peg_2","975","975","0","[[0,0,0],[2,3],[1]]","6","[[1,0,0],[2,3],[0]]","5","0","","","","","","6","","","","","","","","",""
"","","","","","single-stim-button","112","356998","0.0-2.0-25.6-0.6","5bb101078f3bd70001e51bfe","E1","batch5","","961","tol_tohand","","","","tol_peg_3","961","961","0","[[0,0,0],[2,3],[0]]","7","[[1,0,0],[2,3],[0]]","5","0","","","","","","6","","","","","","","","",""
"","","","","","single-stim-button","113","357857","0.0-2.0-25.6-1.6","5bb101078f3bd70001e51bfe","E1","batch5","","858","tol_toboard","","","","tol_peg_1","858","858","0","[[1,0,0],[2,3],[0]]","7","[[1,0,0],[2,3],[0]]","5","0","","","","","","6","","","","","","","","",""
"","","","","","poldrack-single-stim","114","358870","0.0-2.0-26.0","5bb101078f3bd70001e51bfe","E1","batch5","","-1","tol_feedback","","","true","","1000","1000","500","","","","","","-1","none","true","15145","25846","","","","","","","","","",""
"","","","","","html-button-response","115","360018","0.0-2.0-27.0","5bb101078f3bd70001e51bfe","E1","batch5","","1148","tol_trial_num","<div class = centerbox><p class = center-block-text>problem <strong>7</strong> out of 25 problems</p></div>","0","","","","","","","","","","","","","","","","","","","","","","","","",""
"","","","","","single-stim-button","116","367292","0.0-2.0-28.0-0.0","5bb101078f3bd70001e51bfe","E1","batch5","","7273","tol_tohand","","","","tol_peg_3","7273","7273","0","[[2,1,0],[0,0],[0]]","1","[[1,2,0],[3,0],[0]]","6","0","","","","","","5","","","","","","","","",""
"","","","","","single-stim-button","117","367950","0.0-2.0-28.0-1.0","5bb101078f3bd70001e51bfe","E1","batch5","","657","tol_toboard","","","","tol_peg_2","657","657","0","[[2,1,0],[3,0],[0]]","1","[[1,2,0],[3,0],[0]]","6","0","","","","","","5","","","","","","","","",""
"","","","","","single-stim-button","118","368030","0.0-2.0-28.1-0.1","5bb101078f3bd70001e51bfe","E1","batch5","","79","tol_tohand","","","","tol_peg_2","79","79","0","[[2,1,0],[0,0],[0]]","2","[[1,2,0],[3,0],[0]]","6","0","","","","","","5","","","","","","","","",""
"","","","","","single-stim-button","119","368879","0.0-2.0-28.1-1.1","5bb101078f3bd70001e51bfe","E1","batch5","","848","tol_toboard","","","","tol_peg_2","848","848","0","[[2,1,0],[3,0],[0]]","2","[[1,2,0],[3,0],[0]]","6","0","","","","","","5","","","","","","","","",""
"","","","","","single-stim-button","120","373111","0.0-2.0-28.2-0.2","5bb101078f3bd70001e51bfe","E1","batch5","","4232","tol_tohand","","","","tol_peg_1","4232","4232","0","[[2,0,0],[3,0],[0]]","3","[[1,2,0],[3,0],[0]]","6","0","","","","","","5","","","","","","","","",""
"","","","","","single-stim-button","121","374760","0.0-2.0-28.2-1.2","5bb101078f3bd70001e51bfe","E1","batch5","","1649","tol_toboard","","","","tol_peg_3","1649","1649","0","[[2,0,0],[3,0],[1]]","3","[[1,2,0],[3,0],[0]]","6","0","","","","","","5","","","","","","","","",""
"","","","","","single-stim-button","122","375690","0.0-2.0-28.3-0.3","5bb101078f3bd70001e51bfe","E1","batch5","","929","tol_tohand","","","","tol_peg_1","929","929","0","[[0,0,0],[3,0],[1]]","4","[[1,2,0],[3,0],[0]]","6","0","","","","","","5","","","","","","","","",""
"","","","","","single-stim-button","123","376562","0.0-2.0-28.3-1.3","5bb101078f3bd70001e51bfe","E1","batch5","","871","tol_toboard","","","","tol_peg_2","871","871","0","[[0,0,0],[3,2],[1]]","4","[[1,2,0],[3,0],[0]]","6","0","","","","","","5","","","","","","","","",""
"","","","","","single-stim-button","124","377156","0.0-2.0-28.4-0.4","5bb101078f3bd70001e51bfe","E1","batch5","","593","tol_tohand","","","","tol_peg_3","593","593","0","[[0,0,0],[3,2],[0]]","5","[[1,2,0],[3,0],[0]]","6","0","","","","","","5","","","","","","","","",""
"","","","","","single-stim-button","125","378101","0.0-2.0-28.4-1.4","5bb101078f3bd70001e51bfe","E1","batch5","","943","tol_toboard","","","","tol_peg_1","943","943","0","[[1,0,0],[3,2],[0]]","5","[[1,2,0],[3,0],[0]]","6","0","","","","","","5","","","","","","","","",""
"","","","","","single-stim-button","126","379094","0.0-2.0-28.5-0.5","5bb101078f3bd70001e51bfe","E1","batch5","","993","tol_tohand","","","","tol_peg_2","993","993","0","[[1,0,0],[3,0],[0]]","6","[[1,2,0],[3,0],[0]]","6","0","","","","","","5","","","","","","","","",""
"","","","","","single-stim-button","127","379911","0.0-2.0-28.5-1.5","5bb101078f3bd70001e51bfe","E1","batch5","","815","tol_toboard","","","","tol_peg_1","815","815","0","[[1,2,0],[3,0],[0]]","6","[[1,2,0],[3,0],[0]]","6","0","","","","","","5","","","","","","","","",""
"","","","","","poldrack-single-stim","128","380926","0.0-2.0-29.0","5bb101078f3bd70001e51bfe","E1","batch5","","-1","tol_feedback","","","true","","1000","1000","500","","","","","","-1","none","true","7273","14099","","","","","","","","","",""
"","","","","","html-button-response","129","381970","0.0-2.0-30.0","5bb101078f3bd70001e51bfe","E1","batch5","","1043.2000000001863","tol_trial_num","<div class = centerbox><p class = center-block-text>problem <strong>8</strong> out of 25 problems</p></div>","0","","","","","","","","","","","","","","","","","","","","","","","","",""
"","","","","","single-stim-button","130","387634","0.0-2.0-31.0-0.0","5bb101078f3bd70001e51bfe","E1","batch5","","5663","tol_tohand","","","","tol_peg_3","5663","5663","0","[[0,0,0],[2,3],[0]]","1","[[1,2,0],[3,0],[0]]","7","0","","","","","","4","","","","","","","","",""
"","","","","","single-stim-button","131","388861","0.0-2.0-31.0-1.0","5bb101078f3bd70001e51bfe","E1","batch5","","1225","tol_toboard","","","","tol_peg_1","1225","1225","0","[[1,0,0],[2,3],[0]]","1","[[1,2,0],[3,0],[0]]","7","0","","","","","","4","","","","","","","","",""
"","","","","","single-stim-button","132","391888","0.0-2.0-31.1-0.1","5bb101078f3bd70001e51bfe","E1","batch5","","3027","tol_tohand","","","","tol_peg_2","3027","3027","0","[[1,0,0],[2,0],[0]]","2","[[1,2,0],[3,0],[0]]","7","0","","","","","","4","","","","","","","","",""
"","","","","","single-stim-button","133","392850","0.0-2.0-31.1-1.1","5bb101078f3bd70001e51bfe","E1","batch5","","961","tol_toboard","","","","tol_peg_3","961","961","0","[[1,0,0],[2,0],[3]]","2","[[1,2,0],[3,0],[0]]","7","0","","","","","","4","","","","","","","","",""
"","","","","","single-stim-button","134","393634","0.0-2.0-31.2-0.2","5bb101078f3bd70001e51bfe","E1","batch5","","783","tol_tohand","","","","tol_peg_2","783","783","0","[[1,0,0],[0,0],[3]]","3","[[1,2,0],[3,0],[0]]","7","0","","","","","","4","","","","","","","","",""
"","","","","","single-stim-button","135","394452","0.0-2.0-31.2-1.2","5bb101078f3bd70001e51bfe","E1","batch5","","817","tol_toboard","","","","tol_peg_1","817","817","0","[[1,2,0],[0,0],[3]]","3","[[1,2,0],[3,0],[0]]","7","0","","","","","","4","","","","","","","","",""
"","","","","","single-stim-button","136","395543","0.0-2.0-31.3-0.3","5bb101078f3bd70001e51bfe","E1","batch5","","1089","tol_tohand","","","","tol_peg_3","1089","1089","0","[[1,2,0],[0,0],[0]]","4","[[1,2,0],[3,0],[0]]","7","0","","","","","","4","","","","","","","","",""
"","","","","","single-stim-button","137","396391","0.0-2.0-31.3-1.3","5bb101078f3bd70001e51bfe","E1","batch5","","847","tol_toboard","","","","tol_peg_2","847","847","0","[[1,2,0],[3,0],[0]]","4","[[1,2,0],[3,0],[0]]","7","0","","","","","","4","","","","","","","","",""
"","","","","","poldrack-single-stim","138","397399","0.0-2.0-32.0","5bb101078f3bd70001e51bfe","E1","batch5","","-1","tol_feedback","","","true","","1000","1000","500","","","","","","-1","none","true","5663","10562","","","","","","","","","",""
"","","","","","html-button-response","139","398746","0.0-2.0-33.0","5bb101078f3bd70001e51bfe","E1","batch5","","1346.2000000001863","tol_trial_num","<div class = centerbox><p class = center-block-text>problem <strong>9</strong> out of 25 problems</p></div>","0","","","","","","","","","","","","","","","","","","","","","","","","",""
"","","","","","single-stim-button","140","407393","0.0-2.0-34.0-0.0","5bb101078f3bd70001e51bfe","E1","batch5","","8645","tol_tohand","","","","tol_peg_1","8645","8645","0","[[3,0,0],[0,0],[1]]","1","[[2,1,0],[3,0],[0]]","8","0","","","","","","6","","","","","","","","",""
"","","","","","single-stim-button","141","408627","0.0-2.0-34.0-1.0","5bb101078f3bd70001e51bfe","E1","batch5","","1234","tol_toboard","","","","tol_peg_2","1234","1234","0","[[3,0,0],[2,0],[1]]","1","[[2,1,0],[3,0],[0]]","8","0","","","","","","6","","","","","","","","",""
"","","","","","single-stim-button","142","415927","0.0-2.0-34.1-0.1","5bb101078f3bd70001e51bfe","E1","batch5","","7299","tol_tohand","","","","tol_peg_3","7299","7299","0","[[3,0,0],[2,0],[0]]","2","[[2,1,0],[3,0],[0]]","8","0","","","","","","6","","","","","","","","",""
"","","","","","single-stim-button","143","417672","0.0-2.0-34.1-1.1","5bb101078f3bd70001e51bfe","E1","batch5","","1745","tol_toboard","","","","tol_peg_2","1745","1745","0","[[3,0,0],[2,1],[0]]","2","[[2,1,0],[3,0],[0]]","8","0","","","","","","6","","","","","","","","",""
"","","","","","single-stim-button","144","418890","0.0-2.0-34.2-0.2","5bb101078f3bd70001e51bfe","E1","batch5","","1217","tol_tohand","","","","tol_peg_1","1217","1217","0","[[0,0,0],[2,1],[0]]","3","[[2,1,0],[3,0],[0]]","8","0","","","","","","6","","","","","","","","",""
"","","","","","single-stim-button","145","419885","0.0-2.0-34.2-1.2","5bb101078f3bd70001e51bfe","E1","batch5","","994","tol_toboard","","","","tol_peg_3","994","994","0","[[0,0,0],[2,1],[3]]","3","[[2,1,0],[3,0],[0]]","8","0","","","","","","6","","","","","","","","",""
"","","","","","single-stim-button","146","422776","0.0-2.0-34.3-0.3","5bb101078f3bd70001e51bfe","E1","batch5","","2891","tol_tohand","","","","tol_peg_2","2891","2891","0","[[0,0,0],[2,0],[3]]","4","[[2,1,0],[3,0],[0]]","8","0","","","","","","6","","","","","","","","",""
"","","","","","single-stim-button","147","423850","0.0-2.0-34.3-1.3","5bb101078f3bd70001e51bfe","E1","batch5","","1073","tol_toboard","","","","tol_peg_1","1073","1073","0","[[1,0,0],[2,0],[3]]","4","[[2,1,0],[3,0],[0]]","8","0","","","","","","6","","","","","","","","",""
"","","","","","single-stim-button","148","432801","0.0-2.0-34.4-0.4","5bb101078f3bd70001e51bfe","E1","batch5","","8950","tol_tohand","","","","tol_peg_3","8950","8950","0","[[1,0,0],[2,0],[0]]","5","[[2,1,0],[3,0],[0]]","8","0","","","","","","6","","","","","","","","",""
"","","","","","single-stim-button","149","433683","0.0-2.0-34.4-1.4","5bb101078f3bd70001e51bfe","E1","batch5","","881","tol_toboard","","","","tol_peg_1","881","881","0","[[1,3,0],[2,0],[0]]","5","[[2,1,0],[3,0],[0]]","8","0","","","","","","6","","","","","","","","",""
"","","","","","single-stim-button","150","434499","0.0-2.0-34.5-0.5","5bb101078f3bd70001e51bfe","E1","batch5","","816","tol_tohand","","","","tol_peg_2","816","816","0","[[1,3,0],[0,0],[0]]","6","[[2,1,0],[3,0],[0]]","8","0","","","","","","6","","","","","","","","",""
"","","","","","single-stim-button","151","435557","0.0-2.0-34.5-1.5","5bb101078f3bd70001e51bfe","E1","batch5","","1058","tol_toboard","","","","tol_peg_3","1058","1058","0","[[1,3,0],[0,0],[2]]","6","[[2,1,0],[3,0],[0]]","8","0","","","","","","6","","","","","","","","",""
"","","","","","single-stim-button","152","437705","0.0-2.0-34.6-0.6","5bb101078f3bd70001e51bfe","E1","batch5","","2148","tol_tohand","","","","tol_peg_1","2148","2148","0","[[1,0,0],[0,0],[2]]","7","[[2,1,0],[3,0],[0]]","8","0","","","","","","6","","","","","","","","",""
"","","","","","single-stim-button","153","438473","0.0-2.0-34.6-1.6","5bb101078f3bd70001e51bfe","E1","batch5","","768","tol_toboard","","","","tol_peg_2","768","768","0","[[1,0,0],[3,0],[2]]","7","[[2,1,0],[3,0],[0]]","8","0","","","","","","6","","","","","","","","",""
"","","","","","single-stim-button","154","440781","0.0-2.0-34.7-0.7","5bb101078f3bd70001e51bfe","E1","batch5","","2308","tol_tohand","","","","tol_peg_1","2308","2308","0","[[0,0,0],[3,0],[2]]","8","[[2,1,0],[3,0],[0]]","8","0","","","","","","6","","","","","","","","",""
"","","","","","single-stim-button","155","441615","0.0-2.0-34.7-1.7","5bb101078f3bd70001e51bfe","E1","batch5","","834","tol_toboard","","","","tol_peg_2","834","834","0","[[0,0,0],[3,1],[2]]","8","[[2,1,0],[3,0],[0]]","8","0","","","","","","6","","","","","","","","",""
"","","","","","single-stim-button","156","442479","0.0-2.0-34.8-0.8","5bb101078f3bd70001e51bfe","E1","batch5","","864","tol_tohand","","","","tol_peg_3","864","864","0","[[0,0,0],[3,1],[0]]","9","[[2,1,0],[3,0],[0]]","8","0","","","","","","6","","","","","","","","",""
"","","","","","single-stim-button","157","443297","0.0-2.0-34.8-1.8","5bb101078f3bd70001e51bfe","E1","batch5","","818","tol_toboard","","","","tol_peg_1","818","818","0","[[2,0,0],[3,1],[0]]","9","[[2,1,0],[3,0],[0]]","8","0","","","","","","6","","","","","","","","",""
"","","","","","single-stim-button","158","443825","0.0-2.0-34.9-0.9","5bb101078f3bd70001e51bfe","E1","batch5","","528","tol_tohand","","","","tol_peg_2","528","528","0","[[2,0,0],[3,0],[0]]","10","[[2,1,0],[3,0],[0]]","8","0","","","","","","6","","","","","","","","",""
"","","","","","single-stim-button","159","445099","0.0-2.0-34.9-1.9","5bb101078f3bd70001e51bfe","E1","batch5","","1273","tol_toboard","","","","tol_peg_1","1273","1273","0","[[2,1,0],[3,0],[0]]","10","[[2,1,0],[3,0],[0]]","8","0","","","","","","6","","","","","","","","",""
"","","","","","poldrack-single-stim","160","446113","0.0-2.0-35.0","5bb101078f3bd70001e51bfe","E1","batch5","","-1","tol_feedback","","","true","","1000","1000","500","","","","","","-1","none","true","8645","35666","","","","","","","","","",""
"","","","","","html-button-response","161","447271","0.0-2.0-36.0","5bb101078f3bd70001e51bfe","E1","batch5","","1156.3000000002794","tol_trial_num","<div class = centerbox><p class = center-block-text>problem <strong>10</strong> out of 25 problems</p></div>","0","","","","","","","","","","","","","","","","","","","","","","","","",""
"","","","","","single-stim-button","162","453953","0.0-2.0-37.0-0.0","5bb101078f3bd70001e51bfe","E1","batch5","","6682","tol_tohand","","","","tol_peg_2","6682","6682","0","[[3,0,0],[0,0],[2]]","1","[[3,0,0],[2,1],[0]]","9","0","","","","","","3","","","","","","","","",""
"","","","","","single-stim-button","163","454897","0.0-2.0-37.0-1.0","5bb101078f3bd70001e51bfe","E1","batch5","","944","tol_toboard","","","","tol_peg_1","944","944","0","[[3,1,0],[0,0],[2]]","1","[[3,0,0],[2,1],[0]]","9","0","","","","","","3","","","","","","","","",""
"","","","","","single-stim-button","164","455667","0.0-2.0-37.1-0.1","5bb101078f3bd70001e51bfe","E1","batch5","","770","tol_tohand","","","","tol_peg_3","770","770","0","[[3,1,0],[0,0],[0]]","2","[[3,0,0],[2,1],[0]]","9","0","","","","","","3","","","","","","","","",""
"","","","","","single-stim-button","165","456499","0.0-2.0-37.1-1.1","5bb101078f3bd70001e51bfe","E1","batch5","","832","tol_toboard","","","","tol_peg_2","832","832","0","[[3,1,0],[2,0],[0]]","2","[[3,0,0],[2,1],[0]]","9","0","","","","","","3","","","","","","","","",""
"","","","","","single-stim-button","166","457365","0.0-2.0-37.2-0.2","5bb101078f3bd70001e51bfe","E1","batch5","","866","tol_tohand","","","","tol_peg_1","866","866","0","[[3,0,0],[2,0],[0]]","3","[[3,0,0],[2,1],[0]]","9","0","","","","","","3","","","","","","","","",""
"","","","","","single-stim-button","167","457957","0.0-2.0-37.2-1.2","5bb101078f3bd70001e51bfe","E1","batch5","","592","tol_toboard","","","","tol_peg_2","592","592","0","[[3,0,0],[2,1],[0]]","3","[[3,0,0],[2,1],[0]]","9","0","","","","","","3","","","","","","","","",""
"","","","","","poldrack-single-stim","168","458963","0.0-2.0-38.0","5bb101078f3bd70001e51bfe","E1","batch5","","-1","tol_feedback","","","true","","1000","1000","500","","","","","","-1","none","true","6682","8318","","","","","","","","","",""
"","","","","","html-button-response","169","459961","0.0-2.0-39.0","5bb101078f3bd70001e51bfe","E1","batch5","","997.1000000000931","tol_trial_num","<div class = centerbox><p class = center-block-text>problem <strong>11</strong> out of 25 problems</p></div>","0","","","","","","","","","","","","","","","","","","","","","","","","",""
"","","","","","single-stim-button","170","467187","0.0-2.0-40.0-0.0","5bb101078f3bd70001e51bfe","E1","batch5","","7226","tol_tohand","","","","tol_peg_1","7226","7226","0","[[1,0,0],[3,0],[0]]","1","[[2,0,0],[1,3],[0]]","10","0","","","","","","6","","","","","","","","",""
"","","","","","single-stim-button","171","467941","0.0-2.0-40.0-1.0","5bb101078f3bd70001e51bfe","E1","batch5","","754","tol_toboard","","","","tol_peg_2","754","754","0","[[1,0,0],[3,2],[0]]","1","[[2,0,0],[1,3],[0]]","10","0","","","","","","6","","","","","","","","",""
"","","","","","single-stim-button","172","468711","0.0-2.0-40.1-0.1","5bb101078f3bd70001e51bfe","E1","batch5","","770","tol_tohand","","","","tol_peg_1","770","770","0","[[0,0,0],[3,2],[0]]","2","[[2,0,0],[1,3],[0]]","10","0","","","","","","6","","","","","","","","",""
"","","","","","single-stim-button","173","469815","0.0-2.0-40.1-1.1","5bb101078f3bd70001e51bfe","E1","batch5","","1104","tol_toboard","","","","tol_peg_3","1104","1104","0","[[0,0,0],[3,2],[1]]","2","[[2,0,0],[1,3],[0]]","10","0","","","","","","6","","","","","","","","",""
"","","","","","single-stim-button","174","470745","0.0-2.0-40.2-0.2","5bb101078f3bd70001e51bfe","E1","batch5","","930","tol_tohand","","","","tol_peg_2","930","930","0","[[0,0,0],[3,0],[1]]","3","[[2,0,0],[1,3],[0]]","10","0","","","","","","6","","","","","","","","",""
"","","","","","single-stim-button","175","471627","0.0-2.0-40.2-1.2","5bb101078f3bd70001e51bfe","E1","batch5","","882","tol_toboard","","","","tol_peg_1","882","882","0","[[2,0,0],[3,0],[1]]","3","[[2,0,0],[1,3],[0]]","10","0","","","","","","6","","","","","","","","",""
"","","","","","single-stim-button","176","476625","0.0-2.0-40.3-0.3","5bb101078f3bd70001e51bfe","E1","batch5","","4998","tol_tohand","","","","tol_peg_2","4998","4998","0","[[2,0,0],[0,0],[1]]","4","[[2,0,0],[1,3],[0]]","10","0","","","","","","6","","","","","","","","",""
"","","","","","single-stim-button","177","477707","0.0-2.0-40.3-1.3","5bb101078f3bd70001e51bfe","E1","batch5","","1082","tol_toboard","","","","tol_peg_1","1082","1082","0","[[2,3,0],[0,0],[1]]","4","[[2,0,0],[1,3],[0]]","10","0","","","","","","6","","","","","","","","",""
"","","","","","single-stim-button","178","478785","0.0-2.0-40.4-0.4","5bb101078f3bd70001e51bfe","E1","batch5","","1078","tol_tohand","","","","tol_peg_3","1078","1078","0","[[2,3,0],[0,0],[0]]","5","[[2,0,0],[1,3],[0]]","10","0","","","","","","6","","","","","","","","",""
"","","","","","single-stim-button","179","479309","0.0-2.0-40.4-1.4","5bb101078f3bd70001e51bfe","E1","batch5","","524","tol_toboard","","","","tol_peg_2","524","524","0","[[2,3,0],[1,0],[0]]","5","[[2,0,0],[1,3],[0]]","10","0","","","","","","6","","","","","","","","",""
"","","","","","single-stim-button","180","481439","0.0-2.0-40.5-0.5","5bb101078f3bd70001e51bfe","E1","batch5","","2130","tol_tohand","","","","tol_peg_1","2130","2130","0","[[2,0,0],[1,0],[0]]","6","[[2,0,0],[1,3],[0]]","10","0","","","","","","6","","","","","","","","",""
"","","","","","single-stim-button","181","482065","0.0-2.0-40.5-1.5","5bb101078f3bd70001e51bfe","E1","batch5","","626","tol_toboard","","","","tol_peg_2","626","626","0","[[2,0,0],[1,3],[0]]","6","[[2,0,0],[1,3],[0]]","10","0","","","","","","6","","","","","","","","",""
"","","","","","poldrack-single-stim","182","483081","0.0-2.0-41.0","5bb101078f3bd70001e51bfe","E1","batch5","","-1","tol_feedback","","","true","","1000","1000","500","","","","","","-1","none","true","7226","17132","","","","","","","","","",""
"","","","","","html-button-response","183","484027","0.0-2.0-42.0","5bb101078f3bd70001e51bfe","E1","batch5","","944.5","tol_trial_num","<div class = centerbox><p class = center-block-text>problem <strong>12</strong> out of 25 problems</p></div>","0","","","","","","","","","","","","","","","","","","","","","","","","",""
"","","","","","single-stim-button","184","491633","0.0-2.0-43.0-0.0","5bb101078f3bd70001e51bfe","E1","batch5","","7606","tol_tohand","","","","tol_peg_1","7606","7606","0","[[1,0,0],[3,0],[0]]","1","[[2,3,0],[0,0],[1]]","11","0","","","","","","4","","","","","","","","",""
"","","","","","single-stim-button","185","492420","0.0-2.0-43.0-1.0","5bb101078f3bd70001e51bfe","E1","batch5","","787","tol_toboard","","","","tol_peg_2","787","787","0","[[1,0,0],[3,2],[0]]","1","[[2,3,0],[0,0],[1]]","11","0","","","","","","4","","","","","","","","",""
"","","","","","single-stim-button","186","493171","0.0-2.0-43.1-0.1","5bb101078f3bd70001e51bfe","E1","batch5","","750","tol_tohand","","","","tol_peg_1","750","750","0","[[0,0,0],[3,2],[0]]","2","[[2,3,0],[0,0],[1]]","11","0","","","","","","4","","","","","","","","",""
"","","","","","single-stim-button","187","494461","0.0-2.0-43.1-1.1","5bb101078f3bd70001e51bfe","E1","batch5","","1289","tol_toboard","","","","tol_peg_3","1289","1289","0","[[0,0,0],[3,2],[1]]","2","[[2,3,0],[0,0],[1]]","11","0","","","","","","4","","","","","","","","",""
"","","","","","single-stim-button","188","495068","0.0-2.0-43.2-0.2","5bb101078f3bd70001e51bfe","E1","batch5","","607","tol_tohand","","","","tol_peg_2","607","607","0","[[0,0,0],[3,0],[1]]","3","[[2,3,0],[0,0],[1]]","11","0","","","","","","4","","","","","","","","",""
"","","","","","single-stim-button","189","495598","0.0-2.0-43.2-1.2","5bb101078f3bd70001e51bfe","E1","batch5","","529","tol_toboard","","","","tol_peg_1","529","529","0","[[2,0,0],[3,0],[1]]","3","[[2,3,0],[0,0],[1]]","11","0","","","","","","4","","","","","","","","",""
"","","","","","single-stim-button","190","496030","0.0-2.0-43.3-0.3","5bb101078f3bd70001e51bfe","E1","batch5","","431","tol_tohand","","","","tol_peg_2","431","431","0","[[2,0,0],[0,0],[1]]","4","[[2,3,0],[0,0],[1]]","11","0","","","","","","4","","","","","","","","",""
"","","","","","single-stim-button","191","496750","0.0-2.0-43.3-1.3","5bb101078f3bd70001e51bfe","E1","batch5","","719","tol_toboard","","","","tol_peg_1","719","719","0","[[2,3,0],[0,0],[1]]","4","[[2,3,0],[0,0],[1]]","11","0","","","","","","4","","","","","","","","",""
"","","","","","poldrack-single-stim","192","497761","0.0-2.0-44.0","5bb101078f3bd70001e51bfe","E1","batch5","","-1","tol_feedback","","","true","","1000","1000","500","","","","","","-1","none","true","7606","9394","","","","","","","","","",""
"","","","","","html-button-response","193","498546","0.0-2.0-45.0","5bb101078f3bd70001e51bfe","E1","batch5","","783.6000000000931","tol_trial_num","<div class = centerbox><p class = center-block-text>problem <strong>13</strong> out of 25 problems</p></div>","0","","","","","","","","","","","","","","","","","","","","","","","","",""
"","","","","","single-stim-button","194","503674","0.0-2.0-46.0-0.0","5bb101078f3bd70001e51bfe","E1","batch5","","5128","tol_tohand","","","","tol_peg_1","5128","5128","0","[[1,0,0],[3,0],[0]]","1","[[0,0,0],[2,3],[1]]","12","0","","","","","","4","","","","","","","","",""
"","","","","","single-stim-button","195","504442","0.0-2.0-46.0-1.0","5bb101078f3bd70001e51bfe","E1","batch5","","767","tol_toboard","","","","tol_peg_2","767","767","0","[[1,0,0],[3,2],[0]]","1","[[0,0,0],[2,3],[1]]","12","0","","","","","","4","","","","","","","","",""
"","","","","","single-stim-button","196","505292","0.0-2.0-46.1-0.1","5bb101078f3bd70001e51bfe","E1","batch5","","849","tol_tohand","","","","tol_peg_1","849","849","0","[[0,0,0],[3,2],[0]]","2","[[0,0,0],[2,3],[1]]","12","0","","","","","","4","","","","","","","","",""
"","","","","","single-stim-button","197","506350","0.0-2.0-46.1-1.1","5bb101078f3bd70001e51bfe","E1","batch5","","1057","tol_toboard","","","","tol_peg_3","1057","1057","0","[[0,0,0],[3,2],[1]]","2","[[0,0,0],[2,3],[1]]","12","0","","","","","","4","","","","","","","","",""
"","","","","","single-stim-button","198","507134","0.0-2.0-46.2-0.2","5bb101078f3bd70001e51bfe","E1","batch5","","783","tol_tohand","","","","tol_peg_2","783","783","0","[[0,0,0],[3,0],[1]]","3","[[0,0,0],[2,3],[1]]","12","0","","","","","","4","","","","","","","","",""
"","","","","","single-stim-button","199","507857","0.0-2.0-46.2-1.2","5bb101078f3bd70001e51bfe","E1","batch5","","722","tol_toboard","","","","tol_peg_1","722","722","0","[[2,0,0],[3,0],[1]]","3","[[0,0,0],[2,3],[1]]","12","0","","","","","","4","","","","","","","","",""
"","","","","","single-stim-button","200","508320","0.0-2.0-46.3-0.3","5bb101078f3bd70001e51bfe","E1","batch5","","463","tol_tohand","","","","tol_peg_2","463","463","0","[[2,0,0],[0,0],[1]]","4","[[0,0,0],[2,3],[1]]","12","0","","","","","","4","","","","","","","","",""
"","","","","","single-stim-button","201","508800","0.0-2.0-46.3-1.3","5bb101078f3bd70001e51bfe","E1","batch5","","479","tol_toboard","","","","tol_peg_1","479","479","0","[[2,3,0],[0,0],[1]]","4","[[0,0,0],[2,3],[1]]","12","0","","","","","","4","","","","","","","","",""
"","","","","","single-stim-button","202","523942","0.0-2.0-46.4-0.4","5bb101078f3bd70001e51bfe","E1","batch5","","15141","tol_tohand","","","","tol_peg_3","15141","15141","0","[[2,3,0],[0,0],[0]]","5","[[0,0,0],[2,3],[1]]","12","0","","","","","","4","","","","","","","","",""
"","","","","","single-stim-button","203","524846","0.0-2.0-46.4-1.4","5bb101078f3bd70001e51bfe","E1","batch5","","903","tol_toboard","","","","tol_peg_2","903","903","0","[[2,3,0],[1,0],[0]]","5","[[0,0,0],[2,3],[1]]","12","0","","","","","","4","","","","","","","","",""
"","","","","","single-stim-button","204","526465","0.0-2.0-46.5-0.5","5bb101078f3bd70001e51bfe","E1","batch5","","1618","tol_tohand","","","","tol_peg_1","1618","1618","0","[[2,0,0],[1,0],[0]]","6","[[0,0,0],[2,3],[1]]","12","0","","","","","","4","","","","","","","","",""
"","","","","","single-stim-button","205","527474","0.0-2.0-46.5-1.5","5bb101078f3bd70001e51bfe","E1","batch5","","1009","tol_toboard","","","","tol_peg_2","1009","1009","0","[[2,0,0],[1,3],[0]]","6","[[0,0,0],[2,3],[1]]","12","0","","","","","","4","","","","","","","","",""
"","","","","","single-stim-button","206","528178","0.0-2.0-46.6-0.6","5bb101078f3bd70001e51bfe","E1","batch5","","703","tol_tohand","","","","tol_peg_1","703","703","0","[[0,0,0],[1,3],[0]]","7","[[0,0,0],[2,3],[1]]","12","0","","","","","","4","","","","","","","","",""
"","","","","","single-stim-button","207","529364","0.0-2.0-46.6-1.6","5bb101078f3bd70001e51bfe","E1","batch5","","1186","tol_toboard","","","","tol_peg_3","1186","1186","0","[[0,0,0],[1,3],[2]]","7","[[0,0,0],[2,3],[1]]","12","0","","","","","","4","","","","","","","","",""
"","","","","","single-stim-button","208","532424","0.0-2.0-46.7-0.7","5bb101078f3bd70001e51bfe","E1","batch5","","3059","tol_tohand","","","","tol_peg_2","3059","3059","0","[[0,0,0],[1,0],[2]]","8","[[0,0,0],[2,3],[1]]","12","0","","","","","","4","","","","","","","","",""
"","","","","","single-stim-button","209","533307","0.0-2.0-46.7-1.7","5bb101078f3bd70001e51bfe","E1","batch5","","881","tol_toboard","","","","tol_peg_1","881","881","0","[[3,0,0],[1,0],[2]]","8","[[0,0,0],[2,3],[1]]","12","0","","","","","","4","","","","","","","","",""
"","","","","","single-stim-button","210","537754","0.0-2.0-46.8-0.8","5bb101078f3bd70001e51bfe","E1","batch5","","4447","tol_tohand","","","","tol_peg_2","4447","4447","0","[[3,0,0],[0,0],[2]]","9","[[0,0,0],[2,3],[1]]","12","0","","","","","","4","","","","","","","","",""
"","","","","","single-stim-button","211","539356","0.0-2.0-46.8-1.8","5bb101078f3bd70001e51bfe","E1","batch5","","1601","tol_toboard","","","","tol_peg_1","1601","1601","0","[[3,1,0],[0,0],[2]]","9","[[0,0,0],[2,3],[1]]","12","0","","","","","","4","","","","","","","","",""
"","","","","","single-stim-button","212","540478","0.0-2.0-46.9-0.9","5bb101078f3bd70001e51bfe","E1","batch5","","1121","tol_tohand","","","","tol_peg_3","1121","1121","0","[[3,1,0],[0,0],[0]]","10","[[0,0,0],[2,3],[1]]","12","0","","","","","","4","","","","","","","","",""
"","","","","","single-stim-button","213","541262","0.0-2.0-46.9-1.9","5bb101078f3bd70001e51bfe","E1","batch5","","784","tol_toboard","","","","tol_peg_2","784","784","0","[[3,1,0],[2,0],[0]]","10","[[0,0,0],[2,3],[1]]","12","0","","","","","","4","","","","","","","","",""
"","","","","","single-stim-button","214","543578","0.0-2.0-46.10-0.10","5bb101078f3bd70001e51bfe","E1","batch5","","2315","tol_tohand","","","","tol_peg_1","2315","2315","0","[[3,0,0],[2,0],[0]]","11","[[0,0,0],[2,3],[1]]","12","0","","","","","","4","","","","","","","","",""
"","","","","","single-stim-button","215","544460","0.0-2.0-46.10-1.10","5bb101078f3bd70001e51bfe","E1","batch5","","881","tol_toboard","","","","tol_peg_3","881","881","0","[[3,0,0],[2,0],[1]]","11","[[0,0,0],[2,3],[1]]","12","0","","","","","","4","","","","","","","","",""
"","","","","","single-stim-button","216","545181","0.0-2.0-46.11-0.11","5bb101078f3bd70001e51bfe","E1","batch5","","719","tol_tohand","","","","tol_peg_1","719","719","0","[[0,0,0],[2,0],[1]]","12","[[0,0,0],[2,3],[1]]","12","0","","","","","","4","","","","","","","","",""
"","","","","","single-stim-button","217","545838","0.0-2.0-46.11-1.11","5bb101078f3bd70001e51bfe","E1","batch5","","657","tol_toboard","","","","tol_peg_2","657","657","0","[[0,0,0],[2,3],[1]]","12","[[0,0,0],[2,3],[1]]","12","0","","","","","","4","","","","","","","","",""
"","","","","","poldrack-single-stim","218","546840","0.0-2.0-47.0","5bb101078f3bd70001e51bfe","E1","batch5","","-1","tol_feedback","","","true","","1000","1000","500","","","","","","-1","none","true","5128","36346","","","","","","","","","",""
"","","","","","html-button-response","219","550688","0.0-2.0-48.0","5bb101078f3bd70001e51bfe","E1","batch5","","3847.3000000002794","attention_check","<p class = block-text>How many balls are in your board<br></p>","1","true","","","","","","","","","","","","","","","","","","","","","","","",""
"","","","","","html-button-response","220","552048","0.0-2.0-49.0","5bb101078f3bd70001e51bfe","E1","batch5","","1359.2000000001863","tol_trial_num","<div class = centerbox><p class = center-block-text>problem <strong>14</strong> out of 25 problems</p></div>","0","","","","","","","","","","","","","","","","","","","","","","","","",""
"","","","","","single-stim-button","221","559940","0.0-2.0-50.0-0.0","5bb101078f3bd70001e51bfe","E1","batch5","","7892","tol_tohand","","","","tol_peg_1","7892","7892","0","[[2,0,0],[3,0],[0]]","1","[[1,2,0],[3,0],[0]]","13","0","","","","","","4","","","","","","","","",""
"","","","","","single-stim-button","222","560934","0.0-2.0-50.0-1.0","5bb101078f3bd70001e51bfe","E1","batch5","","994","tol_toboard","","","","tol_peg_3","994","994","0","[[2,0,0],[3,0],[1]]","1","[[1,2,0],[3,0],[0]]","13","0","","","","","","4","","","","","","","","",""
"","","","","","single-stim-button","223","564370","0.0-2.0-50.1-0.1","5bb101078f3bd70001e51bfe","E1","batch5","","3436","tol_tohand","","","","tol_peg_1","3436","3436","0","[[0,0,0],[3,0],[1]]","2","[[1,2,0],[3,0],[0]]","13","0","","","","","","4","","","","","","","","",""
"","","","","","single-stim-button","224","567482","0.0-2.0-50.1-1.1","5bb101078f3bd70001e51bfe","E1","batch5","","3112","tol_toboard","","","","tol_peg_2","3112","3112","0","[[0,0,0],[3,2],[1]]","2","[[1,2,0],[3,0],[0]]","13","0","","","","","","4","","","","","","","","",""
"","","","","","single-stim-button","225","567514","0.0-2.0-50.2-0.2","5bb101078f3bd70001e51bfe","E1","batch5","","31","tol_tohand","","","","tol_peg_2","31","31","0","[[0,0,0],[3,0],[1]]","3","[[1,2,0],[3,0],[0]]","13","0","","","","","","4","","","","","","","","",""
"","","","","","single-stim-button","226","568652","0.0-2.0-50.2-1.2","5bb101078f3bd70001e51bfe","E1","batch5","","1138","tol_toboard","","","","tol_peg_2","1138","1138","0","[[0,0,0],[3,2],[1]]","3","[[1,2,0],[3,0],[0]]","13","0","","","","","","4","","","","","","","","",""
"","","","","","single-stim-button","227","569854","0.0-2.0-50.3-0.3","5bb101078f3bd70001e51bfe","E1","batch5","","1202","tol_tohand","","","","tol_peg_3","1202","1202","0","[[0,0,0],[3,2],[0]]","4","[[1,2,0],[3,0],[0]]","13","0","","","","","","4","","","","","","","","",""
"","","","","","single-stim-button","228","570640","0.0-2.0-50.3-1.3","5bb101078f3bd70001e51bfe","E1","batch5","","786","tol_toboard","","","","tol_peg_1","786","786","0","[[1,0,0],[3,2],[0]]","4","[[1,2,0],[3,0],[0]]","13","0","","","","","","4","","","","","","","","",""
"","","","","","single-stim-button","229","571136","0.0-2.0-50.4-0.4","5bb101078f3bd70001e51bfe","E1","batch5","","496","tol_tohand","","","","tol_peg_2","496","496","0","[[1,0,0],[3,0],[0]]","5","[[1,2,0],[3,0],[0]]","13","0","","","","","","4","","","","","","","","",""
"","","","","","single-stim-button","230","571648","0.0-2.0-50.4-1.4","5bb101078f3bd70001e51bfe","E1","batch5","","512","tol_toboard","","","","tol_peg_1","512","512","0","[[1,2,0],[3,0],[0]]","5","[[1,2,0],[3,0],[0]]","13","0","","","","","","4","","","","","","","","",""
"","","","","","poldrack-single-stim","231","572656","0.0-2.0-51.0","5bb101078f3bd70001e51bfe","E1","batch5","","-1","tol_feedback","","","true","","1000","1000","500","","","","","","-1","none","true","7892","13057","","","","","","","","","",""
"","","","","","html-button-response","232","573522","0.0-2.0-52.0","5bb101078f3bd70001e51bfe","E1","batch5","","865.5","tol_trial_num","<div class = centerbox><p class = center-block-text>problem <strong>15</strong> out of 25 problems</p></div>","0","","","","","","","","","","","","","","","","","","","","","","","","",""
"","","","","","single-stim-button","233","578330","0.0-2.0-53.0-0.0","5bb101078f3bd70001e51bfe","E1","batch5","","4808","tol_tohand","","","","tol_peg_1","4808","4808","0","[[1,0,0],[3,0],[0]]","1","[[2,0,0],[3,0],[1]]","14","0","","","","","","3","","","","","","","","",""
"","","","","","single-stim-button","234","579244","0.0-2.0-53.0-1.0","5bb101078f3bd70001e51bfe","E1","batch5","","914","tol_toboard","","","","tol_peg_2","914","914","0","[[1,0,0],[3,2],[0]]","1","[[2,0,0],[3,0],[1]]","14","0","","","","","","3","","","","","","","","",""
"","","","","","single-stim-button","235","579982","0.0-2.0-53.1-0.1","5bb101078f3bd70001e51bfe","E1","batch5","","738","tol_tohand","","","","tol_peg_1","738","738","0","[[0,0,0],[3,2],[0]]","2","[[2,0,0],[3,0],[1]]","14","0","","","","","","3","","","","","","","","",""
"","","","","","single-stim-button","236","580782","0.0-2.0-53.1-1.1","5bb101078f3bd70001e51bfe","E1","batch5","","800","tol_toboard","","","","tol_peg_3","800","800","0","[[0,0,0],[3,2],[1]]","2","[[2,0,0],[3,0],[1]]","14","0","","","","","","3","","","","","","","","",""
"","","","","","single-stim-button","237","581342","0.0-2.0-53.2-0.2","5bb101078f3bd70001e51bfe","E1","batch5","","560","tol_tohand","","","","tol_peg_2","560","560","0","[[0,0,0],[3,0],[1]]","3","[[2,0,0],[3,0],[1]]","14","0","","","","","","3","","","","","","","","",""
"","","","","","single-stim-button","238","582176","0.0-2.0-53.2-1.2","5bb101078f3bd70001e51bfe","E1","batch5","","834","tol_toboard","","","","tol_peg_1","834","834","0","[[2,0,0],[3,0],[1]]","3","[[2,0,0],[3,0],[1]]","14","0","","","","","","3","","","","","","","","",""
"","","","","","poldrack-single-stim","239","583177","0.0-2.0-54.0","5bb101078f3bd70001e51bfe","E1","batch5","","-1","tol_feedback","","","true","","1000","1000","500","","","","","","-1","none","true","4808","6106","","","","","","","","","",""
"","","","","","html-button-response","240","583802","0.0-2.0-55.0","5bb101078f3bd70001e51bfe","E1","batch5","","624.3000000002794","tol_trial_num","<div class = centerbox><p class = center-block-text>problem <strong>16</strong> out of 25 problems</p></div>","0","","","","","","","","","","","","","","","","","","","","","","","","",""
"","","","","","single-stim-button","241","592106","0.0-2.0-56.0-0.0","5bb101078f3bd70001e51bfe","E1","batch5","","8304","tol_tohand","","","","tol_peg_3","8304","8304","0","[[0,0,0],[2,3],[0]]","1","[[2,3,0],[1,0],[0]]","15","0","","","","","","7","","","","","","","","",""
"","","","","","single-stim-button","242","593020","0.0-2.0-56.0-1.0","5bb101078f3bd70001e51bfe","E1","batch5","","913","tol_toboard","","","","tol_peg_1","913","913","0","[[1,0,0],[2,3],[0]]","1","[[2,3,0],[1,0],[0]]","15","0","","","","","","7","","","","","","","","",""
"","","","","","single-stim-button","243","593788","0.0-2.0-56.1-0.1","5bb101078f3bd70001e51bfe","E1","batch5","","768","tol_tohand","","","","tol_peg_2","768","768","0","[[1,0,0],[2,0],[0]]","2","[[2,3,0],[1,0],[0]]","15","0","","","","","","7","","","","","","","","",""
"","","","","","single-stim-button","244","595014","0.0-2.0-56.1-1.1","5bb101078f3bd70001e51bfe","E1","batch5","","1226","tol_toboard","","","","tol_peg_3","1226","1226","0","[[1,0,0],[2,0],[3]]","2","[[2,3,0],[1,0],[0]]","15","0","","","","","","7","","","","","","","","",""
"","","","","","single-stim-button","245","602148","0.0-2.0-56.2-0.2","5bb101078f3bd70001e51bfe","E1","batch5","","7134","tol_tohand","","","","tol_peg_1","7134","7134","0","[[0,0,0],[2,0],[3]]","3","[[2,3,0],[1,0],[0]]","15","0","","","","","","7","","","","","","","","",""
"","","","","","single-stim-button","246","603092","0.0-2.0-56.2-1.2","5bb101078f3bd70001e51bfe","E1","batch5","","943","tol_toboard","","","","tol_peg_2","943","943","0","[[0,0,0],[2,1],[3]]","3","[[2,3,0],[1,0],[0]]","15","0","","","","","","7","","","","","","","","",""
"","","","","","single-stim-button","247","613850","0.0-2.0-56.3-0.3","5bb101078f3bd70001e51bfe","E1","batch5","","10758","tol_tohand","","","","tol_peg_2","10758","10758","0","[[0,0,0],[2,0],[3]]","4","[[2,3,0],[1,0],[0]]","15","0","","","","","","7","","","","","","","","",""
"","","","","","single-stim-button","248","615599","0.0-2.0-56.3-1.3","5bb101078f3bd70001e51bfe","E1","batch5","","1748","tol_toboard","","","","tol_peg_1","1748","1748","0","[[1,0,0],[2,0],[3]]","4","[[2,3,0],[1,0],[0]]","15","0","","","","","","7","","","","","","","","",""
"","","","","","single-stim-button","249","619581","0.0-2.0-56.4-0.4","5bb101078f3bd70001e51bfe","E1","batch5","","3981","tol_tohand","","","","tol_peg_3","3981","3981","0","[[1,0,0],[2,0],[0]]","5","[[2,3,0],[1,0],[0]]","15","0","","","","","","7","","","","","","","","",""
"","","","","","single-stim-button","250","620527","0.0-2.0-56.4-1.4","5bb101078f3bd70001e51bfe","E1","batch5","","945","tol_toboard","","","","tol_peg_1","945","945","0","[[1,3,0],[2,0],[0]]","5","[[2,3,0],[1,0],[0]]","15","0","","","","","","7","","","","","","","","",""
"","","","","","single-stim-button","251","621471","0.0-2.0-56.5-0.5","5bb101078f3bd70001e51bfe","E1","batch5","","944","tol_tohand","","","","tol_peg_2","944","944","0","[[1,3,0],[0,0],[0]]","6","[[2,3,0],[1,0],[0]]","15","0","","","","","","7","","","","","","","","",""
"","","","","","single-stim-button","252","622497","0.0-2.0-56.5-1.5","5bb101078f3bd70001e51bfe","E1","batch5","","1025","tol_toboard","","","","tol_peg_3","1025","1025","0","[[1,3,0],[0,0],[2]]","6","[[2,3,0],[1,0],[0]]","15","0","","","","","","7","","","","","","","","",""
"","","","","","single-stim-button","253","626311","0.0-2.0-56.6-0.6","5bb101078f3bd70001e51bfe","E1","batch5","","3813","tol_tohand","","","","tol_peg_1","3813","3813","0","[[1,0,0],[0,0],[2]]","7","[[2,3,0],[1,0],[0]]","15","0","","","","","","7","","","","","","","","",""
"","","","","","single-stim-button","254","627095","0.0-2.0-56.6-1.6","5bb101078f3bd70001e51bfe","E1","batch5","","783","tol_toboard","","","","tol_peg_2","783","783","0","[[1,0,0],[3,0],[2]]","7","[[2,3,0],[1,0],[0]]","15","0","","","","","","7","","","","","","","","",""
"","","","","","single-stim-button","255","627801","0.0-2.0-56.7-0.7","5bb101078f3bd70001e51bfe","E1","batch5","","706","tol_tohand","","","","tol_peg_1","706","706","0","[[0,0,0],[3,0],[2]]","8","[[2,3,0],[1,0],[0]]","15","0","","","","","","7","","","","","","","","",""
"","","","","","single-stim-button","256","628361","0.0-2.0-56.7-1.7","5bb101078f3bd70001e51bfe","E1","batch5","","559","tol_toboard","","","","tol_peg_2","559","559","0","[[0,0,0],[3,1],[2]]","8","[[2,3,0],[1,0],[0]]","15","0","","","","","","7","","","","","","","","",""
"","","","","","single-stim-button","257","629019","0.0-2.0-56.8-0.8","5bb101078f3bd70001e51bfe","E1","batch5","","657","tol_tohand","","","","tol_peg_3","657","657","0","[[0,0,0],[3,1],[0]]","9","[[2,3,0],[1,0],[0]]","15","0","","","","","","7","","","","","","","","",""
"","","","","","single-stim-button","258","629915","0.0-2.0-56.8-1.8","5bb101078f3bd70001e51bfe","E1","batch5","","896","tol_toboard","","","","tol_peg_1","896","896","0","[[2,0,0],[3,1],[0]]","9","[[2,3,0],[1,0],[0]]","15","0","","","","","","7","","","","","","","","",""
"","","","","","single-stim-button","259","631477","0.0-2.0-56.9-0.9","5bb101078f3bd70001e51bfe","E1","batch5","","1562","tol_tohand","","","","tol_peg_2","1562","1562","0","[[2,0,0],[3,0],[0]]","10","[[2,3,0],[1,0],[0]]","15","0","","","","","","7","","","","","","","","",""
"","","","","","single-stim-button","260","632230","0.0-2.0-56.9-1.9","5bb101078f3bd70001e51bfe","E1","batch5","","753","tol_toboard","","","","tol_peg_3","753","753","0","[[2,0,0],[3,0],[1]]","10","[[2,3,0],[1,0],[0]]","15","0","","","","","","7","","","","","","","","",""
"","","","","","single-stim-button","261","633110","0.0-2.0-56.10-0.10","5bb101078f3bd70001e51bfe","E1","batch5","","879","tol_tohand","","","","tol_peg_2","879","879","0","[[2,0,0],[0,0],[1]]","11","[[2,3,0],[1,0],[0]]","15","0","","","","","","7","","","","","","","","",""
"","","","","","single-stim-button","262","634136","0.0-2.0-56.10-1.10","5bb101078f3bd70001e51bfe","E1","batch5","","1025","tol_toboard","","","","tol_peg_1","1025","1025","0","[[2,3,0],[0,0],[1]]","11","[[2,3,0],[1,0],[0]]","15","0","","","","","","7","","","","","","","","",""
"","","","","","single-stim-button","263","634891","0.0-2.0-56.11-0.11","5bb101078f3bd70001e51bfe","E1","batch5","","754","tol_tohand","","","","tol_peg_3","754","754","0","[[2,3,0],[0,0],[0]]","12","[[2,3,0],[1,0],[0]]","15","0","","","","","","7","","","","","","","","",""
"","","","","","single-stim-button","264","635467","0.0-2.0-56.11-1.11","5bb101078f3bd70001e51bfe","E1","batch5","","575","tol_toboard","","","","tol_peg_2","575","575","0","[[2,3,0],[1,0],[0]]","12","[[2,3,0],[1,0],[0]]","15","0","","","","","","7","","","","","","","","",""
"","","","","","poldrack-single-stim","265","636474","0.0-2.0-57.0","5bb101078f3bd70001e51bfe","E1","batch5","","-1","tol_feedback","","","true","","1000","1000","500","","","","","","-1","none","true","8304","40260","","","","","","","","","",""
"","","","","","html-button-response","266","637564","0.0-2.0-58.0","5bb101078f3bd70001e51bfe","E1","batch5","","1089.6000000000931","tol_trial_num","<div class = centerbox><p class = center-block-text>problem <strong>17</strong> out of 25 problems</p></div>","0","","","","","","","","","","","","","","","","","","","","","","","","",""
"","","","","","single-stim-button","267","644197","0.0-2.0-59.0-0.0","5bb101078f3bd70001e51bfe","E1","batch5","","6631","tol_tohand","","","","tol_peg_1","6631","6631","0","[[1,0,0],[3,0],[0]]","1","[[3,1,0],[2,0],[0]]","16","0","","","","","","5","","","","","","","","",""
"","","","","","single-stim-button","268","645025","0.0-2.0-59.0-1.0","5bb101078f3bd70001e51bfe","E1","batch5","","827","tol_toboard","","","","tol_peg_3","827","827","0","[[1,0,0],[3,0],[2]]","1","[[3,1,0],[2,0],[0]]","16","0","","","","","","5","","","","","","","","",""
"","","","","","single-stim-button","269","647027","0.0-2.0-59.1-0.1","5bb101078f3bd70001e51bfe","E1","batch5","","2001","tol_tohand","","","","tol_peg_1","2001","2001","0","[[0,0,0],[3,0],[2]]","2","[[3,1,0],[2,0],[0]]","16","0","","","","","","5","","","","","","","","",""
"","","","","","single-stim-button","270","647988","0.0-2.0-59.1-1.1","5bb101078f3bd70001e51bfe","E1","batch5","","961","tol_toboard","","","","tol_peg_2","961","961","0","[[0,0,0],[3,1],[2]]","2","[[3,1,0],[2,0],[0]]","16","0","","","","","","5","","","","","","","","",""
"","","","","","single-stim-button","271","653692","0.0-2.0-59.2-0.2","5bb101078f3bd70001e51bfe","E1","batch5","","5703","tol_tohand","","","","tol_peg_2","5703","5703","0","[[0,0,0],[3,0],[2]]","3","[[3,1,0],[2,0],[0]]","16","0","","","","","","5","","","","","","","","",""
"","","","","","single-stim-button","272","655079","0.0-2.0-59.2-1.2","5bb101078f3bd70001e51bfe","E1","batch5","","1385","tol_toboard","","","","tol_peg_1","1385","1385","0","[[1,0,0],[3,0],[2]]","3","[[3,1,0],[2,0],[0]]","16","0","","","","","","5","","","","","","","","",""
"","","","","","single-stim-button","273","663629","0.0-2.0-59.3-0.3","5bb101078f3bd70001e51bfe","E1","batch5","","8550","tol_tohand","","","","tol_peg_2","8550","8550","0","[[1,0,0],[0,0],[2]]","4","[[3,1,0],[2,0],[0]]","16","0","","","","","","5","","","","","","","","",""
"","","","","","single-stim-button","274","664477","0.0-2.0-59.3-1.3","5bb101078f3bd70001e51bfe","E1","batch5","","848","tol_toboard","","","","tol_peg_1","848","848","0","[[1,3,0],[0,0],[2]]","4","[[3,1,0],[2,0],[0]]","16","0","","","","","","5","","","","","","","","",""
"","","","","","single-stim-button","275","669270","0.0-2.0-59.4-0.4","5bb101078f3bd70001e51bfe","E1","batch5","","4793","tol_tohand","","","","tol_peg_3","4793","4793","0","[[1,3,0],[0,0],[0]]","5","[[3,1,0],[2,0],[0]]","16","0","","","","","","5","","","","","","","","",""
"","","","","","single-stim-button","276","670057","0.0-2.0-59.4-1.4","5bb101078f3bd70001e51bfe","E1","batch5","","785","tol_toboard","","","","tol_peg_2","785","785","0","[[1,3,0],[2,0],[0]]","5","[[3,1,0],[2,0],[0]]","16","0","","","","","","5","","","","","","","","",""
"","","","","","single-stim-button","277","672573","0.0-2.0-59.5-0.5","5bb101078f3bd70001e51bfe","E1","batch5","","2515","tol_tohand","","","","tol_peg_1","2515","2515","0","[[1,0,0],[2,0],[0]]","6","[[3,1,0],[2,0],[0]]","16","0","","","","","","5","","","","","","","","",""
"","","","","","single-stim-button","278","674463","0.0-2.0-59.5-1.5","5bb101078f3bd70001e51bfe","E1","batch5","","1889","tol_toboard","","","","tol_peg_3","1889","1889","0","[[1,0,0],[2,0],[3]]","6","[[3,1,0],[2,0],[0]]","16","0","","","","","","5","","","","","","","","",""
"","","","","","single-stim-button","279","676384","0.0-2.0-59.6-0.6","5bb101078f3bd70001e51bfe","E1","batch5","","1921","tol_tohand","","","","tol_peg_1","1921","1921","0","[[0,0,0],[2,0],[3]]","7","[[3,1,0],[2,0],[0]]","16","0","","","","","","5","","","","","","","","",""
"","","","","","single-stim-button","280","676929","0.0-2.0-59.6-1.6","5bb101078f3bd70001e51bfe","E1","batch5","","543","tol_toboard","","","","tol_peg_2","543","543","0","[[0,0,0],[2,1],[3]]","7","[[3,1,0],[2,0],[0]]","16","0","","","","","","5","","","","","","","","",""
"","","","","","single-stim-button","281","677587","0.0-2.0-59.7-0.7","5bb101078f3bd70001e51bfe","E1","batch5","","658","tol_tohand","","","","tol_peg_3","658","658","0","[[0,0,0],[2,1],[0]]","8","[[3,1,0],[2,0],[0]]","16","0","","","","","","5","","","","","","","","",""
"","","","","","single-stim-button","282","678418","0.0-2.0-59.7-1.7","5bb101078f3bd70001e51bfe","E1","batch5","","831","tol_toboard","","","","tol_peg_1","831","831","0","[[3,0,0],[2,1],[0]]","8","[[3,1,0],[2,0],[0]]","16","0","","","","","","5","","","","","","","","",""
"","","","","","single-stim-button","283","678884","0.0-2.0-59.8-0.8","5bb101078f3bd70001e51bfe","E1","batch5","","465","tol_tohand","","","","tol_peg_2","465","465","0","[[3,0,0],[2,0],[0]]","9","[[3,1,0],[2,0],[0]]","16","0","","","","","","5","","","","","","","","",""
"","","","","","single-stim-button","284","679668","0.0-2.0-59.8-1.8","5bb101078f3bd70001e51bfe","E1","batch5","","783","tol_toboard","","","","tol_peg_1","783","783","0","[[3,1,0],[2,0],[0]]","9","[[3,1,0],[2,0],[0]]","16","0","","","","","","5","","","","","","","","",""
"","","","","","poldrack-single-stim","285","680670","0.0-2.0-60.0","5bb101078f3bd70001e51bfe","E1","batch5","","-1","tol_feedback","","","true","","1000","1000","500","","","","","","-1","none","true","6631","33237","","","","","","","","","",""
"","","","","","html-button-response","286","681720","0.0-2.0-61.0","5bb101078f3bd70001e51bfe","E1","batch5","","1049.6000000000931","tol_trial_num","<div class = centerbox><p class = center-block-text>problem <strong>18</strong> out of 25 problems</p></div>","0","","","","","","","","","","","","","","","","","","","","","","","","",""
"","","","","","single-stim-button","287","707255","0.0-2.0-62.0-0.0","5bb101078f3bd70001e51bfe","E1","batch5","","25533","tol_tohand","","","","tol_peg_1","25533","25533","0","[[1,0,0],[3,0],[0]]","1","[[3,0,0],[2,0],[1]]","17","0","","","","","","5","","","","","","","","",""
"","","","","","single-stim-button","288","708168","0.0-2.0-62.0-1.0","5bb101078f3bd70001e51bfe","E1","batch5","","913","tol_toboard","","","","tol_peg_2","913","913","0","[[1,0,0],[3,2],[0]]","1","[[3,0,0],[2,0],[1]]","17","0","","","","","","5","","","","","","","","",""
"","","","","","single-stim-button","289","709338","0.0-2.0-62.1-0.1","5bb101078f3bd70001e51bfe","E1","batch5","","1169","tol_tohand","","","","tol_peg_1","1169","1169","0","[[0,0,0],[3,2],[0]]","2","[[3,0,0],[2,0],[1]]","17","0","","","","","","5","","","","","","","","",""
"","","","","","single-stim-button","290","710331","0.0-2.0-62.1-1.1","5bb101078f3bd70001e51bfe","E1","batch5","","992","tol_toboard","","","","tol_peg_3","992","992","0","[[0,0,0],[3,2],[1]]","2","[[3,0,0],[2,0],[1]]","17","0","","","","","","5","","","","","","","","",""
"","","","","","single-stim-button","291","714859","0.0-2.0-62.2-0.2","5bb101078f3bd70001e51bfe","E1","batch5","","4527","tol_tohand","","","","tol_peg_2","4527","4527","0","[[0,0,0],[3,0],[1]]","3","[[3,0,0],[2,0],[1]]","17","0","","","","","","5","","","","","","","","",""
"","","","","","single-stim-button","292","716029","0.0-2.0-62.2-1.2","5bb101078f3bd70001e51bfe","E1","batch5","","1170","tol_toboard","","","","tol_peg_1","1170","1170","0","[[2,0,0],[3,0],[1]]","3","[[3,0,0],[2,0],[1]]","17","0","","","","","","5","","","","","","","","",""
"","","","","","single-stim-button","293","719954","0.0-2.0-62.3-0.3","5bb101078f3bd70001e51bfe","E1","batch5","","3925","tol_tohand","","","","tol_peg_3","3925","3925","0","[[2,0,0],[3,0],[0]]","4","[[3,0,0],[2,0],[1]]","17","0","","","","","","5","","","","","","","","",""
"","","","","","single-stim-button","294","720642","0.0-2.0-62.3-1.3","5bb101078f3bd70001e51bfe","E1","batch5","","687","tol_toboard","","","","tol_peg_1","687","687","0","[[2,1,0],[3,0],[0]]","4","[[3,0,0],[2,0],[1]]","17","0","","","","","","5","","","","","","","","",""
"","","","","","single-stim-button","295","721282","0.0-2.0-62.4-0.4","5bb101078f3bd70001e51bfe","E1","batch5","","639","tol_tohand","","","","tol_peg_2","639","639","0","[[2,1,0],[0,0],[0]]","5","[[3,0,0],[2,0],[1]]","17","0","","","","","","5","","","","","","","","",""
"","","","","","single-stim-button","296","722149","0.0-2.0-62.4-1.4","5bb101078f3bd70001e51bfe","E1","batch5","","866","tol_toboard","","","","tol_peg_3","866","866","0","[[2,1,0],[0,0],[3]]","5","[[3,0,0],[2,0],[1]]","17","0","","","","","","5","","","","","","","","",""
"","","","","","single-stim-button","297","723463","0.0-2.0-62.5-0.5","5bb101078f3bd70001e51bfe","E1","batch5","","1312","tol_tohand","","","","tol_peg_1","1312","1312","0","[[2,0,0],[0,0],[3]]","6","[[3,0,0],[2,0],[1]]","17","0","","","","","","5","","","","","","","","",""
"","","","","","single-stim-button","298","726867","0.0-2.0-62.5-1.5","5bb101078f3bd70001e51bfe","E1","batch5","","3404","tol_toboard","","","","tol_peg_2","3404","3404","0","[[2,0,0],[1,0],[3]]","6","[[3,0,0],[2,0],[1]]","17","0","","","","","","5","","","","","","","","",""
"","","","","","single-stim-button","299","730553","0.0-2.0-62.6-0.6","5bb101078f3bd70001e51bfe","E1","batch5","","3684","tol_tohand","","","","tol_peg_1","3684","3684","0","[[0,0,0],[1,0],[3]]","7","[[3,0,0],[2,0],[1]]","17","0","","","","","","5","","","","","","","","",""
"","","","","","single-stim-button","300","731674","0.0-2.0-62.6-1.6","5bb101078f3bd70001e51bfe","E1","batch5","","1121","tol_toboard","","","","tol_peg_2","1121","1121","0","[[0,0,0],[1,2],[3]]","7","[[3,0,0],[2,0],[1]]","17","0","","","","","","5","","","","","","","","",""
"","","","","","single-stim-button","301","732315","0.0-2.0-62.7-0.7","5bb101078f3bd70001e51bfe","E1","batch5","","639","tol_tohand","","","","tol_peg_3","639","639","0","[[0,0,0],[1,2],[0]]","8","[[3,0,0],[2,0],[1]]","17","0","","","","","","5","","","","","","","","",""
"","","","","","single-stim-button","302","733332","0.0-2.0-62.7-1.7","5bb101078f3bd70001e51bfe","E1","batch5","","1017","tol_toboard","","","","tol_peg_1","1017","1017","0","[[3,0,0],[1,2],[0]]","8","[[3,0,0],[2,0],[1]]","17","0","","","","","","5","","","","","","","","",""
"","","","","","single-stim-button","303","735825","0.0-2.0-62.8-0.8","5bb101078f3bd70001e51bfe","E1","batch5","","2491","tol_tohand","","","","tol_peg_2","2491","2491","0","[[3,0,0],[1,0],[0]]","9","[[3,0,0],[2,0],[1]]","17","0","","","","","","5","","","","","","","","",""
"","","","","","single-stim-button","304","739391","0.0-2.0-62.8-1.8","5bb101078f3bd70001e51bfe","E1","batch5","","3565","tol_toboard","","","","tol_peg_3","3565","3565","0","[[3,0,0],[1,0],[2]]","9","[[3,0,0],[2,0],[1]]","17","0","","","","","","5","","","","","","","","",""
"","","","","","single-stim-button","305","748015","0.0-2.0-62.9-0.9","5bb101078f3bd70001e51bfe","E1","batch5","","8623","tol_tohand","","","","tol_peg_2","8623","8623","0","[[3,0,0],[0,0],[2]]","10","[[3,0,0],[2,0],[1]]","17","0","","","","","","5","","","","","","","","",""
"","","","","","single-stim-button","306","749022","0.0-2.0-62.9-1.9","5bb101078f3bd70001e51bfe","E1","batch5","","1007","tol_toboard","","","","tol_peg_1","1007","1007","0","[[3,1,0],[0,0],[2]]","10","[[3,0,0],[2,0],[1]]","17","0","","","","","","5","","","","","","","","",""
"","","","","","single-stim-button","307","749728","0.0-2.0-62.10-0.10","5bb101078f3bd70001e51bfe","E1","batch5","","705","tol_tohand","","","","tol_peg_3","705","705","0","[[3,1,0],[0,0],[0]]","11","[[3,0,0],[2,0],[1]]","17","0","","","","","","5","","","","","","","","",""
"","","","","","single-stim-button","308","750642","0.0-2.0-62.10-1.10","5bb101078f3bd70001e51bfe","E1","batch5","","913","tol_toboard","","","","tol_peg_2","913","913","0","[[3,1,0],[2,0],[0]]","11","[[3,0,0],[2,0],[1]]","17","0","","","","","","5","","","","","","","","",""
"","","","","","single-stim-button","309","751378","0.0-2.0-62.11-0.11","5bb101078f3bd70001e51bfe","E1","batch5","","735","tol_tohand","","","","tol_peg_1","735","735","0","[[3,0,0],[2,0],[0]]","12","[[3,0,0],[2,0],[1]]","17","0","","","","","","5","","","","","","","","",""
"","","","","","single-stim-button","310","752341","0.0-2.0-62.11-1.11","5bb101078f3bd70001e51bfe","E1","batch5","","961","tol_toboard","","","","tol_peg_3","961","961","0","[[3,0,0],[2,0],[1]]","12","[[3,0,0],[2,0],[1]]","17","0","","","","","","5","","","","","","","","",""
"","","","","","poldrack-single-stim","311","753342","0.0-2.0-63.0","5bb101078f3bd70001e51bfe","E1","batch5","","-1","tol_feedback","","","true","","1000","1000","500","","","","","","-1","none","true","25533","53982","","","","","","","","","",""
"","","","","","html-button-response","312","754502","0.0-2.0-64.0","5bb101078f3bd70001e51bfe","E1","batch5","","1159.6999999997206","tol_trial_num","<div class = centerbox><p class = center-block-text>problem <strong>19</strong> out of 25 problems</p></div>","0","","","","","","","","","","","","","","","","","","","","","","","","",""
"","","","","","single-stim-button","313","770227","0.0-2.0-65.0-0.0","5bb101078f3bd70001e51bfe","E1","batch5","","15723","tol_tohand","","","","tol_peg_1","15723","15723","0","[[1,0,0],[3,0],[0]]","1","[[0,0,0],[1,2],[3]]","18","0","","","","","","7","","","","","","","","",""
"","","","","","single-stim-button","314","770994","0.0-2.0-65.0-1.0","5bb101078f3bd70001e51bfe","E1","batch5","","767","tol_toboard","","","","tol_peg_2","767","767","0","[[1,0,0],[3,2],[0]]","1","[[0,0,0],[1,2],[3]]","18","0","","","","","","7","","","","","","","","",""
"","","","","","single-stim-button","315","771765","0.0-2.0-65.1-0.1","5bb101078f3bd70001e51bfe","E1","batch5","","770","tol_tohand","","","","tol_peg_1","770","770","0","[[0,0,0],[3,2],[0]]","2","[[0,0,0],[1,2],[3]]","18","0","","","","","","7","","","","","","","","",""
"","","","","","single-stim-button","316","773143","0.0-2.0-65.1-1.1","5bb101078f3bd70001e51bfe","E1","batch5","","1378","tol_toboard","","","","tol_peg_3","1378","1378","0","[[0,0,0],[3,2],[1]]","2","[[0,0,0],[1,2],[3]]","18","0","","","","","","7","","","","","","","","",""
"","","","","","single-stim-button","317","779539","0.0-2.0-65.2-0.2","5bb101078f3bd70001e51bfe","E1","batch5","","6396","tol_tohand","","","","tol_peg_2","6396","6396","0","[[0,0,0],[3,0],[1]]","3","[[0,0,0],[1,2],[3]]","18","0","","","","","","7","","","","","","","","",""
"","","","","","single-stim-button","318","780357","0.0-2.0-65.2-1.2","5bb101078f3bd70001e51bfe","E1","batch5","","818","tol_toboard","","","","tol_peg_1","818","818","0","[[2,0,0],[3,0],[1]]","3","[[0,0,0],[1,2],[3]]","18","0","","","","","","7","","","","","","","","",""
"","","","","","single-stim-button","319","783915","0.0-2.0-65.3-0.3","5bb101078f3bd70001e51bfe","E1","batch5","","3558","tol_tohand","","","","tol_peg_3","3558","3558","0","[[2,0,0],[3,0],[0]]","4","[[0,0,0],[1,2],[3]]","18","0","","","","","","7","","","","","","","","",""
"","","","","","single-stim-button","320","784778","0.0-2.0-65.3-1.3","5bb101078f3bd70001e51bfe","E1","batch5","","863","tol_toboard","","","","tol_peg_1","863","863","0","[[2,1,0],[3,0],[0]]","4","[[0,0,0],[1,2],[3]]","18","0","","","","","","7","","","","","","","","",""
"","","","","","single-stim-button","321","785325","0.0-2.0-65.4-0.4","5bb101078f3bd70001e51bfe","E1","batch5","","546","tol_tohand","","","","tol_peg_2","546","546","0","[[2,1,0],[0,0],[0]]","5","[[0,0,0],[1,2],[3]]","18","0","","","","","","7","","","","","","","","",""
"","","","","","single-stim-button","322","785933","0.0-2.0-65.4-1.4","5bb101078f3bd70001e51bfe","E1","batch5","","607","tol_toboard","","","","tol_peg_3","607","607","0","[[2,1,0],[0,0],[3]]","5","[[0,0,0],[1,2],[3]]","18","0","","","","","","7","","","","","","","","",""
"","","","","","single-stim-button","323","788057","0.0-2.0-65.5-0.5","5bb101078f3bd70001e51bfe","E1","batch5","","2124","tol_tohand","","","","tol_peg_1","2124","2124","0","[[2,0,0],[0,0],[3]]","6","[[0,0,0],[1,2],[3]]","18","0","","","","","","7","","","","","","","","",""
"","","","","","single-stim-button","324","788745","0.0-2.0-65.5-1.5","5bb101078f3bd70001e51bfe","E1","batch5","","687","tol_toboard","","","","tol_peg_2","687","687","0","[[2,0,0],[1,0],[3]]","6","[[0,0,0],[1,2],[3]]","18","0","","","","","","7","","","","","","","","",""
"","","","","","single-stim-button","325","789274","0.0-2.0-65.6-0.6","5bb101078f3bd70001e51bfe","E1","batch5","","529","tol_tohand","","","","tol_peg_1","529","529","0","[[0,0,0],[1,0],[3]]","7","[[0,0,0],[1,2],[3]]","18","0","","","","","","7","","","","","","","","",""
"","","","","","single-stim-button","326","789931","0.0-2.0-65.6-1.6","5bb101078f3bd70001e51bfe","E1","batch5","","655","tol_toboard","","","","tol_peg_2","655","655","0","[[0,0,0],[1,2],[3]]","7","[[0,0,0],[1,2],[3]]","18","0","","","","","","7","","","","","","","","",""
"","","","","","poldrack-single-stim","327","790939","0.0-2.0-66.0","5bb101078f3bd70001e51bfe","E1","batch5","","-1","tol_feedback","","","true","","1000","1000","500","","","","","","-1","none","true","15723","29646","","","","","","","","","",""
"","","","","","html-button-response","328","792127","0.0-2.0-67.0","5bb101078f3bd70001e51bfe","E1","batch5","","1186.5","tol_trial_num","<div class = centerbox><p class = center-block-text>problem <strong>20</strong> out of 25 problems</p></div>","0","","","","","","","","","","","","","","","","","","","","","","","","",""
"","","","","","single-stim-button","329","800939","0.0-2.0-68.0-0.0","5bb101078f3bd70001e51bfe","E1","batch5","","8812","tol_tohand","","","","tol_peg_2","8812","8812","0","[[1,2,0],[0,0],[0]]","1","[[2,1,0],[0,0],[3]]","19","0","","","","","","5","","","","","","","","",""
"","","","","","single-stim-button","330","802541","0.0-2.0-68.0-1.0","5bb101078f3bd70001e51bfe","E1","batch5","","1602","tol_toboard","","","","tol_peg_3","1602","1602","0","[[1,2,0],[0,0],[3]]","1","[[2,1,0],[0,0],[3]]","19","0","","","","","","5","","","","","","","","",""
"","","","","","single-stim-button","331","806243","0.0-2.0-68.1-0.1","5bb101078f3bd70001e51bfe","E1","batch5","","3702","tol_tohand","","","","tol_peg_3","3702","3702","0","[[1,2,0],[0,0],[0]]","2","[[2,1,0],[0,0],[3]]","19","0","","","","","","5","","","","","","","","",""
"","","","","","single-stim-button","332","806931","0.0-2.0-68.1-1.1","5bb101078f3bd70001e51bfe","E1","batch5","","687","tol_toboard","","","","tol_peg_2","687","687","0","[[1,2,0],[3,0],[0]]","2","[[2,1,0],[0,0],[3]]","19","0","","","","","","5","","","","","","","","",""
"","","","","","single-stim-button","333","808629","0.0-2.0-68.2-0.2","5bb101078f3bd70001e51bfe","E1","batch5","","1698","tol_tohand","","","","tol_peg_1","1698","1698","0","[[1,0,0],[3,0],[0]]","3","[[2,1,0],[0,0],[3]]","19","0","","","","","","5","","","","","","","","",""
"","","","","","single-stim-button","334","812181","0.0-2.0-68.2-1.2","5bb101078f3bd70001e51bfe","E1","batch5","","3552","tol_toboard","","","","tol_peg_3","3552","3552","0","[[1,0,0],[3,0],[2]]","3","[[2,1,0],[0,0],[3]]","19","0","","","","","","5","","","","","","","","",""
"","","","","","single-stim-button","335","813060","0.0-2.0-68.3-0.3","5bb101078f3bd70001e51bfe","E1","batch5","","879","tol_tohand","","","","tol_peg_1","879","879","0","[[0,0,0],[3,0],[2]]","4","[[2,1,0],[0,0],[3]]","19","0","","","","","","5","","","","","","","","",""
"","","","","","single-stim-button","336","813975","0.0-2.0-68.3-1.3","5bb101078f3bd70001e51bfe","E1","batch5","","915","tol_toboard","","","","tol_peg_2","915","915","0","[[0,0,0],[3,1],[2]]","4","[[2,1,0],[0,0],[3]]","19","0","","","","","","5","","","","","","","","",""
"","","","","","single-stim-button","337","814615","0.0-2.0-68.4-0.4","5bb101078f3bd70001e51bfe","E1","batch5","","639","tol_tohand","","","","tol_peg_3","639","639","0","[[0,0,0],[3,1],[0]]","5","[[2,1,0],[0,0],[3]]","19","0","","","","","","5","","","","","","","","",""
"","","","","","single-stim-button","338","815981","0.0-2.0-68.4-1.4","5bb101078f3bd70001e51bfe","E1","batch5","","1365","tol_toboard","","","","tol_peg_1","1365","1365","0","[[2,0,0],[3,1],[0]]","5","[[2,1,0],[0,0],[3]]","19","0","","","","","","5","","","","","","","","",""
"","","","","","single-stim-button","339","816883","0.0-2.0-68.5-0.5","5bb101078f3bd70001e51bfe","E1","batch5","","902","tol_tohand","","","","tol_peg_2","902","902","0","[[2,0,0],[3,0],[0]]","6","[[2,1,0],[0,0],[3]]","19","0","","","","","","5","","","","","","","","",""
"","","","","","single-stim-button","340","816914","0.0-2.0-68.5-1.5","5bb101078f3bd70001e51bfe","E1","batch5","","31","tol_toboard","","","","tol_peg_2","31","31","0","[[2,0,0],[3,1],[0]]","6","[[2,1,0],[0,0],[3]]","19","0","","","","","","5","","","","","","","","",""
"","","","","","single-stim-button","341","818821","0.0-2.0-68.6-0.6","5bb101078f3bd70001e51bfe","E1","batch5","","1907","tol_tohand","","","","tol_peg_2","1907","1907","0","[[2,0,0],[3,0],[0]]","7","[[2,1,0],[0,0],[3]]","19","0","","","","","","5","","","","","","","","",""
"","","","","","single-stim-button","342","819607","0.0-2.0-68.6-1.6","5bb101078f3bd70001e51bfe","E1","batch5","","786","tol_toboard","","","","tol_peg_1","786","786","0","[[2,1,0],[3,0],[0]]","7","[[2,1,0],[0,0],[3]]","19","0","","","","","","5","","","","","","","","",""
"","","","","","single-stim-button","343","821969","0.0-2.0-68.7-0.7","5bb101078f3bd70001e51bfe","E1","batch5","","2362","tol_tohand","","","","tol_peg_2","2362","2362","0","[[2,1,0],[0,0],[0]]","8","[[2,1,0],[0,0],[3]]","19","0","","","","","","5","","","","","","","","",""
"","","","","","single-stim-button","344","822915","0.0-2.0-68.7-1.7","5bb101078f3bd70001e51bfe","E1","batch5","","946","tol_toboard","","","","tol_peg_3","946","946","0","[[2,1,0],[0,0],[3]]","8","[[2,1,0],[0,0],[3]]","19","0","","","","","","5","","","","","","","","",""
"","","","","","poldrack-single-stim","345","823925","0.0-2.0-69.0","5bb101078f3bd70001e51bfe","E1","batch5","","-1","tol_feedback","","","true","","1000","1000","500","","","","","","-1","none","true","8812","20901","","","","","","","","","",""
"","","","","","html-button-response","346","824837","0.0-2.0-70.0","5bb101078f3bd70001e51bfe","E1","batch5","","910.2000000001863","tol_trial_num","<div class = centerbox><p class = center-block-text>problem <strong>21</strong> out of 25 problems</p></div>","0","","","","","","","","","","","","","","","","","","","","","","","","",""
"","","","","","single-stim-button","347","843127","0.0-2.0-71.0-0.0","5bb101078f3bd70001e51bfe","E1","batch5","","18290","tol_tohand","","","","tol_peg_1","18290","18290","0","[[1,0,0],[3,0],[0]]","1","[[3,2,0],[0,0],[1]]","20","0","","","","","","6","","","","","","","","",""
"","","","","","single-stim-button","348","844665","0.0-2.0-71.0-1.0","5bb101078f3bd70001e51bfe","E1","batch5","","1538","tol_toboard","","","","tol_peg_2","1538","1538","0","[[1,0,0],[3,2],[0]]","1","[[3,2,0],[0,0],[1]]","20","0","","","","","","6","","","","","","","","",""
"","","","","","single-stim-button","349","846867","0.0-2.0-71.1-0.1","5bb101078f3bd70001e51bfe","E1","batch5","","2202","tol_tohand","","","","tol_peg_2","2202","2202","0","[[1,0,0],[3,0],[0]]","2","[[3,2,0],[0,0],[1]]","20","0","","","","","","6","","","","","","","","",""
"","","","","","single-stim-button","350","847717","0.0-2.0-71.1-1.1","5bb101078f3bd70001e51bfe","E1","batch5","","850","tol_toboard","","","","tol_peg_3","850","850","0","[[1,0,0],[3,0],[2]]","2","[[3,2,0],[0,0],[1]]","20","0","","","","","","6","","","","","","","","",""
"","","","","","single-stim-button","351","853077","0.0-2.0-71.2-0.2","5bb101078f3bd70001e51bfe","E1","batch5","","5359","tol_tohand","","","","tol_peg_3","5359","5359","0","[[1,0,0],[3,0],[0]]","3","[[3,2,0],[0,0],[1]]","20","0","","","","","","6","","","","","","","","",""
"","","","","","single-stim-button","352","856264","0.0-2.0-71.2-1.2","5bb101078f3bd70001e51bfe","E1","batch5","","3187","tol_toboard","","","","tol_peg_2","3187","3187","0","[[1,0,0],[3,2],[0]]","3","[[3,2,0],[0,0],[1]]","20","0","","","","","","6","","","","","","","","",""
"","","","","","single-stim-button","353","856890","0.0-2.0-71.3-0.3","5bb101078f3bd70001e51bfe","E1","batch5","","625","tol_tohand","","","","tol_peg_1","625","625","0","[[0,0,0],[3,2],[0]]","4","[[3,2,0],[0,0],[1]]","20","0","","","","","","6","","","","","","","","",""
"","","","","","single-stim-button","354","857818","0.0-2.0-71.3-1.3","5bb101078f3bd70001e51bfe","E1","batch5","","927","tol_toboard","","","","tol_peg_3","927","927","0","[[0,0,0],[3,2],[1]]","4","[[3,2,0],[0,0],[1]]","20","0","","","","","","6","","","","","","","","",""
"","","","","","single-stim-button","355","860758","0.0-2.0-71.4-0.4","5bb101078f3bd70001e51bfe","E1","batch5","","2939","tol_tohand","","","","tol_peg_2","2939","2939","0","[[0,0,0],[3,0],[1]]","5","[[3,2,0],[0,0],[1]]","20","0","","","","","","6","","","","","","","","",""
