"success","timeout","failed_images","failed_audio","failed_video","trial_type","trial_index","time_elapsed","internal_node_id","subject_id","study_id","session_id","task","rt","stimulus","response","item","answer","correct","spm_correct","spm_rt","view_history","mouse_click","stim_duration","block_duration","timing_post_trial","current_position","tol_num_moves_made","tol_target","tol_problem_id","tol_rt","key_press","possible_responses","tol_correct","preplanning","tol_rt_per_trial","tol_min_moves","fiar_detect_rt","fiar_detect_correct","total_correct_fiar_detect","post_trial_gap","choices"
"true","false","[]","[]","[]","preload","0","936","0.0-0.0","5bb7d8139b5f7e0001d43a6c","B2","batch2","","","","","","","","","","","","","","","","","","","","","","","","","","","","","",""
"true","","","","","fullscreen","1","12426","0.0-1.0-0.0","5bb7d8139b5f7e0001d43a6c","B2","batch2","","","","","","","","","","","","","","","","","","","","","","","","","","","","","",""
"true","","","","","fullscreen","2","77804","0.0-2.0-0.0","5bb7d8139b5f7e0001d43a6c","B2","batch2","spm_fullscreen","","","","","","","","","","","","","","","","","","","","","","","","","","","","",""
"","","","","","html-button-response","3","90214","0.0-2.0-1.0","5bb7d8139b5f7e0001d43a6c","B2","batch2","","12408.100000023842","<p class = block-text><b>Instructions</b> <br>This is a widely used intelligence test in research. <br>In this test, a figure with a missing piece will be presented.<br>Below the figure are alternative pieces to complete the figure, only one of which is correct.<br> Different figures might involve different principles for obtaining the missing piece<br>Your job is to select the most logical piece to complete the figure.</p>","0","","","","","","","","","","","","","","","","","","","","","","","","","",""
"","","","","","html-keyboard-response","4","91016","0.0-2.0-2.0-0.0","5bb7d8139b5f7e0001d43a6c","B2","batch2","spm_show_trial_num","null","<p class=block-text>Trial 1 out of 60</p>","null","","","","","","","","","","","","","","","","","","","","","","","","","",""
"","","","","","image-button-response","5","101134","0.0-2.0-2.0-1.0","5bb7d8139b5f7e0001d43a6c","B2","batch2","spm_respsonse","10115.399999976158","img/question_1_1.jpeg","3","mat_01","4","1","1","10115.399999976158","","","","","","","","","","","","","","","","","","","","",""
"","","","","","html-keyboard-response","6","102187","0.0-2.0-2.0-0.1","5bb7d8139b5f7e0001d43a6c","B2","batch2","spm_show_trial_num","null","<p class=block-text>Trial 2 out of 60</p>","null","","","","","","","","","","","","","","","","","","","","","","","","","",""
"","","","","","image-button-response","7","105776","0.0-2.0-2.0-1.1","5bb7d8139b5f7e0001d43a6c","B2","batch2","spm_respsonse","3588.099999964237","img/question_1_2.jpeg","4","mat_02","5","1","1","3588.099999964237","","","","","","","","","","","","","","","","","","","","",""
"","","","","","html-keyboard-response","8","106829","0.0-2.0-2.0-0.2","5bb7d8139b5f7e0001d43a6c","B2","batch2","spm_show_trial_num","null","<p class=block-text>Trial 3 out of 60</p>","null","","","","","","","","","","","","","","","","","","","","","","","","","",""
"","","","","","image-button-response","9","110133","0.0-2.0-2.0-1.2","5bb7d8139b5f7e0001d43a6c","B2","batch2","spm_respsonse","3303.599999964237","img/question_1_3.jpeg","0","mat_03","1","1","1","3303.599999964237","","","","","","","","","","","","","","","","","","","","",""
"","","","","","html-keyboard-response","10","111186","0.0-2.0-2.0-0.3","5bb7d8139b5f7e0001d43a6c","B2","batch2","spm_show_trial_num","null","<p class=block-text>Trial 4 out of 60</p>","null","","","","","","","","","","","","","","","","","","","","","","","","","",""
"","","","","","image-button-response","11","114139","0.0-2.0-2.0-1.3","5bb7d8139b5f7e0001d43a6c","B2","batch2","spm_respsonse","2951.300000011921","img/question_1_4.jpeg","1","mat_04","2","1","1","2951.300000011921","","","","","","","","","","","","","","","","","","","","",""
"","","","","","html-keyboard-response","12","115191","0.0-2.0-2.0-0.4","5bb7d8139b5f7e0001d43a6c","B2","batch2","spm_show_trial_num","null","<p class=block-text>Trial 5 out of 60</p>","null","","","","","","","","","","","","","","","","","","","","","","","","","",""
"","","","","","image-button-response","13","118848","0.0-2.0-2.0-1.4","5bb7d8139b5f7e0001d43a6c","B2","batch2","spm_respsonse","3655.5","img/question_1_5.jpeg","5","mat_05","6","1","1","3655.5","","","","","","","","","","","","","","","","","","","","",""
"","","","","","html-keyboard-response","14","119901","0.0-2.0-2.0-0.5","5bb7d8139b5f7e0001d43a6c","B2","batch2","spm_show_trial_num","null","<p class=block-text>Trial 6 out of 60</p>","null","","","","","","","","","","","","","","","","","","","","","","","","","",""
"","","","","","image-button-response","15","124008","0.0-2.0-2.0-1.5","5bb7d8139b5f7e0001d43a6c","B2","batch2","spm_respsonse","4105.900000035763","img/question_1_6.jpeg","2","mat_06","3","1","1","4105.900000035763","","","","","","","","","","","","","","","","","","","","",""
"","","","","","html-keyboard-response","16","125061","0.0-2.0-2.0-0.6","5bb7d8139b5f7e0001d43a6c","B2","batch2","spm_show_trial_num","null","<p class=block-text>Trial 7 out of 60</p>","null","","","","","","","","","","","","","","","","","","","","","","","","","",""
"","","","","","image-button-response","17","129791","0.0-2.0-2.0-1.6","5bb7d8139b5f7e0001d43a6c","B2","batch2","spm_respsonse","4728.399999976158","img/question_1_7.jpeg","5","mat_07","6","1","1","4728.399999976158","","","","","","","","","","","","","","","","","","","","",""
"","","","","","html-keyboard-response","18","130844","0.0-2.0-2.0-0.7","5bb7d8139b5f7e0001d43a6c","B2","batch2","spm_show_trial_num","null","<p class=block-text>Trial 8 out of 60</p>","null","","","","","","","","","","","","","","","","","","","","","","","","","",""
"","","","","","image-button-response","19","137996","0.0-2.0-2.0-1.7","5bb7d8139b5f7e0001d43a6c","B2","batch2","spm_respsonse","7151","img/question_1_8.jpeg","1","mat_08","2","1","1","7151","","","","","","","","","","","","","","","","","","","","",""
"","","","","","html-keyboard-response","20","139048","0.0-2.0-2.0-0.8","5bb7d8139b5f7e0001d43a6c","B2","batch2","spm_show_trial_num","null","<p class=block-text>Trial 9 out of 60</p>","null","","","","","","","","","","","","","","","","","","","","","","","","","",""
"","","","","","image-button-response","21","143320","0.0-2.0-2.0-1.8","5bb7d8139b5f7e0001d43a6c","B2","batch2","spm_respsonse","4270.600000023842","img/question_1_9.jpeg","0","mat_09","1","1","1","4270.600000023842","","","","","","","","","","","","","","","","","","","","",""
"","","","","","html-keyboard-response","22","144373","0.0-2.0-2.0-0.9","5bb7d8139b5f7e0001d43a6c","B2","batch2","spm_show_trial_num","null","<p class=block-text>Trial 10 out of 60</p>","null","","","","","","","","","","","","","","","","","","","","","","","","","",""
"","","","","","image-button-response","23","149358","0.0-2.0-2.0-1.9","5bb7d8139b5f7e0001d43a6c","B2","batch2","spm_respsonse","4983.600000023842","img/question_1_10.jpeg","2","mat_10","3","1","1","4983.600000023842","","","","","","","","","","","","","","","","","","","","",""
"","","","","","html-keyboard-response","24","150411","0.0-2.0-2.0-0.10","5bb7d8139b5f7e0001d43a6c","B2","batch2","spm_show_trial_num","null","<p class=block-text>Trial 11 out of 60</p>","null","","","","","","","","","","","","","","","","","","","","","","","","","",""
"","","","","","image-button-response","25","165093","0.0-2.0-2.0-1.10","5bb7d8139b5f7e0001d43a6c","B2","batch2","spm_respsonse","14680.199999988079","img/question_1_11.jpeg","3","mat_11","4","1","1","14680.199999988079","","","","","","","","","","","","","","","","","","","","",""
"","","","","","html-keyboard-response","26","166146","0.0-2.0-2.0-0.11","5bb7d8139b5f7e0001d43a6c","B2","batch2","spm_show_trial_num","null","<p class=block-text>Trial 12 out of 60</p>","null","","","","","","","","","","","","","","","","","","","","","","","","","",""
"","","","","","image-button-response","27","173950","0.0-2.0-2.0-1.11","5bb7d8139b5f7e0001d43a6c","B2","batch2","spm_respsonse","7803.199999988079","img/question_1_12.jpeg","0","mat_12","5","0","0","7803.199999988079","","","","","","","","","","","","","","","","","","","","",""
"","","","","","html-keyboard-response","28","175002","0.0-2.0-2.0-0.12","5bb7d8139b5f7e0001d43a6c","B2","batch2","spm_show_trial_num","null","<p class=block-text>Trial 13 out of 60</p>","null","","","","","","","","","","","","","","","","","","","","","","","","","",""
"","","","","","image-button-response","29","178098","0.0-2.0-2.0-1.12","5bb7d8139b5f7e0001d43a6c","B2","batch2","spm_respsonse","3094.5","img/question_2_1.jpeg","1","mat_13","2","1","1","3094.5","","","","","","","","","","","","","","","","","","","","",""
"","","","","","html-keyboard-response","30","179150","0.0-2.0-2.0-0.13","5bb7d8139b5f7e0001d43a6c","B2","batch2","spm_show_trial_num","null","<p class=block-text>Trial 14 out of 60</p>","null","","","","","","","","","","","","","","","","","","","","","","","","","",""
"","","","","","image-button-response","31","186243","0.0-2.0-2.0-1.13","5bb7d8139b5f7e0001d43a6c","B2","batch2","spm_respsonse","7090.900000035763","img/question_2_2.jpeg","5","mat_14","6","1","1","7090.900000035763","","","","","","","","","","","","","","","","","","","","",""
"","","","","","html-keyboard-response","32","187296","0.0-2.0-2.0-0.14","5bb7d8139b5f7e0001d43a6c","B2","batch2","spm_show_trial_num","null","<p class=block-text>Trial 15 out of 60</p>","null","","","","","","","","","","","","","","","","","","","","","","","","","",""
"","","","","","image-button-response","33","191793","0.0-2.0-2.0-1.14","5bb7d8139b5f7e0001d43a6c","B2","batch2","spm_respsonse","4495.300000011921","img/question_2_3.jpeg","0","mat_15","1","1","1","4495.300000011921","","","","","","","","","","","","","","","","","","","","",""
"","","","","","html-keyboard-response","34","192845","0.0-2.0-2.0-0.15","5bb7d8139b5f7e0001d43a6c","B2","batch2","spm_show_trial_num","null","<p class=block-text>Trial 16 out of 60</p>","null","","","","","","","","","","","","","","","","","","","","","","","","","",""
"","","","","","image-button-response","35","196683","0.0-2.0-2.0-1.15","5bb7d8139b5f7e0001d43a6c","B2","batch2","spm_respsonse","3836.899999976158","img/question_2_4.jpeg","1","mat_16","2","1","1","3836.899999976158","","","","","","","","","","","","","","","","","","","","",""
"","","","","","html-keyboard-response","36","197736","0.0-2.0-2.0-0.16","5bb7d8139b5f7e0001d43a6c","B2","batch2","spm_show_trial_num","null","<p class=block-text>Trial 17 out of 60</p>","null","","","","","","","","","","","","","","","","","","","","","","","","","",""
"","","","","","image-button-response","37","202893","0.0-2.0-2.0-1.16","5bb7d8139b5f7e0001d43a6c","B2","batch2","spm_respsonse","5155.899999976158","img/question_2_5.jpeg","0","mat_17","1","1","1","5155.899999976158","","","","","","","","","","","","","","","","","","","","",""
"","","","","","html-keyboard-response","38","203945","0.0-2.0-2.0-0.17","5bb7d8139b5f7e0001d43a6c","B2","batch2","spm_show_trial_num","null","<p class=block-text>Trial 18 out of 60</p>","null","","","","","","","","","","","","","","","","","","","","","","","","","",""
"","","","","","image-button-response","39","208795","0.0-2.0-2.0-1.17","5bb7d8139b5f7e0001d43a6c","B2","batch2","spm_respsonse","4848.699999988079","img/question_2_6.jpeg","2","mat_18","3","1","1","4848.699999988079","","","","","","","","","","","","","","","","","","","","",""
"","","","","","html-keyboard-response","40","209848","0.0-2.0-2.0-0.18","5bb7d8139b5f7e0001d43a6c","B2","batch2","spm_show_trial_num","null","<p class=block-text>Trial 19 out of 60</p>","null","","","","","","","","","","","","","","","","","","","","","","","","","",""
"","","","","","image-button-response","41","215627","0.0-2.0-2.0-1.18","5bb7d8139b5f7e0001d43a6c","B2","batch2","spm_respsonse","5778.300000011921","img/question_2_7.jpeg","4","mat_19","5","1","1","5778.300000011921","","","","","","","","","","","","","","","","","","","","",""
"","","","","","html-keyboard-response","42","216681","0.0-2.0-2.0-0.19","5bb7d8139b5f7e0001d43a6c","B2","batch2","spm_show_trial_num","null","<p class=block-text>Trial 20 out of 60</p>","null","","","","","","","","","","","","","","","","","","","","","","","","","",""
"","","","","","image-button-response","43","221845","0.0-2.0-2.0-1.19","5bb7d8139b5f7e0001d43a6c","B2","batch2","spm_respsonse","5163","img/question_2_8.jpeg","5","mat_20","6","1","1","5163","","","","","","","","","","","","","","","","","","","","",""
"","","","","","html-keyboard-response","44","222897","0.0-2.0-2.0-0.20","5bb7d8139b5f7e0001d43a6c","B2","batch2","spm_show_trial_num","null","<p class=block-text>Trial 21 out of 60</p>","null","","","","","","","","","","","","","","","","","","","","","","","","","",""
"","","","","","image-button-response","45","226450","0.0-2.0-2.0-1.20","5bb7d8139b5f7e0001d43a6c","B2","batch2","spm_respsonse","3551.100000023842","img/question_2_9.jpeg","3","mat_21","4","1","1","3551.100000023842","","","","","","","","","","","","","","","","","","","","",""
"","","","","","html-keyboard-response","46","227504","0.0-2.0-2.0-0.21","5bb7d8139b5f7e0001d43a6c","B2","batch2","spm_show_trial_num","null","<p class=block-text>Trial 22 out of 60</p>","null","","","","","","","","","","","","","","","","","","","","","","","","","",""
"","","","","","image-button-response","47","232360","0.0-2.0-2.0-1.21","5bb7d8139b5f7e0001d43a6c","B2","batch2","spm_respsonse","4854.900000035763","img/question_2_10.jpeg","2","mat_22","3","1","1","4854.900000035763","","","","","","","","","","","","","","","","","","","","",""
"","","","","","html-keyboard-response","48","233414","0.0-2.0-2.0-0.22","5bb7d8139b5f7e0001d43a6c","B2","batch2","spm_show_trial_num","null","<p class=block-text>Trial 23 out of 60</p>","null","","","","","","","","","","","","","","","","","","","","","","","","","",""
"","","","","","image-button-response","49","237431","0.0-2.0-2.0-1.22","5bb7d8139b5f7e0001d43a6c","B2","batch2","spm_respsonse","4016.599999964237","img/question_2_11.jpeg","3","mat_23","4","1","1","4016.599999964237","","","","","","","","","","","","","","","","","","","","",""
"","","","","","html-keyboard-response","50","238486","0.0-2.0-2.0-0.23","5bb7d8139b5f7e0001d43a6c","B2","batch2","spm_show_trial_num","null","<p class=block-text>Trial 24 out of 60</p>","null","","","","","","","","","","","","","","","","","","","","","","","","","",""
"","","","","","image-button-response","51","255347","0.0-2.0-2.0-1.23","5bb7d8139b5f7e0001d43a6c","B2","batch2","spm_respsonse","16860.399999976158","img/question_2_12.jpeg","4","mat_24","5","1","1","16860.399999976158","","","","","","","","","","","","","","","","","","","","",""
"","","","","","html-button-response","52","257718","0.0-2.0-3.0","5bb7d8139b5f7e0001d43a6c","B2","batch2","attention_check","2118.599999964237","<p class = block-text>Attention check: Please choose 1<br></p>","0","","","true","","","","","","","","","","","","","","","","","","","","","","",""
"","","","","","html-keyboard-response","53","258520","0.0-2.0-4.0-0.0","5bb7d8139b5f7e0001d43a6c","B2","batch2","spm_show_trial_num","null","<p class=block-text>Trial 25 out of 60</p>","null","","","","","","","","","","","","","","","","","","","","","","","","","",""
"","","","","","image-button-response","54","267415","0.0-2.0-4.0-1.0","5bb7d8139b5f7e0001d43a6c","B2","batch2","spm_respsonse","8893.800000011921","img/question_3_1.jpeg","7","mat_25","8","1","1","8893.800000011921","","","","","","","","","","","","","","","","","","","","",""
"","","","","","html-keyboard-response","55","268469","0.0-2.0-4.0-0.1","5bb7d8139b5f7e0001d43a6c","B2","batch2","spm_show_trial_num","null","<p class=block-text>Trial 26 out of 60</p>","null","","","","","","","","","","","","","","","","","","","","","","","","","",""
"","","","","","image-button-response","56","281793","0.0-2.0-4.0-1.1","5bb7d8139b5f7e0001d43a6c","B2","batch2","spm_respsonse","13322.200000047684","img/question_3_2.jpeg","1","mat_26","2","1","1","13322.200000047684","","","","","","","","","","","","","","","","","","","","",""
"","","","","","html-keyboard-response","57","282846","0.0-2.0-4.0-0.2","5bb7d8139b5f7e0001d43a6c","B2","batch2","spm_show_trial_num","null","<p class=block-text>Trial 27 out of 60</p>","null","","","","","","","","","","","","","","","","","","","","","","","","","",""
"","","","","","image-button-response","58","288243","0.0-2.0-4.0-1.2","5bb7d8139b5f7e0001d43a6c","B2","batch2","spm_respsonse","5395.699999988079","img/question_3_3.jpeg","2","mat_27","3","1","1","5395.699999988079","","","","","","","","","","","","","","","","","","","","",""
"","","","","","html-keyboard-response","59","289296","0.0-2.0-4.0-0.3","5bb7d8139b5f7e0001d43a6c","B2","batch2","spm_show_trial_num","null","<p class=block-text>Trial 28 out of 60</p>","null","","","","","","","","","","","","","","","","","","","","","","","","","",""
"","","","","","image-button-response","60","299898","0.0-2.0-4.0-1.3","5bb7d8139b5f7e0001d43a6c","B2","batch2","spm_respsonse","10600.100000023842","img/question_3_4.jpeg","7","mat_28","8","1","1","10600.100000023842","","","","","","","","","","","","","","","","","","","","",""
"","","","","","html-keyboard-response","61","300950","0.0-2.0-4.0-0.4","5bb7d8139b5f7e0001d43a6c","B2","batch2","spm_show_trial_num","null","<p class=block-text>Trial 29 out of 60</p>","null","","","","","","","","","","","","","","","","","","","","","","","","","",""
"","","","","","image-button-response","62","308133","0.0-2.0-4.0-1.4","5bb7d8139b5f7e0001d43a6c","B2","batch2","spm_respsonse","7181.600000023842","img/question_3_5.jpeg","6","mat_29","7","1","1","7181.600000023842","","","","","","","","","","","","","","","","","","","","",""
"","","","","","html-keyboard-response","63","309186","0.0-2.0-4.0-0.5","5bb7d8139b5f7e0001d43a6c","B2","batch2","spm_show_trial_num","null","<p class=block-text>Trial 30 out of 60</p>","null","","","","","","","","","","","","","","","","","","","","","","","","","",""
"","","","","","image-button-response","64","317059","0.0-2.0-4.0-1.5","5bb7d8139b5f7e0001d43a6c","B2","batch2","spm_respsonse","7871.199999988079","img/question_3_6.jpeg","3","mat_30","4","1","1","7871.199999988079","","","","","","","","","","","","","","","","","","","","",""
"","","","","","html-keyboard-response","65","318111","0.0-2.0-4.0-0.6","5bb7d8139b5f7e0001d43a6c","B2","batch2","spm_show_trial_num","null","<p class=block-text>Trial 31 out of 60</p>","null","","","","","","","","","","","","","","","","","","","","","","","","","",""
"","","","","","image-button-response","66","324557","0.0-2.0-4.0-1.6","5bb7d8139b5f7e0001d43a6c","B2","batch2","spm_respsonse","6444.800000011921","img/question_3_7.jpeg","4","mat_31","5","1","1","6444.800000011921","","","","","","","","","","","","","","","","","","","","",""
"","","","","","html-keyboard-response","67","325610","0.0-2.0-4.0-0.7","5bb7d8139b5f7e0001d43a6c","B2","batch2","spm_show_trial_num","null","<p class=block-text>Trial 32 out of 60</p>","null","","","","","","","","","","","","","","","","","","","","","","","","","",""
"","","","","","image-button-response","68","339130","0.0-2.0-4.0-1.7","5bb7d8139b5f7e0001d43a6c","B2","batch2","spm_respsonse","13518.900000035763","img/question_3_8.jpeg","0","mat_32","1","1","1","13518.900000035763","","","","","","","","","","","","","","","","","","","","",""
"","","","","","html-keyboard-response","69","340181","0.0-2.0-4.0-0.8","5bb7d8139b5f7e0001d43a6c","B2","batch2","spm_show_trial_num","null","<p class=block-text>Trial 33 out of 60</p>","null","","","","","","","","","","","","","","","","","","","","","","","","","",""
"","","","","","image-button-response","70","351446","0.0-2.0-4.0-1.8","5bb7d8139b5f7e0001d43a6c","B2","batch2","spm_respsonse","11263.300000011921","img/question_3_9.jpeg","6","mat_33","7","1","1","11263.300000011921","","","","","","","","","","","","","","","","","","","","",""
"","","","","","html-keyboard-response","71","352500","0.0-2.0-4.0-0.9","5bb7d8139b5f7e0001d43a6c","B2","batch2","spm_show_trial_num","null","<p class=block-text>Trial 34 out of 60</p>","null","","","","","","","","","","","","","","","","","","","","","","","","","",""
"","","","","","image-button-response","72","372910","0.0-2.0-4.0-1.9","5bb7d8139b5f7e0001d43a6c","B2","batch2","spm_respsonse","20408.30000001192","img/question_3_10.jpeg","5","mat_34","6","1","1","20408.30000001192","","","","","","","","","","","","","","","","","","","","",""
"","","","","","html-keyboard-response","73","373962","0.0-2.0-4.0-0.10","5bb7d8139b5f7e0001d43a6c","B2","batch2","spm_show_trial_num","null","<p class=block-text>Trial 35 out of 60</p>","null","","","","","","","","","","","","","","","","","","","","","","","","","",""
"","","","","","image-button-response","74","402835","0.0-2.0-4.0-1.10","5bb7d8139b5f7e0001d43a6c","B2","batch2","spm_respsonse","28870.69999998808","img/question_3_11.jpeg","0","mat_35","1","1","1","28870.69999998808","","","","","","","","","","","","","","","","","","","","",""
"","","","","","html-keyboard-response","75","403888","0.0-2.0-4.0-0.11","5bb7d8139b5f7e0001d43a6c","B2","batch2","spm_show_trial_num","null","<p class=block-text>Trial 36 out of 60</p>","null","","","","","","","","","","","","","","","","","","","","","","","","","",""
"","","","","","image-button-response","76","424465","0.0-2.0-4.0-1.11","5bb7d8139b5f7e0001d43a6c","B2","batch2","spm_respsonse","20575.80000001192","img/question_3_12.jpeg","0","mat_36","2","0","0","20575.80000001192","","","","","","","","","","","","","","","","","","","","",""
"","","","","","html-keyboard-response","77","425518","0.0-2.0-4.0-0.12","5bb7d8139b5f7e0001d43a6c","B2","batch2","spm_show_trial_num","null","<p class=block-text>Trial 37 out of 60</p>","null","","","","","","","","","","","","","","","","","","","","","","","","","",""
"","","","","","image-button-response","78","432895","0.0-2.0-4.0-1.12","5bb7d8139b5f7e0001d43a6c","B2","batch2","spm_respsonse","7375.300000011921","img/question_4_1.jpeg","2","mat_37","3","1","1","7375.300000011921","","","","","","","","","","","","","","","","","","","","",""
"","","","","","html-keyboard-response","79","433949","0.0-2.0-4.0-0.13","5bb7d8139b5f7e0001d43a6c","B2","batch2","spm_show_trial_num","null","<p class=block-text>Trial 38 out of 60</p>","null","","","","","","","","","","","","","","","","","","","","","","","","","",""
"","","","","","image-button-response","80","441865","0.0-2.0-4.0-1.13","5bb7d8139b5f7e0001d43a6c","B2","batch2","spm_respsonse","7914.699999988079","img/question_4_2.jpeg","3","mat_38","4","1","1","7914.699999988079","","","","","","","","","","","","","","","","","","","","",""
"","","","","","html-keyboard-response","81","442918","0.0-2.0-4.0-0.14","5bb7d8139b5f7e0001d43a6c","B2","batch2","spm_show_trial_num","null","<p class=block-text>Trial 39 out of 60</p>","null","","","","","","","","","","","","","","","","","","","","","","","","","",""
"","","","","","image-button-response","82","449755","0.0-2.0-4.0-1.14","5bb7d8139b5f7e0001d43a6c","B2","batch2","spm_respsonse","6835.699999988079","img/question_4_3.jpeg","2","mat_39","3","1","1","6835.699999988079","","","","","","","","","","","","","","","","","","","","",""
"","","","","","html-keyboard-response","83","450807","0.0-2.0-4.0-0.15","5bb7d8139b5f7e0001d43a6c","B2","batch2","spm_show_trial_num","null","<p class=block-text>Trial 40 out of 60</p>","null","","","","","","","","","","","","","","","","","","","","","","","","","",""
"","","","","","image-button-response","84","456775","0.0-2.0-4.0-1.15","5bb7d8139b5f7e0001d43a6c","B2","batch2","spm_respsonse","5966.699999988079","img/question_4_4.jpeg","6","mat_40","7","1","1","5966.699999988079","","","","","","","","","","","","","","","","","","","","",""
"","","","","","html-keyboard-response","85","457826","0.0-2.0-4.0-0.16","5bb7d8139b5f7e0001d43a6c","B2","batch2","spm_show_trial_num","null","<p class=block-text>Trial 41 out of 60</p>","null","","","","","","","","","","","","","","","","","","","","","","","","","",""
"","","","","","image-button-response","86","464703","0.0-2.0-4.0-1.16","5bb7d8139b5f7e0001d43a6c","B2","batch2","spm_respsonse","6875.899999976158","img/question_4_5.jpeg","7","mat_41","8","1","1","6875.899999976158","","","","","","","","","","","","","","","","","","","","",""
"","","","","","html-keyboard-response","87","465756","0.0-2.0-4.0-0.17","5bb7d8139b5f7e0001d43a6c","B2","batch2","spm_show_trial_num","null","<p class=block-text>Trial 42 out of 60</p>","null","","","","","","","","","","","","","","","","","","","","","","","","","",""
"","","","","","image-button-response","88","475675","0.0-2.0-4.0-1.17","5bb7d8139b5f7e0001d43a6c","B2","batch2","spm_respsonse","9917.5","img/question_4_6.jpeg","5","mat_42","6","1","1","9917.5","","","","","","","","","","","","","","","","","","","","",""
"","","","","","html-keyboard-response","89","476728","0.0-2.0-4.0-0.18","5bb7d8139b5f7e0001d43a6c","B2","batch2","spm_show_trial_num","null","<p class=block-text>Trial 43 out of 60</p>","null","","","","","","","","","","","","","","","","","","","","","","","","","",""
"","","","","","image-button-response","90","499045","0.0-2.0-4.0-1.18","5bb7d8139b5f7e0001d43a6c","B2","batch2","spm_respsonse","22315.899999976158","img/question_4_7.jpeg","4","mat_43","5","1","1","22315.899999976158","","","","","","","","","","","","","","","","","","","","",""
"","","","","","html-keyboard-response","91","500098","0.0-2.0-4.0-0.19","5bb7d8139b5f7e0001d43a6c","B2","batch2","spm_show_trial_num","null","<p class=block-text>Trial 44 out of 60</p>","null","","","","","","","","","","","","","","","","","","","","","","","","","",""
"","","","","","image-button-response","92","514623","0.0-2.0-4.0-1.19","5bb7d8139b5f7e0001d43a6c","B2","batch2","spm_respsonse","14523.700000047684","img/question_4_8.jpeg","3","mat_44","4","1","1","14523.700000047684","","","","","","","","","","","","","","","","","","","","",""
"","","","","","html-keyboard-response","93","515676","0.0-2.0-4.0-0.20","5bb7d8139b5f7e0001d43a6c","B2","batch2","spm_show_trial_num","null","<p class=block-text>Trial 45 out of 60</p>","null","","","","","","","","","","","","","","","","","","","","","","","","","",""
"","","","","","image-button-response","94","558358","0.0-2.0-4.0-1.20","5bb7d8139b5f7e0001d43a6c","B2","batch2","spm_respsonse","42680.40000003576","img/question_4_9.jpeg","0","mat_45","1","1","1","42680.40000003576","","","","","","","","","","","","","","","","","","","","",""
"","","","","","html-keyboard-response","95","559410","0.0-2.0-4.0-0.21","5bb7d8139b5f7e0001d43a6c","B2","batch2","spm_show_trial_num","null","<p class=block-text>Trial 46 out of 60</p>","null","","","","","","","","","","","","","","","","","","","","","","","","","",""
"","","","","","image-button-response","96","591440","0.0-2.0-4.0-1.21","5bb7d8139b5f7e0001d43a6c","B2","batch2","spm_respsonse","32028.5","img/question_4_10.jpeg","1","mat_46","2","1","1","32028.5","","","","","","","","","","","","","","","","","","","","",""
"","","","","","html-keyboard-response","97","592494","0.0-2.0-4.0-0.22","5bb7d8139b5f7e0001d43a6c","B2","batch2","spm_show_trial_num","null","<p class=block-text>Trial 47 out of 60</p>","null","","","","","","","","","","","","","","","","","","","","","","","","","",""
"","","","","","image-button-response","98","702915","0.0-2.0-4.0-1.22","5bb7d8139b5f7e0001d43a6c","B2","batch2","spm_respsonse","110419.90000003576","img/question_4_11.jpeg","1","mat_47","5","0","0","110419.90000003576","","","","","","","","","","","","","","","","","","","","",""
"","","","","","html-keyboard-response","99","703967","0.0-2.0-4.0-0.23","5bb7d8139b5f7e0001d43a6c","B2","batch2","spm_show_trial_num","null","<p class=block-text>Trial 48 out of 60</p>","null","","","","","","","","","","","","","","","","","","","","","","","","","",""
"","","","","","image-button-response","100","740340","0.0-2.0-4.0-1.23","5bb7d8139b5f7e0001d43a6c","B2","batch2","spm_respsonse","36371.09999996424","img/question_4_12.jpeg","5","mat_48","6","1","1","36371.09999996424","","","","","","","","","","","","","","","","","","","","",""
"","","","","","html-keyboard-response","101","741392","0.0-2.0-4.0-0.24","5bb7d8139b5f7e0001d43a6c","B2","batch2","spm_show_trial_num","null","<p class=block-text>Trial 49 out of 60</p>","null","","","","","","","","","","","","","","","","","","","","","","","","","",""
"","","","","","image-button-response","102","756360","0.0-2.0-4.0-1.24","5bb7d8139b5f7e0001d43a6c","B2","batch2","spm_respsonse","14966.800000011921","img/question_5_1.jpeg","2","mat_49","7","0","0","14966.800000011921","","","","","","","","","","","","","","","","","","","","",""
"","","","","","html-keyboard-response","103","757412","0.0-2.0-4.0-0.25","5bb7d8139b5f7e0001d43a6c","B2","batch2","spm_show_trial_num","null","<p class=block-text>Trial 50 out of 60</p>","null","","","","","","","","","","","","","","","","","","","","","","","","","",""
"","","","","","image-button-response","104","850060","0.0-2.0-4.0-1.25","5bb7d8139b5f7e0001d43a6c","B2","batch2","spm_respsonse","92647.09999996424","img/question_5_2.jpeg","5","mat_50","6","1","1","92647.09999996424","","","","","","","","","","","","","","","","","","","","",""
"","","","","","html-keyboard-response","105","851114","0.0-2.0-4.0-0.26","5bb7d8139b5f7e0001d43a6c","B2","batch2","spm_show_trial_num","null","<p class=block-text>Trial 51 out of 60</p>","null","","","","","","","","","","","","","","","","","","","","","","","","","",""
"","","","","","image-button-response","106","871720","0.0-2.0-4.0-1.26","5bb7d8139b5f7e0001d43a6c","B2","batch2","spm_respsonse","20605.19999998808","img/question_5_3.jpeg","7","mat_51","8","1","1","20605.19999998808","","","","","","","","","","","","","","","","","","","","",""
"","","","","","html-keyboard-response","107","872774","0.0-2.0-4.0-0.27","5bb7d8139b5f7e0001d43a6c","B2","batch2","spm_show_trial_num","null","<p class=block-text>Trial 52 out of 60</p>","null","","","","","","","","","","","","","","","","","","","","","","","","","",""
"","","","","","image-button-response","108","890846","0.0-2.0-4.0-1.27","5bb7d8139b5f7e0001d43a6c","B2","batch2","spm_respsonse","18071.099999964237","img/question_5_4.jpeg","1","mat_52","2","1","1","18071.099999964237","","","","","","","","","","","","","","","","","","","","",""
"","","","","","html-keyboard-response","109","891900","0.0-2.0-4.0-0.28","5bb7d8139b5f7e0001d43a6c","B2","batch2","spm_show_trial_num","null","<p class=block-text>Trial 53 out of 60</p>","null","","","","","","","","","","","","","","","","","","","","","","","","","",""
"","","","","","image-button-response","110","901646","0.0-2.0-4.0-1.28","5bb7d8139b5f7e0001d43a6c","B2","batch2","spm_respsonse","9744.5","img/question_5_5.jpeg","0","mat_53","1","1","1","9744.5","","","","","","","","","","","","","","","","","","","","",""
"","","","","","html-keyboard-response","111","902697","0.0-2.0-4.0-0.29","5bb7d8139b5f7e0001d43a6c","B2","batch2","spm_show_trial_num","null","<p class=block-text>Trial 54 out of 60</p>","null","","","","","","","","","","","","","","","","","","","","","","","","","",""
"","","","","","image-button-response","112","923921","0.0-2.0-4.0-1.29","5bb7d8139b5f7e0001d43a6c","B2","batch2","spm_respsonse","21222.399999976158","img/question_5_6.jpeg","4","mat_54","5","1","1","21222.399999976158","","","","","","","","","","","","","","","","","","","","",""
"","","","","","html-keyboard-response","113","924973","0.0-2.0-4.0-0.30","5bb7d8139b5f7e0001d43a6c","B2","batch2","spm_show_trial_num","null","<p class=block-text>Trial 55 out of 60</p>","null","","","","","","","","","","","","","","","","","","","","","","","","","",""
"","","","","","image-button-response","114","968428","0.0-2.0-4.0-1.30","5bb7d8139b5f7e0001d43a6c","B2","batch2","spm_respsonse","43453.5","img/question_5_7.jpeg","0","mat_55","1","1","1","43453.5","","","","","","","","","","","","","","","","","","","","",""
"","","","","","html-keyboard-response","115","969480","0.0-2.0-4.0-0.31","5bb7d8139b5f7e0001d43a6c","B2","batch2","spm_show_trial_num","null","<p class=block-text>Trial 56 out of 60</p>","null","","","","","","","","","","","","","","","","","","","","","","","","","",""
"","","","","","image-button-response","116","988355","0.0-2.0-4.0-1.31","5bb7d8139b5f7e0001d43a6c","B2","batch2","spm_respsonse","18873","img/question_5_8.jpeg","5","mat_56","6","1","1","18873","","","","","","","","","","","","","","","","","","","","",""
"","","","","","html-keyboard-response","117","989409","0.0-2.0-4.0-0.32","5bb7d8139b5f7e0001d43a6c","B2","batch2","spm_show_trial_num","null","<p class=block-text>Trial 57 out of 60</p>","null","","","","","","","","","","","","","","","","","","","","","","","","","",""
"","","","","","image-button-response","118","1023028","0.0-2.0-4.0-1.32","5bb7d8139b5f7e0001d43a6c","B2","batch2","spm_respsonse","33618.30000001192","img/question_5_9.jpeg","2","mat_57","3","1","1","33618.30000001192","","","","","","","","","","","","","","","","","","","","",""
"","","","","","html-keyboard-response","119","1024082","0.0-2.0-4.0-0.33","5bb7d8139b5f7e0001d43a6c","B2","batch2","spm_show_trial_num","null","<p class=block-text>Trial 58 out of 60</p>","null","","","","","","","","","","","","","","","","","","","","","","","","","",""
"","","","","","image-button-response","120","1219856","0.0-2.0-4.0-1.33","5bb7d8139b5f7e0001d43a6c","B2","batch2","spm_respsonse","195773.40000003576","img/question_5_10.jpeg","0","mat_58","2","0","0","195773.40000003576","","","","","","","","","","","","","","","","","","","","",""
"","","","","","html-keyboard-response","121","1220909","0.0-2.0-4.0-0.34","5bb7d8139b5f7e0001d43a6c","B2","batch2","spm_show_trial_num","null","<p class=block-text>Trial 59 out of 60</p>","null","","","","","","","","","","","","","","","","","","","","","","","","","",""
"","","","","","image-button-response","122","1320833","0.0-2.0-4.0-1.34","5bb7d8139b5f7e0001d43a6c","B2","batch2","spm_respsonse","99921.39999997616","img/question_5_11.jpeg","3","mat_59","4","1","1","99921.39999997616","","","","","","","","","","","","","","","","","","","","",""
"","","","","","html-keyboard-response","123","1321886","0.0-2.0-4.0-0.35","5bb7d8139b5f7e0001d43a6c","B2","batch2","spm_show_trial_num","null","<p class=block-text>Trial 60 out of 60</p>","null","","","","","","","","","","","","","","","","","","","","","","","","","",""
"","","","","","image-button-response","124","1322835","0.0-2.0-4.0-1.35","5bb7d8139b5f7e0001d43a6c","B2","batch2","spm_respsonse","947.6999999880791","img/question_5_12.jpeg","4","mat_60","5","1","1","947.6999999880791","","","","","","","","","","","","","","","","","","","","",""
"","","","","","html-button-response","125","1324335","0.0-2.0-5.0","5bb7d8139b5f7e0001d43a6c","B2","batch2","spm_goodbye","1249.199999988079","<p class= block-text>This concludes the Standard Progressive Matrix game. Thank you for your responses!<br> When you are ready, click the button continue</p>","0","","","","","","","","","","","","","","","","","","","","","","","","","",""
"true","","","","","fullscreen","126","1326461","0.0-3.0-0.0","5bb7d8139b5f7e0001d43a6c","B2","batch2","","","","","","","","","","","","","","","","","","","","","","","","","","","","","",""
"","","","","","instructions","127","1377189","0.0-3.0-1.0-0.0-0.0","5bb7d8139b5f7e0001d43a6c","B2","batch2","tol-instructions","50727.299999952316","","","","","","","","[{""page_index"":0,""viewing_time"":6580.599999964237},{""page_index"":1,""viewing_time"":9764.600000023842},{""page_index"":2,""viewing_time"":3030},{""page_index"":3,""viewing_time"":11062.800000011921},{""page_index"":4,""viewing_time"":4905},{""page_index"":5,""viewing_time"":12585.099999964237},{""page_index"":6,""viewing_time"":2799}]","","","","","","","","","","","","","","","","","","","",""
"","","","","","html-button-response","128","1378042","0.0-3.0-1.0-1.0-0.0","5bb7d8139b5f7e0001d43a6c","B2","batch2","tol_enter_quiz","852.8000000119209","<p class=block-text> Let's answer a few questions <br>","0","","","","","","","","","","","","","","","","","","","","","","","","","",""
"","","","","","html-button-response","129","1386653","0.0-3.0-1.0-1.0-1.0","5bb7d8139b5f7e0001d43a6c","B2","batch2","tol_quiz","8610","<p class = block-text>True or False: You can only move the ball on top of a peg. <br></p>","0","","","true","","","","","","","","","","","","","","","","","","","","","","",""
"","","","","","html-button-response","130","1387891","0.0-3.0-1.0-1.0-2.0","5bb7d8139b5f7e0001d43a6c","B2","batch2","tol_quiz_feedback","1236.6000000238419","<p class = block-text>Correct! You can only move the ball on top of a peg.</p>","0","","","","","","","","","","","","","","","","","","","","","","","","","",""
"","","","","","html-button-response","131","1390568","0.0-3.0-1.0-1.0-3.0","5bb7d8139b5f7e0001d43a6c","B2","batch2","tol_quiz","2677.100000023842","<p class = block-text>True or False: You should try to match your board with the target board with fewest moves possible. <br></p>","0","","","true","","","","","","","","","","","","","","","","","","","","","","",""
"","","","","","html-button-response","132","1391130","0.0-3.0-1.0-1.0-4.0","5bb7d8139b5f7e0001d43a6c","B2","batch2","tol_quiz_feedback","561","<p class = block-text>Correct! </p>","0","","","","","","","","","","","","","","","","","","","","","","","","","",""
"","","","","","html-button-response","133","1392638","0.0-3.0-2.0","5bb7d8139b5f7e0001d43a6c","B2","batch2","","1506.7999999523163","<p class=block-text> Now that you've understood the game, let's practice a few easier examples before we start!<br> <br>","0","","","","","","","","","","","","","","","","","","","","","","","","","",""
"","","","","","single-stim-button","134","1396141","0.0-3.0-3.0-0.0","5bb7d8139b5f7e0001d43a6c","B2","batch2","tol_practice","3501","","","","","","","","","tol_peg_2","3501","3501","0","[[1,2,0],[0,0],[0]]","1","[[1,2,0],[0,0],[3]]","practice","3501","","","","","","","","","","",""
"","","","","","single-stim-button","135","1397010","0.0-3.0-3.0-1.0","5bb7d8139b5f7e0001d43a6c","B2","batch2","tol_practice","868","","","","","","","","","tol_peg_3","868","868","0","[[1,2,0],[0,0],[3]]","1","[[1,2,0],[0,0],[3]]","practice","868","","","","","","","","","","",""
"","","","","","poldrack-single-stim","136","1398013","0.0-3.0-4.0","5bb7d8139b5f7e0001d43a6c","B2","batch2","tol_feedback","-1","","","","","true","","","","","1000","1000","500","","","","","","-1","none","true","","0","","","","","",""
"","","","","","single-stim-button","137","1401893","0.0-3.0-5.0-0.0","5bb7d8139b5f7e0001d43a6c","B2","batch2","tol_practice","3879","","","","","","","","","tol_peg_1","3879","3879","0","[[1,0,0],[3,0],[0]]","2","[[0,0,0],[3,1],[2]]","practice","3879","","","","","","","","","","",""
"","","","","","single-stim-button","138","1402815","0.0-3.0-5.0-1.0","5bb7d8139b5f7e0001d43a6c","B2","batch2","tol_practice","922","","","","","","","","","tol_peg_3","922","922","0","[[1,0,0],[3,0],[2]]","2","[[0,0,0],[3,1],[2]]","practice","922","","","","","","","","","","",""
"","","","","","single-stim-button","139","1403408","0.0-3.0-5.1-0.1","5bb7d8139b5f7e0001d43a6c","B2","batch2","tol_practice","593","","","","","","","","","tol_peg_1","593","593","0","[[0,0,0],[3,0],[2]]","3","[[0,0,0],[3,1],[2]]","practice","593","","","","","","","","","","",""
"","","","","","single-stim-button","140","1403850","0.0-3.0-5.1-1.1","5bb7d8139b5f7e0001d43a6c","B2","batch2","tol_practice","442","","","","","","","","","tol_peg_2","442","442","0","[[0,0,0],[3,1],[2]]","3","[[0,0,0],[3,1],[2]]","practice","442","","","","","","","","","","",""
"","","","","","poldrack-single-stim","141","1404852","0.0-3.0-6.0","5bb7d8139b5f7e0001d43a6c","B2","batch2","tol_feedback","-1","","","","","true","","","","","1000","1000","500","","","","","","-1","none","true","","0","","","","","",""
"","","","","","single-stim-button","142","1407480","0.0-3.0-7.0-0.0","5bb7d8139b5f7e0001d43a6c","B2","batch2","tol_practice","2626","","","","","","","","","tol_peg_2","2626","2626","0","[[1,2,0],[0,0],[0]]","4","[[1,0,0],[2,0],[3]]","practice","2626","","","","","","","","","","",""
"","","","","","single-stim-button","143","1407990","0.0-3.0-7.0-1.0","5bb7d8139b5f7e0001d43a6c","B2","batch2","tol_practice","510","","","","","","","","","tol_peg_3","510","510","0","[[1,2,0],[0,0],[3]]","4","[[1,0,0],[2,0],[3]]","practice","510","","","","","","","","","","",""
"","","","","","single-stim-button","144","1408666","0.0-3.0-7.1-0.1","5bb7d8139b5f7e0001d43a6c","B2","batch2","tol_practice","675","","","","","","","","","tol_peg_1","675","675","0","[[1,0,0],[0,0],[3]]","5","[[1,0,0],[2,0],[3]]","practice","675","","","","","","","","","","",""
"","","","","","single-stim-button","145","1409160","0.0-3.0-7.1-1.1","5bb7d8139b5f7e0001d43a6c","B2","batch2","tol_practice","493","","","","","","","","","tol_peg_2","493","493","0","[[1,0,0],[2,0],[3]]","5","[[1,0,0],[2,0],[3]]","practice","493","","","","","","","","","","",""
"","","","","","poldrack-single-stim","146","1410161","0.0-3.0-8.0","5bb7d8139b5f7e0001d43a6c","B2","batch2","tol_feedback","-1","","","","","true","","","","","1000","1000","500","","","","","","-1","none","true","","0","","","","","",""
"","","","","","html-button-response","147","1411852","0.0-3.0-9.0","5bb7d8139b5f7e0001d43a6c","B2","batch2","tol_instruction","1690.199999988079","<div class = centerbox><p class = center-block-text>Great job! You are done with practice trials<br>You are about to start official trials.<br> <br> Problem <strong>1</strong> out of 25 problems</p></div>","0","","","","","","","","","","","","","","","","","","","","","","","","","",""
"","","","","","single-stim-button","148","1419674","0.0-3.0-10.0-0.0","5bb7d8139b5f7e0001d43a6c","B2","batch2","tol_tohand","6820","","","","","","","","","tol_peg_1","6820","6820","0","[[1,0,0],[3,0],[0]]","1","[[1,3,0],[2,0],[0]]","0","0","","","","","","3","","","","",""
"","","","","","single-stim-button","149","1420447","0.0-3.0-10.0-1.0","5bb7d8139b5f7e0001d43a6c","B2","batch2","tol_toboard","772","","","","","","","","","tol_peg_3","772","772","0","[[1,0,0],[3,0],[2]]","1","[[1,3,0],[2,0],[0]]","0","0","","","","","","3","","","","",""
"","","","","","single-stim-button","150","1421077","0.0-3.0-10.1-0.1","5bb7d8139b5f7e0001d43a6c","B2","batch2","tol_tohand","630","","","","","","","","","tol_peg_2","630","630","0","[[1,0,0],[0,0],[2]]","2","[[1,3,0],[2,0],[0]]","0","0","","","","","","3","","","","",""
"","","","","","single-stim-button","151","1421685","0.0-3.0-10.1-1.1","5bb7d8139b5f7e0001d43a6c","B2","batch2","tol_toboard","608","","","","","","","","","tol_peg_1","608","608","0","[[1,3,0],[0,0],[2]]","2","[[1,3,0],[2,0],[0]]","0","0","","","","","","3","","","","",""
"","","","","","single-stim-button","152","1422330","0.0-3.0-10.2-0.2","5bb7d8139b5f7e0001d43a6c","B2","batch2","tol_tohand","645","","","","","","","","","tol_peg_3","645","645","0","[[1,3,0],[0,0],[0]]","3","[[1,3,0],[2,0],[0]]","0","0","","","","","","3","","","","",""
"","","","","","single-stim-button","153","1423064","0.0-3.0-10.2-1.2","5bb7d8139b5f7e0001d43a6c","B2","batch2","tol_toboard","734","","","","","","","","","tol_peg_2","734","734","0","[[1,3,0],[2,0],[0]]","3","[[1,3,0],[2,0],[0]]","0","0","","","","","","3","","","","",""
"","","","","","poldrack-single-stim","154","1424066","0.0-3.0-11.0","5bb7d8139b5f7e0001d43a6c","B2","batch2","tol_feedback","-1","","","","","true","","","","","1000","1000","500","","","","","","-1","none","true","6820","8095","","","","","",""
"","","","","","html-button-response","155","1425329","0.0-3.0-12.0","5bb7d8139b5f7e0001d43a6c","B2","batch2","tol_trial_num","1263","<div class = centerbox><p class = center-block-text>problem <strong>2</strong> out of 25 problems</p></div>","0","","","","","","","","","","","","","","","","","","","","","","","","","",""
"","","","","","single-stim-button","156","1431464","0.0-3.0-13.0-0.0","5bb7d8139b5f7e0001d43a6c","B2","batch2","tol_tohand","6134","","","","","","","","","tol_peg_1","6134","6134","0","[[1,0,0],[3,0],[0]]","1","[[2,1,3],[0,0],[0]]","1","0","","","","","","5","","","","",""
"","","","","","single-stim-button","157","1433565","0.0-3.0-13.0-1.0","5bb7d8139b5f7e0001d43a6c","B2","batch2","tol_toboard","2100","","","","","","","","","tol_peg_3","2100","2100","0","[[1,0,0],[3,0],[2]]","1","[[2,1,3],[0,0],[0]]","1","0","","","","","","5","","","","",""
"","","","","","single-stim-button","158","1456477","0.0-3.0-13.1-0.1","5bb7d8139b5f7e0001d43a6c","B2","batch2","tol_tohand","22911","","","","","","","","","tol_peg_1","22911","22911","0","[[0,0,0],[3,0],[2]]","2","[[2,1,3],[0,0],[0]]","1","0","","","","","","5","","","","",""
"","","","","","single-stim-button","159","1457235","0.0-3.0-13.1-1.1","5bb7d8139b5f7e0001d43a6c","B2","batch2","tol_toboard","757","","","","","","","","","tol_peg_2","757","757","0","[[0,0,0],[3,1],[2]]","2","[[2,1,3],[0,0],[0]]","1","0","","","","","","5","","","","",""
"","","","","","single-stim-button","160","1457745","0.0-3.0-13.2-0.2","5bb7d8139b5f7e0001d43a6c","B2","batch2","tol_tohand","510","","","","","","","","","tol_peg_3","510","510","0","[[0,0,0],[3,1],[0]]","3","[[2,1,3],[0,0],[0]]","1","0","","","","","","5","","","","",""
"","","","","","single-stim-button","161","1459222","0.0-3.0-13.2-1.2","5bb7d8139b5f7e0001d43a6c","B2","batch2","tol_toboard","1476","","","","","","","","","tol_peg_1","1476","1476","0","[[2,0,0],[3,1],[0]]","3","[[2,1,3],[0,0],[0]]","1","0","","","","","","5","","","","",""
"","","","","","single-stim-button","162","1460011","0.0-3.0-13.3-0.3","5bb7d8139b5f7e0001d43a6c","B2","batch2","tol_tohand","788","","","","","","","","","tol_peg_2","788","788","0","[[2,0,0],[3,0],[0]]","4","[[2,1,3],[0,0],[0]]","1","0","","","","","","5","","","","",""
"","","","","","single-stim-button","163","1460460","0.0-3.0-13.3-1.3","5bb7d8139b5f7e0001d43a6c","B2","batch2","tol_toboard","449","","","","","","","","","tol_peg_1","449","449","0","[[2,1,0],[3,0],[0]]","4","[[2,1,3],[0,0],[0]]","1","0","","","","","","5","","","","",""
"","","","","","single-stim-button","164","1460955","0.0-3.0-13.4-0.4","5bb7d8139b5f7e0001d43a6c","B2","batch2","tol_tohand","495","","","","","","","","","tol_peg_2","495","495","0","[[2,1,0],[0,0],[0]]","5","[[2,1,3],[0,0],[0]]","1","0","","","","","","5","","","","",""
"","","","","","single-stim-button","165","1461458","0.0-3.0-13.4-1.4","5bb7d8139b5f7e0001d43a6c","B2","batch2","tol_toboard","503","","","","","","","","","tol_peg_1","503","503","0","[[2,1,3],[0,0],[0]]","5","[[2,1,3],[0,0],[0]]","1","0","","","","","","5","","","","",""
"","","","","","poldrack-single-stim","166","1462460","0.0-3.0-14.0","5bb7d8139b5f7e0001d43a6c","B2","batch2","tol_feedback","-1","","","","","true","","","","","1000","1000","500","","","","","","-1","none","true","6134","30838","","","","","",""
"","","","","","html-button-response","167","1463393","0.0-3.0-15.0","5bb7d8139b5f7e0001d43a6c","B2","batch2","tol_trial_num","931.7000000476837","<div class = centerbox><p class = center-block-text>problem <strong>3</strong> out of 25 problems</p></div>","0","","","","","","","","","","","","","","","","","","","","","","","","","",""
"","","","","","single-stim-button","168","1484385","0.0-3.0-16.0-0.0","5bb7d8139b5f7e0001d43a6c","B2","batch2","tol_tohand","20991","","","","","","","","","tol_peg_1","20991","20991","0","[[2,0,0],[0,0],[1]]","1","[[1,2,0],[3,0],[0]]","2","0","","","","","","4","","","","",""
"","","","","","single-stim-button","169","1485360","0.0-3.0-16.0-1.0","5bb7d8139b5f7e0001d43a6c","B2","batch2","tol_toboard","974","","","","","","","","","tol_peg_2","974","974","0","[[2,0,0],[3,0],[1]]","1","[[1,2,0],[3,0],[0]]","2","0","","","","","","4","","","","",""
"","","","","","single-stim-button","170","1489972","0.0-3.0-16.1-0.1","5bb7d8139b5f7e0001d43a6c","B2","batch2","tol_tohand","4612","","","","","","","","","tol_peg_1","4612","4612","0","[[0,0,0],[3,0],[1]]","2","[[1,2,0],[3,0],[0]]","2","0","","","","","","4","","","","",""
"","","","","","single-stim-button","171","1490955","0.0-3.0-16.1-1.1","5bb7d8139b5f7e0001d43a6c","B2","batch2","tol_toboard","982","","","","","","","","","tol_peg_2","982","982","0","[[0,0,0],[3,2],[1]]","2","[[1,2,0],[3,0],[0]]","2","0","","","","","","4","","","","",""
"","","","","","single-stim-button","172","1491428","0.0-3.0-16.2-0.2","5bb7d8139b5f7e0001d43a6c","B2","batch2","tol_tohand","470","","","","","","","","","tol_peg_3","470","470","0","[[0,0,0],[3,2],[0]]","3","[[1,2,0],[3,0],[0]]","2","0","","","","","","4","","","","",""
"","","","","","single-stim-button","173","1492162","0.0-3.0-16.2-1.2","5bb7d8139b5f7e0001d43a6c","B2","batch2","tol_toboard","734","","","","","","","","","tol_peg_1","734","734","0","[[1,0,0],[3,2],[0]]","3","[[1,2,0],[3,0],[0]]","2","0","","","","","","4","","","","",""
"","","","","","single-stim-button","174","1492747","0.0-3.0-16.3-0.3","5bb7d8139b5f7e0001d43a6c","B2","batch2","tol_tohand","584","","","","","","","","","tol_peg_2","584","584","0","[[1,0,0],[3,0],[0]]","4","[[1,2,0],[3,0],[0]]","2","0","","","","","","4","","","","",""
"","","","","","single-stim-button","175","1493333","0.0-3.0-16.3-1.3","5bb7d8139b5f7e0001d43a6c","B2","batch2","tol_toboard","585","","","","","","","","","tol_peg_1","585","585","0","[[1,2,0],[3,0],[0]]","4","[[1,2,0],[3,0],[0]]","2","0","","","","","","4","","","","",""
"","","","","","poldrack-single-stim","176","1494334","0.0-3.0-17.0","5bb7d8139b5f7e0001d43a6c","B2","batch2","tol_feedback","-1","","","","","true","","","","","1000","1000","500","","","","","","-1","none","true","20991","26657","","","","","",""
"","","","","","html-button-response","177","1495080","0.0-3.0-18.0","5bb7d8139b5f7e0001d43a6c","B2","batch2","tol_trial_num","745.1000000238419","<div class = centerbox><p class = center-block-text>problem <strong>4</strong> out of 25 problems</p></div>","0","","","","","","","","","","","","","","","","","","","","","","","","","",""
"","","","","","single-stim-button","178","1500727","0.0-3.0-19.0-0.0","5bb7d8139b5f7e0001d43a6c","B2","batch2","tol_tohand","5647","","","","","","","","","tol_peg_2","5647","5647","0","[[3,0,0],[2,0],[0]]","1","[[3,0,0],[1,0],[2]]","3","0","","","","","","3","","","","",""
"","","","","","single-stim-button","179","1501267","0.0-3.0-19.0-1.0","5bb7d8139b5f7e0001d43a6c","B2","batch2","tol_toboard","539","","","","","","","","","tol_peg_1","539","539","0","[[3,1,0],[2,0],[0]]","1","[[3,0,0],[1,0],[2]]","3","0","","","","","","3","","","","",""
"","","","","","single-stim-button","180","1501837","0.0-3.0-19.1-0.1","5bb7d8139b5f7e0001d43a6c","B2","batch2","tol_tohand","569","","","","","","","","","tol_peg_2","569","569","0","[[3,1,0],[0,0],[0]]","2","[[3,0,0],[1,0],[2]]","3","0","","","","","","3","","","","",""
"","","","","","single-stim-button","181","1502670","0.0-3.0-19.1-1.1","5bb7d8139b5f7e0001d43a6c","B2","batch2","tol_toboard","833","","","","","","","","","tol_peg_3","833","833","0","[[3,1,0],[0,0],[2]]","2","[[3,0,0],[1,0],[2]]","3","0","","","","","","3","","","","",""
"","","","","","single-stim-button","182","1503322","0.0-3.0-19.2-0.2","5bb7d8139b5f7e0001d43a6c","B2","batch2","tol_tohand","652","","","","","","","","","tol_peg_1","652","652","0","[[3,0,0],[0,0],[2]]","3","[[3,0,0],[1,0],[2]]","3","0","","","","","","3","","","","",""
"","","","","","single-stim-button","183","1503795","0.0-3.0-19.2-1.2","5bb7d8139b5f7e0001d43a6c","B2","batch2","tol_toboard","471","","","","","","","","","tol_peg_2","471","471","0","[[3,0,0],[1,0],[2]]","3","[[3,0,0],[1,0],[2]]","3","0","","","","","","3","","","","",""
"","","","","","poldrack-single-stim","184","1504796","0.0-3.0-20.0","5bb7d8139b5f7e0001d43a6c","B2","batch2","tol_feedback","-1","","","","","true","","","","","1000","1000","500","","","","","","-1","none","true","5647","6868","","","","","",""
"","","","","","html-button-response","185","1505559","0.0-3.0-21.0","5bb7d8139b5f7e0001d43a6c","B2","batch2","tol_trial_num","762","<div class = centerbox><p class = center-block-text>problem <strong>5</strong> out of 25 problems</p></div>","0","","","","","","","","","","","","","","","","","","","","","","","","","",""
"","","","","","single-stim-button","186","1518532","0.0-3.0-22.0-0.0","5bb7d8139b5f7e0001d43a6c","B2","batch2","tol_tohand","12973","","","","","","","","","tol_peg_2","12973","12973","0","[[1,0,0],[0,0],[3]]","1","[[0,0,0],[1,2],[3]]","4","0","","","","","","7","","","","",""
"","","","","","single-stim-button","187","1519545","0.0-3.0-22.0-1.0","5bb7d8139b5f7e0001d43a6c","B2","batch2","tol_toboard","1012","","","","","","","","","tol_peg_1","1012","1012","0","[[1,2,0],[0,0],[3]]","1","[[0,0,0],[1,2],[3]]","4","0","","","","","","7","","","","",""
"","","","","","single-stim-button","188","1520054","0.0-3.0-22.1-0.1","5bb7d8139b5f7e0001d43a6c","B2","batch2","tol_tohand","509","","","","","","","","","tol_peg_3","509","509","0","[[1,2,0],[0,0],[0]]","2","[[0,0,0],[1,2],[3]]","4","0","","","","","","7","","","","",""
"","","","","","single-stim-button","189","1521224","0.0-3.0-22.1-1.1","5bb7d8139b5f7e0001d43a6c","B2","batch2","tol_toboard","1169","","","","","","","","","tol_peg_2","1169","1169","0","[[1,2,0],[3,0],[0]]","2","[[0,0,0],[1,2],[3]]","4","0","","","","","","7","","","","",""
"","","","","","single-stim-button","190","1521960","0.0-3.0-22.2-0.2","5bb7d8139b5f7e0001d43a6c","B2","batch2","tol_tohand","735","","","","","","","","","tol_peg_1","735","735","0","[[1,0,0],[3,0],[0]]","3","[[0,0,0],[1,2],[3]]","4","0","","","","","","7","","","","",""
"","","","","","single-stim-button","191","1529805","0.0-3.0-22.2-1.2","5bb7d8139b5f7e0001d43a6c","B2","batch2","tol_toboard","7845","","","","","","","","","tol_peg_3","7845","7845","0","[[1,0,0],[3,0],[2]]","3","[[0,0,0],[1,2],[3]]","4","0","","","","","","7","","","","",""
"","","","","","single-stim-button","192","1530804","0.0-3.0-22.3-0.3","5bb7d8139b5f7e0001d43a6c","B2","batch2","tol_tohand","998","","","","","","","","","tol_peg_1","998","998","0","[[0,0,0],[3,0],[2]]","4","[[0,0,0],[1,2],[3]]","4","0","","","","","","7","","","","",""
"","","","","","single-stim-button","193","1531387","0.0-3.0-22.3-1.3","5bb7d8139b5f7e0001d43a6c","B2","batch2","tol_toboard","582","","","","","","","","","tol_peg_2","582","582","0","[[0,0,0],[3,1],[2]]","4","[[0,0,0],[1,2],[3]]","4","0","","","","","","7","","","","",""
"","","","","","single-stim-button","194","1532370","0.0-3.0-22.4-0.4","5bb7d8139b5f7e0001d43a6c","B2","batch2","tol_tohand","983","","","","","","","","","tol_peg_3","983","983","0","[[0,0,0],[3,1],[0]]","5","[[0,0,0],[1,2],[3]]","4","0","","","","","","7","","","","",""
"","","","","","single-stim-button","195","1533210","0.0-3.0-22.4-1.4","5bb7d8139b5f7e0001d43a6c","B2","batch2","tol_toboard","840","","","","","","","","","tol_peg_1","840","840","0","[[2,0,0],[3,1],[0]]","5","[[0,0,0],[1,2],[3]]","4","0","","","","","","7","","","","",""
"","","","","","single-stim-button","196","1535415","0.0-3.0-22.5-0.5","5bb7d8139b5f7e0001d43a6c","B2","batch2","tol_tohand","2205","","","","","","","","","tol_peg_2","2205","2205","0","[[2,0,0],[3,0],[0]]","6","[[0,0,0],[1,2],[3]]","4","0","","","","","","7","","","","",""
"","","","","","single-stim-button","197","1536353","0.0-3.0-22.5-1.5","5bb7d8139b5f7e0001d43a6c","B2","batch2","tol_toboard","938","","","","","","","","","tol_peg_3","938","938","0","[[2,0,0],[3,0],[1]]","6","[[0,0,0],[1,2],[3]]","4","0","","","","","","7","","","","",""
"","","","","","single-stim-button","198","1536938","0.0-3.0-22.6-0.6","5bb7d8139b5f7e0001d43a6c","B2","batch2","tol_tohand","585","","","","","","","","","tol_peg_2","585","585","0","[[2,0,0],[0,0],[1]]","7","[[0,0,0],[1,2],[3]]","4","0","","","","","","7","","","","",""
"","","","","","single-stim-button","199","1537440","0.0-3.0-22.6-1.6","5bb7d8139b5f7e0001d43a6c","B2","batch2","tol_toboard","501","","","","","","","","","tol_peg_1","501","501","0","[[2,3,0],[0,0],[1]]","7","[[0,0,0],[1,2],[3]]","4","0","","","","","","7","","","","",""
"","","","","","single-stim-button","200","1538025","0.0-3.0-22.7-0.7","5bb7d8139b5f7e0001d43a6c","B2","batch2","tol_tohand","585","","","","","","","","","tol_peg_3","585","585","0","[[2,3,0],[0,0],[0]]","8","[[0,0,0],[1,2],[3]]","4","0","","","","","","7","","","","",""
"","","","","","single-stim-button","201","1538130","0.0-3.0-22.7-1.7","5bb7d8139b5f7e0001d43a6c","B2","batch2","tol_toboard","105","","","","","","","","","tol_peg_3","105","105","0","[[2,3,0],[0,0],[1]]","8","[[0,0,0],[1,2],[3]]","4","0","","","","","","7","","","","",""
"","","","","","single-stim-button","202","1538753","0.0-3.0-22.8-0.8","5bb7d8139b5f7e0001d43a6c","B2","batch2","tol_tohand","622","","","","","","","","","tol_peg_3","622","622","0","[[2,3,0],[0,0],[0]]","9","[[0,0,0],[1,2],[3]]","4","0","","","","","","7","","","","",""
"","","","","","single-stim-button","203","1539705","0.0-3.0-22.8-1.8","5bb7d8139b5f7e0001d43a6c","B2","batch2","tol_toboard","952","","","","","","","","","tol_peg_2","952","952","0","[[2,3,0],[1,0],[0]]","9","[[0,0,0],[1,2],[3]]","4","0","","","","","","7","","","","",""
"","","","","","single-stim-button","204","1540297","0.0-3.0-22.9-0.9","5bb7d8139b5f7e0001d43a6c","B2","batch2","tol_tohand","592","","","","","","","","","tol_peg_1","592","592","0","[[2,0,0],[1,0],[0]]","10","[[0,0,0],[1,2],[3]]","4","0","","","","","","7","","","","",""
"","","","","","single-stim-button","205","1540920","0.0-3.0-22.9-1.9","5bb7d8139b5f7e0001d43a6c","B2","batch2","tol_toboard","622","","","","","","","","","tol_peg_3","622","622","0","[[2,0,0],[1,0],[3]]","10","[[0,0,0],[1,2],[3]]","4","0","","","","","","7","","","","",""
"","","","","","single-stim-button","206","1541565","0.0-3.0-22.10-0.10","5bb7d8139b5f7e0001d43a6c","B2","batch2","tol_tohand","645","","","","","","","","","tol_peg_1","645","645","0","[[0,0,0],[1,0],[3]]","11","[[0,0,0],[1,2],[3]]","4","0","","","","","","7","","","","",""
"","","","","","single-stim-button","207","1541895","0.0-3.0-22.10-1.10","5bb7d8139b5f7e0001d43a6c","B2","batch2","tol_toboard","330","","","","","","","","","tol_peg_2","330","330","0","[[0,0,0],[1,2],[3]]","11","[[0,0,0],[1,2],[3]]","4","0","","","","","","7","","","","",""
"","","","","","poldrack-single-stim","208","1542897","0.0-3.0-23.0","5bb7d8139b5f7e0001d43a6c","B2","batch2","tol_feedback","-1","","","","","true","","","","","1000","1000","500","","","","","","-1","none","true","12973","21432","","","","","",""
"","","","","","html-button-response","209","1543748","0.0-3.0-24.0","5bb7d8139b5f7e0001d43a6c","B2","batch2","tol_trial_num","850","<div class = centerbox><p class = center-block-text>problem <strong>6</strong> out of 25 problems</p></div>","0","","","","","","","","","","","","","","","","","","","","","","","","","",""
"","","","","","single-stim-button","210","1555207","0.0-3.0-25.0-0.0","5bb7d8139b5f7e0001d43a6c","B2","batch2","tol_tohand","11459","","","","","","","","","tol_peg_3","11459","11459","0","[[0,0,0],[1,2],[0]]","1","[[1,0,0],[2,3],[0]]","5","0","","","","","","6","","","","",""
"","","","","","single-stim-button","211","1556244","0.0-3.0-25.0-1.0","5bb7d8139b5f7e0001d43a6c","B2","batch2","tol_toboard","1036","","","","","","","","","tol_peg_1","1036","1036","0","[[3,0,0],[1,2],[0]]","1","[[1,0,0],[2,3],[0]]","5","0","","","","","","6","","","","",""
"","","","","","single-stim-button","212","1556865","0.0-3.0-25.1-0.1","5bb7d8139b5f7e0001d43a6c","B2","batch2","tol_tohand","620","","","","","","","","","tol_peg_2","620","620","0","[[3,0,0],[1,0],[0]]","2","[[1,0,0],[2,3],[0]]","5","0","","","","","","6","","","","",""
"","","","","","single-stim-button","213","1557952","0.0-3.0-25.1-1.1","5bb7d8139b5f7e0001d43a6c","B2","batch2","tol_toboard","1087","","","","","","","","","tol_peg_3","1087","1087","0","[[3,0,0],[1,0],[2]]","2","[[1,0,0],[2,3],[0]]","5","0","","","","","","6","","","","",""
"","","","","","single-stim-button","214","1562835","0.0-3.0-25.2-0.2","5bb7d8139b5f7e0001d43a6c","B2","batch2","tol_tohand","4882","","","","","","","","","tol_peg_1","4882","4882","0","[[0,0,0],[1,0],[2]]","3","[[1,0,0],[2,3],[0]]","5","0","","","","","","6","","","","",""
"","","","","","single-stim-button","215","1563750","0.0-3.0-25.2-1.2","5bb7d8139b5f7e0001d43a6c","B2","batch2","tol_toboard","914","","","","","","","","","tol_peg_2","914","914","0","[[0,0,0],[1,3],[2]]","3","[[1,0,0],[2,3],[0]]","5","0","","","","","","6","","","","",""
"","","","","","single-stim-button","216","1564327","0.0-3.0-25.3-0.3","5bb7d8139b5f7e0001d43a6c","B2","batch2","tol_tohand","577","","","","","","","","","tol_peg_3","577","577","0","[[0,0,0],[1,3],[0]]","4","[[1,0,0],[2,3],[0]]","5","0","","","","","","6","","","","",""
"","","","","","single-stim-button","217","1564981","0.0-3.0-25.3-1.3","5bb7d8139b5f7e0001d43a6c","B2","batch2","tol_toboard","653","","","","","","","","","tol_peg_1","653","653","0","[[2,0,0],[1,3],[0]]","4","[[1,0,0],[2,3],[0]]","5","0","","","","","","6","","","","",""
"","","","","","single-stim-button","218","1565550","0.0-3.0-25.4-0.4","5bb7d8139b5f7e0001d43a6c","B2","batch2","tol_tohand","568","","","","","","","","","tol_peg_2","568","568","0","[[2,0,0],[1,0],[0]]","5","[[1,0,0],[2,3],[0]]","5","0","","","","","","6","","","","",""
"","","","","","single-stim-button","219","1566811","0.0-3.0-25.4-1.4","5bb7d8139b5f7e0001d43a6c","B2","batch2","tol_toboard","1261","","","","","","","","","tol_peg_3","1261","1261","0","[[2,0,0],[1,0],[3]]","5","[[1,0,0],[2,3],[0]]","5","0","","","","","","6","","","","",""
"","","","","","single-stim-button","220","1568422","0.0-3.0-25.5-0.5","5bb7d8139b5f7e0001d43a6c","B2","batch2","tol_tohand","1611","","","","","","","","","tol_peg_1","1611","1611","0","[[0,0,0],[1,0],[3]]","6","[[1,0,0],[2,3],[0]]","5","0","","","","","","6","","","","",""
"","","","","","single-stim-button","221","1568978","0.0-3.0-25.5-1.5","5bb7d8139b5f7e0001d43a6c","B2","batch2","tol_toboard","555","","","","","","","","","tol_peg_2","555","555","0","[[0,0,0],[1,2],[3]]","6","[[1,0,0],[2,3],[0]]","5","0","","","","","","6","","","","",""
"","","","","","single-stim-button","222","1572405","0.0-3.0-25.6-0.6","5bb7d8139b5f7e0001d43a6c","B2","batch2","tol_tohand","3427","","","","","","","","","tol_peg_3","3427","3427","0","[[0,0,0],[1,2],[0]]","7","[[1,0,0],[2,3],[0]]","5","0","","","","","","6","","","","",""
"","","","","","single-stim-button","223","1573320","0.0-3.0-25.6-1.6","5bb7d8139b5f7e0001d43a6c","B2","batch2","tol_toboard","914","","","","","","","","","tol_peg_1","914","914","0","[[3,0,0],[1,2],[0]]","7","[[1,0,0],[2,3],[0]]","5","0","","","","","","6","","","","",""
"","","","","","single-stim-button","224","1575195","0.0-3.0-25.7-0.7","5bb7d8139b5f7e0001d43a6c","B2","batch2","tol_tohand","1875","","","","","","","","","tol_peg_2","1875","1875","0","[[3,0,0],[1,0],[0]]","8","[[1,0,0],[2,3],[0]]","5","0","","","","","","6","","","","",""
"","","","","","single-stim-button","225","1575990","0.0-3.0-25.7-1.7","5bb7d8139b5f7e0001d43a6c","B2","batch2","tol_toboard","795","","","","","","","","","tol_peg_3","795","795","0","[[3,0,0],[1,0],[2]]","8","[[1,0,0],[2,3],[0]]","5","0","","","","","","6","","","","",""
"","","","","","single-stim-button","226","1576673","0.0-3.0-25.8-0.8","5bb7d8139b5f7e0001d43a6c","B2","batch2","tol_tohand","680","","","","","","","","","tol_peg_2","680","680","0","[[3,0,0],[0,0],[2]]","9","[[1,0,0],[2,3],[0]]","5","0","","","","","","6","","","","",""
"","","","","","single-stim-button","227","1577768","0.0-3.0-25.8-1.8","5bb7d8139b5f7e0001d43a6c","B2","batch2","tol_toboard","1095","","","","","","","","","tol_peg_1","1095","1095","0","[[3,1,0],[0,0],[2]]","9","[[1,0,0],[2,3],[0]]","5","0","","","","","","6","","","","",""
"","","","","","single-stim-button","228","1579012","0.0-3.0-25.9-0.9","5bb7d8139b5f7e0001d43a6c","B2","batch2","tol_tohand","1244","","","","","","","","","tol_peg_3","1244","1244","0","[[3,1,0],[0,0],[0]]","10","[[1,0,0],[2,3],[0]]","5","0","","","","","","6","","","","",""
"","","","","","single-stim-button","229","1579515","0.0-3.0-25.9-1.9","5bb7d8139b5f7e0001d43a6c","B2","batch2","tol_toboard","503","","","","","","","","","tol_peg_2","503","503","0","[[3,1,0],[2,0],[0]]","10","[[1,0,0],[2,3],[0]]","5","0","","","","","","6","","","","",""
"","","","","","single-stim-button","230","1580715","0.0-3.0-25.10-0.10","5bb7d8139b5f7e0001d43a6c","B2","batch2","tol_tohand","1200","","","","","","","","","tol_peg_1","1200","1200","0","[[3,0,0],[2,0],[0]]","11","[[1,0,0],[2,3],[0]]","5","0","","","","","","6","","","","",""
"","","","","","single-stim-button","231","1581360","0.0-3.0-25.10-1.10","5bb7d8139b5f7e0001d43a6c","B2","batch2","tol_toboard","645","","","","","","","","","tol_peg_3","645","645","0","[[3,0,0],[2,0],[1]]","11","[[1,0,0],[2,3],[0]]","5","0","","","","","","6","","","","",""
"","","","","","single-stim-button","232","1582096","0.0-3.0-25.11-0.11","5bb7d8139b5f7e0001d43a6c","B2","batch2","tol_tohand","735","","","","","","","","","tol_peg_1","735","735","0","[[0,0,0],[2,0],[1]]","12","[[1,0,0],[2,3],[0]]","5","0","","","","","","6","","","","",""
"","","","","","single-stim-button","233","1582680","0.0-3.0-25.11-1.11","5bb7d8139b5f7e0001d43a6c","B2","batch2","tol_toboard","583","","","","","","","","","tol_peg_2","583","583","0","[[0,0,0],[2,3],[1]]","12","[[1,0,0],[2,3],[0]]","5","0","","","","","","6","","","","",""
"","","","","","single-stim-button","234","1583407","0.0-3.0-25.12-0.12","5bb7d8139b5f7e0001d43a6c","B2","batch2","tol_tohand","727","","","","","","","","","tol_peg_3","727","727","0","[[0,0,0],[2,3],[0]]","13","[[1,0,0],[2,3],[0]]","5","0","","","","","","6","","","","",""
"","","","","","single-stim-button","235","1584127","0.0-3.0-25.12-1.12","5bb7d8139b5f7e0001d43a6c","B2","batch2","tol_toboard","720","","","","","","","","","tol_peg_1","720","720","0","[[1,0,0],[2,3],[0]]","13","[[1,0,0],[2,3],[0]]","5","0","","","","","","6","","","","",""
"","","","","","poldrack-single-stim","236","1585129","0.0-3.0-26.0","5bb7d8139b5f7e0001d43a6c","B2","batch2","tol_feedback","-1","","","","","true","","","","","1000","1000","500","","","","","","-1","none","true","11459","29605","","","","","",""
"","","","","","html-button-response","237","1585913","0.0-3.0-27.0","5bb7d8139b5f7e0001d43a6c","B2","batch2","tol_trial_num","782.7000000476837","<div class = centerbox><p class = center-block-text>problem <strong>7</strong> out of 25 problems</p></div>","0","","","","","","","","","","","","","","","","","","","","","","","","","",""
"","","","","","single-stim-button","238","1600687","0.0-3.0-28.0-0.0","5bb7d8139b5f7e0001d43a6c","B2","batch2","tol_tohand","14774","","","","","","","","","tol_peg_3","14774","14774","0","[[2,1,0],[0,0],[0]]","1","[[1,2,0],[3,0],[0]]","6","0","","","","","","5","","","","",""
"","","","","","single-stim-button","239","1601422","0.0-3.0-28.0-1.0","5bb7d8139b5f7e0001d43a6c","B2","batch2","tol_toboard","735","","","","","","","","","tol_peg_2","735","735","0","[[2,1,0],[3,0],[0]]","1","[[1,2,0],[3,0],[0]]","6","0","","","","","","5","","","","",""
"","","","","","single-stim-button","240","1603642","0.0-3.0-28.1-0.1","5bb7d8139b5f7e0001d43a6c","B2","batch2","tol_tohand","2219","","","","","","","","","tol_peg_1","2219","2219","0","[[2,0,0],[3,0],[0]]","2","[[1,2,0],[3,0],[0]]","6","0","","","","","","5","","","","",""
"","","","","","single-stim-button","241","1604744","0.0-3.0-28.1-1.1","5bb7d8139b5f7e0001d43a6c","B2","batch2","tol_toboard","1102","","","","","","","","","tol_peg_3","1102","1102","0","[[2,0,0],[3,0],[1]]","2","[[1,2,0],[3,0],[0]]","6","0","","","","","","5","","","","",""
"","","","","","single-stim-button","242","1605592","0.0-3.0-28.2-0.2","5bb7d8139b5f7e0001d43a6c","B2","batch2","tol_tohand","847","","","","","","","","","tol_peg_1","847","847","0","[[0,0,0],[3,0],[1]]","3","[[1,2,0],[3,0],[0]]","6","0","","","","","","5","","","","",""
"","","","","","single-stim-button","243","1606072","0.0-3.0-28.2-1.2","5bb7d8139b5f7e0001d43a6c","B2","batch2","tol_toboard","480","","","","","","","","","tol_peg_2","480","480","0","[[0,0,0],[3,2],[1]]","3","[[1,2,0],[3,0],[0]]","6","0","","","","","","5","","","","",""
"","","","","","single-stim-button","244","1606627","0.0-3.0-28.3-0.3","5bb7d8139b5f7e0001d43a6c","B2","batch2","tol_tohand","554","","","","","","","","","tol_peg_3","554","554","0","[[0,0,0],[3,2],[0]]","4","[[1,2,0],[3,0],[0]]","6","0","","","","","","5","","","","",""
"","","","","","single-stim-button","245","1607265","0.0-3.0-28.3-1.3","5bb7d8139b5f7e0001d43a6c","B2","batch2","tol_toboard","638","","","","","","","","","tol_peg_1","638","638","0","[[1,0,0],[3,2],[0]]","4","[[1,2,0],[3,0],[0]]","6","0","","","","","","5","","","","",""
"","","","","","single-stim-button","246","1607752","0.0-3.0-28.4-0.4","5bb7d8139b5f7e0001d43a6c","B2","batch2","tol_tohand","487","","","","","","","","","tol_peg_2","487","487","0","[[1,0,0],[3,0],[0]]","5","[[1,2,0],[3,0],[0]]","6","0","","","","","","5","","","","",""
"","","","","","single-stim-button","247","1608202","0.0-3.0-28.4-1.4","5bb7d8139b5f7e0001d43a6c","B2","batch2","tol_toboard","450","","","","","","","","","tol_peg_1","450","450","0","[[1,2,0],[3,0],[0]]","5","[[1,2,0],[3,0],[0]]","6","0","","","","","","5","","","","",""
"","","","","","poldrack-single-stim","248","1609204","0.0-3.0-29.0","5bb7d8139b5f7e0001d43a6c","B2","batch2","tol_feedback","-1","","","","","true","","","","","1000","1000","500","","","","","","-1","none","true","14774","18881","","","","","",""
"","","","","","html-button-response","249","1609812","0.0-3.0-30.0","5bb7d8139b5f7e0001d43a6c","B2","batch2","tol_trial_num","607.5999999642372","<div class = centerbox><p class = center-block-text>problem <strong>8</strong> out of 25 problems</p></div>","0","","","","","","","","","","","","","","","","","","","","","","","","","",""
"","","","","","single-stim-button","250","1615942","0.0-3.0-31.0-0.0","5bb7d8139b5f7e0001d43a6c","B2","batch2","tol_tohand","6128","","","","","","","","","tol_peg_3","6128","6128","0","[[0,0,0],[2,3],[0]]","1","[[1,2,0],[3,0],[0]]","7","0","","","","","","4","","","","",""
"","","","","","single-stim-button","251","1616857","0.0-3.0-31.0-1.0","5bb7d8139b5f7e0001d43a6c","B2","batch2","tol_toboard","915","","","","","","","","","tol_peg_1","915","915","0","[[1,0,0],[2,3],[0]]","1","[[1,2,0],[3,0],[0]]","7","0","","","","","","4","","","","",""
"","","","","","single-stim-button","252","1620525","0.0-3.0-31.1-0.1","5bb7d8139b5f7e0001d43a6c","B2","batch2","tol_tohand","3667","","","","","","","","","tol_peg_2","3667","3667","0","[[1,0,0],[2,0],[0]]","2","[[1,2,0],[3,0],[0]]","7","0","","","","","","4","","","","",""
"","","","","","single-stim-button","253","1621395","0.0-3.0-31.1-1.1","5bb7d8139b5f7e0001d43a6c","B2","batch2","tol_toboard","870","","","","","","","","","tol_peg_3","870","870","0","[[1,0,0],[2,0],[3]]","2","[[1,2,0],[3,0],[0]]","7","0","","","","","","4","","","","",""
"","","","","","single-stim-button","254","1621994","0.0-3.0-31.2-0.2","5bb7d8139b5f7e0001d43a6c","B2","batch2","tol_tohand","598","","","","","","","","","tol_peg_2","598","598","0","[[1,0,0],[0,0],[3]]","3","[[1,2,0],[3,0],[0]]","7","0","","","","","","4","","","","",""
"","","","","","single-stim-button","255","1622602","0.0-3.0-31.2-1.2","5bb7d8139b5f7e0001d43a6c","B2","batch2","tol_toboard","607","","","","","","","","","tol_peg_1","607","607","0","[[1,2,0],[0,0],[3]]","3","[[1,2,0],[3,0],[0]]","7","0","","","","","","4","","","","",""
"","","","","","single-stim-button","256","1623180","0.0-3.0-31.3-0.3","5bb7d8139b5f7e0001d43a6c","B2","batch2","tol_tohand","578","","","","","","","","","tol_peg_3","578","578","0","[[1,2,0],[0,0],[0]]","4","[[1,2,0],[3,0],[0]]","7","0","","","","","","4","","","","",""
"","","","","","single-stim-button","257","1623667","0.0-3.0-31.3-1.3","5bb7d8139b5f7e0001d43a6c","B2","batch2","tol_toboard","486","","","","","","","","","tol_peg_2","486","486","0","[[1,2,0],[3,0],[0]]","4","[[1,2,0],[3,0],[0]]","7","0","","","","","","4","","","","",""
"","","","","","poldrack-single-stim","258","1624669","0.0-3.0-32.0","5bb7d8139b5f7e0001d43a6c","B2","batch2","tol_feedback","-1","","","","","true","","","","","1000","1000","500","","","","","","-1","none","true","6128","10971","","","","","",""
"","","","","","html-button-response","259","1625422","0.0-3.0-33.0","5bb7d8139b5f7e0001d43a6c","B2","batch2","tol_trial_num","752.3000000119209","<div class = centerbox><p class = center-block-text>problem <strong>9</strong> out of 25 problems</p></div>","0","","","","","","","","","","","","","","","","","","","","","","","","","",""
"","","","","","single-stim-button","260","1638862","0.0-3.0-34.0-0.0","5bb7d8139b5f7e0001d43a6c","B2","batch2","tol_tohand","13439","","","","","","","","","tol_peg_1","13439","13439","0","[[3,0,0],[0,0],[1]]","1","[[2,1,0],[3,0],[0]]","8","0","","","","","","6","","","","",""
"","","","","","single-stim-button","261","1639507","0.0-3.0-34.0-1.0","5bb7d8139b5f7e0001d43a6c","B2","batch2","tol_toboard","645","","","","","","","","","tol_peg_2","645","645","0","[[3,0,0],[2,0],[1]]","1","[[2,1,0],[3,0],[0]]","8","0","","","","","","6","","","","",""
"","","","","","single-stim-button","262","1643819","0.0-3.0-34.1-0.1","5bb7d8139b5f7e0001d43a6c","B2","batch2","tol_tohand","4311","","","","","","","","","tol_peg_3","4311","4311","0","[[3,0,0],[2,0],[0]]","2","[[2,1,0],[3,0],[0]]","8","0","","","","","","6","","","","",""
"","","","","","single-stim-button","263","1644397","0.0-3.0-34.1-1.1","5bb7d8139b5f7e0001d43a6c","B2","batch2","tol_toboard","577","","","","","","","","","tol_peg_2","577","577","0","[[3,0,0],[2,1],[0]]","2","[[2,1,0],[3,0],[0]]","8","0","","","","","","6","","","","",""
"","","","","","single-stim-button","264","1644907","0.0-3.0-34.2-0.2","5bb7d8139b5f7e0001d43a6c","B2","batch2","tol_tohand","510","","","","","","","","","tol_peg_1","510","510","0","[[0,0,0],[2,1],[0]]","3","[[2,1,0],[3,0],[0]]","8","0","","","","","","6","","","","",""
"","","","","","single-stim-button","265","1645889","0.0-3.0-34.2-1.2","5bb7d8139b5f7e0001d43a6c","B2","batch2","tol_toboard","982","","","","","","","","","tol_peg_3","982","982","0","[[0,0,0],[2,1],[3]]","3","[[2,1,0],[3,0],[0]]","8","0","","","","","","6","","","","",""
"","","","","","single-stim-button","266","1647052","0.0-3.0-34.3-0.3","5bb7d8139b5f7e0001d43a6c","B2","batch2","tol_tohand","1162","","","","","","","","","tol_peg_2","1162","1162","0","[[0,0,0],[2,0],[3]]","4","[[2,1,0],[3,0],[0]]","8","0","","","","","","6","","","","",""
"","","","","","single-stim-button","267","1649887","0.0-3.0-34.3-1.3","5bb7d8139b5f7e0001d43a6c","B2","batch2","tol_toboard","2835","","","","","","","","","tol_peg_2","2835","2835","0","[[0,0,0],[2,1],[3]]","4","[[2,1,0],[3,0],[0]]","8","0","","","","","","6","","","","",""
"","","","","","single-stim-button","268","1650389","0.0-3.0-34.4-0.4","5bb7d8139b5f7e0001d43a6c","B2","batch2","tol_tohand","502","","","","","","","","","tol_peg_3","502","502","0","[[0,0,0],[2,1],[0]]","5","[[2,1,0],[3,0],[0]]","8","0","","","","","","6","","","","",""
"","","","","","single-stim-button","269","1651334","0.0-3.0-34.4-1.4","5bb7d8139b5f7e0001d43a6c","B2","batch2","tol_toboard","944","","","","","","","","","tol_peg_1","944","944","0","[[3,0,0],[2,1],[0]]","5","[[2,1,0],[3,0],[0]]","8","0","","","","","","6","","","","",""
"","","","","","single-stim-button","270","1651897","0.0-3.0-34.5-0.5","5bb7d8139b5f7e0001d43a6c","B2","batch2","tol_tohand","563","","","","","","","","","tol_peg_2","563","563","0","[[3,0,0],[2,0],[0]]","6","[[2,1,0],[3,0],[0]]","8","0","","","","","","6","","","","",""
"","","","","","single-stim-button","271","1652497","0.0-3.0-34.5-1.5","5bb7d8139b5f7e0001d43a6c","B2","batch2","tol_toboard","599","","","","","","","","","tol_peg_3","599","599","0","[[3,0,0],[2,0],[1]]","6","[[2,1,0],[3,0],[0]]","8","0","","","","","","6","","","","",""
"","","","","","single-stim-button","272","1653248","0.0-3.0-34.6-0.6","5bb7d8139b5f7e0001d43a6c","B2","batch2","tol_tohand","751","","","","","","","","","tol_peg_1","751","751","0","[[0,0,0],[2,0],[1]]","7","[[2,1,0],[3,0],[0]]","8","0","","","","","","6","","","","",""
"","","","","","single-stim-button","273","1653756","0.0-3.0-34.6-1.6","5bb7d8139b5f7e0001d43a6c","B2","batch2","tol_toboard","508","","","","","","","","","tol_peg_2","508","508","0","[[0,0,0],[2,3],[1]]","7","[[2,1,0],[3,0],[0]]","8","0","","","","","","6","","","","",""
"","","","","","single-stim-button","274","1654229","0.0-3.0-34.7-0.7","5bb7d8139b5f7e0001d43a6c","B2","batch2","tol_tohand","471","","","","","","","","","tol_peg_3","471","471","0","[[0,0,0],[2,3],[0]]","8","[[2,1,0],[3,0],[0]]","8","0","","","","","","6","","","","",""
"","","","","","single-stim-button","275","1657559","0.0-3.0-34.7-1.7","5bb7d8139b5f7e0001d43a6c","B2","batch2","tol_toboard","3330","","","","","","","","","tol_peg_3","3330","3330","0","[[0,0,0],[2,3],[1]]","8","[[2,1,0],[3,0],[0]]","8","0","","","","","","6","","","","",""
"","","","","","single-stim-button","276","1658361","0.0-3.0-34.8-0.8","5bb7d8139b5f7e0001d43a6c","B2","batch2","tol_tohand","802","","","","","","","","","tol_peg_2","802","802","0","[[0,0,0],[2,0],[1]]","9","[[2,1,0],[3,0],[0]]","8","0","","","","","","6","","","","",""
"","","","","","single-stim-button","277","1658880","0.0-3.0-34.8-1.8","5bb7d8139b5f7e0001d43a6c","B2","batch2","tol_toboard","517","","","","","","","","","tol_peg_1","517","517","0","[[3,0,0],[2,0],[1]]","9","[[2,1,0],[3,0],[0]]","8","0","","","","","","6","","","","",""
"","","","","","single-stim-button","278","1660904","0.0-3.0-34.9-0.9","5bb7d8139b5f7e0001d43a6c","B2","batch2","tol_tohand","2024","","","","","","","","","tol_peg_2","2024","2024","0","[[3,0,0],[0,0],[1]]","10","[[2,1,0],[3,0],[0]]","8","0","","","","","","6","","","","",""
"","","","","","single-stim-button","279","1661692","0.0-3.0-34.9-1.9","5bb7d8139b5f7e0001d43a6c","B2","batch2","tol_toboard","788","","","","","","","","","tol_peg_1","788","788","0","[[3,2,0],[0,0],[1]]","10","[[2,1,0],[3,0],[0]]","8","0","","","","","","6","","","","",""
"","","","","","single-stim-button","280","1662141","0.0-3.0-34.10-0.10","5bb7d8139b5f7e0001d43a6c","B2","batch2","tol_tohand","449","","","","","","","","","tol_peg_3","449","449","0","[[3,2,0],[0,0],[0]]","11","[[2,1,0],[3,0],[0]]","8","0","","","","","","6","","","","",""
"","","","","","single-stim-button","281","1662690","0.0-3.0-34.10-1.10","5bb7d8139b5f7e0001d43a6c","B2","batch2","tol_toboard","548","","","","","","","","","tol_peg_2","548","548","0","[[3,2,0],[1,0],[0]]","11","[[2,1,0],[3,0],[0]]","8","0","","","","","","6","","","","",""
"","","","","","single-stim-button","282","1663911","0.0-3.0-34.11-0.11","5bb7d8139b5f7e0001d43a6c","B2","batch2","tol_tohand","1221","","","","","","","","","tol_peg_1","1221","1221","0","[[3,0,0],[1,0],[0]]","12","[[2,1,0],[3,0],[0]]","8","0","","","","","","6","","","","",""
"","","","","","single-stim-button","283","1664594","0.0-3.0-34.11-1.11","5bb7d8139b5f7e0001d43a6c","B2","batch2","tol_toboard","682","","","","","","","","","tol_peg_2","682","682","0","[[3,0,0],[1,2],[0]]","12","[[2,1,0],[3,0],[0]]","8","0","","","","","","6","","","","",""
"","","","","","single-stim-button","284","1665111","0.0-3.0-34.12-0.12","5bb7d8139b5f7e0001d43a6c","B2","batch2","tol_tohand","517","","","","","","","","","tol_peg_1","517","517","0","[[0,0,0],[1,2],[0]]","13","[[2,1,0],[3,0],[0]]","8","0","","","","","","6","","","","",""
"","","","","","single-stim-button","285","1665764","0.0-3.0-34.12-1.12","5bb7d8139b5f7e0001d43a6c","B2","batch2","tol_toboard","652","","","","","","","","","tol_peg_3","652","652","0","[[0,0,0],[1,2],[3]]","13","[[2,1,0],[3,0],[0]]","8","0","","","","","","6","","","","",""
"","","","","","single-stim-button","286","1666409","0.0-3.0-34.13-0.13","5bb7d8139b5f7e0001d43a6c","B2","batch2","tol_tohand","645","","","","","","","","","tol_peg_2","645","645","0","[[0,0,0],[1,0],[3]]","14","[[2,1,0],[3,0],[0]]","8","0","","","","","","6","","","","",""
"","","","","","single-stim-button","287","1667039","0.0-3.0-34.13-1.13","5bb7d8139b5f7e0001d43a6c","B2","batch2","tol_toboard","629","","","","","","","","","tol_peg_1","629","629","0","[[2,0,0],[1,0],[3]]","14","[[2,1,0],[3,0],[0]]","8","0","","","","","","6","","","","",""
"","","","","","single-stim-button","288","1667699","0.0-3.0-34.14-0.14","5bb7d8139b5f7e0001d43a6c","B2","batch2","tol_tohand","659","","","","","","","","","tol_peg_2","659","659","0","[[2,0,0],[0,0],[3]]","15","[[2,1,0],[3,0],[0]]","8","0","","","","","","6","","","","",""
"","","","","","single-stim-button","289","1668181","0.0-3.0-34.14-1.14","5bb7d8139b5f7e0001d43a6c","B2","batch2","tol_toboard","481","","","","","","","","","tol_peg_1","481","481","0","[[2,1,0],[0,0],[3]]","15","[[2,1,0],[3,0],[0]]","8","0","","","","","","6","","","","",""
"","","","","","single-stim-button","290","1668659","0.0-3.0-34.15-0.15","5bb7d8139b5f7e0001d43a6c","B2","batch2","tol_tohand","478","","","","","","","","","tol_peg_3","478","478","0","[[2,1,0],[0,0],[0]]","16","[[2,1,0],[3,0],[0]]","8","0","","","","","","6","","","","",""
"","","","","","single-stim-button","291","1669214","0.0-3.0-34.15-1.15","5bb7d8139b5f7e0001d43a6c","B2","batch2","tol_toboard","554","","","","","","","","","tol_peg_2","554","554","0","[[2,1,0],[3,0],[0]]","16","[[2,1,0],[3,0],[0]]","8","0","","","","","","6","","","","",""
"","","","","","poldrack-single-stim","292","1670216","0.0-3.0-35.0","5bb7d8139b5f7e0001d43a6c","B2","batch2","tol_feedback","-1","","","","","true","","","","","1000","1000","500","","","","","","-1","none","true","13439","28504","","","","","",""
"","","","","","html-button-response","293","1671171","0.0-3.0-36.0","5bb7d8139b5f7e0001d43a6c","B2","batch2","tol_trial_num","955","<div class = centerbox><p class = center-block-text>problem <strong>10</strong> out of 25 problems</p></div>","0","","","","","","","","","","","","","","","","","","","","","","","","","",""
"","","","","","single-stim-button","294","1674884","0.0-3.0-37.0-0.0","5bb7d8139b5f7e0001d43a6c","B2","batch2","tol_tohand","3711","","","","","","","","","tol_peg_3","3711","3711","0","[[3,0,0],[1,0],[0]]","1","[[3,0,0],[2,1],[0]]","9","0","","","","","","3","","","","",""
"","","","","","single-stim-button","295","1676294","0.0-3.0-37.0-1.0","5bb7d8139b5f7e0001d43a6c","B2","batch2","tol_toboard","1410","","","","","","","","","tol_peg_1","1410","1410","0","[[3,2,0],[1,0],[0]]","1","[[3,0,0],[2,1],[0]]","9","0","","","","","","3","","","","",""
"","","","","","single-stim-button","296","1676731","0.0-3.0-37.1-0.1","5bb7d8139b5f7e0001d43a6c","B2","batch2","tol_tohand","437","","","","","","","","","tol_peg_2","437","437","0","[[3,2,0],[0,0],[0]]","2","[[3,0,0],[2,1],[0]]","9","0","","","","","","3","","","","",""
"","","","","","single-stim-button","297","1677315","0.0-3.0-37.1-1.1","5bb7d8139b5f7e0001d43a6c","B2","batch2","tol_toboard","582","","","","","","","","","tol_peg_3","582","582","0","[[3,2,0],[0,0],[1]]","2","[[3,0,0],[2,1],[0]]","9","0","","","","","","3","","","","",""
"","","","","","single-stim-button","298","1677929","0.0-3.0-37.2-0.2","5bb7d8139b5f7e0001d43a6c","B2","batch2","tol_tohand","614","","","","","","","","","tol_peg_1","614","614","0","[[3,0,0],[0,0],[1]]","3","[[3,0,0],[2,1],[0]]","9","0","","","","","","3","","","","",""
"","","","","","single-stim-button","299","1678416","0.0-3.0-37.2-1.2","5bb7d8139b5f7e0001d43a6c","B2","batch2","tol_toboard","487","","","","","","","","","tol_peg_2","487","487","0","[[3,0,0],[2,0],[1]]","3","[[3,0,0],[2,1],[0]]","9","0","","","","","","3","","","","",""
"","","","","","single-stim-button","300","1678836","0.0-3.0-37.3-0.3","5bb7d8139b5f7e0001d43a6c","B2","batch2","tol_tohand","420","","","","","","","","","tol_peg_3","420","420","0","[[3,0,0],[2,0],[0]]","4","[[3,0,0],[2,1],[0]]","9","0","","","","","","3","","","","",""
"","","","","","single-stim-button","301","1679249","0.0-3.0-37.3-1.3","5bb7d8139b5f7e0001d43a6c","B2","batch2","tol_toboard","413","","","","","","","","","tol_peg_2","413","413","0","[[3,0,0],[2,1],[0]]","4","[[3,0,0],[2,1],[0]]","9","0","","","","","","3","","","","",""
"","","","","","poldrack-single-stim","302","1680250","0.0-3.0-38.0","5bb7d8139b5f7e0001d43a6c","B2","batch2","tol_feedback","-1","","","","","true","","","","","1000","1000","500","","","","","","-1","none","true","3711","5182","","","","","",""
"","","","","","html-button-response","303","1681304","0.0-3.0-39.0","5bb7d8139b5f7e0001d43a6c","B2","batch2","tol_trial_num","1052.8999999761581","<div class = centerbox><p class = center-block-text>problem <strong>11</strong> out of 25 problems</p></div>","0","","","","","","","","","","","","","","","","","","","","","","","","","",""
"","","","","","single-stim-button","304","1686981","0.0-3.0-40.0-0.0","5bb7d8139b5f7e0001d43a6c","B2","batch2","tol_tohand","5677","","","","","","","","","tol_peg_1","5677","5677","0","[[1,0,0],[3,0],[0]]","1","[[2,0,0],[1,3],[0]]","10","0","","","","","","6","","","","",""
"","","","","","single-stim-button","305","1688789","0.0-3.0-40.0-1.0","5bb7d8139b5f7e0001d43a6c","B2","batch2","tol_toboard","1808","","","","","","","","","tol_peg_1","1808","1808","0","[[1,2,0],[3,0],[0]]","1","[[2,0,0],[1,3],[0]]","10","0","","","","","","6","","","","",""
"","","","","","single-stim-button","306","1690028","0.0-3.0-40.1-0.1","5bb7d8139b5f7e0001d43a6c","B2","batch2","tol_tohand","1238","","","","","","","","","tol_peg_2","1238","1238","0","[[1,2,0],[0,0],[0]]","2","[[2,0,0],[1,3],[0]]","10","0","","","","","","6","","","","",""
"","","","","","single-stim-button","307","1690523","0.0-3.0-40.1-1.1","5bb7d8139b5f7e0001d43a6c","B2","batch2","tol_toboard","495","","","","","","","","","tol_peg_3","495","495","0","[[1,2,0],[0,0],[3]]","2","[[2,0,0],[1,3],[0]]","10","0","","","","","","6","","","","",""
"","","","","","single-stim-button","308","1692974","0.0-3.0-40.2-0.2","5bb7d8139b5f7e0001d43a6c","B2","batch2","tol_tohand","2451","","","","","","","","","tol_peg_1","2451","2451","0","[[1,0,0],[0,0],[3]]","3","[[2,0,0],[1,3],[0]]","10","0","","","","","","6","","","","",""
"","","","","","single-stim-button","309","1694316","0.0-3.0-40.2-1.2","5bb7d8139b5f7e0001d43a6c","B2","batch2","tol_toboard","1342","","","","","","","","","tol_peg_2","1342","1342","0","[[1,0,0],[2,0],[3]]","3","[[2,0,0],[1,3],[0]]","10","0","","","","","","6","","","","",""
"","","","","","single-stim-button","310","1695396","0.0-3.0-40.3-0.3","5bb7d8139b5f7e0001d43a6c","B2","batch2","tol_tohand","1079","","","","","","","","","tol_peg_3","1079","1079","0","[[1,0,0],[2,0],[0]]","4","[[2,0,0],[1,3],[0]]","10","0","","","","","","6","","","","",""
"","","","","","single-stim-button","311","1695982","0.0-3.0-40.3-1.3","5bb7d8139b5f7e0001d43a6c","B2","batch2","tol_toboard","586","","","","","","","","","tol_peg_2","586","586","0","[[1,0,0],[2,3],[0]]","4","[[2,0,0],[1,3],[0]]","10","0","","","","","","6","","","","",""
"","","","","","single-stim-button","312","1696499","0.0-3.0-40.4-0.4","5bb7d8139b5f7e0001d43a6c","B2","batch2","tol_tohand","517","","","","","","","","","tol_peg_1","517","517","0","[[0,0,0],[2,3],[0]]","5","[[2,0,0],[1,3],[0]]","10","0","","","","","","6","","","","",""
"","","","","","single-stim-button","313","1697452","0.0-3.0-40.4-1.4","5bb7d8139b5f7e0001d43a6c","B2","batch2","tol_toboard","953","","","","","","","","","tol_peg_3","953","953","0","[[0,0,0],[2,3],[1]]","5","[[2,0,0],[1,3],[0]]","10","0","","","","","","6","","","","",""
"","","","","","single-stim-button","314","1698532","0.0-3.0-40.5-0.5","5bb7d8139b5f7e0001d43a6c","B2","batch2","tol_tohand","1079","","","","","","","","","tol_peg_2","1079","1079","0","[[0,0,0],[2,0],[1]]","6","[[2,0,0],[1,3],[0]]","10","0","","","","","","6","","","","",""
"","","","","","single-stim-button","315","1699890","0.0-3.0-40.5-1.5","5bb7d8139b5f7e0001d43a6c","B2","batch2","tol_toboard","1357","","","","","","","","","tol_peg_1","1357","1357","0","[[3,0,0],[2,0],[1]]","6","[[2,0,0],[1,3],[0]]","10","0","","","","","","6","","","","",""
"","","","","","single-stim-button","316","1700676","0.0-3.0-40.6-0.6","5bb7d8139b5f7e0001d43a6c","B2","batch2","tol_tohand","786","","","","","","","","","tol_peg_2","786","786","0","[[3,0,0],[0,0],[1]]","7","[[2,0,0],[1,3],[0]]","10","0","","","","","","6","","","","",""
"","","","","","single-stim-button","317","1701134","0.0-3.0-40.6-1.6","5bb7d8139b5f7e0001d43a6c","B2","batch2","tol_toboard","458","","","","","","","","","tol_peg_1","458","458","0","[[3,2,0],[0,0],[1]]","7","[[2,0,0],[1,3],[0]]","10","0","","","","","","6","","","","",""
"","","","","","single-stim-button","318","1701696","0.0-3.0-40.7-0.7","5bb7d8139b5f7e0001d43a6c","B2","batch2","tol_tohand","562","","","","","","","","","tol_peg_3","562","562","0","[[3,2,0],[0,0],[0]]","8","[[2,0,0],[1,3],[0]]","10","0","","","","","","6","","","","",""
"","","","","","single-stim-button","319","1702243","0.0-3.0-40.7-1.7","5bb7d8139b5f7e0001d43a6c","B2","batch2","tol_toboard","547","","","","","","","","","tol_peg_2","547","547","0","[[3,2,0],[1,0],[0]]","8","[[2,0,0],[1,3],[0]]","10","0","","","","","","6","","","","",""
"","","","","","single-stim-button","320","1703099","0.0-3.0-40.8-0.8","5bb7d8139b5f7e0001d43a6c","B2","batch2","tol_tohand","855","","","","","","","","","tol_peg_1","855","855","0","[[3,0,0],[1,0],[0]]","9","[[2,0,0],[1,3],[0]]","10","0","","","","","","6","","","","",""
"","","","","","single-stim-button","321","1703841","0.0-3.0-40.8-1.8","5bb7d8139b5f7e0001d43a6c","B2","batch2","tol_toboard","742","","","","","","","","","tol_peg_3","742","742","0","[[3,0,0],[1,0],[2]]","9","[[2,0,0],[1,3],[0]]","10","0","","","","","","6","","","","",""
"","","","","","single-stim-button","322","1704307","0.0-3.0-40.9-0.9","5bb7d8139b5f7e0001d43a6c","B2","batch2","tol_tohand","466","","","","","","","","","tol_peg_1","466","466","0","[[0,0,0],[1,0],[2]]","10","[[2,0,0],[1,3],[0]]","10","0","","","","","","6","","","","",""
"","","","","","single-stim-button","323","1704735","0.0-3.0-40.9-1.9","5bb7d8139b5f7e0001d43a6c","B2","batch2","tol_toboard","427","","","","","","","","","tol_peg_2","427","427","0","[[0,0,0],[1,3],[2]]","10","[[2,0,0],[1,3],[0]]","10","0","","","","","","6","","","","",""
"","","","","","single-stim-button","324","1705154","0.0-3.0-40.10-0.10","5bb7d8139b5f7e0001d43a6c","B2","batch2","tol_tohand","419","","","","","","","","","tol_peg_3","419","419","0","[[0,0,0],[1,3],[0]]","11","[[2,0,0],[1,3],[0]]","10","0","","","","","","6","","","","",""
"","","","","","single-stim-button","325","1705806","0.0-3.0-40.10-1.10","5bb7d8139b5f7e0001d43a6c","B2","batch2","tol_toboard","652","","","","","","","","","tol_peg_1","652","652","0","[[2,0,0],[1,3],[0]]","11","[[2,0,0],[1,3],[0]]","10","0","","","","","","6","","","","",""
"","","","","","poldrack-single-stim","326","1706807","0.0-3.0-41.0","5bb7d8139b5f7e0001d43a6c","B2","batch2","tol_feedback","-1","","","","","true","","","","","1000","1000","500","","","","","","-1","none","true","5677","15129","","","","","",""
"","","","","","html-button-response","327","1707599","0.0-3.0-42.0","5bb7d8139b5f7e0001d43a6c","B2","batch2","tol_trial_num","790.8999999761581","<div class = centerbox><p class = center-block-text>problem <strong>12</strong> out of 25 problems</p></div>","0","","","","","","","","","","","","","","","","","","","","","","","","","",""
"","","","","","single-stim-button","328","1715159","0.0-3.0-43.0-0.0","5bb7d8139b5f7e0001d43a6c","B2","batch2","tol_tohand","7560","","","","","","","","","tol_peg_1","7560","7560","0","[[1,0,0],[3,0],[0]]","1","[[2,3,0],[0,0],[1]]","11","0","","","","","","4","","","","",""
"","","","","","single-stim-button","329","1715811","0.0-3.0-43.0-1.0","5bb7d8139b5f7e0001d43a6c","B2","batch2","tol_toboard","651","","","","","","","","","tol_peg_2","651","651","0","[[1,0,0],[3,2],[0]]","1","[[2,3,0],[0,0],[1]]","11","0","","","","","","4","","","","",""
"","","","","","single-stim-button","330","1716374","0.0-3.0-43.1-0.1","5bb7d8139b5f7e0001d43a6c","B2","batch2","tol_tohand","561","","","","","","","","","tol_peg_1","561","561","0","[[0,0,0],[3,2],[0]]","2","[[2,3,0],[0,0],[1]]","11","0","","","","","","4","","","","",""
"","","","","","single-stim-button","331","1717019","0.0-3.0-43.1-1.1","5bb7d8139b5f7e0001d43a6c","B2","batch2","tol_toboard","644","","","","","","","","","tol_peg_3","644","644","0","[[0,0,0],[3,2],[1]]","2","[[2,3,0],[0,0],[1]]","11","0","","","","","","4","","","","",""
"","","","","","single-stim-button","332","1718459","0.0-3.0-43.2-0.2","5bb7d8139b5f7e0001d43a6c","B2","batch2","tol_tohand","1440","","","","","","","","","tol_peg_2","1440","1440","0","[[0,0,0],[3,0],[1]]","3","[[2,3,0],[0,0],[1]]","11","0","","","","","","4","","","","",""
"","","","","","single-stim-button","333","1719066","0.0-3.0-43.2-1.2","5bb7d8139b5f7e0001d43a6c","B2","batch2","tol_toboard","607","","","","","","","","","tol_peg_1","607","607","0","[[2,0,0],[3,0],[1]]","3","[[2,3,0],[0,0],[1]]","11","0","","","","","","4","","","","",""
"","","","","","single-stim-button","334","1719644","0.0-3.0-43.3-0.3","5bb7d8139b5f7e0001d43a6c","B2","batch2","tol_tohand","574","","","","","","","","","tol_peg_2","574","574","0","[[2,0,0],[0,0],[1]]","4","[[2,3,0],[0,0],[1]]","11","0","","","","","","4","","","","",""
"","","","","","single-stim-button","335","1720154","0.0-3.0-43.3-1.3","5bb7d8139b5f7e0001d43a6c","B2","batch2","tol_toboard","510","","","","","","","","","tol_peg_1","510","510","0","[[2,3,0],[0,0],[1]]","4","[[2,3,0],[0,0],[1]]","11","0","","","","","","4","","","","",""
"","","","","","poldrack-single-stim","336","1721156","0.0-3.0-44.0","5bb7d8139b5f7e0001d43a6c","B2","batch2","tol_feedback","-1","","","","","true","","","","","1000","1000","500","","","","","","-1","none","true","7560","10135","","","","","",""
"","","","","","html-button-response","337","1722389","0.0-3.0-45.0","5bb7d8139b5f7e0001d43a6c","B2","batch2","tol_trial_num","1231.8999999761581","<div class = centerbox><p class = center-block-text>problem <strong>13</strong> out of 25 problems</p></div>","0","","","","","","","","","","","","","","","","","","","","","","","","","",""
"","","","","","single-stim-button","338","1726034","0.0-3.0-46.0-0.0","5bb7d8139b5f7e0001d43a6c","B2","batch2","tol_tohand","3645","","","","","","","","","tol_peg_2","3645","3645","0","[[1,2,0],[0,0],[0]]","1","[[0,0,0],[2,3],[1]]","12","0","","","","","","4","","","","",""
"","","","","","single-stim-button","339","1727721","0.0-3.0-46.0-1.0","5bb7d8139b5f7e0001d43a6c","B2","batch2","tol_toboard","1687","","","","","","","","","tol_peg_3","1687","1687","0","[[1,2,0],[0,0],[3]]","1","[[0,0,0],[2,3],[1]]","12","0","","","","","","4","","","","",""
"","","","","","single-stim-button","340","1728276","0.0-3.0-46.1-0.1","5bb7d8139b5f7e0001d43a6c","B2","batch2","tol_tohand","555","","","","","","","","","tol_peg_1","555","555","0","[[1,0,0],[0,0],[3]]","2","[[0,0,0],[2,3],[1]]","12","0","","","","","","4","","","","",""
"","","","","","single-stim-button","341","1729056","0.0-3.0-46.1-1.1","5bb7d8139b5f7e0001d43a6c","B2","batch2","tol_toboard","780","","","","","","","","","tol_peg_2","780","780","0","[[1,0,0],[2,0],[3]]","2","[[0,0,0],[2,3],[1]]","12","0","","","","","","4","","","","",""
"","","","","","single-stim-button","342","1729566","0.0-3.0-46.2-0.2","5bb7d8139b5f7e0001d43a6c","B2","batch2","tol_tohand","510","","","","","","","","","tol_peg_3","510","510","0","[[1,0,0],[2,0],[0]]","3","[[0,0,0],[2,3],[1]]","12","0","","","","","","4","","","","",""
"","","","","","single-stim-button","343","1729956","0.0-3.0-46.2-1.2","5bb7d8139b5f7e0001d43a6c","B2","batch2","tol_toboard","390","","","","","","","","","tol_peg_2","390","390","0","[[1,0,0],[2,3],[0]]","3","[[0,0,0],[2,3],[1]]","12","0","","","","","","4","","","","",""
"","","","","","single-stim-button","344","1730429","0.0-3.0-46.3-0.3","5bb7d8139b5f7e0001d43a6c","B2","batch2","tol_tohand","472","","","","","","","","","tol_peg_1","472","472","0","[[0,0,0],[2,3],[0]]","4","[[0,0,0],[2,3],[1]]","12","0","","","","","","4","","","","",""
"","","","","","single-stim-button","345","1730946","0.0-3.0-46.3-1.3","5bb7d8139b5f7e0001d43a6c","B2","batch2","tol_toboard","517","","","","","","","","","tol_peg_3","517","517","0","[[0,0,0],[2,3],[1]]","4","[[0,0,0],[2,3],[1]]","12","0","","","","","","4","","","","",""
"","","","","","poldrack-single-stim","346","1731947","0.0-3.0-47.0","5bb7d8139b5f7e0001d43a6c","B2","batch2","tol_feedback","-1","","","","","true","","","","","1000","1000","500","","","","","","-1","none","true","3645","5182","","","","","",""
"","","","","","html-button-response","347","1736841","0.0-3.0-48.0","5bb7d8139b5f7e0001d43a6c","B2","batch2","attention_check","4893","<p class = block-text>How many balls are in your board<br></p>","1","","","true","","","","","","","","","","","","","","","","","","","","","","",""
"","","","","","html-button-response","348","1737614","0.0-3.0-49.0","5bb7d8139b5f7e0001d43a6c","B2","batch2","tol_trial_num","771.8999999761581","<div class = centerbox><p class = center-block-text>problem <strong>14</strong> out of 25 problems</p></div>","0","","","","","","","","","","","","","","","","","","","","","","","","","",""
"","","","","","single-stim-button","349","1742151","0.0-3.0-50.0-0.0","5bb7d8139b5f7e0001d43a6c","B2","batch2","tol_tohand","4537","","","","","","","","","tol_peg_1","4537","4537","0","[[2,0,0],[3,0],[0]]","1","[[1,2,0],[3,0],[0]]","13","0","","","","","","4","","","","",""
"","","","","","single-stim-button","350","1742676","0.0-3.0-50.0-1.0","5bb7d8139b5f7e0001d43a6c","B2","batch2","tol_toboard","525","","","","","","","","","tol_peg_3","525","525","0","[[2,0,0],[3,0],[1]]","1","[[1,2,0],[3,0],[0]]","13","0","","","","","","4","","","","",""
"","","","","","single-stim-button","351","1743374","0.0-3.0-50.1-0.1","5bb7d8139b5f7e0001d43a6c","B2","batch2","tol_tohand","698","","","","","","","","","tol_peg_1","698","698","0","[[0,0,0],[3,0],[1]]","2","[[1,2,0],[3,0],[0]]","13","0","","","","","","4","","","","",""
"","","","","","single-stim-button","352","1743869","0.0-3.0-50.1-1.1","5bb7d8139b5f7e0001d43a6c","B2","batch2","tol_toboard","495","","","","","","","","","tol_peg_2","495","495","0","[[0,0,0],[3,2],[1]]","2","[[1,2,0],[3,0],[0]]","13","0","","","","","","4","","","","",""
"","","","","","single-stim-button","353","1744357","0.0-3.0-50.2-0.2","5bb7d8139b5f7e0001d43a6c","B2","batch2","tol_tohand","487","","","","","","","","","tol_peg_3","487","487","0","[[0,0,0],[3,2],[0]]","3","[[1,2,0],[3,0],[0]]","13","0","","","","","","4","","","","",""
"","","","","","single-stim-button","354","1745024","0.0-3.0-50.2-1.2","5bb7d8139b5f7e0001d43a6c","B2","batch2","tol_toboard","666","","","","","","","","","tol_peg_1","666","666","0","[[1,0,0],[3,2],[0]]","3","[[1,2,0],[3,0],[0]]","13","0","","","","","","4","","","","",""
