"success","timeout","failed_images","failed_audio","failed_video","trial_type","trial_index","time_elapsed","internal_node_id","subject_id","study_id","session_id","task","rt","stimulus","response","item","answer","correct","spm_correct","spm_rt","view_history","mouse_click","stim_duration","block_duration","timing_post_trial","current_position","tol_num_moves_made","tol_target","tol_problem_id","tol_rt","key_press","possible_responses","tol_correct","preplanning","tol_rt_per_trial","tol_min_moves","fiar_detect_rt","fiar_detect_correct","total_correct_fiar_detect","post_trial_gap","choices"
"true","false","[]","[]","[]","preload","0","2054","0.0-0.0","5bc0ac845a09ea00012e2d30","F1","batch6","","","","","","","","","","","","","","","","","","","","","","","","","","","","","",""
"true","","","","","fullscreen","1","7381","0.0-1.0-0.0","5bc0ac845a09ea00012e2d30","F1","batch6","","","","","","","","","","","","","","","","","","","","","","","","","","","","","",""
"true","","","","","fullscreen","2","10062","0.0-2.0-0.0","5bc0ac845a09ea00012e2d30","F1","batch6","spm_fullscreen","","","","","","","","","","","","","","","","","","","","","","","","","","","","",""
"","","","","","html-button-response","3","17082","0.0-2.0-1.0","5bc0ac845a09ea00012e2d30","F1","batch6","","7020","<p class = block-text><b>Instructions</b> <br>This is a widely used intelligence test in research. <br>In this test, a figure with a missing piece will be presented.<br>Below the figure are alternative pieces to complete the figure, only one of which is correct.<br> Different figures might involve different principles for obtaining the missing piece<br>Your job is to select the most logical piece to complete the figure.</p>","0","","","","","","","","","","","","","","","","","","","","","","","","","",""
"","","","","","html-keyboard-response","4","17884","0.0-2.0-2.0-0.0","5bc0ac845a09ea00012e2d30","F1","batch6","spm_show_trial_num","null","<p class=block-text>Trial 1 out of 60</p>","null","","","","","","","","","","","","","","","","","","","","","","","","","",""
"","","","","","image-button-response","5","24434","0.0-2.0-2.0-1.0","5bc0ac845a09ea00012e2d30","F1","batch6","spm_respsonse","6548","img/question_1_1.jpeg","3","mat_01","4","1","1","6548","","","","","","","","","","","","","","","","","","","","",""
"","","","","","html-keyboard-response","6","25486","0.0-2.0-2.0-0.1","5bc0ac845a09ea00012e2d30","F1","batch6","spm_show_trial_num","null","<p class=block-text>Trial 2 out of 60</p>","null","","","","","","","","","","","","","","","","","","","","","","","","","",""
"","","","","","image-button-response","7","29100","0.0-2.0-2.0-1.1","5bc0ac845a09ea00012e2d30","F1","batch6","spm_respsonse","3612","img/question_1_2.jpeg","4","mat_02","5","1","1","3612","","","","","","","","","","","","","","","","","","","","",""
"","","","","","html-keyboard-response","8","30154","0.0-2.0-2.0-0.2","5bc0ac845a09ea00012e2d30","F1","batch6","spm_show_trial_num","null","<p class=block-text>Trial 3 out of 60</p>","null","","","","","","","","","","","","","","","","","","","","","","","","","",""
"","","","","","image-button-response","9","34090","0.0-2.0-2.0-1.2","5bc0ac845a09ea00012e2d30","F1","batch6","spm_respsonse","3935","img/question_1_3.jpeg","0","mat_03","1","1","1","3935","","","","","","","","","","","","","","","","","","","","",""
"","","","","","html-keyboard-response","10","35143","0.0-2.0-2.0-0.3","5bc0ac845a09ea00012e2d30","F1","batch6","spm_show_trial_num","null","<p class=block-text>Trial 4 out of 60</p>","null","","","","","","","","","","","","","","","","","","","","","","","","","",""
"","","","","","image-button-response","11","41265","0.0-2.0-2.0-1.3","5bc0ac845a09ea00012e2d30","F1","batch6","spm_respsonse","6122","img/question_1_4.jpeg","1","mat_04","2","1","1","6122","","","","","","","","","","","","","","","","","","","","",""
"","","","","","html-keyboard-response","12","42318","0.0-2.0-2.0-0.4","5bc0ac845a09ea00012e2d30","F1","batch6","spm_show_trial_num","null","<p class=block-text>Trial 5 out of 60</p>","null","","","","","","","","","","","","","","","","","","","","","","","","","",""
"","","","","","image-button-response","13","47713","0.0-2.0-2.0-1.4","5bc0ac845a09ea00012e2d30","F1","batch6","spm_respsonse","5394","img/question_1_5.jpeg","5","mat_05","6","1","1","5394","","","","","","","","","","","","","","","","","","","","",""
"","","","","","html-keyboard-response","14","48767","0.0-2.0-2.0-0.5","5bc0ac845a09ea00012e2d30","F1","batch6","spm_show_trial_num","null","<p class=block-text>Trial 6 out of 60</p>","null","","","","","","","","","","","","","","","","","","","","","","","","","",""
"","","","","","image-button-response","15","53770","0.0-2.0-2.0-1.5","5bc0ac845a09ea00012e2d30","F1","batch6","spm_respsonse","5003","img/question_1_6.jpeg","2","mat_06","3","1","1","5003","","","","","","","","","","","","","","","","","","","","",""
"","","","","","html-keyboard-response","16","54822","0.0-2.0-2.0-0.6","5bc0ac845a09ea00012e2d30","F1","batch6","spm_show_trial_num","null","<p class=block-text>Trial 7 out of 60</p>","null","","","","","","","","","","","","","","","","","","","","","","","","","",""
"","","","","","image-button-response","17","62339","0.0-2.0-2.0-1.6","5bc0ac845a09ea00012e2d30","F1","batch6","spm_respsonse","7515","img/question_1_7.jpeg","5","mat_07","6","1","1","7515","","","","","","","","","","","","","","","","","","","","",""
"","","","","","html-keyboard-response","18","63391","0.0-2.0-2.0-0.7","5bc0ac845a09ea00012e2d30","F1","batch6","spm_show_trial_num","null","<p class=block-text>Trial 8 out of 60</p>","null","","","","","","","","","","","","","","","","","","","","","","","","","",""
"","","","","","image-button-response","19","70676","0.0-2.0-2.0-1.7","5bc0ac845a09ea00012e2d30","F1","batch6","spm_respsonse","7285","img/question_1_8.jpeg","1","mat_08","2","1","1","7285","","","","","","","","","","","","","","","","","","","","",""
"","","","","","html-keyboard-response","20","71729","0.0-2.0-2.0-0.8","5bc0ac845a09ea00012e2d30","F1","batch6","spm_show_trial_num","null","<p class=block-text>Trial 9 out of 60</p>","null","","","","","","","","","","","","","","","","","","","","","","","","","",""
"","","","","","image-button-response","21","76984","0.0-2.0-2.0-1.8","5bc0ac845a09ea00012e2d30","F1","batch6","spm_respsonse","5254","img/question_1_9.jpeg","0","mat_09","1","1","1","5254","","","","","","","","","","","","","","","","","","","","",""
"","","","","","html-keyboard-response","22","78037","0.0-2.0-2.0-0.9","5bc0ac845a09ea00012e2d30","F1","batch6","spm_show_trial_num","null","<p class=block-text>Trial 10 out of 60</p>","null","","","","","","","","","","","","","","","","","","","","","","","","","",""
"","","","","","image-button-response","23","85488","0.0-2.0-2.0-1.9","5bc0ac845a09ea00012e2d30","F1","batch6","spm_respsonse","7450","img/question_1_10.jpeg","2","mat_10","3","1","1","7450","","","","","","","","","","","","","","","","","","","","",""
"","","","","","html-keyboard-response","24","86541","0.0-2.0-2.0-0.10","5bc0ac845a09ea00012e2d30","F1","batch6","spm_show_trial_num","null","<p class=block-text>Trial 11 out of 60</p>","null","","","","","","","","","","","","","","","","","","","","","","","","","",""
"","","","","","image-button-response","25","103970","0.0-2.0-2.0-1.10","5bc0ac845a09ea00012e2d30","F1","batch6","spm_respsonse","17427","img/question_1_11.jpeg","3","mat_11","4","1","1","17427","","","","","","","","","","","","","","","","","","","","",""
"","","","","","html-keyboard-response","26","105024","0.0-2.0-2.0-0.11","5bc0ac845a09ea00012e2d30","F1","batch6","spm_show_trial_num","null","<p class=block-text>Trial 12 out of 60</p>","null","","","","","","","","","","","","","","","","","","","","","","","","","",""
"","","","","","image-button-response","27","125440","0.0-2.0-2.0-1.11","5bc0ac845a09ea00012e2d30","F1","batch6","spm_respsonse","20416","img/question_1_12.jpeg","0","mat_12","5","0","0","20416","","","","","","","","","","","","","","","","","","","","",""
"","","","","","html-keyboard-response","28","126494","0.0-2.0-2.0-0.12","5bc0ac845a09ea00012e2d30","F1","batch6","spm_show_trial_num","null","<p class=block-text>Trial 13 out of 60</p>","null","","","","","","","","","","","","","","","","","","","","","","","","","",""
"","","","","","image-button-response","29","129631","0.0-2.0-2.0-1.12","5bc0ac845a09ea00012e2d30","F1","batch6","spm_respsonse","3137","img/question_2_1.jpeg","1","mat_13","2","1","1","3137","","","","","","","","","","","","","","","","","","","","",""
"","","","","","html-keyboard-response","30","130685","0.0-2.0-2.0-0.13","5bc0ac845a09ea00012e2d30","F1","batch6","spm_show_trial_num","null","<p class=block-text>Trial 14 out of 60</p>","null","","","","","","","","","","","","","","","","","","","","","","","","","",""
"","","","","","image-button-response","31","134685","0.0-2.0-2.0-1.13","5bc0ac845a09ea00012e2d30","F1","batch6","spm_respsonse","4000","img/question_2_2.jpeg","5","mat_14","6","1","1","4000","","","","","","","","","","","","","","","","","","","","",""
"","","","","","html-keyboard-response","32","135738","0.0-2.0-2.0-0.14","5bc0ac845a09ea00012e2d30","F1","batch6","spm_show_trial_num","null","<p class=block-text>Trial 15 out of 60</p>","null","","","","","","","","","","","","","","","","","","","","","","","","","",""
"","","","","","image-button-response","33","140386","0.0-2.0-2.0-1.14","5bc0ac845a09ea00012e2d30","F1","batch6","spm_respsonse","4647","img/question_2_3.jpeg","0","mat_15","1","1","1","4647","","","","","","","","","","","","","","","","","","","","",""
"","","","","","html-keyboard-response","34","141439","0.0-2.0-2.0-0.15","5bc0ac845a09ea00012e2d30","F1","batch6","spm_show_trial_num","null","<p class=block-text>Trial 16 out of 60</p>","null","","","","","","","","","","","","","","","","","","","","","","","","","",""
"","","","","","image-button-response","35","146318","0.0-2.0-2.0-1.15","5bc0ac845a09ea00012e2d30","F1","batch6","spm_respsonse","4878","img/question_2_4.jpeg","1","mat_16","2","1","1","4878","","","","","","","","","","","","","","","","","","","","",""
"","","","","","html-keyboard-response","36","147372","0.0-2.0-2.0-0.16","5bc0ac845a09ea00012e2d30","F1","batch6","spm_show_trial_num","null","<p class=block-text>Trial 17 out of 60</p>","null","","","","","","","","","","","","","","","","","","","","","","","","","",""
"","","","","","image-button-response","37","153423","0.0-2.0-2.0-1.16","5bc0ac845a09ea00012e2d30","F1","batch6","spm_respsonse","6050","img/question_2_5.jpeg","0","mat_17","1","1","1","6050","","","","","","","","","","","","","","","","","","","","",""
"","","","","","html-keyboard-response","38","154476","0.0-2.0-2.0-0.17","5bc0ac845a09ea00012e2d30","F1","batch6","spm_show_trial_num","null","<p class=block-text>Trial 18 out of 60</p>","null","","","","","","","","","","","","","","","","","","","","","","","","","",""
"","","","","","image-button-response","39","161438","0.0-2.0-2.0-1.17","5bc0ac845a09ea00012e2d30","F1","batch6","spm_respsonse","6961","img/question_2_6.jpeg","2","mat_18","3","1","1","6961","","","","","","","","","","","","","","","","","","","","",""
"","","","","","html-keyboard-response","40","162491","0.0-2.0-2.0-0.18","5bc0ac845a09ea00012e2d30","F1","batch6","spm_show_trial_num","null","<p class=block-text>Trial 19 out of 60</p>","null","","","","","","","","","","","","","","","","","","","","","","","","","",""
"","","","","","image-button-response","41","171006","0.0-2.0-2.0-1.18","5bc0ac845a09ea00012e2d30","F1","batch6","spm_respsonse","8514","img/question_2_7.jpeg","4","mat_19","5","1","1","8514","","","","","","","","","","","","","","","","","","","","",""
"","","","","","html-keyboard-response","42","172059","0.0-2.0-2.0-0.19","5bc0ac845a09ea00012e2d30","F1","batch6","spm_show_trial_num","null","<p class=block-text>Trial 20 out of 60</p>","null","","","","","","","","","","","","","","","","","","","","","","","","","",""
"","","","","","image-button-response","43","188247","0.0-2.0-2.0-1.19","5bc0ac845a09ea00012e2d30","F1","batch6","spm_respsonse","16187","img/question_2_8.jpeg","5","mat_20","6","1","1","16187","","","","","","","","","","","","","","","","","","","","",""
"","","","","","html-keyboard-response","44","189300","0.0-2.0-2.0-0.20","5bc0ac845a09ea00012e2d30","F1","batch6","spm_show_trial_num","null","<p class=block-text>Trial 21 out of 60</p>","null","","","","","","","","","","","","","","","","","","","","","","","","","",""
"","","","","","image-button-response","45","196984","0.0-2.0-2.0-1.20","5bc0ac845a09ea00012e2d30","F1","batch6","spm_respsonse","7684","img/question_2_9.jpeg","3","mat_21","4","1","1","7684","","","","","","","","","","","","","","","","","","","","",""
"","","","","","html-keyboard-response","46","198037","0.0-2.0-2.0-0.21","5bc0ac845a09ea00012e2d30","F1","batch6","spm_show_trial_num","null","<p class=block-text>Trial 22 out of 60</p>","null","","","","","","","","","","","","","","","","","","","","","","","","","",""
"","","","","","image-button-response","47","203988","0.0-2.0-2.0-1.21","5bc0ac845a09ea00012e2d30","F1","batch6","spm_respsonse","5949","img/question_2_10.jpeg","2","mat_22","3","1","1","5949","","","","","","","","","","","","","","","","","","","","",""
"","","","","","html-keyboard-response","48","205040","0.0-2.0-2.0-0.22","5bc0ac845a09ea00012e2d30","F1","batch6","spm_show_trial_num","null","<p class=block-text>Trial 23 out of 60</p>","null","","","","","","","","","","","","","","","","","","","","","","","","","",""
"","","","","","image-button-response","49","212683","0.0-2.0-2.0-1.22","5bc0ac845a09ea00012e2d30","F1","batch6","spm_respsonse","7642","img/question_2_11.jpeg","3","mat_23","4","1","1","7642","","","","","","","","","","","","","","","","","","","","",""
"","","","","","html-keyboard-response","50","213735","0.0-2.0-2.0-0.23","5bc0ac845a09ea00012e2d30","F1","batch6","spm_show_trial_num","null","<p class=block-text>Trial 24 out of 60</p>","null","","","","","","","","","","","","","","","","","","","","","","","","","",""
"","","","","","image-button-response","51","291047","0.0-2.0-2.0-1.23","5bc0ac845a09ea00012e2d30","F1","batch6","spm_respsonse","77311","img/question_2_12.jpeg","5","mat_24","5","0","0","77311","","","","","","","","","","","","","","","","","","","","",""
"","","","","","html-button-response","52","292740","0.0-2.0-3.0","5bc0ac845a09ea00012e2d30","F1","batch6","attention_check","1441","<p class = block-text>Attention check: Please choose 1<br></p>","0","","","true","","","","","","","","","","","","","","","","","","","","","","",""
"","","","","","html-keyboard-response","53","293541","0.0-2.0-4.0-0.0","5bc0ac845a09ea00012e2d30","F1","batch6","spm_show_trial_num","null","<p class=block-text>Trial 25 out of 60</p>","null","","","","","","","","","","","","","","","","","","","","","","","","","",""
"","","","","","image-button-response","54","302580","0.0-2.0-4.0-1.0","5bc0ac845a09ea00012e2d30","F1","batch6","spm_respsonse","9038","img/question_3_1.jpeg","7","mat_25","8","1","1","9038","","","","","","","","","","","","","","","","","","","","",""
"","","","","","html-keyboard-response","55","303634","0.0-2.0-4.0-0.1","5bc0ac845a09ea00012e2d30","F1","batch6","spm_show_trial_num","null","<p class=block-text>Trial 26 out of 60</p>","null","","","","","","","","","","","","","","","","","","","","","","","","","",""
"","","","","","image-button-response","56","329629","0.0-2.0-4.0-1.1","5bc0ac845a09ea00012e2d30","F1","batch6","spm_respsonse","25994","img/question_3_2.jpeg","1","mat_26","2","1","1","25994","","","","","","","","","","","","","","","","","","","","",""
"","","","","","html-keyboard-response","57","330682","0.0-2.0-4.0-0.2","5bc0ac845a09ea00012e2d30","F1","batch6","spm_show_trial_num","null","<p class=block-text>Trial 27 out of 60</p>","null","","","","","","","","","","","","","","","","","","","","","","","","","",""
"","","","","","image-button-response","58","344243","0.0-2.0-4.0-1.2","5bc0ac845a09ea00012e2d30","F1","batch6","spm_respsonse","13560","img/question_3_3.jpeg","2","mat_27","3","1","1","13560","","","","","","","","","","","","","","","","","","","","",""
"","","","","","html-keyboard-response","59","345296","0.0-2.0-4.0-0.3","5bc0ac845a09ea00012e2d30","F1","batch6","spm_show_trial_num","null","<p class=block-text>Trial 28 out of 60</p>","null","","","","","","","","","","","","","","","","","","","","","","","","","",""
"","","","","","image-button-response","60","364592","0.0-2.0-4.0-1.3","5bc0ac845a09ea00012e2d30","F1","batch6","spm_respsonse","19296","img/question_3_4.jpeg","7","mat_28","8","1","1","19296","","","","","","","","","","","","","","","","","","","","",""
"","","","","","html-keyboard-response","61","365645","0.0-2.0-4.0-0.4","5bc0ac845a09ea00012e2d30","F1","batch6","spm_show_trial_num","null","<p class=block-text>Trial 29 out of 60</p>","null","","","","","","","","","","","","","","","","","","","","","","","","","",""
"","","","","","image-button-response","62","381063","0.0-2.0-4.0-1.4","5bc0ac845a09ea00012e2d30","F1","batch6","spm_respsonse","15417","img/question_3_5.jpeg","6","mat_29","7","1","1","15417","","","","","","","","","","","","","","","","","","","","",""
"","","","","","html-keyboard-response","63","382115","0.0-2.0-4.0-0.5","5bc0ac845a09ea00012e2d30","F1","batch6","spm_show_trial_num","null","<p class=block-text>Trial 30 out of 60</p>","null","","","","","","","","","","","","","","","","","","","","","","","","","",""
"","","","","","image-button-response","64","395216","0.0-2.0-4.0-1.5","5bc0ac845a09ea00012e2d30","F1","batch6","spm_respsonse","13100","img/question_3_6.jpeg","3","mat_30","4","1","1","13100","","","","","","","","","","","","","","","","","","","","",""
"","","","","","html-keyboard-response","65","396268","0.0-2.0-4.0-0.6","5bc0ac845a09ea00012e2d30","F1","batch6","spm_show_trial_num","null","<p class=block-text>Trial 31 out of 60</p>","null","","","","","","","","","","","","","","","","","","","","","","","","","",""
"","","","","","image-button-response","66","409646","0.0-2.0-4.0-1.6","5bc0ac845a09ea00012e2d30","F1","batch6","spm_respsonse","13377","img/question_3_7.jpeg","4","mat_31","5","1","1","13377","","","","","","","","","","","","","","","","","","","","",""
"","","","","","html-keyboard-response","67","410701","0.0-2.0-4.0-0.7","5bc0ac845a09ea00012e2d30","F1","batch6","spm_show_trial_num","null","<p class=block-text>Trial 32 out of 60</p>","null","","","","","","","","","","","","","","","","","","","","","","","","","",""
"","","","","","image-button-response","68","425583","0.0-2.0-4.0-1.7","5bc0ac845a09ea00012e2d30","F1","batch6","spm_respsonse","14881","img/question_3_8.jpeg","0","mat_32","1","1","1","14881","","","","","","","","","","","","","","","","","","","","",""
"","","","","","html-keyboard-response","69","426637","0.0-2.0-4.0-0.8","5bc0ac845a09ea00012e2d30","F1","batch6","spm_show_trial_num","null","<p class=block-text>Trial 33 out of 60</p>","null","","","","","","","","","","","","","","","","","","","","","","","","","",""
"","","","","","image-button-response","70","444682","0.0-2.0-4.0-1.8","5bc0ac845a09ea00012e2d30","F1","batch6","spm_respsonse","18044","img/question_3_9.jpeg","6","mat_33","7","1","1","18044","","","","","","","","","","","","","","","","","","","","",""
"","","","","","html-keyboard-response","71","445735","0.0-2.0-4.0-0.9","5bc0ac845a09ea00012e2d30","F1","batch6","spm_show_trial_num","null","<p class=block-text>Trial 34 out of 60</p>","null","","","","","","","","","","","","","","","","","","","","","","","","","",""
"","","","","","image-button-response","72","457356","0.0-2.0-4.0-1.9","5bc0ac845a09ea00012e2d30","F1","batch6","spm_respsonse","11621","img/question_3_10.jpeg","5","mat_34","6","1","1","11621","","","","","","","","","","","","","","","","","","","","",""
"","","","","","html-keyboard-response","73","458409","0.0-2.0-4.0-0.10","5bc0ac845a09ea00012e2d30","F1","batch6","spm_show_trial_num","null","<p class=block-text>Trial 35 out of 60</p>","null","","","","","","","","","","","","","","","","","","","","","","","","","",""
"","","","","","image-button-response","74","481390","0.0-2.0-4.0-1.10","5bc0ac845a09ea00012e2d30","F1","batch6","spm_respsonse","22980","img/question_3_11.jpeg","0","mat_35","1","1","1","22980","","","","","","","","","","","","","","","","","","","","",""
"","","","","","html-keyboard-response","75","482442","0.0-2.0-4.0-0.11","5bc0ac845a09ea00012e2d30","F1","batch6","spm_show_trial_num","null","<p class=block-text>Trial 36 out of 60</p>","null","","","","","","","","","","","","","","","","","","","","","","","","","",""
"","","","","","image-button-response","76","495769","0.0-2.0-4.0-1.11","5bc0ac845a09ea00012e2d30","F1","batch6","spm_respsonse","13326","img/question_3_12.jpeg","1","mat_36","2","1","1","13326","","","","","","","","","","","","","","","","","","","","",""
"","","","","","html-keyboard-response","77","496823","0.0-2.0-4.0-0.12","5bc0ac845a09ea00012e2d30","F1","batch6","spm_show_trial_num","null","<p class=block-text>Trial 37 out of 60</p>","null","","","","","","","","","","","","","","","","","","","","","","","","","",""
"","","","","","image-button-response","78","500841","0.0-2.0-4.0-1.12","5bc0ac845a09ea00012e2d30","F1","batch6","spm_respsonse","4017","img/question_4_1.jpeg","2","mat_37","3","1","1","4017","","","","","","","","","","","","","","","","","","","","",""
"","","","","","html-keyboard-response","79","501895","0.0-2.0-4.0-0.13","5bc0ac845a09ea00012e2d30","F1","batch6","spm_show_trial_num","null","<p class=block-text>Trial 38 out of 60</p>","null","","","","","","","","","","","","","","","","","","","","","","","","","",""
"","","","","","image-button-response","80","509076","0.0-2.0-4.0-1.13","5bc0ac845a09ea00012e2d30","F1","batch6","spm_respsonse","7179","img/question_4_2.jpeg","3","mat_38","4","1","1","7179","","","","","","","","","","","","","","","","","","","","",""
"","","","","","html-keyboard-response","81","510128","0.0-2.0-4.0-0.14","5bc0ac845a09ea00012e2d30","F1","batch6","spm_show_trial_num","null","<p class=block-text>Trial 39 out of 60</p>","null","","","","","","","","","","","","","","","","","","","","","","","","","",""
"","","","","","image-button-response","82","516390","0.0-2.0-4.0-1.14","5bc0ac845a09ea00012e2d30","F1","batch6","spm_respsonse","6261","img/question_4_3.jpeg","2","mat_39","3","1","1","6261","","","","","","","","","","","","","","","","","","","","",""
"","","","","","html-keyboard-response","83","517440","0.0-2.0-4.0-0.15","5bc0ac845a09ea00012e2d30","F1","batch6","spm_show_trial_num","null","<p class=block-text>Trial 40 out of 60</p>","null","","","","","","","","","","","","","","","","","","","","","","","","","",""
"","","","","","image-button-response","84","526218","0.0-2.0-4.0-1.15","5bc0ac845a09ea00012e2d30","F1","batch6","spm_respsonse","8777","img/question_4_4.jpeg","6","mat_40","7","1","1","8777","","","","","","","","","","","","","","","","","","","","",""
"","","","","","html-keyboard-response","85","527270","0.0-2.0-4.0-0.16","5bc0ac845a09ea00012e2d30","F1","batch6","spm_show_trial_num","null","<p class=block-text>Trial 41 out of 60</p>","null","","","","","","","","","","","","","","","","","","","","","","","","","",""
"","","","","","image-button-response","86","540541","0.0-2.0-4.0-1.16","5bc0ac845a09ea00012e2d30","F1","batch6","spm_respsonse","13271","img/question_4_5.jpeg","7","mat_41","8","1","1","13271","","","","","","","","","","","","","","","","","","","","",""
"","","","","","html-keyboard-response","87","541594","0.0-2.0-4.0-0.17","5bc0ac845a09ea00012e2d30","F1","batch6","spm_show_trial_num","null","<p class=block-text>Trial 42 out of 60</p>","null","","","","","","","","","","","","","","","","","","","","","","","","","",""
"","","","","","image-button-response","88","554451","0.0-2.0-4.0-1.17","5bc0ac845a09ea00012e2d30","F1","batch6","spm_respsonse","12855","img/question_4_6.jpeg","5","mat_42","6","1","1","12855","","","","","","","","","","","","","","","","","","","","",""
"","","","","","html-keyboard-response","89","555502","0.0-2.0-4.0-0.18","5bc0ac845a09ea00012e2d30","F1","batch6","spm_show_trial_num","null","<p class=block-text>Trial 43 out of 60</p>","null","","","","","","","","","","","","","","","","","","","","","","","","","",""
"","","","","","image-button-response","90","570656","0.0-2.0-4.0-1.18","5bc0ac845a09ea00012e2d30","F1","batch6","spm_respsonse","15153","img/question_4_7.jpeg","4","mat_43","5","1","1","15153","","","","","","","","","","","","","","","","","","","","",""
"","","","","","html-keyboard-response","91","571708","0.0-2.0-4.0-0.19","5bc0ac845a09ea00012e2d30","F1","batch6","spm_show_trial_num","null","<p class=block-text>Trial 44 out of 60</p>","null","","","","","","","","","","","","","","","","","","","","","","","","","",""
"","","","","","image-button-response","92","617121","0.0-2.0-4.0-1.19","5bc0ac845a09ea00012e2d30","F1","batch6","spm_respsonse","45413","img/question_4_8.jpeg","3","mat_44","4","1","1","45413","","","","","","","","","","","","","","","","","","","","",""
"","","","","","html-keyboard-response","93","618174","0.0-2.0-4.0-0.20","5bc0ac845a09ea00012e2d30","F1","batch6","spm_show_trial_num","null","<p class=block-text>Trial 45 out of 60</p>","null","","","","","","","","","","","","","","","","","","","","","","","","","",""
"","","","","","image-button-response","94","630556","0.0-2.0-4.0-1.20","5bc0ac845a09ea00012e2d30","F1","batch6","spm_respsonse","12380","img/question_4_9.jpeg","0","mat_45","1","1","1","12380","","","","","","","","","","","","","","","","","","","","",""
"","","","","","html-keyboard-response","95","631608","0.0-2.0-4.0-0.21","5bc0ac845a09ea00012e2d30","F1","batch6","spm_show_trial_num","null","<p class=block-text>Trial 46 out of 60</p>","null","","","","","","","","","","","","","","","","","","","","","","","","","",""
"","","","","","image-button-response","96","674244","0.0-2.0-4.0-1.21","5bc0ac845a09ea00012e2d30","F1","batch6","spm_respsonse","42634","img/question_4_10.jpeg","1","mat_46","2","1","1","42634","","","","","","","","","","","","","","","","","","","","",""
"","","","","","html-keyboard-response","97","675297","0.0-2.0-4.0-0.22","5bc0ac845a09ea00012e2d30","F1","batch6","spm_show_trial_num","null","<p class=block-text>Trial 47 out of 60</p>","null","","","","","","","","","","","","","","","","","","","","","","","","","",""
"","","","","","image-button-response","98","703112","0.0-2.0-4.0-1.22","5bc0ac845a09ea00012e2d30","F1","batch6","spm_respsonse","27813","img/question_4_11.jpeg","4","mat_47","5","1","1","27813","","","","","","","","","","","","","","","","","","","","",""
"","","","","","html-keyboard-response","99","704164","0.0-2.0-4.0-0.23","5bc0ac845a09ea00012e2d30","F1","batch6","spm_show_trial_num","null","<p class=block-text>Trial 48 out of 60</p>","null","","","","","","","","","","","","","","","","","","","","","","","","","",""
"","","","","","image-button-response","100","776202","0.0-2.0-4.0-1.23","5bc0ac845a09ea00012e2d30","F1","batch6","spm_respsonse","72038","img/question_4_12.jpeg","7","mat_48","6","0","0","72038","","","","","","","","","","","","","","","","","","","","",""
"","","","","","html-keyboard-response","101","777255","0.0-2.0-4.0-0.24","5bc0ac845a09ea00012e2d30","F1","batch6","spm_show_trial_num","null","<p class=block-text>Trial 49 out of 60</p>","null","","","","","","","","","","","","","","","","","","","","","","","","","",""
"","","","","","image-button-response","102","788217","0.0-2.0-4.0-1.24","5bc0ac845a09ea00012e2d30","F1","batch6","spm_respsonse","10962","img/question_5_1.jpeg","6","mat_49","7","1","1","10962","","","","","","","","","","","","","","","","","","","","",""
"","","","","","html-keyboard-response","103","789270","0.0-2.0-4.0-0.25","5bc0ac845a09ea00012e2d30","F1","batch6","spm_show_trial_num","null","<p class=block-text>Trial 50 out of 60</p>","null","","","","","","","","","","","","","","","","","","","","","","","","","",""
"","","","","","image-button-response","104","815810","0.0-2.0-4.0-1.25","5bc0ac845a09ea00012e2d30","F1","batch6","spm_respsonse","26538","img/question_5_2.jpeg","5","mat_50","6","1","1","26538","","","","","","","","","","","","","","","","","","","","",""
"","","","","","html-keyboard-response","105","816863","0.0-2.0-4.0-0.26","5bc0ac845a09ea00012e2d30","F1","batch6","spm_show_trial_num","null","<p class=block-text>Trial 51 out of 60</p>","null","","","","","","","","","","","","","","","","","","","","","","","","","",""
"","","","","","image-button-response","106","839517","0.0-2.0-4.0-1.26","5bc0ac845a09ea00012e2d30","F1","batch6","spm_respsonse","22652","img/question_5_3.jpeg","7","mat_51","8","1","1","22652","","","","","","","","","","","","","","","","","","","","",""
"","","","","","html-keyboard-response","107","840568","0.0-2.0-4.0-0.27","5bc0ac845a09ea00012e2d30","F1","batch6","spm_show_trial_num","null","<p class=block-text>Trial 52 out of 60</p>","null","","","","","","","","","","","","","","","","","","","","","","","","","",""
"","","","","","image-button-response","108","852703","0.0-2.0-4.0-1.27","5bc0ac845a09ea00012e2d30","F1","batch6","spm_respsonse","12132","img/question_5_4.jpeg","1","mat_52","2","1","1","12132","","","","","","","","","","","","","","","","","","","","",""
"","","","","","html-keyboard-response","109","853756","0.0-2.0-4.0-0.28","5bc0ac845a09ea00012e2d30","F1","batch6","spm_show_trial_num","null","<p class=block-text>Trial 53 out of 60</p>","null","","","","","","","","","","","","","","","","","","","","","","","","","",""
"","","","","","image-button-response","110","864083","0.0-2.0-4.0-1.28","5bc0ac845a09ea00012e2d30","F1","batch6","spm_respsonse","10326","img/question_5_5.jpeg","0","mat_53","1","1","1","10326","","","","","","","","","","","","","","","","","","","","",""
"","","","","","html-keyboard-response","111","865136","0.0-2.0-4.0-0.29","5bc0ac845a09ea00012e2d30","F1","batch6","spm_show_trial_num","null","<p class=block-text>Trial 54 out of 60</p>","null","","","","","","","","","","","","","","","","","","","","","","","","","",""
"","","","","","image-button-response","112","898835","0.0-2.0-4.0-1.29","5bc0ac845a09ea00012e2d30","F1","batch6","spm_respsonse","33697","img/question_5_6.jpeg","4","mat_54","5","1","1","33697","","","","","","","","","","","","","","","","","","","","",""
"","","","","","html-keyboard-response","113","899886","0.0-2.0-4.0-0.30","5bc0ac845a09ea00012e2d30","F1","batch6","spm_show_trial_num","null","<p class=block-text>Trial 55 out of 60</p>","null","","","","","","","","","","","","","","","","","","","","","","","","","",""
"","","","","","image-button-response","114","963935","0.0-2.0-4.0-1.30","5bc0ac845a09ea00012e2d30","F1","batch6","spm_respsonse","64049","img/question_5_7.jpeg","0","mat_55","1","1","1","64049","","","","","","","","","","","","","","","","","","","","",""
"","","","","","html-keyboard-response","115","964987","0.0-2.0-4.0-0.31","5bc0ac845a09ea00012e2d30","F1","batch6","spm_show_trial_num","null","<p class=block-text>Trial 56 out of 60</p>","null","","","","","","","","","","","","","","","","","","","","","","","","","",""
"","","","","","image-button-response","116","992885","0.0-2.0-4.0-1.31","5bc0ac845a09ea00012e2d30","F1","batch6","spm_respsonse","27895","img/question_5_8.jpeg","5","mat_56","6","1","1","27895","","","","","","","","","","","","","","","","","","","","",""
"","","","","","html-keyboard-response","117","993937","0.0-2.0-4.0-0.32","5bc0ac845a09ea00012e2d30","F1","batch6","spm_show_trial_num","null","<p class=block-text>Trial 57 out of 60</p>","null","","","","","","","","","","","","","","","","","","","","","","","","","",""
"","","","","","image-button-response","118","1071508","0.0-2.0-4.0-1.32","5bc0ac845a09ea00012e2d30","F1","batch6","spm_respsonse","77568","img/question_5_9.jpeg","2","mat_57","3","1","1","77568","","","","","","","","","","","","","","","","","","","","",""
"","","","","","html-keyboard-response","119","1072561","0.0-2.0-4.0-0.33","5bc0ac845a09ea00012e2d30","F1","batch6","spm_show_trial_num","null","<p class=block-text>Trial 58 out of 60</p>","null","","","","","","","","","","","","","","","","","","","","","","","","","",""
"","","","","","image-button-response","120","1175136","0.0-2.0-4.0-1.33","5bc0ac845a09ea00012e2d30","F1","batch6","spm_respsonse","102574","img/question_5_10.jpeg","6","mat_58","2","0","0","102574","","","","","","","","","","","","","","","","","","","","",""
"","","","","","html-keyboard-response","121","1176188","0.0-2.0-4.0-0.34","5bc0ac845a09ea00012e2d30","F1","batch6","spm_show_trial_num","null","<p class=block-text>Trial 59 out of 60</p>","null","","","","","","","","","","","","","","","","","","","","","","","","","",""
"","","","","","image-button-response","122","1219722","0.0-2.0-4.0-1.34","5bc0ac845a09ea00012e2d30","F1","batch6","spm_respsonse","43533","img/question_5_11.jpeg","2","mat_59","4","0","0","43533","","","","","","","","","","","","","","","","","","","","",""
"","","","","","html-keyboard-response","123","1220773","0.0-2.0-4.0-0.35","5bc0ac845a09ea00012e2d30","F1","batch6","spm_show_trial_num","null","<p class=block-text>Trial 60 out of 60</p>","null","","","","","","","","","","","","","","","","","","","","","","","","","",""
"","","","","","image-button-response","124","1286635","0.0-2.0-4.0-1.35","5bc0ac845a09ea00012e2d30","F1","batch6","spm_respsonse","65861","img/question_5_12.jpeg","2","mat_60","5","0","0","65861","","","","","","","","","","","","","","","","","","","","",""
"","","","","","html-button-response","125","1288916","0.0-2.0-5.0","5bc0ac845a09ea00012e2d30","F1","batch6","spm_goodbye","2030","<p class= block-text>This concludes the Standard Progressive Matrix game. Thank you for your responses!<br> When you are ready, click the button continue</p>","0","","","","","","","","","","","","","","","","","","","","","","","","","",""
"true","","","","","fullscreen","126","1291244","0.0-3.0-0.0","5bc0ac845a09ea00012e2d30","F1","batch6","","","","","","","","","","","","","","","","","","","","","","","","","","","","","",""
"","","","","","instructions","127","1337258","0.0-3.0-1.0-0.0-0.0","5bc0ac845a09ea00012e2d30","F1","batch6","tol-instructions","46014","","","","","","","","[{""page_index"":0,""viewing_time"":16075},{""page_index"":1,""viewing_time"":5874},{""page_index"":2,""viewing_time"":3170},{""page_index"":3,""viewing_time"":7683},{""page_index"":4,""viewing_time"":4572},{""page_index"":5,""viewing_time"":6087},{""page_index"":6,""viewing_time"":2553}]","","","","","","","","","","","","","","","","","","","",""
"","","","","","html-button-response","128","1338109","0.0-3.0-1.0-1.0-0.0","5bc0ac845a09ea00012e2d30","F1","batch6","tol_enter_quiz","851","<p class=block-text> Let's answer a few questions <br>","0","","","","","","","","","","","","","","","","","","","","","","","","","",""
"","","","","","html-button-response","129","1340657","0.0-3.0-1.0-1.0-1.0","5bc0ac845a09ea00012e2d30","F1","batch6","tol_quiz","2548","<p class = block-text>True or False: You can only move the ball on top of a peg. <br></p>","0","","","true","","","","","","","","","","","","","","","","","","","","","","",""
"","","","","","html-button-response","130","1341955","0.0-3.0-1.0-1.0-2.0","5bc0ac845a09ea00012e2d30","F1","batch6","tol_quiz_feedback","1298","<p class = block-text>Correct! You can only move the ball on top of a peg.</p>","0","","","","","","","","","","","","","","","","","","","","","","","","","",""
"","","","","","html-button-response","131","1344238","0.0-3.0-1.0-1.0-3.0","5bc0ac845a09ea00012e2d30","F1","batch6","tol_quiz","2282","<p class = block-text>True or False: You should try to match your board with the target board with fewest moves possible. <br></p>","0","","","true","","","","","","","","","","","","","","","","","","","","","","",""
"","","","","","html-button-response","132","1344813","0.0-3.0-1.0-1.0-4.0","5bc0ac845a09ea00012e2d30","F1","batch6","tol_quiz_feedback","575","<p class = block-text>Correct! </p>","0","","","","","","","","","","","","","","","","","","","","","","","","","",""
"","","","","","html-button-response","133","1346122","0.0-3.0-2.0","5bc0ac845a09ea00012e2d30","F1","batch6","","1310","<p class=block-text> Now that you've understood the game, let's practice a few easier examples before we start!<br> <br>","0","","","","","","","","","","","","","","","","","","","","","","","","","",""
"","","","","","single-stim-button","134","1349248","0.0-3.0-3.0-0.0","5bc0ac845a09ea00012e2d30","F1","batch6","tol_practice","3124","","","","","","","","","tol_peg_2","3124","3124","0","[[1,2,0],[0,0],[0]]","1","[[1,2,0],[0,0],[3]]","practice","3124","","","","","","","","","","",""
"","","","","","single-stim-button","135","1352118","0.0-3.0-3.0-1.0","5bc0ac845a09ea00012e2d30","F1","batch6","tol_practice","2870","","","","","","","","","tol_peg_3","2870","2870","0","[[1,2,0],[0,0],[3]]","1","[[1,2,0],[0,0],[3]]","practice","2870","","","","","","","","","","",""
"","","","","","poldrack-single-stim","136","1353120","0.0-3.0-4.0","5bc0ac845a09ea00012e2d30","F1","batch6","tol_feedback","-1","","","","","true","","","","","1000","1000","500","","","","","","-1","none","true","","0","","","","","",""
"","","","","","single-stim-button","137","1356731","0.0-3.0-5.0-0.0","5bc0ac845a09ea00012e2d30","F1","batch6","tol_practice","3611","","","","","","","","","tol_peg_1","3611","3611","0","[[1,0,0],[3,0],[0]]","2","[[0,0,0],[3,1],[2]]","practice","3611","","","","","","","","","","",""
"","","","","","single-stim-button","138","1358339","0.0-3.0-5.0-1.0","5bc0ac845a09ea00012e2d30","F1","batch6","tol_practice","1608","","","","","","","","","tol_peg_3","1608","1608","0","[[1,0,0],[3,0],[2]]","2","[[0,0,0],[3,1],[2]]","practice","1608","","","","","","","","","","",""
"","","","","","single-stim-button","139","1359054","0.0-3.0-5.1-0.1","5bc0ac845a09ea00012e2d30","F1","batch6","tol_practice","715","","","","","","","","","tol_peg_1","715","715","0","[[0,0,0],[3,0],[2]]","3","[[0,0,0],[3,1],[2]]","practice","715","","","","","","","","","","",""
"","","","","","single-stim-button","140","1360611","0.0-3.0-5.1-1.1","5bc0ac845a09ea00012e2d30","F1","batch6","tol_practice","1556","","","","","","","","","tol_peg_2","1556","1556","0","[[0,0,0],[3,1],[2]]","3","[[0,0,0],[3,1],[2]]","practice","1556","","","","","","","","","","",""
"","","","","","poldrack-single-stim","141","1361613","0.0-3.0-6.0","5bc0ac845a09ea00012e2d30","F1","batch6","tol_feedback","-1","","","","","true","","","","","1000","1000","500","","","","","","-1","none","true","","0","","","","","",""
"","","","","","single-stim-button","142","1363505","0.0-3.0-7.0-0.0","5bc0ac845a09ea00012e2d30","F1","batch6","tol_practice","1891","","","","","","","","","tol_peg_2","1891","1891","0","[[1,2,0],[0,0],[0]]","4","[[1,0,0],[2,0],[3]]","practice","1891","","","","","","","","","","",""
"","","","","","single-stim-button","143","1364163","0.0-3.0-7.0-1.0","5bc0ac845a09ea00012e2d30","F1","batch6","tol_practice","658","","","","","","","","","tol_peg_3","658","658","0","[[1,2,0],[0,0],[3]]","4","[[1,0,0],[2,0],[3]]","practice","658","","","","","","","","","","",""
"","","","","","single-stim-button","144","1365614","0.0-3.0-7.1-0.1","5bc0ac845a09ea00012e2d30","F1","batch6","tol_practice","1451","","","","","","","","","tol_peg_1","1451","1451","0","[[1,0,0],[0,0],[3]]","5","[[1,0,0],[2,0],[3]]","practice","1451","","","","","","","","","","",""
"","","","","","single-stim-button","145","1366224","0.0-3.0-7.1-1.1","5bc0ac845a09ea00012e2d30","F1","batch6","tol_practice","610","","","","","","","","","tol_peg_2","610","610","0","[[1,0,0],[2,0],[3]]","5","[[1,0,0],[2,0],[3]]","practice","610","","","","","","","","","","",""
"","","","","","poldrack-single-stim","146","1367226","0.0-3.0-8.0","5bc0ac845a09ea00012e2d30","F1","batch6","tol_feedback","-1","","","","","true","","","","","1000","1000","500","","","","","","-1","none","true","","0","","","","","",""
"","","","","","html-button-response","147","1368742","0.0-3.0-9.0","5bc0ac845a09ea00012e2d30","F1","batch6","tol_instruction","1516","<div class = centerbox><p class = center-block-text>Great job! You are done with practice trials<br>You are about to start official trials.<br> <br> Problem <strong>1</strong> out of 25 problems</p></div>","0","","","","","","","","","","","","","","","","","","","","","","","","","",""
"","","","","","single-stim-button","148","1378996","0.0-3.0-10.0-0.0","5bc0ac845a09ea00012e2d30","F1","batch6","tol_tohand","9253","","","","","","","","","tol_peg_2","9253","9253","0","[[1,2,0],[0,0],[0]]","1","[[1,3,0],[2,0],[0]]","0","0","","","","","","3","","","","",""
"","","","","","single-stim-button","149","1381192","0.0-3.0-10.0-1.0","5bc0ac845a09ea00012e2d30","F1","batch6","tol_toboard","2196","","","","","","","","","tol_peg_3","2196","2196","0","[[1,2,0],[0,0],[3]]","1","[[1,3,0],[2,0],[0]]","0","0","","","","","","3","","","","",""
"","","","","","single-stim-button","150","1382131","0.0-3.0-10.1-0.1","5bc0ac845a09ea00012e2d30","F1","batch6","tol_tohand","939","","","","","","","","","tol_peg_1","939","939","0","[[1,0,0],[0,0],[3]]","2","[[1,3,0],[2,0],[0]]","0","0","","","","","","3","","","","",""
"","","","","","single-stim-button","151","1383220","0.0-3.0-10.1-1.1","5bc0ac845a09ea00012e2d30","F1","batch6","tol_toboard","1089","","","","","","","","","tol_peg_2","1089","1089","0","[[1,0,0],[2,0],[3]]","2","[[1,3,0],[2,0],[0]]","0","0","","","","","","3","","","","",""
"","","","","","single-stim-button","152","1383847","0.0-3.0-10.2-0.2","5bc0ac845a09ea00012e2d30","F1","batch6","tol_tohand","627","","","","","","","","","tol_peg_3","627","627","0","[[1,0,0],[2,0],[0]]","3","[[1,3,0],[2,0],[0]]","0","0","","","","","","3","","","","",""
"","","","","","single-stim-button","153","1384631","0.0-3.0-10.2-1.2","5bc0ac845a09ea00012e2d30","F1","batch6","tol_toboard","784","","","","","","","","","tol_peg_1","784","784","0","[[1,3,0],[2,0],[0]]","3","[[1,3,0],[2,0],[0]]","0","0","","","","","","3","","","","",""
"","","","","","poldrack-single-stim","154","1385634","0.0-3.0-11.0","5bc0ac845a09ea00012e2d30","F1","batch6","tol_feedback","-1","","","","","true","","","","","1000","1000","500","","","","","","-1","none","true","9253","10819","","","","","",""
"","","","","","html-button-response","155","1386552","0.0-3.0-12.0","5bc0ac845a09ea00012e2d30","F1","batch6","tol_trial_num","917","<div class = centerbox><p class = center-block-text>problem <strong>2</strong> out of 25 problems</p></div>","0","","","","","","","","","","","","","","","","","","","","","","","","","",""
"","","","","","single-stim-button","156","1388866","0.0-3.0-13.0-0.0","5bc0ac845a09ea00012e2d30","F1","batch6","tol_tohand","2314","","","","","","","","","tol_peg_2","2314","2314","0","[[1,2,0],[0,0],[0]]","1","[[2,1,3],[0,0],[0]]","1","0","","","","","","5","","","","",""
"","","","","","single-stim-button","157","1394115","0.0-3.0-13.0-1.0","5bc0ac845a09ea00012e2d30","F1","batch6","tol_toboard","5249","","","","","","","","","tol_peg_3","5249","5249","0","[[1,2,0],[0,0],[3]]","1","[[2,1,3],[0,0],[0]]","1","0","","","","","","5","","","","",""
"","","","","","single-stim-button","158","1394956","0.0-3.0-13.1-0.1","5bc0ac845a09ea00012e2d30","F1","batch6","tol_tohand","841","","","","","","","","","tol_peg_1","841","841","0","[[1,0,0],[0,0],[3]]","2","[[2,1,3],[0,0],[0]]","1","0","","","","","","5","","","","",""
"","","","","","single-stim-button","159","1398264","0.0-3.0-13.1-1.1","5bc0ac845a09ea00012e2d30","F1","batch6","tol_toboard","3308","","","","","","","","","tol_peg_2","3308","3308","0","[[1,0,0],[2,0],[3]]","2","[[2,1,3],[0,0],[0]]","1","0","","","","","","5","","","","",""
"","","","","","single-stim-button","160","1400500","0.0-3.0-13.2-0.2","5bc0ac845a09ea00012e2d30","F1","batch6","tol_tohand","2236","","","","","","","","","tol_peg_1","2236","2236","0","[[0,0,0],[2,0],[3]]","3","[[2,1,3],[0,0],[0]]","1","0","","","","","","5","","","","",""
"","","","","","single-stim-button","161","1401421","0.0-3.0-13.2-1.2","5bc0ac845a09ea00012e2d30","F1","batch6","tol_toboard","921","","","","","","","","","tol_peg_2","921","921","0","[[0,0,0],[2,1],[3]]","3","[[2,1,3],[0,0],[0]]","1","0","","","","","","5","","","","",""
"","","","","","single-stim-button","162","1401943","0.0-3.0-13.3-0.3","5bc0ac845a09ea00012e2d30","F1","batch6","tol_tohand","522","","","","","","","","","tol_peg_3","522","522","0","[[0,0,0],[2,1],[0]]","4","[[2,1,3],[0,0],[0]]","1","0","","","","","","5","","","","",""
"","","","","","single-stim-button","163","1405198","0.0-3.0-13.3-1.3","5bc0ac845a09ea00012e2d30","F1","batch6","tol_toboard","3255","","","","","","","","","tol_peg_1","3255","3255","0","[[3,0,0],[2,1],[0]]","4","[[2,1,3],[0,0],[0]]","1","0","","","","","","5","","","","",""
"","","","","","single-stim-button","164","1408781","0.0-3.0-13.4-0.4","5bc0ac845a09ea00012e2d30","F1","batch6","tol_tohand","3583","","","","","","","","","tol_peg_2","3583","3583","0","[[3,0,0],[2,0],[0]]","5","[[2,1,3],[0,0],[0]]","1","0","","","","","","5","","","","",""
"","","","","","single-stim-button","165","1412865","0.0-3.0-13.4-1.4","5bc0ac845a09ea00012e2d30","F1","batch6","tol_toboard","4084","","","","","","","","","tol_peg_1","4084","4084","0","[[3,1,0],[2,0],[0]]","5","[[2,1,3],[0,0],[0]]","1","0","","","","","","5","","","","",""
"","","","","","single-stim-button","166","1413429","0.0-3.0-13.5-0.5","5bc0ac845a09ea00012e2d30","F1","batch6","tol_tohand","564","","","","","","","","","tol_peg_2","564","564","0","[[3,1,0],[0,0],[0]]","6","[[2,1,3],[0,0],[0]]","1","0","","","","","","5","","","","",""
"","","","","","single-stim-button","167","1414342","0.0-3.0-13.5-1.5","5bc0ac845a09ea00012e2d30","F1","batch6","tol_toboard","913","","","","","","","","","tol_peg_3","913","913","0","[[3,1,0],[0,0],[2]]","6","[[2,1,3],[0,0],[0]]","1","0","","","","","","5","","","","",""
"","","","","","single-stim-button","168","1415042","0.0-3.0-13.6-0.6","5bc0ac845a09ea00012e2d30","F1","batch6","tol_tohand","700","","","","","","","","","tol_peg_1","700","700","0","[[3,0,0],[0,0],[2]]","7","[[2,1,3],[0,0],[0]]","1","0","","","","","","5","","","","",""
"","","","","","single-stim-button","169","1415583","0.0-3.0-13.6-1.6","5bc0ac845a09ea00012e2d30","F1","batch6","tol_toboard","541","","","","","","","","","tol_peg_2","541","541","0","[[3,0,0],[1,0],[2]]","7","[[2,1,3],[0,0],[0]]","1","0","","","","","","5","","","","",""
"","","","","","single-stim-button","170","1416463","0.0-3.0-13.7-0.7","5bc0ac845a09ea00012e2d30","F1","batch6","tol_tohand","880","","","","","","","","","tol_peg_1","880","880","0","[[0,0,0],[1,0],[2]]","8","[[2,1,3],[0,0],[0]]","1","0","","","","","","5","","","","",""
"","","","","","single-stim-button","171","1417212","0.0-3.0-13.7-1.7","5bc0ac845a09ea00012e2d30","F1","batch6","tol_toboard","749","","","","","","","","","tol_peg_2","749","749","0","[[0,0,0],[1,3],[2]]","8","[[2,1,3],[0,0],[0]]","1","0","","","","","","5","","","","",""
"","","","","","single-stim-button","172","1417611","0.0-3.0-13.8-0.8","5bc0ac845a09ea00012e2d30","F1","batch6","tol_tohand","399","","","","","","","","","tol_peg_3","399","399","0","[[0,0,0],[1,3],[0]]","9","[[2,1,3],[0,0],[0]]","1","0","","","","","","5","","","","",""
"","","","","","single-stim-button","173","1418904","0.0-3.0-13.8-1.8","5bc0ac845a09ea00012e2d30","F1","batch6","tol_toboard","1292","","","","","","","","","tol_peg_1","1292","1292","0","[[2,0,0],[1,3],[0]]","9","[[2,1,3],[0,0],[0]]","1","0","","","","","","5","","","","",""
"","","","","","single-stim-button","174","1419444","0.0-3.0-13.9-0.9","5bc0ac845a09ea00012e2d30","F1","batch6","tol_tohand","540","","","","","","","","","tol_peg_2","540","540","0","[[2,0,0],[1,0],[0]]","10","[[2,1,3],[0,0],[0]]","1","0","","","","","","5","","","","",""
"","","","","","single-stim-button","175","1419903","0.0-3.0-13.9-1.9","5bc0ac845a09ea00012e2d30","F1","batch6","tol_toboard","459","","","","","","","","","tol_peg_3","459","459","0","[[2,0,0],[1,0],[3]]","10","[[2,1,3],[0,0],[0]]","1","0","","","","","","5","","","","",""
"","","","","","single-stim-button","176","1420350","0.0-3.0-13.10-0.10","5bc0ac845a09ea00012e2d30","F1","batch6","tol_tohand","447","","","","","","","","","tol_peg_2","447","447","0","[[2,0,0],[0,0],[3]]","11","[[2,1,3],[0,0],[0]]","1","0","","","","","","5","","","","",""
"","","","","","single-stim-button","177","1421055","0.0-3.0-13.10-1.10","5bc0ac845a09ea00012e2d30","F1","batch6","tol_toboard","705","","","","","","","","","tol_peg_1","705","705","0","[[2,1,0],[0,0],[3]]","11","[[2,1,3],[0,0],[0]]","1","0","","","","","","5","","","","",""
"","","","","","single-stim-button","178","1421640","0.0-3.0-13.11-0.11","5bc0ac845a09ea00012e2d30","F1","batch6","tol_tohand","583","","","","","","","","","tol_peg_3","583","583","0","[[2,1,0],[0,0],[0]]","12","[[2,1,3],[0,0],[0]]","1","0","","","","","","5","","","","",""
"","","","","","single-stim-button","179","1422344","0.0-3.0-13.11-1.11","5bc0ac845a09ea00012e2d30","F1","batch6","tol_toboard","704","","","","","","","","","tol_peg_1","704","704","0","[[2,1,3],[0,0],[0]]","12","[[2,1,3],[0,0],[0]]","1","0","","","","","","5","","","","",""
"","","","","","poldrack-single-stim","180","1423346","0.0-3.0-14.0","5bc0ac845a09ea00012e2d30","F1","batch6","tol_feedback","-1","","","","","true","","","","","1000","1000","500","","","","","","-1","none","true","2314","13609","","","","","",""
"","","","","","html-button-response","181","1424644","0.0-3.0-15.0","5bc0ac845a09ea00012e2d30","F1","batch6","tol_trial_num","1297","<div class = centerbox><p class = center-block-text>problem <strong>3</strong> out of 25 problems</p></div>","0","","","","","","","","","","","","","","","","","","","","","","","","","",""
"","","","","","single-stim-button","182","1430437","0.0-3.0-16.0-0.0","5bc0ac845a09ea00012e2d30","F1","batch6","tol_tohand","5793","","","","","","","","","tol_peg_1","5793","5793","0","[[2,0,0],[0,0],[1]]","1","[[1,2,0],[3,0],[0]]","2","0","","","","","","4","","","","",""
"","","","","","single-stim-button","183","1431239","0.0-3.0-16.0-1.0","5bc0ac845a09ea00012e2d30","F1","batch6","tol_toboard","802","","","","","","","","","tol_peg_2","802","802","0","[[2,0,0],[3,0],[1]]","1","[[1,2,0],[3,0],[0]]","2","0","","","","","","4","","","","",""
"","","","","","single-stim-button","184","1435543","0.0-3.0-16.1-0.1","5bc0ac845a09ea00012e2d30","F1","batch6","tol_tohand","4304","","","","","","","","","tol_peg_1","4304","4304","0","[[0,0,0],[3,0],[1]]","2","[[1,2,0],[3,0],[0]]","2","0","","","","","","4","","","","",""
"","","","","","single-stim-button","185","1436510","0.0-3.0-16.1-1.1","5bc0ac845a09ea00012e2d30","F1","batch6","tol_toboard","967","","","","","","","","","tol_peg_2","967","967","0","[[0,0,0],[3,2],[1]]","2","[[1,2,0],[3,0],[0]]","2","0","","","","","","4","","","","",""
"","","","","","single-stim-button","186","1437023","0.0-3.0-16.2-0.2","5bc0ac845a09ea00012e2d30","F1","batch6","tol_tohand","513","","","","","","","","","tol_peg_3","513","513","0","[[0,0,0],[3,2],[0]]","3","[[1,2,0],[3,0],[0]]","2","0","","","","","","4","","","","",""
"","","","","","single-stim-button","187","1438175","0.0-3.0-16.2-1.2","5bc0ac845a09ea00012e2d30","F1","batch6","tol_toboard","1152","","","","","","","","","tol_peg_1","1152","1152","0","[[1,0,0],[3,2],[0]]","3","[[1,2,0],[3,0],[0]]","2","0","","","","","","4","","","","",""
"","","","","","single-stim-button","188","1438808","0.0-3.0-16.3-0.3","5bc0ac845a09ea00012e2d30","F1","batch6","tol_tohand","633","","","","","","","","","tol_peg_2","633","633","0","[[1,0,0],[3,0],[0]]","4","[[1,2,0],[3,0],[0]]","2","0","","","","","","4","","","","",""
"","","","","","single-stim-button","189","1439543","0.0-3.0-16.3-1.3","5bc0ac845a09ea00012e2d30","F1","batch6","tol_toboard","735","","","","","","","","","tol_peg_1","735","735","0","[[1,2,0],[3,0],[0]]","4","[[1,2,0],[3,0],[0]]","2","0","","","","","","4","","","","",""
"","","","","","poldrack-single-stim","190","1440545","0.0-3.0-17.0","5bc0ac845a09ea00012e2d30","F1","batch6","tol_feedback","-1","","","","","true","","","","","1000","1000","500","","","","","","-1","none","true","5793","11243","","","","","",""
"","","","","","html-button-response","191","1441422","0.0-3.0-18.0","5bc0ac845a09ea00012e2d30","F1","batch6","tol_trial_num","876","<div class = centerbox><p class = center-block-text>problem <strong>4</strong> out of 25 problems</p></div>","0","","","","","","","","","","","","","","","","","","","","","","","","","",""
"","","","","","single-stim-button","192","1446396","0.0-3.0-19.0-0.0","5bc0ac845a09ea00012e2d30","F1","batch6","tol_tohand","4974","","","","","","","","","tol_peg_2","4974","4974","0","[[3,0,0],[2,0],[0]]","1","[[3,0,0],[1,0],[2]]","3","0","","","","","","3","","","","",""
"","","","","","single-stim-button","193","1447382","0.0-3.0-19.0-1.0","5bc0ac845a09ea00012e2d30","F1","batch6","tol_toboard","986","","","","","","","","","tol_peg_1","986","986","0","[[3,1,0],[2,0],[0]]","1","[[3,0,0],[1,0],[2]]","3","0","","","","","","3","","","","",""
"","","","","","single-stim-button","194","1447984","0.0-3.0-19.1-0.1","5bc0ac845a09ea00012e2d30","F1","batch6","tol_tohand","602","","","","","","","","","tol_peg_2","602","602","0","[[3,1,0],[0,0],[0]]","2","[[3,0,0],[1,0],[2]]","3","0","","","","","","3","","","","",""
"","","","","","single-stim-button","195","1448665","0.0-3.0-19.1-1.1","5bc0ac845a09ea00012e2d30","F1","batch6","tol_toboard","681","","","","","","","","","tol_peg_3","681","681","0","[[3,1,0],[0,0],[2]]","2","[[3,0,0],[1,0],[2]]","3","0","","","","","","3","","","","",""
"","","","","","single-stim-button","196","1449203","0.0-3.0-19.2-0.2","5bc0ac845a09ea00012e2d30","F1","batch6","tol_tohand","538","","","","","","","","","tol_peg_1","538","538","0","[[3,0,0],[0,0],[2]]","3","[[3,0,0],[1,0],[2]]","3","0","","","","","","3","","","","",""
"","","","","","single-stim-button","197","1449782","0.0-3.0-19.2-1.2","5bc0ac845a09ea00012e2d30","F1","batch6","tol_toboard","579","","","","","","","","","tol_peg_2","579","579","0","[[3,0,0],[1,0],[2]]","3","[[3,0,0],[1,0],[2]]","3","0","","","","","","3","","","","",""
"","","","","","poldrack-single-stim","198","1450784","0.0-3.0-20.0","5bc0ac845a09ea00012e2d30","F1","batch6","tol_feedback","-1","","","","","true","","","","","1000","1000","500","","","","","","-1","none","true","4974","6114","","","","","",""
"","","","","","html-button-response","199","1451848","0.0-3.0-21.0","5bc0ac845a09ea00012e2d30","F1","batch6","tol_trial_num","1064","<div class = centerbox><p class = center-block-text>problem <strong>5</strong> out of 25 problems</p></div>","0","","","","","","","","","","","","","","","","","","","","","","","","","",""
"","","","","","single-stim-button","200","1474277","0.0-3.0-22.0-0.0","5bc0ac845a09ea00012e2d30","F1","batch6","tol_tohand","22429","","","","","","","","","tol_peg_3","22429","22429","0","[[1,0,0],[2,0],[0]]","1","[[0,0,0],[1,2],[3]]","4","0","","","","","","7","","","","",""
"","","","","","single-stim-button","201","1474858","0.0-3.0-22.0-1.0","5bc0ac845a09ea00012e2d30","F1","batch6","tol_toboard","580","","","","","","","","","tol_peg_2","580","580","0","[[1,0,0],[2,3],[0]]","1","[[0,0,0],[1,2],[3]]","4","0","","","","","","7","","","","",""
"","","","","","single-stim-button","202","1475424","0.0-3.0-22.1-0.1","5bc0ac845a09ea00012e2d30","F1","batch6","tol_tohand","566","","","","","","","","","tol_peg_1","566","566","0","[[0,0,0],[2,3],[0]]","2","[[0,0,0],[1,2],[3]]","4","0","","","","","","7","","","","",""
"","","","","","single-stim-button","203","1476397","0.0-3.0-22.1-1.1","5bc0ac845a09ea00012e2d30","F1","batch6","tol_toboard","972","","","","","","","","","tol_peg_3","972","972","0","[[0,0,0],[2,3],[1]]","2","[[0,0,0],[1,2],[3]]","4","0","","","","","","7","","","","",""
"","","","","","single-stim-button","204","1483137","0.0-3.0-22.2-0.2","5bc0ac845a09ea00012e2d30","F1","batch6","tol_tohand","6740","","","","","","","","","tol_peg_2","6740","6740","0","[[0,0,0],[2,0],[1]]","3","[[0,0,0],[1,2],[3]]","4","0","","","","","","7","","","","",""
"","","","","","single-stim-button","205","1483660","0.0-3.0-22.2-1.2","5bc0ac845a09ea00012e2d30","F1","batch6","tol_toboard","523","","","","","","","","","tol_peg_1","523","523","0","[[3,0,0],[2,0],[1]]","3","[[0,0,0],[1,2],[3]]","4","0","","","","","","7","","","","",""
"","","","","","single-stim-button","206","1484334","0.0-3.0-22.3-0.3","5bc0ac845a09ea00012e2d30","F1","batch6","tol_tohand","674","","","","","","","","","tol_peg_2","674","674","0","[[3,0,0],[0,0],[1]]","4","[[0,0,0],[1,2],[3]]","4","0","","","","","","7","","","","",""
"","","","","","single-stim-button","207","1491661","0.0-3.0-22.3-1.3","5bc0ac845a09ea00012e2d30","F1","batch6","tol_toboard","7327","","","","","","","","","tol_peg_1","7327","7327","0","[[3,2,0],[0,0],[1]]","4","[[0,0,0],[1,2],[3]]","4","0","","","","","","7","","","","",""
"","","","","","single-stim-button","208","1492229","0.0-3.0-22.4-0.4","5bc0ac845a09ea00012e2d30","F1","batch6","tol_tohand","566","","","","","","","","","tol_peg_3","566","566","0","[[3,2,0],[0,0],[0]]","5","[[0,0,0],[1,2],[3]]","4","0","","","","","","7","","","","",""
"","","","","","single-stim-button","209","1492959","0.0-3.0-22.4-1.4","5bc0ac845a09ea00012e2d30","F1","batch6","tol_toboard","730","","","","","","","","","tol_peg_2","730","730","0","[[3,2,0],[1,0],[0]]","5","[[0,0,0],[1,2],[3]]","4","0","","","","","","7","","","","",""
"","","","","","single-stim-button","210","1493688","0.0-3.0-22.5-0.5","5bc0ac845a09ea00012e2d30","F1","batch6","tol_tohand","729","","","","","","","","","tol_peg_1","729","729","0","[[3,0,0],[1,0],[0]]","6","[[0,0,0],[1,2],[3]]","4","0","","","","","","7","","","","",""
"","","","","","single-stim-button","211","1494214","0.0-3.0-22.5-1.5","5bc0ac845a09ea00012e2d30","F1","batch6","tol_toboard","525","","","","","","","","","tol_peg_2","525","525","0","[[3,0,0],[1,2],[0]]","6","[[0,0,0],[1,2],[3]]","4","0","","","","","","7","","","","",""
"","","","","","single-stim-button","212","1494668","0.0-3.0-22.6-0.6","5bc0ac845a09ea00012e2d30","F1","batch6","tol_tohand","453","","","","","","","","","tol_peg_1","453","453","0","[[0,0,0],[1,2],[0]]","7","[[0,0,0],[1,2],[3]]","4","0","","","","","","7","","","","",""
"","","","","","single-stim-button","213","1495344","0.0-3.0-22.6-1.6","5bc0ac845a09ea00012e2d30","F1","batch6","tol_toboard","676","","","","","","","","","tol_peg_3","676","676","0","[[0,0,0],[1,2],[3]]","7","[[0,0,0],[1,2],[3]]","4","0","","","","","","7","","","","",""
"","","","","","poldrack-single-stim","214","1496346","0.0-3.0-23.0","5bc0ac845a09ea00012e2d30","F1","batch6","tol_feedback","-1","","","","","true","","","","","1000","1000","500","","","","","","-1","none","true","22429","32157","","","","","",""
"","","","","","html-button-response","215","1497560","0.0-3.0-24.0","5bc0ac845a09ea00012e2d30","F1","batch6","tol_trial_num","1214","<div class = centerbox><p class = center-block-text>problem <strong>6</strong> out of 25 problems</p></div>","0","","","","","","","","","","","","","","","","","","","","","","","","","",""
"","","","","","single-stim-button","216","1508913","0.0-3.0-25.0-0.0","5bc0ac845a09ea00012e2d30","F1","batch6","tol_tohand","11353","","","","","","","","","tol_peg_3","11353","11353","0","[[0,0,0],[1,2],[0]]","1","[[1,0,0],[2,3],[0]]","5","0","","","","","","6","","","","",""
"","","","","","single-stim-button","217","1509883","0.0-3.0-25.0-1.0","5bc0ac845a09ea00012e2d30","F1","batch6","tol_toboard","970","","","","","","","","","tol_peg_1","970","970","0","[[3,0,0],[1,2],[0]]","1","[[1,0,0],[2,3],[0]]","5","0","","","","","","6","","","","",""
"","","","","","single-stim-button","218","1510271","0.0-3.0-25.1-0.1","5bc0ac845a09ea00012e2d30","F1","batch6","tol_tohand","388","","","","","","","","","tol_peg_2","388","388","0","[[3,0,0],[1,0],[0]]","2","[[1,0,0],[2,3],[0]]","5","0","","","","","","6","","","","",""
"","","","","","single-stim-button","219","1510671","0.0-3.0-25.1-1.1","5bc0ac845a09ea00012e2d30","F1","batch6","tol_toboard","399","","","","","","","","","tol_peg_3","399","399","0","[[3,0,0],[1,0],[2]]","2","[[1,0,0],[2,3],[0]]","5","0","","","","","","6","","","","",""
"","","","","","single-stim-button","220","1519453","0.0-3.0-25.2-0.2","5bc0ac845a09ea00012e2d30","F1","batch6","tol_tohand","8782","","","","","","","","","tol_peg_3","8782","8782","0","[[3,0,0],[1,0],[0]]","3","[[1,0,0],[2,3],[0]]","5","0","","","","","","6","","","","",""
"","","","","","single-stim-button","221","1521185","0.0-3.0-25.2-1.2","5bc0ac845a09ea00012e2d30","F1","batch6","tol_toboard","1731","","","","","","","","","tol_peg_1","1731","1731","0","[[3,2,0],[1,0],[0]]","3","[[1,0,0],[2,3],[0]]","5","0","","","","","","6","","","","",""
"","","","","","single-stim-button","222","1521591","0.0-3.0-25.3-0.3","5bc0ac845a09ea00012e2d30","F1","batch6","tol_tohand","405","","","","","","","","","tol_peg_2","405","405","0","[[3,2,0],[0,0],[0]]","4","[[1,0,0],[2,3],[0]]","5","0","","","","","","6","","","","",""
"","","","","","single-stim-button","223","1522330","0.0-3.0-25.3-1.3","5bc0ac845a09ea00012e2d30","F1","batch6","tol_toboard","739","","","","","","","","","tol_peg_3","739","739","0","[[3,2,0],[0,0],[1]]","4","[[1,0,0],[2,3],[0]]","5","0","","","","","","6","","","","",""
"","","","","","single-stim-button","224","1523089","0.0-3.0-25.4-0.4","5bc0ac845a09ea00012e2d30","F1","batch6","tol_tohand","758","","","","","","","","","tol_peg_1","758","758","0","[[3,0,0],[0,0],[1]]","5","[[1,0,0],[2,3],[0]]","5","0","","","","","","6","","","","",""
"","","","","","single-stim-button","225","1523675","0.0-3.0-25.4-1.4","5bc0ac845a09ea00012e2d30","F1","batch6","tol_toboard","586","","","","","","","","","tol_peg_2","586","586","0","[[3,0,0],[2,0],[1]]","5","[[1,0,0],[2,3],[0]]","5","0","","","","","","6","","","","",""
"","","","","","single-stim-button","226","1524407","0.0-3.0-25.5-0.5","5bc0ac845a09ea00012e2d30","F1","batch6","tol_tohand","732","","","","","","","","","tol_peg_1","732","732","0","[[0,0,0],[2,0],[1]]","6","[[1,0,0],[2,3],[0]]","5","0","","","","","","6","","","","",""
"","","","","","single-stim-button","227","1525000","0.0-3.0-25.5-1.5","5bc0ac845a09ea00012e2d30","F1","batch6","tol_toboard","592","","","","","","","","","tol_peg_2","592","592","0","[[0,0,0],[2,3],[1]]","6","[[1,0,0],[2,3],[0]]","5","0","","","","","","6","","","","",""
"","","","","","single-stim-button","228","1525509","0.0-3.0-25.6-0.6","5bc0ac845a09ea00012e2d30","F1","batch6","tol_tohand","509","","","","","","","","","tol_peg_3","509","509","0","[[0,0,0],[2,3],[0]]","7","[[1,0,0],[2,3],[0]]","5","0","","","","","","6","","","","",""
"","","","","","single-stim-button","229","1526142","0.0-3.0-25.6-1.6","5bc0ac845a09ea00012e2d30","F1","batch6","tol_toboard","633","","","","","","","","","tol_peg_1","633","633","0","[[1,0,0],[2,3],[0]]","7","[[1,0,0],[2,3],[0]]","5","0","","","","","","6","","","","",""
"","","","","","poldrack-single-stim","230","1527143","0.0-3.0-26.0","5bc0ac845a09ea00012e2d30","F1","batch6","tol_feedback","-1","","","","","true","","","","","1000","1000","500","","","","","","-1","none","true","11353","22927","","","","","",""
"","","","","","html-button-response","231","1527898","0.0-3.0-27.0","5bc0ac845a09ea00012e2d30","F1","batch6","tol_trial_num","755","<div class = centerbox><p class = center-block-text>problem <strong>7</strong> out of 25 problems</p></div>","0","","","","","","","","","","","","","","","","","","","","","","","","","",""
"","","","","","single-stim-button","232","1533560","0.0-3.0-28.0-0.0","5bc0ac845a09ea00012e2d30","F1","batch6","tol_tohand","5661","","","","","","","","","tol_peg_3","5661","5661","0","[[2,1,0],[0,0],[0]]","1","[[1,2,0],[3,0],[0]]","6","0","","","","","","5","","","","",""
"","","","","","single-stim-button","233","1534164","0.0-3.0-28.0-1.0","5bc0ac845a09ea00012e2d30","F1","batch6","tol_toboard","604","","","","","","","","","tol_peg_2","604","604","0","[[2,1,0],[3,0],[0]]","1","[[1,2,0],[3,0],[0]]","6","0","","","","","","5","","","","",""
"","","","","","single-stim-button","234","1539115","0.0-3.0-28.1-0.1","5bc0ac845a09ea00012e2d30","F1","batch6","tol_tohand","4951","","","","","","","","","tol_peg_1","4951","4951","0","[[2,0,0],[3,0],[0]]","2","[[1,2,0],[3,0],[0]]","6","0","","","","","","5","","","","",""
"","","","","","single-stim-button","235","1539904","0.0-3.0-28.1-1.1","5bc0ac845a09ea00012e2d30","F1","batch6","tol_toboard","789","","","","","","","","","tol_peg_3","789","789","0","[[2,0,0],[3,0],[1]]","2","[[1,2,0],[3,0],[0]]","6","0","","","","","","5","","","","",""
"","","","","","single-stim-button","236","1540621","0.0-3.0-28.2-0.2","5bc0ac845a09ea00012e2d30","F1","batch6","tol_tohand","716","","","","","","","","","tol_peg_1","716","716","0","[[0,0,0],[3,0],[1]]","3","[[1,2,0],[3,0],[0]]","6","0","","","","","","5","","","","",""
"","","","","","single-stim-button","237","1541128","0.0-3.0-28.2-1.2","5bc0ac845a09ea00012e2d30","F1","batch6","tol_toboard","507","","","","","","","","","tol_peg_2","507","507","0","[[0,0,0],[3,2],[1]]","3","[[1,2,0],[3,0],[0]]","6","0","","","","","","5","","","","",""
"","","","","","single-stim-button","238","1541637","0.0-3.0-28.3-0.3","5bc0ac845a09ea00012e2d30","F1","batch6","tol_tohand","509","","","","","","","","","tol_peg_3","509","509","0","[[0,0,0],[3,2],[0]]","4","[[1,2,0],[3,0],[0]]","6","0","","","","","","5","","","","",""
"","","","","","single-stim-button","239","1542228","0.0-3.0-28.3-1.3","5bc0ac845a09ea00012e2d30","F1","batch6","tol_toboard","591","","","","","","","","","tol_peg_1","591","591","0","[[1,0,0],[3,2],[0]]","4","[[1,2,0],[3,0],[0]]","6","0","","","","","","5","","","","",""
"","","","","","single-stim-button","240","1542703","0.0-3.0-28.4-0.4","5bc0ac845a09ea00012e2d30","F1","batch6","tol_tohand","475","","","","","","","","","tol_peg_2","475","475","0","[[1,0,0],[3,0],[0]]","5","[[1,2,0],[3,0],[0]]","6","0","","","","","","5","","","","",""
"","","","","","single-stim-button","241","1543531","0.0-3.0-28.4-1.4","5bc0ac845a09ea00012e2d30","F1","batch6","tol_toboard","827","","","","","","","","","tol_peg_1","827","827","0","[[1,2,0],[3,0],[0]]","5","[[1,2,0],[3,0],[0]]","6","0","","","","","","5","","","","",""
"","","","","","poldrack-single-stim","242","1544533","0.0-3.0-29.0","5bc0ac845a09ea00012e2d30","F1","batch6","tol_feedback","-1","","","","","true","","","","","1000","1000","500","","","","","","-1","none","true","5661","12312","","","","","",""
"","","","","","html-button-response","243","1545459","0.0-3.0-30.0","5bc0ac845a09ea00012e2d30","F1","batch6","tol_trial_num","925","<div class = centerbox><p class = center-block-text>problem <strong>8</strong> out of 25 problems</p></div>","0","","","","","","","","","","","","","","","","","","","","","","","","","",""
"","","","","","single-stim-button","244","1549636","0.0-3.0-31.0-0.0","5bc0ac845a09ea00012e2d30","F1","batch6","tol_tohand","4176","","","","","","","","","tol_peg_3","4176","4176","0","[[0,0,0],[2,3],[0]]","1","[[1,2,0],[3,0],[0]]","7","0","","","","","","4","","","","",""
"","","","","","single-stim-button","245","1550489","0.0-3.0-31.0-1.0","5bc0ac845a09ea00012e2d30","F1","batch6","tol_toboard","853","","","","","","","","","tol_peg_1","853","853","0","[[1,0,0],[2,3],[0]]","1","[[1,2,0],[3,0],[0]]","7","0","","","","","","4","","","","",""
"","","","","","single-stim-button","246","1551813","0.0-3.0-31.1-0.1","5bc0ac845a09ea00012e2d30","F1","batch6","tol_tohand","1324","","","","","","","","","tol_peg_2","1324","1324","0","[[1,0,0],[2,0],[0]]","2","[[1,2,0],[3,0],[0]]","7","0","","","","","","4","","","","",""
"","","","","","single-stim-button","247","1553337","0.0-3.0-31.1-1.1","5bc0ac845a09ea00012e2d30","F1","batch6","tol_toboard","1524","","","","","","","","","tol_peg_3","1524","1524","0","[[1,0,0],[2,0],[3]]","2","[[1,2,0],[3,0],[0]]","7","0","","","","","","4","","","","",""
"","","","","","single-stim-button","248","1553757","0.0-3.0-31.2-0.2","5bc0ac845a09ea00012e2d30","F1","batch6","tol_tohand","420","","","","","","","","","tol_peg_2","420","420","0","[[1,0,0],[0,0],[3]]","3","[[1,2,0],[3,0],[0]]","7","0","","","","","","4","","","","",""
"","","","","","single-stim-button","249","1554643","0.0-3.0-31.2-1.2","5bc0ac845a09ea00012e2d30","F1","batch6","tol_toboard","886","","","","","","","","","tol_peg_1","886","886","0","[[1,2,0],[0,0],[3]]","3","[[1,2,0],[3,0],[0]]","7","0","","","","","","4","","","","",""
"","","","","","single-stim-button","250","1555312","0.0-3.0-31.3-0.3","5bc0ac845a09ea00012e2d30","F1","batch6","tol_tohand","669","","","","","","","","","tol_peg_3","669","669","0","[[1,2,0],[0,0],[0]]","4","[[1,2,0],[3,0],[0]]","7","0","","","","","","4","","","","",""
"","","","","","single-stim-button","251","1556176","0.0-3.0-31.3-1.3","5bc0ac845a09ea00012e2d30","F1","batch6","tol_toboard","864","","","","","","","","","tol_peg_2","864","864","0","[[1,2,0],[3,0],[0]]","4","[[1,2,0],[3,0],[0]]","7","0","","","","","","4","","","","",""
"","","","","","poldrack-single-stim","252","1557178","0.0-3.0-32.0","5bc0ac845a09ea00012e2d30","F1","batch6","tol_feedback","-1","","","","","true","","","","","1000","1000","500","","","","","","-1","none","true","4176","6589","","","","","",""
"","","","","","html-button-response","253","1557934","0.0-3.0-33.0","5bc0ac845a09ea00012e2d30","F1","batch6","tol_trial_num","756","<div class = centerbox><p class = center-block-text>problem <strong>9</strong> out of 25 problems</p></div>","0","","","","","","","","","","","","","","","","","","","","","","","","","",""
"","","","","","single-stim-button","254","1568379","0.0-3.0-34.0-0.0","5bc0ac845a09ea00012e2d30","F1","batch6","tol_tohand","10445","","","","","","","","","tol_peg_3","10445","10445","0","[[3,2,0],[0,0],[0]]","1","[[2,1,0],[3,0],[0]]","8","0","","","","","","6","","","","",""
"","","","","","single-stim-button","255","1570053","0.0-3.0-34.0-1.0","5bc0ac845a09ea00012e2d30","F1","batch6","tol_toboard","1673","","","","","","","","","tol_peg_2","1673","1673","0","[[3,2,0],[1,0],[0]]","1","[[2,1,0],[3,0],[0]]","8","0","","","","","","6","","","","",""
"","","","","","single-stim-button","256","1570485","0.0-3.0-34.1-0.1","5bc0ac845a09ea00012e2d30","F1","batch6","tol_tohand","432","","","","","","","","","tol_peg_1","432","432","0","[[3,0,0],[1,0],[0]]","2","[[2,1,0],[3,0],[0]]","8","0","","","","","","6","","","","",""
"","","","","","single-stim-button","257","1571628","0.0-3.0-34.1-1.1","5bc0ac845a09ea00012e2d30","F1","batch6","tol_toboard","1143","","","","","","","","","tol_peg_3","1143","1143","0","[[3,0,0],[1,0],[2]]","2","[[2,1,0],[3,0],[0]]","8","0","","","","","","6","","","","",""
"","","","","","single-stim-button","258","1572715","0.0-3.0-34.2-0.2","5bc0ac845a09ea00012e2d30","F1","batch6","tol_tohand","1087","","","","","","","","","tol_peg_1","1087","1087","0","[[0,0,0],[1,0],[2]]","3","[[2,1,0],[3,0],[0]]","8","0","","","","","","6","","","","",""
"","","","","","single-stim-button","259","1573401","0.0-3.0-34.2-1.2","5bc0ac845a09ea00012e2d30","F1","batch6","tol_toboard","686","","","","","","","","","tol_peg_2","686","686","0","[[0,0,0],[1,3],[2]]","3","[[2,1,0],[3,0],[0]]","8","0","","","","","","6","","","","",""
"","","","","","single-stim-button","260","1573935","0.0-3.0-34.3-0.3","5bc0ac845a09ea00012e2d30","F1","batch6","tol_tohand","534","","","","","","","","","tol_peg_3","534","534","0","[[0,0,0],[1,3],[0]]","4","[[2,1,0],[3,0],[0]]","8","0","","","","","","6","","","","",""
"","","","","","single-stim-button","261","1574765","0.0-3.0-34.3-1.3","5bc0ac845a09ea00012e2d30","F1","batch6","tol_toboard","829","","","","","","","","","tol_peg_1","829","829","0","[[2,0,0],[1,3],[0]]","4","[[2,1,0],[3,0],[0]]","8","0","","","","","","6","","","","",""
"","","","","","single-stim-button","262","1575705","0.0-3.0-34.4-0.4","5bc0ac845a09ea00012e2d30","F1","batch6","tol_tohand","940","","","","","","","","","tol_peg_2","940","940","0","[[2,0,0],[1,0],[0]]","5","[[2,1,0],[3,0],[0]]","8","0","","","","","","6","","","","",""
"","","","","","single-stim-button","263","1576652","0.0-3.0-34.4-1.4","5bc0ac845a09ea00012e2d30","F1","batch6","tol_toboard","947","","","","","","","","","tol_peg_3","947","947","0","[[2,0,0],[1,0],[3]]","5","[[2,1,0],[3,0],[0]]","8","0","","","","","","6","","","","",""
"","","","","","single-stim-button","264","1576998","0.0-3.0-34.5-0.5","5bc0ac845a09ea00012e2d30","F1","batch6","tol_tohand","346","","","","","","","","","tol_peg_2","346","346","0","[[2,0,0],[0,0],[3]]","6","[[2,1,0],[3,0],[0]]","8","0","","","","","","6","","","","",""
"","","","","","single-stim-button","265","1577509","0.0-3.0-34.5-1.5","5bc0ac845a09ea00012e2d30","F1","batch6","tol_toboard","511","","","","","","","","","tol_peg_1","511","511","0","[[2,1,0],[0,0],[3]]","6","[[2,1,0],[3,0],[0]]","8","0","","","","","","6","","","","",""
"","","","","","single-stim-button","266","1578106","0.0-3.0-34.6-0.6","5bc0ac845a09ea00012e2d30","F1","batch6","tol_tohand","597","","","","","","","","","tol_peg_3","597","597","0","[[2,1,0],[0,0],[0]]","7","[[2,1,0],[3,0],[0]]","8","0","","","","","","6","","","","",""
"","","","","","single-stim-button","267","1578786","0.0-3.0-34.6-1.6","5bc0ac845a09ea00012e2d30","F1","batch6","tol_toboard","680","","","","","","","","","tol_peg_2","680","680","0","[[2,1,0],[3,0],[0]]","7","[[2,1,0],[3,0],[0]]","8","0","","","","","","6","","","","",""
"","","","","","poldrack-single-stim","268","1579789","0.0-3.0-35.0","5bc0ac845a09ea00012e2d30","F1","batch6","tol_feedback","-1","","","","","true","","","","","1000","1000","500","","","","","","-1","none","true","10445","14381","","","","","",""
"","","","","","html-button-response","269","1580542","0.0-3.0-36.0","5bc0ac845a09ea00012e2d30","F1","batch6","tol_trial_num","753","<div class = centerbox><p class = center-block-text>problem <strong>10</strong> out of 25 problems</p></div>","0","","","","","","","","","","","","","","","","","","","","","","","","","",""
"","","","","","single-stim-button","270","1584818","0.0-3.0-37.0-0.0","5bc0ac845a09ea00012e2d30","F1","batch6","tol_tohand","4276","","","","","","","","","tol_peg_2","4276","4276","0","[[3,0,0],[0,0],[2]]","1","[[3,0,0],[2,1],[0]]","9","0","","","","","","3","","","","",""
"","","","","","single-stim-button","271","1585486","0.0-3.0-37.0-1.0","5bc0ac845a09ea00012e2d30","F1","batch6","tol_toboard","667","","","","","","","","","tol_peg_1","667","667","0","[[3,1,0],[0,0],[2]]","1","[[3,0,0],[2,1],[0]]","9","0","","","","","","3","","","","",""
"","","","","","single-stim-button","272","1585987","0.0-3.0-37.1-0.1","5bc0ac845a09ea00012e2d30","F1","batch6","tol_tohand","501","","","","","","","","","tol_peg_3","501","501","0","[[3,1,0],[0,0],[0]]","2","[[3,0,0],[2,1],[0]]","9","0","","","","","","3","","","","",""
"","","","","","single-stim-button","273","1586621","0.0-3.0-37.1-1.1","5bc0ac845a09ea00012e2d30","F1","batch6","tol_toboard","634","","","","","","","","","tol_peg_2","634","634","0","[[3,1,0],[2,0],[0]]","2","[[3,0,0],[2,1],[0]]","9","0","","","","","","3","","","","",""
"","","","","","single-stim-button","274","1587121","0.0-3.0-37.2-0.2","5bc0ac845a09ea00012e2d30","F1","batch6","tol_tohand","500","","","","","","","","","tol_peg_1","500","500","0","[[3,0,0],[2,0],[0]]","3","[[3,0,0],[2,1],[0]]","9","0","","","","","","3","","","","",""
"","","","","","single-stim-button","275","1587957","0.0-3.0-37.2-1.2","5bc0ac845a09ea00012e2d30","F1","batch6","tol_toboard","836","","","","","","","","","tol_peg_2","836","836","0","[[3,0,0],[2,1],[0]]","3","[[3,0,0],[2,1],[0]]","9","0","","","","","","3","","","","",""
"","","","","","poldrack-single-stim","276","1588959","0.0-3.0-38.0","5bc0ac845a09ea00012e2d30","F1","batch6","tol_feedback","-1","","","","","true","","","","","1000","1000","500","","","","","","-1","none","true","4276","5277","","","","","",""
"","","","","","html-button-response","277","1589731","0.0-3.0-39.0","5bc0ac845a09ea00012e2d30","F1","batch6","tol_trial_num","771","<div class = centerbox><p class = center-block-text>problem <strong>11</strong> out of 25 problems</p></div>","0","","","","","","","","","","","","","","","","","","","","","","","","","",""
"","","","","","single-stim-button","278","1601515","0.0-3.0-40.0-0.0","5bc0ac845a09ea00012e2d30","F1","batch6","tol_tohand","11784","","","","","","","","","tol_peg_1","11784","11784","0","[[1,0,0],[3,0],[0]]","1","[[2,0,0],[1,3],[0]]","10","0","","","","","","6","","","","",""
"","","","","","single-stim-button","279","1602411","0.0-3.0-40.0-1.0","5bc0ac845a09ea00012e2d30","F1","batch6","tol_toboard","895","","","","","","","","","tol_peg_3","895","895","0","[[1,0,0],[3,0],[2]]","1","[[2,0,0],[1,3],[0]]","10","0","","","","","","6","","","","",""
"","","","","","single-stim-button","280","1603148","0.0-3.0-40.1-0.1","5bc0ac845a09ea00012e2d30","F1","batch6","tol_tohand","737","","","","","","","","","tol_peg_1","737","737","0","[[0,0,0],[3,0],[2]]","2","[[2,0,0],[1,3],[0]]","10","0","","","","","","6","","","","",""
"","","","","","single-stim-button","281","1603738","0.0-3.0-40.1-1.1","5bc0ac845a09ea00012e2d30","F1","batch6","tol_toboard","590","","","","","","","","","tol_peg_2","590","590","0","[[0,0,0],[3,1],[2]]","2","[[2,0,0],[1,3],[0]]","10","0","","","","","","6","","","","",""
"","","","","","single-stim-button","282","1604179","0.0-3.0-40.2-0.2","5bc0ac845a09ea00012e2d30","F1","batch6","tol_tohand","441","","","","","","","","","tol_peg_3","441","441","0","[[0,0,0],[3,1],[0]]","3","[[2,0,0],[1,3],[0]]","10","0","","","","","","6","","","","",""
"","","","","","single-stim-button","283","1604889","0.0-3.0-40.2-1.2","5bc0ac845a09ea00012e2d30","F1","batch6","tol_toboard","709","","","","","","","","","tol_peg_1","709","709","0","[[2,0,0],[3,1],[0]]","3","[[2,0,0],[1,3],[0]]","10","0","","","","","","6","","","","",""
"","","","","","single-stim-button","284","1605489","0.0-3.0-40.3-0.3","5bc0ac845a09ea00012e2d30","F1","batch6","tol_tohand","600","","","","","","","","","tol_peg_2","600","600","0","[[2,0,0],[3,0],[0]]","4","[[2,0,0],[1,3],[0]]","10","0","","","","","","6","","","","",""
"","","","","","single-stim-button","285","1606096","0.0-3.0-40.3-1.3","5bc0ac845a09ea00012e2d30","F1","batch6","tol_toboard","607","","","","","","","","","tol_peg_3","607","607","0","[[2,0,0],[3,0],[1]]","4","[[2,0,0],[1,3],[0]]","10","0","","","","","","6","","","","",""
"","","","","","single-stim-button","286","1606885","0.0-3.0-40.4-0.4","5bc0ac845a09ea00012e2d30","F1","batch6","tol_tohand","789","","","","","","","","","tol_peg_2","789","789","0","[[2,0,0],[0,0],[1]]","5","[[2,0,0],[1,3],[0]]","10","0","","","","","","6","","","","",""
"","","","","","single-stim-button","287","1607431","0.0-3.0-40.4-1.4","5bc0ac845a09ea00012e2d30","F1","batch6","tol_toboard","546","","","","","","","","","tol_peg_1","546","546","0","[[2,3,0],[0,0],[1]]","5","[[2,0,0],[1,3],[0]]","10","0","","","","","","6","","","","",""
"","","","","","single-stim-button","288","1607976","0.0-3.0-40.5-0.5","5bc0ac845a09ea00012e2d30","F1","batch6","tol_tohand","545","","","","","","","","","tol_peg_3","545","545","0","[[2,3,0],[0,0],[0]]","6","[[2,0,0],[1,3],[0]]","10","0","","","","","","6","","","","",""
"","","","","","single-stim-button","289","1608520","0.0-3.0-40.5-1.5","5bc0ac845a09ea00012e2d30","F1","batch6","tol_toboard","544","","","","","","","","","tol_peg_2","544","544","0","[[2,3,0],[1,0],[0]]","6","[[2,0,0],[1,3],[0]]","10","0","","","","","","6","","","","",""
"","","","","","single-stim-button","290","1609017","0.0-3.0-40.6-0.6","5bc0ac845a09ea00012e2d30","F1","batch6","tol_tohand","497","","","","","","","","","tol_peg_1","497","497","0","[[2,0,0],[1,0],[0]]","7","[[2,0,0],[1,3],[0]]","10","0","","","","","","6","","","","",""
"","","","","","single-stim-button","291","1609484","0.0-3.0-40.6-1.6","5bc0ac845a09ea00012e2d30","F1","batch6","tol_toboard","466","","","","","","","","","tol_peg_2","466","466","0","[[2,0,0],[1,3],[0]]","7","[[2,0,0],[1,3],[0]]","10","0","","","","","","6","","","","",""
"","","","","","poldrack-single-stim","292","1610487","0.0-3.0-41.0","5bc0ac845a09ea00012e2d30","F1","batch6","tol_feedback","-1","","","","","true","","","","","1000","1000","500","","","","","","-1","none","true","11784","15393","","","","","",""
"","","","","","html-button-response","293","1611371","0.0-3.0-42.0","5bc0ac845a09ea00012e2d30","F1","batch6","tol_trial_num","883","<div class = centerbox><p class = center-block-text>problem <strong>12</strong> out of 25 problems</p></div>","0","","","","","","","","","","","","","","","","","","","","","","","","","",""
"","","","","","single-stim-button","294","1614168","0.0-3.0-43.0-0.0","5bc0ac845a09ea00012e2d30","F1","batch6","tol_tohand","2797","","","","","","","","","tol_peg_1","2797","2797","0","[[1,0,0],[3,0],[0]]","1","[[2,3,0],[0,0],[1]]","11","0","","","","","","4","","","","",""
"","","","","","single-stim-button","295","1614543","0.0-3.0-43.0-1.0","5bc0ac845a09ea00012e2d30","F1","batch6","tol_toboard","374","","","","","","","","","tol_peg_2","374","374","0","[[1,0,0],[3,2],[0]]","1","[[2,3,0],[0,0],[1]]","11","0","","","","","","4","","","","",""
"","","","","","single-stim-button","296","1615163","0.0-3.0-43.1-0.1","5bc0ac845a09ea00012e2d30","F1","batch6","tol_tohand","620","","","","","","","","","tol_peg_1","620","620","0","[[0,0,0],[3,2],[0]]","2","[[2,3,0],[0,0],[1]]","11","0","","","","","","4","","","","",""
"","","","","","single-stim-button","297","1615601","0.0-3.0-43.1-1.1","5bc0ac845a09ea00012e2d30","F1","batch6","tol_toboard","438","","","","","","","","","tol_peg_3","438","438","0","[[0,0,0],[3,2],[1]]","2","[[2,3,0],[0,0],[1]]","11","0","","","","","","4","","","","",""
"","","","","","single-stim-button","298","1616522","0.0-3.0-43.2-0.2","5bc0ac845a09ea00012e2d30","F1","batch6","tol_tohand","921","","","","","","","","","tol_peg_2","921","921","0","[[0,0,0],[3,0],[1]]","3","[[2,3,0],[0,0],[1]]","11","0","","","","","","4","","","","",""
"","","","","","single-stim-button","299","1617217","0.0-3.0-43.2-1.2","5bc0ac845a09ea00012e2d30","F1","batch6","tol_toboard","695","","","","","","","","","tol_peg_1","695","695","0","[[2,0,0],[3,0],[1]]","3","[[2,3,0],[0,0],[1]]","11","0","","","","","","4","","","","",""
"","","","","","single-stim-button","300","1617756","0.0-3.0-43.3-0.3","5bc0ac845a09ea00012e2d30","F1","batch6","tol_tohand","539","","","","","","","","","tol_peg_2","539","539","0","[[2,0,0],[0,0],[1]]","4","[[2,3,0],[0,0],[1]]","11","0","","","","","","4","","","","",""
"","","","","","single-stim-button","301","1618226","0.0-3.0-43.3-1.3","5bc0ac845a09ea00012e2d30","F1","batch6","tol_toboard","469","","","","","","","","","tol_peg_1","469","469","0","[[2,3,0],[0,0],[1]]","4","[[2,3,0],[0,0],[1]]","11","0","","","","","","4","","","","",""
"","","","","","poldrack-single-stim","302","1619228","0.0-3.0-44.0","5bc0ac845a09ea00012e2d30","F1","batch6","tol_feedback","-1","","","","","true","","","","","1000","1000","500","","","","","","-1","none","true","2797","4877","","","","","",""
"","","","","","html-button-response","303","1620049","0.0-3.0-45.0","5bc0ac845a09ea00012e2d30","F1","batch6","tol_trial_num","821","<div class = centerbox><p class = center-block-text>problem <strong>13</strong> out of 25 problems</p></div>","0","","","","","","","","","","","","","","","","","","","","","","","","","",""
"","","","","","single-stim-button","304","1622411","0.0-3.0-46.0-0.0","5bc0ac845a09ea00012e2d30","F1","batch6","tol_tohand","2362","","","","","","","","","tol_peg_1","2362","2362","0","[[1,0,0],[3,0],[0]]","1","[[0,0,0],[2,3],[1]]","12","0","","","","","","4","","","","",""
"","","","","","single-stim-button","305","1622820","0.0-3.0-46.0-1.0","5bc0ac845a09ea00012e2d30","F1","batch6","tol_toboard","408","","","","","","","","","tol_peg_2","408","408","0","[[1,0,0],[3,2],[0]]","1","[[0,0,0],[2,3],[1]]","12","0","","","","","","4","","","","",""
"","","","","","single-stim-button","306","1623355","0.0-3.0-46.1-0.1","5bc0ac845a09ea00012e2d30","F1","batch6","tol_tohand","534","","","","","","","","","tol_peg_1","534","534","0","[[0,0,0],[3,2],[0]]","2","[[0,0,0],[2,3],[1]]","12","0","","","","","","4","","","","",""
"","","","","","single-stim-button","307","1624001","0.0-3.0-46.1-1.1","5bc0ac845a09ea00012e2d30","F1","batch6","tol_toboard","646","","","","","","","","","tol_peg_3","646","646","0","[[0,0,0],[3,2],[1]]","2","[[0,0,0],[2,3],[1]]","12","0","","","","","","4","","","","",""
"","","","","","single-stim-button","308","1624402","0.0-3.0-46.2-0.2","5bc0ac845a09ea00012e2d30","F1","batch6","tol_tohand","401","","","","","","","","","tol_peg_2","401","401","0","[[0,0,0],[3,0],[1]]","3","[[0,0,0],[2,3],[1]]","12","0","","","","","","4","","","","",""
"","","","","","single-stim-button","309","1624889","0.0-3.0-46.2-1.2","5bc0ac845a09ea00012e2d30","F1","batch6","tol_toboard","487","","","","","","","","","tol_peg_1","487","487","0","[[2,0,0],[3,0],[1]]","3","[[0,0,0],[2,3],[1]]","12","0","","","","","","4","","","","",""
"","","","","","single-stim-button","310","1630346","0.0-3.0-46.3-0.3","5bc0ac845a09ea00012e2d30","F1","batch6","tol_tohand","5456","","","","","","","","","tol_peg_1","5456","5456","0","[[0,0,0],[3,0],[1]]","4","[[0,0,0],[2,3],[1]]","12","0","","","","","","4","","","","",""
"","","","","","single-stim-button","311","1630865","0.0-3.0-46.3-1.3","5bc0ac845a09ea00012e2d30","F1","batch6","tol_toboard","518","","","","","","","","","tol_peg_2","518","518","0","[[0,0,0],[3,2],[1]]","4","[[0,0,0],[2,3],[1]]","12","0","","","","","","4","","","","",""
"","","","","","single-stim-button","312","1631407","0.0-3.0-46.4-0.4","5bc0ac845a09ea00012e2d30","F1","batch6","tol_tohand","541","","","","","","","","","tol_peg_3","541","541","0","[[0,0,0],[3,2],[0]]","5","[[0,0,0],[2,3],[1]]","12","0","","","","","","4","","","","",""
"","","","","","single-stim-button","313","1631967","0.0-3.0-46.4-1.4","5bc0ac845a09ea00012e2d30","F1","batch6","tol_toboard","560","","","","","","","","","tol_peg_1","560","560","0","[[1,0,0],[3,2],[0]]","5","[[0,0,0],[2,3],[1]]","12","0","","","","","","4","","","","",""
"","","","","","single-stim-button","314","1632860","0.0-3.0-46.5-0.5","5bc0ac845a09ea00012e2d30","F1","batch6","tol_tohand","893","","","","","","","","","tol_peg_2","893","893","0","[[1,0,0],[3,0],[0]]","6","[[0,0,0],[2,3],[1]]","12","0","","","","","","4","","","","",""
"","","","","","single-stim-button","315","1634094","0.0-3.0-46.5-1.5","5bc0ac845a09ea00012e2d30","F1","batch6","tol_toboard","1234","","","","","","","","","tol_peg_3","1234","1234","0","[[1,0,0],[3,0],[2]]","6","[[0,0,0],[2,3],[1]]","12","0","","","","","","4","","","","",""
"","","","","","single-stim-button","316","1635863","0.0-3.0-46.6-0.6","5bc0ac845a09ea00012e2d30","F1","batch6","tol_tohand","1768","","","","","","","","","tol_peg_2","1768","1768","0","[[1,0,0],[0,0],[2]]","7","[[0,0,0],[2,3],[1]]","12","0","","","","","","4","","","","",""
"","","","","","single-stim-button","317","1636368","0.0-3.0-46.6-1.6","5bc0ac845a09ea00012e2d30","F1","batch6","tol_toboard","504","","","","","","","","","tol_peg_1","504","504","0","[[1,3,0],[0,0],[2]]","7","[[0,0,0],[2,3],[1]]","12","0","","","","","","4","","","","",""
"","","","","","single-stim-button","318","1636816","0.0-3.0-46.7-0.7","5bc0ac845a09ea00012e2d30","F1","batch6","tol_tohand","447","","","","","","","","","tol_peg_3","447","447","0","[[1,3,0],[0,0],[0]]","8","[[0,0,0],[2,3],[1]]","12","0","","","","","","4","","","","",""
"","","","","","single-stim-button","319","1637227","0.0-3.0-46.7-1.7","5bc0ac845a09ea00012e2d30","F1","batch6","tol_toboard","410","","","","","","","","","tol_peg_2","410","410","0","[[1,3,0],[2,0],[0]]","8","[[0,0,0],[2,3],[1]]","12","0","","","","","","4","","","","",""
"","","","","","single-stim-button","320","1637665","0.0-3.0-46.8-0.8","5bc0ac845a09ea00012e2d30","F1","batch6","tol_tohand","438","","","","","","","","","tol_peg_1","438","438","0","[[1,0,0],[2,0],[0]]","9","[[0,0,0],[2,3],[1]]","12","0","","","","","","4","","","","",""
"","","","","","single-stim-button","321","1638595","0.0-3.0-46.8-1.8","5bc0ac845a09ea00012e2d30","F1","batch6","tol_toboard","930","","","","","","","","","tol_peg_2","930","930","0","[[1,0,0],[2,3],[0]]","9","[[0,0,0],[2,3],[1]]","12","0","","","","","","4","","","","",""
"","","","","","single-stim-button","322","1639099","0.0-3.0-46.9-0.9","5bc0ac845a09ea00012e2d30","F1","batch6","tol_tohand","503","","","","","","","","","tol_peg_1","503","503","0","[[0,0,0],[2,3],[0]]","10","[[0,0,0],[2,3],[1]]","12","0","","","","","","4","","","","",""
"","","","","","single-stim-button","323","1639570","0.0-3.0-46.9-1.9","5bc0ac845a09ea00012e2d30","F1","batch6","tol_toboard","470","","","","","","","","","tol_peg_3","470","470","0","[[0,0,0],[2,3],[1]]","10","[[0,0,0],[2,3],[1]]","12","0","","","","","","4","","","","",""
"","","","","","poldrack-single-stim","324","1640572","0.0-3.0-47.0","5bc0ac845a09ea00012e2d30","F1","batch6","tol_feedback","-1","","","","","true","","","","","1000","1000","500","","","","","","-1","none","true","2362","13343","","","","","",""
"","","","","","html-button-response","325","1644336","0.0-3.0-48.0","5bc0ac845a09ea00012e2d30","F1","batch6","attention_check","3762","<p class = block-text>How many balls are in your board<br></p>","1","","","true","","","","","","","","","","","","","","","","","","","","","","",""
"","","","","","html-button-response","326","1645779","0.0-3.0-49.0","5bc0ac845a09ea00012e2d30","F1","batch6","tol_trial_num","1443","<div class = centerbox><p class = center-block-text>problem <strong>14</strong> out of 25 problems</p></div>","0","","","","","","","","","","","","","","","","","","","","","","","","","",""
"","","","","","single-stim-button","327","1651311","0.0-3.0-50.0-0.0","5bc0ac845a09ea00012e2d30","F1","batch6","tol_tohand","5531","","","","","","","","","tol_peg_1","5531","5531","0","[[2,0,0],[3,0],[0]]","1","[[1,2,0],[3,0],[0]]","13","0","","","","","","4","","","","",""
"","","","","","single-stim-button","328","1652058","0.0-3.0-50.0-1.0","5bc0ac845a09ea00012e2d30","F1","batch6","tol_toboard","746","","","","","","","","","tol_peg_3","746","746","0","[[2,0,0],[3,0],[1]]","1","[[1,2,0],[3,0],[0]]","13","0","","","","","","4","","","","",""
"","","","","","single-stim-button","329","1652644","0.0-3.0-50.1-0.1","5bc0ac845a09ea00012e2d30","F1","batch6","tol_tohand","585","","","","","","","","","tol_peg_1","585","585","0","[[0,0,0],[3,0],[1]]","2","[[1,2,0],[3,0],[0]]","13","0","","","","","","4","","","","",""
"","","","","","single-stim-button","330","1653577","0.0-3.0-50.1-1.1","5bc0ac845a09ea00012e2d30","F1","batch6","tol_toboard","933","","","","","","","","","tol_peg_2","933","933","0","[[0,0,0],[3,2],[1]]","2","[[1,2,0],[3,0],[0]]","13","0","","","","","","4","","","","",""
"","","","","","single-stim-button","331","1654242","0.0-3.0-50.2-0.2","5bc0ac845a09ea00012e2d30","F1","batch6","tol_tohand","665","","","","","","","","","tol_peg_3","665","665","0","[[0,0,0],[3,2],[0]]","3","[[1,2,0],[3,0],[0]]","13","0","","","","","","4","","","","",""
"","","","","","single-stim-button","332","1654874","0.0-3.0-50.2-1.2","5bc0ac845a09ea00012e2d30","F1","batch6","tol_toboard","632","","","","","","","","","tol_peg_1","632","632","0","[[1,0,0],[3,2],[0]]","3","[[1,2,0],[3,0],[0]]","13","0","","","","","","4","","","","",""
"","","","","","single-stim-button","333","1655318","0.0-3.0-50.3-0.3","5bc0ac845a09ea00012e2d30","F1","batch6","tol_tohand","444","","","","","","","","","tol_peg_2","444","444","0","[[1,0,0],[3,0],[0]]","4","[[1,2,0],[3,0],[0]]","13","0","","","","","","4","","","","",""
"","","","","","single-stim-button","334","1655683","0.0-3.0-50.3-1.3","5bc0ac845a09ea00012e2d30","F1","batch6","tol_toboard","365","","","","","","","","","tol_peg_1","365","365","0","[[1,2,0],[3,0],[0]]","4","[[1,2,0],[3,0],[0]]","13","0","","","","","","4","","","","",""
"","","","","","poldrack-single-stim","335","1656686","0.0-3.0-51.0","5bc0ac845a09ea00012e2d30","F1","batch6","tol_feedback","-1","","","","","true","","","","","1000","1000","500","","","","","","-1","none","true","5531","7225","","","","","",""
"","","","","","html-button-response","336","1657509","0.0-3.0-52.0","5bc0ac845a09ea00012e2d30","F1","batch6","tol_trial_num","823","<div class = centerbox><p class = center-block-text>problem <strong>15</strong> out of 25 problems</p></div>","0","","","","","","","","","","","","","","","","","","","","","","","","","",""
"","","","","","single-stim-button","337","1660105","0.0-3.0-53.0-0.0","5bc0ac845a09ea00012e2d30","F1","batch6","tol_tohand","2595","","","","","","","","","tol_peg_1","2595","2595","0","[[1,0,0],[3,0],[0]]","1","[[2,0,0],[3,0],[1]]","14","0","","","","","","3","","","","",""
"","","","","","single-stim-button","338","1660523","0.0-3.0-53.0-1.0","5bc0ac845a09ea00012e2d30","F1","batch6","tol_toboard","418","","","","","","","","","tol_peg_2","418","418","0","[[1,0,0],[3,2],[0]]","1","[[2,0,0],[3,0],[1]]","14","0","","","","","","3","","","","",""
"","","","","","single-stim-button","339","1660954","0.0-3.0-53.1-0.1","5bc0ac845a09ea00012e2d30","F1","batch6","tol_tohand","431","","","","","","","","","tol_peg_1","431","431","0","[[0,0,0],[3,2],[0]]","2","[[2,0,0],[3,0],[1]]","14","0","","","","","","3","","","","",""
"","","","","","single-stim-button","340","1661389","0.0-3.0-53.1-1.1","5bc0ac845a09ea00012e2d30","F1","batch6","tol_toboard","435","","","","","","","","","tol_peg_3","435","435","0","[[0,0,0],[3,2],[1]]","2","[[2,0,0],[3,0],[1]]","14","0","","","","","","3","","","","",""
"","","","","","single-stim-button","341","1661732","0.0-3.0-53.2-0.2","5bc0ac845a09ea00012e2d30","F1","batch6","tol_tohand","342","","","","","","","","","tol_peg_2","342","342","0","[[0,0,0],[3,0],[1]]","3","[[2,0,0],[3,0],[1]]","14","0","","","","","","3","","","","",""
"","","","","","single-stim-button","342","1662195","0.0-3.0-53.2-1.2","5bc0ac845a09ea00012e2d30","F1","batch6","tol_toboard","463","","","","","","","","","tol_peg_1","463","463","0","[[2,0,0],[3,0],[1]]","3","[[2,0,0],[3,0],[1]]","14","0","","","","","","3","","","","",""
"","","","","","poldrack-single-stim","343","1663196","0.0-3.0-54.0","5bc0ac845a09ea00012e2d30","F1","batch6","tol_feedback","-1","","","","","true","","","","","1000","1000","500","","","","","","-1","none","true","2595","3368","","","","","",""
"","","","","","html-button-response","344","1663965","0.0-3.0-55.0","5bc0ac845a09ea00012e2d30","F1","batch6","tol_trial_num","768","<div class = centerbox><p class = center-block-text>problem <strong>16</strong> out of 25 problems</p></div>","0","","","","","","","","","","","","","","","","","","","","","","","","","",""
"","","","","","single-stim-button","345","1691657","0.0-3.0-56.0-0.0","5bc0ac845a09ea00012e2d30","F1","batch6","tol_tohand","27692","","","","","","","","","tol_peg_2","27692","27692","0","[[0,0,0],[2,0],[1]]","1","[[2,3,0],[1,0],[0]]","15","0","","","","","","7","","","","",""
"","","","","","single-stim-button","346","1693902","0.0-3.0-56.0-1.0","5bc0ac845a09ea00012e2d30","F1","batch6","tol_toboard","2244","","","","","","","","","tol_peg_1","2244","2244","0","[[3,0,0],[2,0],[1]]","1","[[2,3,0],[1,0],[0]]","15","0","","","","","","7","","","","",""
"","","","","","single-stim-button","347","1702220","0.0-3.0-56.1-0.1","5bc0ac845a09ea00012e2d30","F1","batch6","tol_tohand","8317","","","","","","","","","tol_peg_2","8317","8317","0","[[3,0,0],[0,0],[1]]","2","[[2,3,0],[1,0],[0]]","15","0","","","","","","7","","","","",""
"","","","","","single-stim-button","348","1702957","0.0-3.0-56.1-1.1","5bc0ac845a09ea00012e2d30","F1","batch6","tol_toboard","736","","","","","","","","","tol_peg_1","736","736","0","[[3,2,0],[0,0],[1]]","2","[[2,3,0],[1,0],[0]]","15","0","","","","","","7","","","","",""
"","","","","","single-stim-button","349","1703370","0.0-3.0-56.2-0.2","5bc0ac845a09ea00012e2d30","F1","batch6","tol_tohand","413","","","","","","","","","tol_peg_3","413","413","0","[[3,2,0],[0,0],[0]]","3","[[2,3,0],[1,0],[0]]","15","0","","","","","","7","","","","",""
"","","","","","single-stim-button","350","1703865","0.0-3.0-56.2-1.2","5bc0ac845a09ea00012e2d30","F1","batch6","tol_toboard","495","","","","","","","","","tol_peg_2","495","495","0","[[3,2,0],[1,0],[0]]","3","[[2,3,0],[1,0],[0]]","15","0","","","","","","7","","","","",""
"","","","","","single-stim-button","351","1705630","0.0-3.0-56.3-0.3","5bc0ac845a09ea00012e2d30","F1","batch6","tol_tohand","1764","","","","","","","","","tol_peg_1","1764","1764","0","[[3,0,0],[1,0],[0]]","4","[[2,3,0],[1,0],[0]]","15","0","","","","","","7","","","","",""
"","","","","","single-stim-button","352","1706076","0.0-3.0-56.3-1.3","5bc0ac845a09ea00012e2d30","F1","batch6","tol_toboard","445","","","","","","","","","tol_peg_2","445","445","0","[[3,0,0],[1,2],[0]]","4","[[2,3,0],[1,0],[0]]","15","0","","","","","","7","","","","",""
"","","","","","single-stim-button","353","1707746","0.0-3.0-56.4-0.4","5bc0ac845a09ea00012e2d30","F1","batch6","tol_tohand","1669","","","","","","","","","tol_peg_1","1669","1669","0","[[0,0,0],[1,2],[0]]","5","[[2,3,0],[1,0],[0]]","15","0","","","","","","7","","","","",""
"","","","","","single-stim-button","354","1708715","0.0-3.0-56.4-1.4","5bc0ac845a09ea00012e2d30","F1","batch6","tol_toboard","969","","","","","","","","","tol_peg_3","969","969","0","[[0,0,0],[1,2],[3]]","5","[[2,3,0],[1,0],[0]]","15","0","","","","","","7","","","","",""
"","","","","","single-stim-button","355","1709238","0.0-3.0-56.5-0.5","5bc0ac845a09ea00012e2d30","F1","batch6","tol_tohand","522","","","","","","","","","tol_peg_2","522","522","0","[[0,0,0],[1,0],[3]]","6","[[2,3,0],[1,0],[0]]","15","0","","","","","","7","","","","",""
"","","","","","single-stim-button","356","1709715","0.0-3.0-56.5-1.5","5bc0ac845a09ea00012e2d30","F1","batch6","tol_toboard","476","","","","","","","","","tol_peg_1","476","476","0","[[2,0,0],[1,0],[3]]","6","[[2,3,0],[1,0],[0]]","15","0","","","","","","7","","","","",""
"","","","","","single-stim-button","357","1710389","0.0-3.0-56.6-0.6","5bc0ac845a09ea00012e2d30","F1","batch6","tol_tohand","674","","","","","","","","","tol_peg_3","674","674","0","[[2,0,0],[1,0],[0]]","7","[[2,3,0],[1,0],[0]]","15","0","","","","","","7","","","","",""
"","","","","","single-stim-button","358","1710884","0.0-3.0-56.6-1.6","5bc0ac845a09ea00012e2d30","F1","batch6","tol_toboard","494","","","","","","","","","tol_peg_1","494","494","0","[[2,3,0],[1,0],[0]]","7","[[2,3,0],[1,0],[0]]","15","0","","","","","","7","","","","",""
"","","","","","poldrack-single-stim","359","1711886","0.0-3.0-57.0","5bc0ac845a09ea00012e2d30","F1","batch6","tol_feedback","-1","","","","","true","","","","","1000","1000","500","","","","","","-1","none","true","27692","41051","","","","","",""
"","","","","","html-button-response","360","1712652","0.0-3.0-58.0","5bc0ac845a09ea00012e2d30","F1","batch6","tol_trial_num","766","<div class = centerbox><p class = center-block-text>problem <strong>17</strong> out of 25 problems</p></div>","0","","","","","","","","","","","","","","","","","","","","","","","","","",""
