"success","timeout","failed_images","failed_audio","failed_video","trial_type","trial_index","time_elapsed","internal_node_id","subject_id","study_id","session_id","view_history","rt","stimulus","response","task","correct","answer","item","fiar_detect_rt","fiar_detect_correct","total_correct_fiar_detect","post_trial_gap","choices","mouse_click","stim_duration","block_duration","timing_post_trial","current_position","tol_num_moves_made","tol_target","tol_problem_id","tol_rt","key_press","possible_responses","tol_correct","preplanning","tol_rt_per_trial","tol_min_moves","spm_correct","spm_rt"
"true","false","[]","[]","[]","preload","0","3735","0.0-0.0","5bc151ece6491a00013a21f3","E1","batch5","","","","","","","","","","","","","","","","","","","","","","","","","","","","","",""
"true","","","","","fullscreen","1","15096","0.0-1.0-0.0","5bc151ece6491a00013a21f3","E1","batch5","","","","","","","","","","","","","","","","","","","","","","","","","","","","","",""
"true","","","","","fullscreen","2","19499","0.0-2.0-0.0","5bc151ece6491a00013a21f3","E1","batch5","","","","","","","","","","","","","","","","","","","","","","","","","","","","","",""
"","","","","","instructions","3","49047","0.0-2.0-1.0-0.0","5bc151ece6491a00013a21f3","E1","batch5","[{""page_index"":0,""viewing_time"":20945.800000190735},{""page_index"":1,""viewing_time"":8601}]","29546.900000095367","","","","","","","","","","","","","","","","","","","","","","","","","","","",""
"","","","","","html-button-response","4","50748","0.0-2.0-1.0-1.0-0.0","5bc151ece6491a00013a21f3","E1","batch5","","1700.1000001430511","<p class=block-text> Let's answer a few questions <br>","0","pattern_enter_quiz","","","","","","","","","","","","","","","","","","","","","","","","",""
"","","","","","html-button-response","5","55624","0.0-2.0-1.0-1.0-1.0","5bc151ece6491a00013a21f3","E1","batch5","","4875.399999856949","<p class = block-text>True or False: You will have as much time as you want to make each choice. <br></p>","1","pattern_quiz","true","","","","","","","","","","","","","","","","","","","","","","","",""
"","","","","","html-button-response","6","57987","0.0-2.0-1.0-1.0-2.0","5bc151ece6491a00013a21f3","E1","batch5","","2361.9000000953674","<p class = block-text>Correct! You should make your choice <strong> as fast as you can</strong>.</p>","0","pattern_quiz_feedback","","","","","","","","","","","","","","","","","","","","","","","","",""
"","","","","","html-button-response","7","62985","0.0-2.0-1.0-1.0-3.0","5bc151ece6491a00013a21f3","E1","batch5","","4998","<p class = block-text>True or False: You will look for 4 pieces in black or white color connected in a row either horizontally, vertically or diagonally. <br></p>","0","pattern_quiz","true","","","","","","","","","","","","","","","","","","","","","","","",""
"","","","","","html-button-response","8","63815","0.0-2.0-1.0-1.0-4.0","5bc151ece6491a00013a21f3","E1","batch5","","829.5999999046326","<p class = block-text>Correct! </p>","0","pattern_quiz_feedback","","","","","","","","","","","","","","","","","","","","","","","","",""
"","","","","","html-button-response","9","65798","0.0-2.0-2.0","5bc151ece6491a00013a21f3","E1","batch5","","1981.3999998569489","<p class=block-text> Now that you've understood the game, let's do a few practice trials before we start!<br> <br>","0","pattern_enter_practice","","","","","","","","","","","","","","","","","","","","","","","","",""
"","","","","","image-keyboard-response","10","67825","0.0-2.0-3.0-0.0","5bc151ece6491a00013a21f3","E1","batch5","","2026.1000001430511","stim/prac_yes_20_dia_b1.png","f","pattern_practice","true","f","","","","","","","","","","","","","","","","","","","","","","",""
"","","","","","html-keyboard-response","11","68838","0.0-2.0-3.0-1.0","5bc151ece6491a00013a21f3","E1","batch5","","null","<p style=""font-size:30px;color:green;"">Correct!</p>","null","pattern_feedback","","","","","","","","","","","","","","","","","","","","","","","","",""
"","","","","","image-keyboard-response","12","69923","0.0-2.0-3.0-0.1","5bc151ece6491a00013a21f3","E1","batch5","","1084","stim/prac_yes_18_hor_w1.png","f","pattern_practice","true","f","","","","","","","","","","","","","","","","","","","","","","",""
"","","","","","html-keyboard-response","13","70934","0.0-2.0-3.0-1.1","5bc151ece6491a00013a21f3","E1","batch5","","null","<p style=""font-size:30px;color:green;"">Correct!</p>","null","pattern_feedback","","","","","","","","","","","","","","","","","","","","","","","","",""
"","","","","","image-keyboard-response","14","72404","0.0-2.0-3.0-0.2","5bc151ece6491a00013a21f3","E1","batch5","","1468.7999999523163","stim/prac_no_16_1.png","j","pattern_practice","true","j","","","","","","","","","","","","","","","","","","","","","","",""
"","","","","","html-keyboard-response","15","73419","0.0-2.0-3.0-1.2","5bc151ece6491a00013a21f3","E1","batch5","","null","<p style=""font-size:30px;color:green;"">Correct!</p>","null","pattern_feedback","","","","","","","","","","","","","","","","","","","","","","","","",""
"","","","","","image-keyboard-response","16","74660","0.0-2.0-3.0-0.3","5bc151ece6491a00013a21f3","E1","batch5","","1240.3999998569489","stim/prac_no_18_1.png","j","pattern_practice","true","j","","","","","","","","","","","","","","","","","","","","","","",""
"","","","","","html-keyboard-response","17","75681","0.0-2.0-3.0-1.3","5bc151ece6491a00013a21f3","E1","batch5","","null","<p style=""font-size:30px;color:green;"">Correct!</p>","null","pattern_feedback","","","","","","","","","","","","","","","","","","","","","","","","",""
"","","","","","image-keyboard-response","18","76484","0.0-2.0-3.0-0.4","5bc151ece6491a00013a21f3","E1","batch5","","802.6999998092651","stim/prac_yes_16_ver_w1.png","f","pattern_practice","true","f","","","","","","","","","","","","","","","","","","","","","","",""
"","","","","","html-keyboard-response","19","77501","0.0-2.0-3.0-1.4","5bc151ece6491a00013a21f3","E1","batch5","","null","<p style=""font-size:30px;color:green;"">Correct!</p>","null","pattern_feedback","","","","","","","","","","","","","","","","","","","","","","","","",""
"","","","","","html-button-response","20","85006","0.0-2.0-4.0","5bc151ece6491a00013a21f3","E1","batch5","","7504.299999952316","<p class=block-text> Good job! You are done with practice trials!<br>
        You responded correctly on 100% of the trials.<br>
        Press the button below to start official trials. Now you won't see any feedback about your response</p>","0","pattern_enter_official_trials","","","","","","","","","","","","","","","","","","","","","","","","",""
"","","","","","html-keyboard-response","21","85815","0.0-2.0-5.0-0.0","5bc151ece6491a00013a21f3","E1","batch5","","null","<p class=block-text>Trial 1 out of 78</p>","null","pattern_show_trial_num","","","","","","","","","","","","","","","","","","","","","","","","",""
"","","","","","image-keyboard-response","22","87918","0.0-2.0-5.0-1.0","5bc151ece6491a00013a21f3","E1","batch5","","2101.399999856949","stim/no_37_2_w.png","j","pattern_response","true","j","pattern_19","2101.399999856949","true","1","","","","","","","","","","","","","","","","","","",""
"","","","","","html-keyboard-response","23","89246","0.0-2.0-5.0-0.1","5bc151ece6491a00013a21f3","E1","batch5","","null","<p class=block-text>Trial 2 out of 78</p>","null","pattern_show_trial_num","","","","","","","","","","","","","","","","","","","","","","","","",""
"","","","","","image-keyboard-response","24","90670","0.0-2.0-5.0-1.1","5bc151ece6491a00013a21f3","E1","batch5","","1424.0999999046326","stim/no_30_1_b.png","j","pattern_response","true","j","pattern_13","1424.0999999046326","true","2","","","","","","","","","","","","","","","","","","",""
"","","","","","html-keyboard-response","25","91981","0.0-2.0-5.0-0.2","5bc151ece6491a00013a21f3","E1","batch5","","null","<p class=block-text>Trial 3 out of 78</p>","null","pattern_show_trial_num","","","","","","","","","","","","","","","","","","","","","","","","",""
"","","","","","image-keyboard-response","26","92855","0.0-2.0-5.0-1.2","5bc151ece6491a00013a21f3","E1","batch5","","872.6000001430511","stim/yes_36_ver_w1_w.png","f","pattern_response","true","f","pattern_58","872.6000001430511","true","3","","","","","","","","","","","","","","","","","","",""
"","","","","","html-keyboard-response","27","94180","0.0-2.0-5.0-0.3","5bc151ece6491a00013a21f3","E1","batch5","","null","<p class=block-text>Trial 4 out of 78</p>","null","pattern_show_trial_num","","","","","","","","","","","","","","","","","","","","","","","","",""
"","","","","","image-keyboard-response","28","95039","0.0-2.0-5.0-1.3","5bc151ece6491a00013a21f3","E1","batch5","","858.2999999523163","stim/yes_23_ver_b1.png","f","pattern_response","true","f","pattern_48","858.2999999523163","true","4","","","","","","","","","","","","","","","","","","",""
"","","","","","html-keyboard-response","29","96341","0.0-2.0-5.0-0.4","5bc151ece6491a00013a21f3","E1","batch5","","null","<p class=block-text>Trial 5 out of 78</p>","null","pattern_show_trial_num","","","","","","","","","","","","","","","","","","","","","","","","",""
"","","","","","image-keyboard-response","30","99175","0.0-2.0-5.0-1.4","5bc151ece6491a00013a21f3","E1","batch5","","2833.9000000953674","stim/no_51_1.png","j","pattern_response","true","j","pattern_31","2833.9000000953674","true","5","","","","","","","","","","","","","","","","","","",""
"","","","","","html-keyboard-response","31","100488","0.0-2.0-5.0-0.5","5bc151ece6491a00013a21f3","E1","batch5","","null","<p class=block-text>Trial 6 out of 78</p>","null","pattern_show_trial_num","","","","","","","","","","","","","","","","","","","","","","","","",""
"","","","","","image-keyboard-response","32","107449","0.0-2.0-5.0-1.5","5bc151ece6491a00013a21f3","E1","batch5","","6959.399999856949","stim/yes_51_dia_b1.png","j","pattern_response","false","f","pattern_72","6959.399999856949","false","5","","","","","","","","","","","","","","","","","","",""
"","","","","","html-keyboard-response","33","108768","0.0-2.0-5.0-0.6","5bc151ece6491a00013a21f3","E1","batch5","","null","<p class=block-text>Trial 7 out of 78</p>","null","pattern_show_trial_num","","","","","","","","","","","","","","","","","","","","","","","","",""
"","","","","","image-keyboard-response","34","110529","0.0-2.0-5.0-1.6","5bc151ece6491a00013a21f3","E1","batch5","","1759.7999999523163","stim/no_12_1.png","j","pattern_response","true","j","pattern_01","1759.7999999523163","true","6","","","","","","","","","","","","","","","","","","",""
"","","","","","html-keyboard-response","35","111835","0.0-2.0-5.0-0.7","5bc151ece6491a00013a21f3","E1","batch5","","null","<p class=block-text>Trial 8 out of 78</p>","null","pattern_show_trial_num","","","","","","","","","","","","","","","","","","","","","","","","",""
"","","","","","image-keyboard-response","36","112801","0.0-2.0-5.0-1.7","5bc151ece6491a00013a21f3","E1","batch5","","965.7000000476837","stim/yes_12_hor_w1_w.png","f","pattern_response","true","f","pattern_42","965.7000000476837","true","7","","","","","","","","","","","","","","","","","","",""
"","","","","","html-keyboard-response","37","114115","0.0-2.0-5.0-0.8","5bc151ece6491a00013a21f3","E1","batch5","","null","<p class=block-text>Trial 9 out of 78</p>","null","pattern_show_trial_num","","","","","","","","","","","","","","","","","","","","","","","","",""
"","","","","","image-keyboard-response","38","115914","0.0-2.0-5.0-1.8","5bc151ece6491a00013a21f3","E1","batch5","","1798.5999999046326","stim/no_18_1_b.png","j","pattern_response","true","j","pattern_05","1798.5999999046326","true","8","","","","","","","","","","","","","","","","","","",""
"","","","","","html-keyboard-response","39","117229","0.0-2.0-5.0-0.9","5bc151ece6491a00013a21f3","E1","batch5","","null","<p class=block-text>Trial 10 out of 78</p>","null","pattern_show_trial_num","","","","","","","","","","","","","","","","","","","","","","","","",""
"","","","","","image-keyboard-response","40","122091","0.0-2.0-5.0-1.9","5bc151ece6491a00013a21f3","E1","batch5","","4860.799999952316","stim/no_58_1_w.png","j","pattern_response","true","j","pattern_35","4860.799999952316","true","9","","","","","","","","","","","","","","","","","","",""
"","","","","","html-keyboard-response","41","123410","0.0-2.0-5.0-0.10","5bc151ece6491a00013a21f3","E1","batch5","","null","<p class=block-text>Trial 11 out of 78</p>","null","pattern_show_trial_num","","","","","","","","","","","","","","","","","","","","","","","","",""
"","","","","","image-keyboard-response","42","130924","0.0-2.0-5.0-1.10","5bc151ece6491a00013a21f3","E1","batch5","","7513.299999952316","stim/yes_58_dia_w1_w.png","j","pattern_response","false","f","pattern_76","7513.299999952316","false","9","","","","","","","","","","","","","","","","","","",""
"","","","","","html-keyboard-response","43","132231","0.0-2.0-5.0-0.11","5bc151ece6491a00013a21f3","E1","batch5","","null","<p class=block-text>Trial 12 out of 78</p>","null","pattern_show_trial_num","","","","","","","","","","","","","","","","","","","","","","","","",""
"","","","","","image-keyboard-response","44","133836","0.0-2.0-5.0-1.11","5bc151ece6491a00013a21f3","E1","batch5","","1604.3000001907349","stim/yes_46_ver_b1_b.png","f","pattern_response","true","f","pattern_68","1604.3000001907349","true","10","","","","","","","","","","","","","","","","","","",""
"","","","","","html-keyboard-response","45","135146","0.0-2.0-5.0-0.12","5bc151ece6491a00013a21f3","E1","batch5","","null","<p class=block-text>Trial 13 out of 78</p>","null","pattern_show_trial_num","","","","","","","","","","","","","","","","","","","","","","","","",""
"","","","","","image-keyboard-response","46","136061","0.0-2.0-5.0-1.12","5bc151ece6491a00013a21f3","E1","batch5","","913.3999998569489","stim/yes_29_hor_b1_b.png","f","pattern_response","true","f","pattern_52","913.3999998569489","true","11","","","","","","","","","","","","","","","","","","",""
"","","","","","html-keyboard-response","47","137365","0.0-2.0-5.0-0.13","5bc151ece6491a00013a21f3","E1","batch5","","null","<p class=block-text>Trial 14 out of 78</p>","null","pattern_show_trial_num","","","","","","","","","","","","","","","","","","","","","","","","",""
"","","","","","image-keyboard-response","48","145662","0.0-2.0-5.0-1.13","5bc151ece6491a00013a21f3","E1","batch5","","8296.399999856949","stim/no_67_1.png","j","pattern_response","true","j","pattern_39","8296.399999856949","true","12","","","","","","","","","","","","","","","","","","",""
"","","","","","html-keyboard-response","49","146979","0.0-2.0-5.0-0.14","5bc151ece6491a00013a21f3","E1","batch5","","null","<p class=block-text>Trial 15 out of 78</p>","null","pattern_show_trial_num","","","","","","","","","","","","","","","","","","","","","","","","",""
"","","","","","image-keyboard-response","50","148238","0.0-2.0-5.0-1.14","5bc151ece6491a00013a21f3","E1","batch5","","1258.8000001907349","stim/yes_70_ver_b1.png","f","pattern_response","true","f","pattern_80","1258.8000001907349","true","13","","","","","","","","","","","","","","","","","","",""
"","","","","","html-keyboard-response","51","149543","0.0-2.0-5.0-0.15","5bc151ece6491a00013a21f3","E1","batch5","","null","<p class=block-text>Trial 16 out of 78</p>","null","pattern_show_trial_num","","","","","","","","","","","","","","","","","","","","","","","","",""
"","","","","","image-keyboard-response","52","158440","0.0-2.0-5.0-1.15","5bc151ece6491a00013a21f3","E1","batch5","","8895.899999856949","stim/no_53_1_b.png","j","pattern_response","true","j","pattern_33","8895.899999856949","true","14","","","","","","","","","","","","","","","","","","",""
"","","","","","html-keyboard-response","53","159767","0.0-2.0-5.0-0.16","5bc151ece6491a00013a21f3","E1","batch5","","null","<p class=block-text>Trial 17 out of 78</p>","null","pattern_show_trial_num","","","","","","","","","","","","","","","","","","","","","","","","",""
"","","","","","image-keyboard-response","54","162440","0.0-2.0-5.0-1.16","5bc151ece6491a00013a21f3","E1","batch5","","2672.100000143051","stim/yes_53_ver_b1_b.png","f","pattern_response","true","f","pattern_74","2672.100000143051","true","15","","","","","","","","","","","","","","","","","","",""
"","","","","","html-keyboard-response","55","163755","0.0-2.0-5.0-0.17","5bc151ece6491a00013a21f3","E1","batch5","","null","<p class=block-text>Trial 18 out of 78</p>","null","pattern_show_trial_num","","","","","","","","","","","","","","","","","","","","","","","","",""
"","","","","","image-keyboard-response","56","165825","0.0-2.0-5.0-1.17","5bc151ece6491a00013a21f3","E1","batch5","","2069.100000143051","stim/yes_26_dia_w2_w.png","f","pattern_response","true","f","pattern_50","2069.100000143051","true","16","","","","","","","","","","","","","","","","","","",""
"","","","","","html-keyboard-response","57","167140","0.0-2.0-5.0-0.18","5bc151ece6491a00013a21f3","E1","batch5","","null","<p class=block-text>Trial 19 out of 78</p>","null","pattern_show_trial_num","","","","","","","","","","","","","","","","","","","","","","","","",""
"","","","","","image-keyboard-response","58","170705","0.0-2.0-5.0-1.18","5bc151ece6491a00013a21f3","E1","batch5","","3564.100000143051","stim/no_22_1_b.png","j","pattern_response","true","j","pattern_07","3564.100000143051","true","17","","","","","","","","","","","","","","","","","","",""
"","","","","","html-keyboard-response","59","172027","0.0-2.0-5.0-0.19","5bc151ece6491a00013a21f3","E1","batch5","","null","<p class=block-text>Trial 20 out of 78</p>","null","pattern_show_trial_num","","","","","","","","","","","","","","","","","","","","","","","","",""
"","","","","","image-keyboard-response","60","173210","0.0-2.0-5.0-1.19","5bc151ece6491a00013a21f3","E1","batch5","","1182.3000001907349","stim/yes_37_hor_w1_w.png","f","pattern_response","true","f","pattern_60","1182.3000001907349","true","18","","","","","","","","","","","","","","","","","","",""
"","","","","","html-keyboard-response","61","174516","0.0-2.0-5.0-0.20","5bc151ece6491a00013a21f3","E1","batch5","","null","<p class=block-text>Trial 21 out of 78</p>","null","pattern_show_trial_num","","","","","","","","","","","","","","","","","","","","","","","","",""
"","","","","","image-keyboard-response","62","175818","0.0-2.0-5.0-1.20","5bc151ece6491a00013a21f3","E1","batch5","","1301.7999999523163","stim/yes_49_hor_w1_b.png","f","pattern_response","true","f","pattern_70","1301.7999999523163","true","19","","","","","","","","","","","","","","","","","","",""
"","","","","","html-keyboard-response","63","177131","0.0-2.0-5.0-0.21","5bc151ece6491a00013a21f3","E1","batch5","","null","<p class=block-text>Trial 22 out of 78</p>","null","pattern_show_trial_num","","","","","","","","","","","","","","","","","","","","","","","","",""
"","","","","","image-keyboard-response","64","182043","0.0-2.0-5.0-1.21","5bc151ece6491a00013a21f3","E1","batch5","","4911.200000047684","stim/no_49_2_b.png","j","pattern_response","true","j","pattern_29","4911.200000047684","true","20","","","","","","","","","","","","","","","","","","",""
"","","","","","html-keyboard-response","65","183368","0.0-2.0-5.0-0.22","5bc151ece6491a00013a21f3","E1","batch5","","null","<p class=block-text>Trial 23 out of 78</p>","null","pattern_show_trial_num","","","","","","","","","","","","","","","","","","","","","","","","",""
"","","","","","image-keyboard-response","66","186675","0.0-2.0-5.0-1.22","5bc151ece6491a00013a21f3","E1","batch5","","3305.7999999523163","stim/no_36_1_b.png","j","pattern_response","true","j","pattern_17","3305.7999999523163","true","21","","","","","","","","","","","","","","","","","","",""
"","","","","","html-keyboard-response","67","187988","0.0-2.0-5.0-0.23","5bc151ece6491a00013a21f3","E1","batch5","","null","<p class=block-text>Trial 24 out of 78</p>","null","pattern_show_trial_num","","","","","","","","","","","","","","","","","","","","","","","","",""
"","","","","","image-keyboard-response","68","189420","0.0-2.0-5.0-1.23","5bc151ece6491a00013a21f3","E1","batch5","","1430.8000001907349","stim/yes_33_dia_w1_w.png","f","pattern_response","true","f","pattern_56","1430.8000001907349","true","22","","","","","","","","","","","","","","","","","","",""
"","","","","","html-keyboard-response","69","190748","0.0-2.0-5.0-0.24","5bc151ece6491a00013a21f3","E1","batch5","","null","<p class=block-text>Trial 25 out of 78</p>","null","pattern_show_trial_num","","","","","","","","","","","","","","","","","","","","","","","","",""
"","","","","","image-keyboard-response","70","196709","0.0-2.0-5.0-1.24","5bc151ece6491a00013a21f3","E1","batch5","","5960.299999952316","stim/no_39_1_w.png","j","pattern_response","true","j","pattern_21","5960.299999952316","true","23","","","","","","","","","","","","","","","","","","",""
"","","","","","html-keyboard-response","71","198012","0.0-2.0-5.0-0.25","5bc151ece6491a00013a21f3","E1","batch5","","null","<p class=block-text>Trial 26 out of 78</p>","null","pattern_show_trial_num","","","","","","","","","","","","","","","","","","","","","","","","",""
"","","","","","image-keyboard-response","72","201061","0.0-2.0-5.0-1.25","5bc151ece6491a00013a21f3","E1","batch5","","3048.2999999523163","stim/no_28_2.png","j","pattern_response","true","j","pattern_11","3048.2999999523163","true","24","","","","","","","","","","","","","","","","","","",""
"","","","","","html-keyboard-response","73","202385","0.0-2.0-5.0-0.26","5bc151ece6491a00013a21f3","E1","batch5","","null","<p class=block-text>Trial 27 out of 78</p>","null","pattern_show_trial_num","","","","","","","","","","","","","","","","","","","","","","","","",""
"","","","","","image-keyboard-response","74","203221","0.0-2.0-5.0-1.26","5bc151ece6491a00013a21f3","E1","batch5","","835.1999998092651","stim/yes_15_dia_b1u_b.png","f","pattern_response","true","f","pattern_44","835.1999998092651","true","25","","","","","","","","","","","","","","","","","","",""
"","","","","","html-keyboard-response","75","204526","0.0-2.0-5.0-0.27","5bc151ece6491a00013a21f3","E1","batch5","","null","<p class=block-text>Trial 28 out of 78</p>","null","pattern_show_trial_num","","","","","","","","","","","","","","","","","","","","","","","","",""
"","","","","","image-keyboard-response","76","207454","0.0-2.0-5.0-1.27","5bc151ece6491a00013a21f3","E1","batch5","","2928.0999999046326","stim/no_25_1_b.png","j","pattern_response","true","j","pattern_09","2928.0999999046326","true","26","","","","","","","","","","","","","","","","","","",""
"","","","","","html-keyboard-response","77","208769","0.0-2.0-5.0-0.28","5bc151ece6491a00013a21f3","E1","batch5","","null","<p class=block-text>Trial 29 out of 78</p>","null","pattern_show_trial_num","","","","","","","","","","","","","","","","","","","","","","","","",""
"","","","","","image-keyboard-response","78","212575","0.0-2.0-5.0-1.28","5bc151ece6491a00013a21f3","E1","batch5","","3805.399999856949","stim/no_47_1_b.png","j","pattern_response","true","j","pattern_27","3805.399999856949","true","27","","","","","","","","","","","","","","","","","","",""
"","","","","","html-keyboard-response","79","213897","0.0-2.0-5.0-0.29","5bc151ece6491a00013a21f3","E1","batch5","","null","<p class=block-text>Trial 30 out of 78</p>","null","pattern_show_trial_num","","","","","","","","","","","","","","","","","","","","","","","","",""
"","","","","","image-keyboard-response","80","216720","0.0-2.0-5.0-1.29","5bc151ece6491a00013a21f3","E1","batch5","","2821.399999856949","stim/no_33_1_b.png","j","pattern_response","true","j","pattern_15","2821.399999856949","true","28","","","","","","","","","","","","","","","","","","",""
"","","","","","html-keyboard-response","81","218022","0.0-2.0-5.0-0.30","5bc151ece6491a00013a21f3","E1","batch5","","null","<p class=block-text>Trial 31 out of 78</p>","null","pattern_show_trial_num","","","","","","","","","","","","","","","","","","","","","","","","",""
"","","","","","image-keyboard-response","82","219208","0.0-2.0-5.0-1.30","5bc151ece6491a00013a21f3","E1","batch5","","1185.6000001430511","stim/yes_30_ver_b1_b.png","f","pattern_response","true","f","pattern_54","1185.6000001430511","true","29","","","","","","","","","","","","","","","","","","",""
"","","","","","html-keyboard-response","83","220516","0.0-2.0-5.0-0.31","5bc151ece6491a00013a21f3","E1","batch5","","null","<p class=block-text>Trial 32 out of 78</p>","null","pattern_show_trial_num","","","","","","","","","","","","","","","","","","","","","","","","",""
"","","","","","image-keyboard-response","84","222112","0.0-2.0-5.0-1.31","5bc151ece6491a00013a21f3","E1","batch5","","1595.5","stim/no_15_1_w.png","j","pattern_response","true","j","pattern_03","1595.5","true","30","","","","","","","","","","","","","","","","","","",""
"","","","","","html-keyboard-response","85","223433","0.0-2.0-5.0-0.32","5bc151ece6491a00013a21f3","E1","batch5","","null","<p class=block-text>Trial 33 out of 78</p>","null","pattern_show_trial_num","","","","","","","","","","","","","","","","","","","","","","","","",""
"","","","","","image-keyboard-response","86","233370","0.0-2.0-5.0-1.32","5bc151ece6491a00013a21f3","E1","batch5","","9936.299999952316","stim/yes_63_dia_b1.png","j","pattern_response","false","f","pattern_78","9936.299999952316","false","30","","","","","","","","","","","","","","","","","","",""
"","","","","","html-keyboard-response","87","234686","0.0-2.0-5.0-0.33","5bc151ece6491a00013a21f3","E1","batch5","","null","<p class=block-text>Trial 34 out of 78</p>","null","pattern_show_trial_num","","","","","","","","","","","","","","","","","","","","","","","","",""
"","","","","","image-keyboard-response","88","239755","0.0-2.0-5.0-1.33","5bc151ece6491a00013a21f3","E1","batch5","","5068","stim/no_43_2_b.png","j","pattern_response","true","j","pattern_23","5068","true","31","","","","","","","","","","","","","","","","","","",""
"","","","","","html-keyboard-response","89","241076","0.0-2.0-5.0-0.34","5bc151ece6491a00013a21f3","E1","batch5","","null","<p class=block-text>Trial 35 out of 78</p>","null","pattern_show_trial_num","","","","","","","","","","","","","","","","","","","","","","","","",""
"","","","","","image-keyboard-response","90","242011","0.0-2.0-5.0-1.34","5bc151ece6491a00013a21f3","E1","batch5","","933.4000000953674","stim/yes_17_ver_b1_b.png","f","pattern_response","true","f","pattern_46","933.4000000953674","true","32","","","","","","","","","","","","","","","","","","",""
"","","","","","html-keyboard-response","91","243313","0.0-2.0-5.0-0.35","5bc151ece6491a00013a21f3","E1","batch5","","null","<p class=block-text>Trial 36 out of 78</p>","null","pattern_show_trial_num","","","","","","","","","","","","","","","","","","","","","","","","",""
"","","","","","image-keyboard-response","92","244308","0.0-2.0-5.0-1.35","5bc151ece6491a00013a21f3","E1","batch5","","994.7000000476837","stim/yes_39_hor_w1_w.png","f","pattern_response","true","f","pattern_62","994.7000000476837","true","33","","","","","","","","","","","","","","","","","","",""
"","","","","","html-keyboard-response","93","245621","0.0-2.0-5.0-0.36","5bc151ece6491a00013a21f3","E1","batch5","","null","<p class=block-text>Trial 37 out of 78</p>","null","pattern_show_trial_num","","","","","","","","","","","","","","","","","","","","","","","","",""
"","","","","","image-keyboard-response","94","248125","0.0-2.0-5.0-1.36","5bc151ece6491a00013a21f3","E1","batch5","","2502.9000000953674","stim/yes_44_ver_w1_w.png","f","pattern_response","true","f","pattern_66","2502.9000000953674","true","34","","","","","","","","","","","","","","","","","","",""
"","","","","","html-keyboard-response","95","249435","0.0-2.0-5.0-0.37","5bc151ece6491a00013a21f3","E1","batch5","","null","<p class=block-text>Trial 38 out of 78</p>","null","pattern_show_trial_num","","","","","","","","","","","","","","","","","","","","","","","","",""
"","","","","","image-keyboard-response","96","253950","0.0-2.0-5.0-1.37","5bc151ece6491a00013a21f3","E1","batch5","","4513.200000047684","stim/yes_42_dia_w1_w.png","j","pattern_response","false","f","pattern_64","4513.200000047684","false","34","","","","","","","","","","","","","","","","","","",""
"","","","","","html-keyboard-response","97","255263","0.0-2.0-5.0-0.38","5bc151ece6491a00013a21f3","E1","batch5","","null","<p class=block-text>Trial 39 out of 78</p>","null","pattern_show_trial_num","","","","","","","","","","","","","","","","","","","","","","","","",""
"","","","","","image-keyboard-response","98","260375","0.0-2.0-5.0-1.38","5bc151ece6491a00013a21f3","E1","batch5","","5110.599999904633","stim/no_45_1_w.png","f","pattern_response","false","j","pattern_25","5110.599999904633","false","34","","","","","","","","","","","","","","","","","","",""
"","","","","","image-keyboard-response","99","263655","0.0-2.0-6.0","5bc151ece6491a00013a21f3","E1","batch5","","2765.5","stim/empty_board.png","j","attention_check","true","j","","","","","500","[""f"",""j""]","","","","","","","","","","","","","","","","",""
"","","","","","html-keyboard-response","100","264468","0.0-2.0-7.0-0.0","5bc151ece6491a00013a21f3","E1","batch5","","null","<p class=block-text>Trial 40 out of 78</p>","null","pattern_show_trial_num","","","","","","","","","","","","","","","","","","","","","","","","",""
"","","","","","image-keyboard-response","101","270960","0.0-2.0-7.0-1.0","5bc151ece6491a00013a21f3","E1","batch5","","6491.200000047684","stim/yes_40_dia_b1_b.png","j","pattern_response","false","f","pattern_63","6491.200000047684","false","34","","","","","","","","","","","","","","","","","","",""
"","","","","","html-keyboard-response","102","272283","0.0-2.0-7.0-0.1","5bc151ece6491a00013a21f3","E1","batch5","","null","<p class=block-text>Trial 41 out of 78</p>","null","pattern_show_trial_num","","","","","","","","","","","","","","","","","","","","","","","","",""
"","","","","","image-keyboard-response","103","275801","0.0-2.0-7.0-1.1","5bc151ece6491a00013a21f3","E1","batch5","","3516.5","stim/yes_52_ver_w1.png","f","pattern_response","true","f","pattern_73","3516.5","true","35","","","","","","","","","","","","","","","","","","",""
"","","","","","html-keyboard-response","104","277128","0.0-2.0-7.0-0.2","5bc151ece6491a00013a21f3","E1","batch5","","null","<p class=block-text>Trial 42 out of 78</p>","null","pattern_show_trial_num","","","","","","","","","","","","","","","","","","","","","","","","",""
"","","","","","image-keyboard-response","105","280289","0.0-2.0-7.0-1.2","5bc151ece6491a00013a21f3","E1","batch5","","3159.899999856949","stim/no_34_1_b.png","j","pattern_response","true","j","pattern_16","3159.899999856949","true","36","","","","","","","","","","","","","","","","","","",""
"","","","","","html-keyboard-response","106","281609","0.0-2.0-7.0-0.3","5bc151ece6491a00013a21f3","E1","batch5","","null","<p class=block-text>Trial 43 out of 78</p>","null","pattern_show_trial_num","","","","","","","","","","","","","","","","","","","","","","","","",""
"","","","","","image-keyboard-response","107","284674","0.0-2.0-7.0-1.3","5bc151ece6491a00013a21f3","E1","batch5","","3064.4000000953674","stim/no_13_2_b.png","j","pattern_response","true","j","pattern_02","3064.4000000953674","true","37","","","","","","","","","","","","","","","","","","",""
"","","","","","html-keyboard-response","108","286000","0.0-2.0-7.0-0.4","5bc151ece6491a00013a21f3","E1","batch5","","null","<p class=block-text>Trial 44 out of 78</p>","null","pattern_show_trial_num","","","","","","","","","","","","","","","","","","","","","","","","",""
"","","","","","image-keyboard-response","109","290291","0.0-2.0-7.0-1.4","5bc151ece6491a00013a21f3","E1","batch5","","4290","stim/no_38_1_b.png","j","pattern_response","true","j","pattern_20","4290","true","38","","","","","","","","","","","","","","","","","","",""
"","","","","","html-keyboard-response","110","291592","0.0-2.0-7.0-0.5","5bc151ece6491a00013a21f3","E1","batch5","","null","<p class=block-text>Trial 45 out of 78</p>","null","pattern_show_trial_num","","","","","","","","","","","","","","","","","","","","","","","","",""
"","","","","","image-keyboard-response","111","300188","0.0-2.0-7.0-1.5","5bc151ece6491a00013a21f3","E1","batch5","","8595.099999904633","stim/no_65_1_b.png","j","pattern_response","true","j","pattern_38","8595.099999904633","true","39","","","","","","","","","","","","","","","","","","",""
"","","","","","html-keyboard-response","112","301491","0.0-2.0-7.0-0.6","5bc151ece6491a00013a21f3","E1","batch5","","null","<p class=block-text>Trial 46 out of 78</p>","null","pattern_show_trial_num","","","","","","","","","","","","","","","","","","","","","","","","",""
"","","","","","image-keyboard-response","113","303652","0.0-2.0-7.0-1.6","5bc151ece6491a00013a21f3","E1","batch5","","2160.5999999046326","stim/no_17_1_w.png","j","pattern_response","true","j","pattern_04","2160.5999999046326","true","40","","","","","","","","","","","","","","","","","","",""
"","","","","","html-keyboard-response","114","304972","0.0-2.0-7.0-0.7","5bc151ece6491a00013a21f3","E1","batch5","","null","<p class=block-text>Trial 47 out of 78</p>","null","pattern_show_trial_num","","","","","","","","","","","","","","","","","","","","","","","","",""
"","","","","","image-keyboard-response","115","306044","0.0-2.0-7.0-1.7","5bc151ece6491a00013a21f3","E1","batch5","","1071.2999999523163","stim/yes_67_hor_b1.png","f","pattern_response","true","f","pattern_79","1071.2999999523163","true","41","","","","","","","","","","","","","","","","","","",""
"","","","","","html-keyboard-response","116","307361","0.0-2.0-7.0-0.8","5bc151ece6491a00013a21f3","E1","batch5","","null","<p class=block-text>Trial 48 out of 78</p>","null","pattern_show_trial_num","","","","","","","","","","","","","","","","","","","","","","","","",""
"","","","","","image-keyboard-response","117","309133","0.0-2.0-7.0-1.8","5bc151ece6491a00013a21f3","E1","batch5","","1771.1999998092651","stim/yes_25_hor_b1_b.png","f","pattern_response","true","f","pattern_49","1771.1999998092651","true","42","","","","","","","","","","","","","","","","","","",""
"","","","","","html-keyboard-response","118","310441","0.0-2.0-7.0-0.9","5bc151ece6491a00013a21f3","E1","batch5","","null","<p class=block-text>Trial 49 out of 78</p>","null","pattern_show_trial_num","","","","","","","","","","","","","","","","","","","","","","","","",""
"","","","","","image-keyboard-response","119","316358","0.0-2.0-7.0-1.9","5bc151ece6491a00013a21f3","E1","batch5","","5916.200000047684","stim/no_48_1_w.png","j","pattern_response","true","j","pattern_28","5916.200000047684","true","43","","","","","","","","","","","","","","","","","","",""
"","","","","","html-keyboard-response","120","317671","0.0-2.0-7.0-0.10","5bc151ece6491a00013a21f3","E1","batch5","","null","<p class=block-text>Trial 50 out of 78</p>","null","pattern_show_trial_num","","","","","","","","","","","","","","","","","","","","","","","","",""
"","","","","","image-keyboard-response","121","320246","0.0-2.0-7.0-1.10","5bc151ece6491a00013a21f3","E1","batch5","","2574.0999999046326","stim/yes_38_hor_b1_b.png","f","pattern_response","true","f","pattern_61","2574.0999999046326","true","44","","","","","","","","","","","","","","","","","","",""
"","","","","","html-keyboard-response","122","321555","0.0-2.0-7.0-0.11","5bc151ece6491a00013a21f3","E1","batch5","","null","<p class=block-text>Trial 51 out of 78</p>","null","pattern_show_trial_num","","","","","","","","","","","","","","","","","","","","","","","","",""
"","","","","","image-keyboard-response","123","325999","0.0-2.0-7.0-1.11","5bc151ece6491a00013a21f3","E1","batch5","","4442.800000190735","stim/no_50_1.png","j","pattern_response","true","j","pattern_30","4442.800000190735","true","45","","","","","","","","","","","","","","","","","","",""
"","","","","","html-keyboard-response","124","327328","0.0-2.0-7.0-0.12","5bc151ece6491a00013a21f3","E1","batch5","","null","<p class=block-text>Trial 52 out of 78</p>","null","pattern_show_trial_num","","","","","","","","","","","","","","","","","","","","","","","","",""
"","","","","","image-keyboard-response","125","338777","0.0-2.0-7.0-1.12","5bc151ece6491a00013a21f3","E1","batch5","","11447.5","stim/no_55_1_w.png","j","pattern_response","true","j","pattern_34","11447.5","true","46","","","","","","","","","","","","","","","","","","",""
"","","","","","html-keyboard-response","126","340096","0.0-2.0-7.0-0.13","5bc151ece6491a00013a21f3","E1","batch5","","null","<p class=block-text>Trial 53 out of 78</p>","null","pattern_show_trial_num","","","","","","","","","","","","","","","","","","","","","","","","",""
"","","","","","image-keyboard-response","127","347425","0.0-2.0-7.0-1.13","5bc151ece6491a00013a21f3","E1","batch5","","7328.100000143051","stim/no_44_1.png","j","pattern_response","true","j","pattern_24","7328.100000143051","true","47","","","","","","","","","","","","","","","","","","",""
"","","","","","html-keyboard-response","128","348737","0.0-2.0-7.0-0.14","5bc151ece6491a00013a21f3","E1","batch5","","null","<p class=block-text>Trial 54 out of 78</p>","null","pattern_show_trial_num","","","","","","","","","","","","","","","","","","","","","","","","",""
"","","","","","image-keyboard-response","129","352715","0.0-2.0-7.0-1.14","5bc151ece6491a00013a21f3","E1","batch5","","3977.100000143051","stim/no_32_1_w.png","j","pattern_response","true","j","pattern_14","3977.100000143051","true","48","","","","","","","","","","","","","","","","","","",""
"","","","","","html-keyboard-response","130","354040","0.0-2.0-7.0-0.15","5bc151ece6491a00013a21f3","E1","batch5","","null","<p class=block-text>Trial 55 out of 78</p>","null","pattern_show_trial_num","","","","","","","","","","","","","","","","","","","","","","","","",""
"","","","","","image-keyboard-response","131","360588","0.0-2.0-7.0-1.15","5bc151ece6491a00013a21f3","E1","batch5","","6547.299999952316","stim/yes_48_dia_w1_w.png","j","pattern_response","false","f","pattern_69","6547.299999952316","false","48","","","","","","","","","","","","","","","","","","",""
"","","","","","html-keyboard-response","132","361913","0.0-2.0-7.0-0.16","5bc151ece6491a00013a21f3","E1","batch5","","null","<p class=block-text>Trial 56 out of 78</p>","null","pattern_show_trial_num","","","","","","","","","","","","","","","","","","","","","","","","",""
"","","","","","image-keyboard-response","133","363540","0.0-2.0-7.0-1.16","5bc151ece6491a00013a21f3","E1","batch5","","1626.2000000476837","stim/yes_17_dia_w1.png","f","pattern_response","true","f","pattern_45","1626.2000000476837","true","49","","","","","","","","","","","","","","","","","","",""
"","","","","","html-keyboard-response","134","364853","0.0-2.0-7.0-0.17","5bc151ece6491a00013a21f3","E1","batch5","","null","<p class=block-text>Trial 57 out of 78</p>","null","pattern_show_trial_num","","","","","","","","","","","","","","","","","","","","","","","","",""
"","","","","","image-keyboard-response","135","367476","0.0-2.0-7.0-1.17","5bc151ece6491a00013a21f3","E1","batch5","","2622.2000000476837","stim/yes_31_hor_b1.png","f","pattern_response","true","f","pattern_55","2622.2000000476837","true","50","","","","","","","","","","","","","","","","","","",""
"","","","","","html-keyboard-response","136","368789","0.0-2.0-7.0-0.18","5bc151ece6491a00013a21f3","E1","batch5","","null","<p class=block-text>Trial 58 out of 78</p>","null","pattern_show_trial_num","","","","","","","","","","","","","","","","","","","","","","","","",""
"","","","","","image-keyboard-response","137","373277","0.0-2.0-7.0-1.18","5bc151ece6491a00013a21f3","E1","batch5","","4487.099999904633","stim/yes_60_ver_b1_b.png","f","pattern_response","true","f","pattern_77","4487.099999904633","true","51","","","","","","","","","","","","","","","","","","",""
"","","","","","html-keyboard-response","138","374595","0.0-2.0-7.0-0.19","5bc151ece6491a00013a21f3","E1","batch5","","null","<p class=block-text>Trial 59 out of 78</p>","null","pattern_show_trial_num","","","","","","","","","","","","","","","","","","","","","","","","",""
"","","","","","image-keyboard-response","139","376886","0.0-2.0-7.0-1.19","5bc151ece6491a00013a21f3","E1","batch5","","2290.399999856949","stim/yes_29_ver_w1.png","f","pattern_response","true","f","pattern_53","2290.399999856949","true","52","","","","","","","","","","","","","","","","","","",""
"","","","","","html-keyboard-response","140","378212","0.0-2.0-7.0-0.20","5bc151ece6491a00013a21f3","E1","batch5","","null","<p class=block-text>Trial 60 out of 78</p>","null","pattern_show_trial_num","","","","","","","","","","","","","","","","","","","","","","","","",""
"","","","","","image-keyboard-response","141","384943","0.0-2.0-7.0-1.20","5bc151ece6491a00013a21f3","E1","batch5","","6730.199999809265","stim/no_46_1_b.png","j","pattern_response","true","j","pattern_26","6730.199999809265","true","53","","","","","","","","","","","","","","","","","","",""
"","","","","","html-keyboard-response","142","386264","0.0-2.0-7.0-0.21","5bc151ece6491a00013a21f3","E1","batch5","","null","<p class=block-text>Trial 61 out of 78</p>","null","pattern_show_trial_num","","","","","","","","","","","","","","","","","","","","","","","","",""
"","","","","","image-keyboard-response","143","388776","0.0-2.0-7.0-1.21","5bc151ece6491a00013a21f3","E1","batch5","","2510.399999856949","stim/yes_43_ver_w1_w.png","j","pattern_response","false","f","pattern_65","2510.399999856949","false","53","","","","","","","","","","","","","","","","","","",""
"","","","","","html-keyboard-response","144","390078","0.0-2.0-7.0-0.22","5bc151ece6491a00013a21f3","E1","batch5","","null","<p class=block-text>Trial 62 out of 78</p>","null","pattern_show_trial_num","","","","","","","","","","","","","","","","","","","","","","","","",""
"","","","","","image-keyboard-response","145","397913","0.0-2.0-7.0-1.22","5bc151ece6491a00013a21f3","E1","batch5","","7834.200000047684","stim/no_29_1_b.png","j","pattern_response","true","j","pattern_12","7834.200000047684","true","54","","","","","","","","","","","","","","","","","","",""
"","","","","","html-keyboard-response","146","399216","0.0-2.0-7.0-0.23","5bc151ece6491a00013a21f3","E1","batch5","","null","<p class=block-text>Trial 63 out of 78</p>","null","pattern_show_trial_num","","","","","","","","","","","","","","","","","","","","","","","","",""
"","","","","","image-keyboard-response","147","402226","0.0-2.0-7.0-1.23","5bc151ece6491a00013a21f3","E1","batch5","","3008.2999999523163","stim/yes_35_dia_b1.png","f","pattern_response","true","f","pattern_57","3008.2999999523163","true","55","","","","","","","","","","","","","","","","","","",""
"","","","","","html-keyboard-response","148","403540","0.0-2.0-7.0-0.24","5bc151ece6491a00013a21f3","E1","batch5","","null","<p class=block-text>Trial 64 out of 78</p>","null","pattern_show_trial_num","","","","","","","","","","","","","","","","","","","","","","","","",""
"","","","","","image-keyboard-response","149","410147","0.0-2.0-7.0-1.24","5bc151ece6491a00013a21f3","E1","batch5","","6605.299999952316","stim/no_52_1.png","j","pattern_response","true","j","pattern_32","6605.299999952316","true","56","","","","","","","","","","","","","","","","","","",""
"","","","","","html-keyboard-response","150","411464","0.0-2.0-7.0-0.25","5bc151ece6491a00013a21f3","E1","batch5","","null","<p class=block-text>Trial 65 out of 78</p>","null","pattern_show_trial_num","","","","","","","","","","","","","","","","","","","","","","","","",""
"","","","","","image-keyboard-response","151","416396","0.0-2.0-7.0-1.25","5bc151ece6491a00013a21f3","E1","batch5","","4930.399999856949","stim/yes_37_dia_w1.png","f","pattern_response","true","f","pattern_59","4930.399999856949","true","57","","","","","","","","","","","","","","","","","","",""
"","","","","","html-keyboard-response","152","417716","0.0-2.0-7.0-0.26","5bc151ece6491a00013a21f3","E1","batch5","","null","<p class=block-text>Trial 66 out of 78</p>","null","pattern_show_trial_num","","","","","","","","","","","","","","","","","","","","","","","","",""
"","","","","","image-keyboard-response","153","421140","0.0-2.0-7.0-1.26","5bc151ece6491a00013a21f3","E1","batch5","","3423.5","stim/no_26_1_w.png","j","pattern_response","true","j","pattern_10","3423.5","true","58","","","","","","","","","","","","","","","","","","",""
"","","","","","html-keyboard-response","154","422462","0.0-2.0-7.0-0.27","5bc151ece6491a00013a21f3","E1","batch5","","null","<p class=block-text>Trial 67 out of 78</p>","null","pattern_show_trial_num","","","","","","","","","","","","","","","","","","","","","","","","",""
"","","","","","image-keyboard-response","155","423916","0.0-2.0-7.0-1.27","5bc151ece6491a00013a21f3","E1","batch5","","1453.3000001907349","stim/yes_28_ver_b1.png","f","pattern_response","true","f","pattern_51","1453.3000001907349","true","59","","","","","","","","","","","","","","","","","","",""
"","","","","","html-keyboard-response","156","425231","0.0-2.0-7.0-0.28","5bc151ece6491a00013a21f3","E1","batch5","","null","<p class=block-text>Trial 68 out of 78</p>","null","pattern_show_trial_num","","","","","","","","","","","","","","","","","","","","","","","","",""
"","","","","","image-keyboard-response","157","426261","0.0-2.0-7.0-1.28","5bc151ece6491a00013a21f3","E1","batch5","","1028.4000000953674","stim/yes_14_hor_b1_w.png","f","pattern_response","true","f","pattern_43","1028.4000000953674","true","60","","","","","","","","","","","","","","","","","","",""
"","","","","","html-keyboard-response","158","427570","0.0-2.0-7.0-0.29","5bc151ece6491a00013a21f3","E1","batch5","","null","<p class=block-text>Trial 69 out of 78</p>","null","pattern_show_trial_num","","","","","","","","","","","","","","","","","","","","","","","","",""
"","","","","","image-keyboard-response","159","433462","0.0-2.0-7.0-1.29","5bc151ece6491a00013a21f3","E1","batch5","","5891","stim/no_42_1_w.png","j","pattern_response","true","j","pattern_22","5891","true","61","","","","","","","","","","","","","","","","","","",""
"","","","","","html-keyboard-response","160","434767","0.0-2.0-7.0-0.30","5bc151ece6491a00013a21f3","E1","batch5","","null","<p class=block-text>Trial 70 out of 78</p>","null","pattern_show_trial_num","","","","","","","","","","","","","","","","","","","","","","","","",""
"","","","","","image-keyboard-response","161","435886","0.0-2.0-7.0-1.30","5bc151ece6491a00013a21f3","E1","batch5","","1118.3999998569489","stim/yes_22_ver_w1.png","f","pattern_response","true","f","pattern_47","1118.3999998569489","true","62","","","","","","","","","","","","","","","","","","",""
"","","","","","html-keyboard-response","162","437199","0.0-2.0-7.0-0.31","5bc151ece6491a00013a21f3","E1","batch5","","null","<p class=block-text>Trial 71 out of 78</p>","null","pattern_show_trial_num","","","","","","","","","","","","","","","","","","","","","","","","",""
"","","","","","image-keyboard-response","163","442871","0.0-2.0-7.0-1.31","5bc151ece6491a00013a21f3","E1","batch5","","5671.699999809265","stim/no_36_2_w.png","j","pattern_response","true","j","pattern_18","5671.699999809265","true","63","","","","","","","","","","","","","","","","","","",""
"","","","","","html-keyboard-response","164","444190","0.0-2.0-7.0-0.32","5bc151ece6491a00013a21f3","E1","batch5","","null","<p class=block-text>Trial 72 out of 78</p>","null","pattern_show_trial_num","","","","","","","","","","","","","","","","","","","","","","","","",""
"","","","","","image-keyboard-response","165","447712","0.0-2.0-7.0-1.32","5bc151ece6491a00013a21f3","E1","batch5","","3520.9000000953674","stim/yes_50_dia_w1.png","f","pattern_response","true","f","pattern_71","3520.9000000953674","true","64","","","","","","","","","","","","","","","","","","",""
"","","","","","html-keyboard-response","166","449021","0.0-2.0-7.0-0.33","5bc151ece6491a00013a21f3","E1","batch5","","null","<p class=block-text>Trial 73 out of 78</p>","null","pattern_show_trial_num","","","","","","","","","","","","","","","","","","","","","","","","",""
"","","","","","image-keyboard-response","167","459521","0.0-2.0-7.0-1.33","5bc151ece6491a00013a21f3","E1","batch5","","10499.5","stim/no_70_2.png","j","pattern_response","true","j","pattern_40","10499.5","true","65","","","","","","","","","","","","","","","","","","",""
"","","","","","html-keyboard-response","168","460840","0.0-2.0-7.0-0.34","5bc151ece6491a00013a21f3","E1","batch5","","null","<p class=block-text>Trial 74 out of 78</p>","null","pattern_show_trial_num","","","","","","","","","","","","","","","","","","","","","","","","",""
"","","","","","image-keyboard-response","169","463082","0.0-2.0-7.0-1.34","5bc151ece6491a00013a21f3","E1","batch5","","2240.7999999523163","stim/yes_45_hor_b2_b.png","f","pattern_response","true","f","pattern_67","2240.7999999523163","true","66","","","","","","","","","","","","","","","","","","",""
"","","","","","html-keyboard-response","170","464402","0.0-2.0-7.0-0.35","5bc151ece6491a00013a21f3","E1","batch5","","null","<p class=block-text>Trial 75 out of 78</p>","null","pattern_show_trial_num","","","","","","","","","","","","","","","","","","","","","","","","",""
"","","","","","image-keyboard-response","171","465522","0.0-2.0-7.0-1.35","5bc151ece6491a00013a21f3","E1","batch5","","1118.7999999523163","stim/yes_55_hor_w1_w.png","f","pattern_response","true","f","pattern_75","1118.7999999523163","true","67","","","","","","","","","","","","","","","","","","",""
"","","","","","html-keyboard-response","172","466828","0.0-2.0-7.0-0.36","5bc151ece6491a00013a21f3","E1","batch5","","null","<p class=block-text>Trial 76 out of 78</p>","null","pattern_show_trial_num","","","","","","","","","","","","","","","","","","","","","","","","",""
"","","","","","image-keyboard-response","173","476780","0.0-2.0-7.0-1.36","5bc151ece6491a00013a21f3","E1","batch5","","9951.100000143051","stim/no_62_1_w.png","j","pattern_response","true","j","pattern_36","9951.100000143051","true","68","","","","","","","","","","","","","","","","","","",""
"","","","","","html-keyboard-response","174","478084","0.0-2.0-7.0-0.37","5bc151ece6491a00013a21f3","E1","batch5","","null","<p class=block-text>Trial 77 out of 78</p>","null","pattern_show_trial_num","","","","","","","","","","","","","","","","","","","","","","","","",""
"","","","","","image-keyboard-response","175","481652","0.0-2.0-7.0-1.37","5bc151ece6491a00013a21f3","E1","batch5","","3567.100000143051","stim/no_23_1.png","j","pattern_response","true","j","pattern_08","3567.100000143051","true","69","","","","","","","","","","","","","","","","","","",""
"","","","","","html-keyboard-response","176","482973","0.0-2.0-7.0-0.38","5bc151ece6491a00013a21f3","E1","batch5","","null","<p class=block-text>Trial 78 out of 78</p>","null","pattern_show_trial_num","","","","","","","","","","","","","","","","","","","","","","","","",""
"","","","","","image-keyboard-response","177","487093","0.0-2.0-7.0-1.38","5bc151ece6491a00013a21f3","E1","batch5","","4118.799999952316","stim/no_20_1_w.png","j","pattern_response","true","j","pattern_06","4118.799999952316","true","70","","","","","","","","","","","","","","","","","","",""
"","","","","","html-button-response","178","496581","0.0-2.0-8.0","5bc151ece6491a00013a21f3","E1","batch5","","8978.700000047684","<p class = block-text>This concludes the 4-in-a-row detection game.Thank you for your responses!<br>
            You responded correctly on 90% of the trials.<br>
            When you are ready, press ""Continue"" button to continue </p>","0","","","","","","","","","","","","","","","","","","","","","","","","","",""
"true","","","","","fullscreen","179","501377","0.0-3.0-0.0","5bc151ece6491a00013a21f3","E1","batch5","","","","","","","","","","","","","","","","","","","","","","","","","","","","","",""
"","","","","","instructions","180","567197","0.0-3.0-1.0-0.0-0.0","5bc151ece6491a00013a21f3","E1","batch5","[{""page_index"":0,""viewing_time"":11921.5},{""page_index"":1,""viewing_time"":8231.099999904633},{""page_index"":2,""viewing_time"":5732.799999952316},{""page_index"":3,""viewing_time"":10801.5},{""page_index"":4,""viewing_time"":11745.700000047684},{""page_index"":5,""viewing_time"":12253.600000143051},{""page_index"":6,""viewing_time"":5132.699999809265}]","65819.09999990463","","","tol-instructions","","","","","","","","","","","","","","","","","","","","","","","","",""
"","","","","","html-button-response","181","568283","0.0-3.0-1.0-1.0-0.0","5bc151ece6491a00013a21f3","E1","batch5","","1085.6000001430511","<p class=block-text> Let's answer a few questions <br>","0","tol_enter_quiz","","","","","","","","","","","","","","","","","","","","","","","","",""
"","","","","","html-button-response","182","574142","0.0-3.0-1.0-1.0-1.0","5bc151ece6491a00013a21f3","E1","batch5","","5858.5","<p class = block-text>True or False: You can only move the ball on top of a peg. <br></p>","0","tol_quiz","true","","","","","","","","","","","","","","","","","","","","","","","",""
"","","","","","html-button-response","183","575718","0.0-3.0-1.0-1.0-2.0","5bc151ece6491a00013a21f3","E1","batch5","","1575.2999999523163","<p class = block-text>Correct! You can only move the ball on top of a peg.</p>","0","tol_quiz_feedback","","","","","","","","","","","","","","","","","","","","","","","","",""
"","","","","","html-button-response","184","579456","0.0-3.0-1.0-1.0-3.0","5bc151ece6491a00013a21f3","E1","batch5","","3738.0999999046326","<p class = block-text>True or False: You should try to match your board with the target board with fewest moves possible. <br></p>","0","tol_quiz","true","","","","","","","","","","","","","","","","","","","","","","","",""
"","","","","","html-button-response","185","580345","0.0-3.0-1.0-1.0-4.0","5bc151ece6491a00013a21f3","E1","batch5","","887.7999999523163","<p class = block-text>Correct! </p>","0","tol_quiz_feedback","","","","","","","","","","","","","","","","","","","","","","","","",""
"","","","","","html-button-response","186","584801","0.0-3.0-2.0","5bc151ece6491a00013a21f3","E1","batch5","","4455.899999856949","<p class=block-text> Now that you've understood the game, let's practice a few easier examples before we start!<br> <br>","0","","","","","","","","","","","","","","","","","","","","","","","","","",""
"","","","","","single-stim-button","187","589595","0.0-3.0-3.0-0.0","5bc151ece6491a00013a21f3","E1","batch5","","4792","","","tol_practice","","","","","","","","","tol_peg_2","4792","4792","0","[[1,2,0],[0,0],[0]]","1","[[1,2,0],[0,0],[3]]","practice","4792","","","","","","","",""
"","","","","","single-stim-button","188","590938","0.0-3.0-3.0-1.0","5bc151ece6491a00013a21f3","E1","batch5","","1343","","","tol_practice","","","","","","","","","tol_peg_3","1343","1343","0","[[1,2,0],[0,0],[3]]","1","[[1,2,0],[0,0],[3]]","practice","1343","","","","","","","",""
"","","","","","poldrack-single-stim","189","591941","0.0-3.0-4.0","5bc151ece6491a00013a21f3","E1","batch5","","-1","","","tol_feedback","true","","","","","","","","","1000","1000","500","","","","","","-1","none","true","","0","","",""
"","","","","","single-stim-button","190","598856","0.0-3.0-5.0-0.0","5bc151ece6491a00013a21f3","E1","batch5","","6914","","","tol_practice","","","","","","","","","tol_peg_2","6914","6914","0","[[1,2,0],[0,0],[0]]","2","[[0,0,0],[3,1],[2]]","practice","6914","","","","","","","",""
"","","","","","single-stim-button","191","601358","0.0-3.0-5.0-1.0","5bc151ece6491a00013a21f3","E1","batch5","","2502","","","tol_practice","","","","","","","","","tol_peg_2","2502","2502","0","[[1,2,0],[3,0],[0]]","2","[[0,0,0],[3,1],[2]]","practice","2502","","","","","","","",""
"","","","","","single-stim-button","192","603960","0.0-3.0-5.1-0.1","5bc151ece6491a00013a21f3","E1","batch5","","2602","","","tol_practice","","","","","","","","","tol_peg_1","2602","2602","0","[[1,0,0],[3,0],[0]]","3","[[0,0,0],[3,1],[2]]","practice","2602","","","","","","","",""
"","","","","","single-stim-button","193","606152","0.0-3.0-5.1-1.1","5bc151ece6491a00013a21f3","E1","batch5","","2191","","","tol_practice","","","","","","","","","tol_peg_3","2191","2191","0","[[1,0,0],[3,0],[2]]","3","[[0,0,0],[3,1],[2]]","practice","2191","","","","","","","",""
"","","","","","single-stim-button","194","607414","0.0-3.0-5.2-0.2","5bc151ece6491a00013a21f3","E1","batch5","","1261","","","tol_practice","","","","","","","","","tol_peg_1","1261","1261","0","[[0,0,0],[3,0],[2]]","4","[[0,0,0],[3,1],[2]]","practice","1261","","","","","","","",""
"","","","","","single-stim-button","195","608385","0.0-3.0-5.2-1.2","5bc151ece6491a00013a21f3","E1","batch5","","971","","","tol_practice","","","","","","","","","tol_peg_2","971","971","0","[[0,0,0],[3,1],[2]]","4","[[0,0,0],[3,1],[2]]","practice","971","","","","","","","",""
"","","","","","poldrack-single-stim","196","609386","0.0-3.0-6.0","5bc151ece6491a00013a21f3","E1","batch5","","-1","","","tol_feedback","true","","","","","","","","","1000","1000","500","","","","","","-1","none","true","","0","","",""
"","","","","","single-stim-button","197","614690","0.0-3.0-7.0-0.0","5bc151ece6491a00013a21f3","E1","batch5","","5304","","","tol_practice","","","","","","","","","tol_peg_2","5304","5304","0","[[1,2,0],[0,0],[0]]","5","[[1,0,0],[2,0],[3]]","practice","5304","","","","","","","",""
"","","","","","single-stim-button","198","615770","0.0-3.0-7.0-1.0","5bc151ece6491a00013a21f3","E1","batch5","","1080","","","tol_practice","","","","","","","","","tol_peg_3","1080","1080","0","[[1,2,0],[0,0],[3]]","5","[[1,0,0],[2,0],[3]]","practice","1080","","","","","","","",""
"","","","","","single-stim-button","199","616958","0.0-3.0-7.1-0.1","5bc151ece6491a00013a21f3","E1","batch5","","1187","","","tol_practice","","","","","","","","","tol_peg_1","1187","1187","0","[[1,0,0],[0,0],[3]]","6","[[1,0,0],[2,0],[3]]","practice","1187","","","","","","","",""
"","","","","","single-stim-button","200","618153","0.0-3.0-7.1-1.1","5bc151ece6491a00013a21f3","E1","batch5","","1193","","","tol_practice","","","","","","","","","tol_peg_2","1193","1193","0","[[1,0,0],[2,0],[3]]","6","[[1,0,0],[2,0],[3]]","practice","1193","","","","","","","",""
"","","","","","poldrack-single-stim","201","619160","0.0-3.0-8.0","5bc151ece6491a00013a21f3","E1","batch5","","-1","","","tol_feedback","true","","","","","","","","","1000","1000","500","","","","","","-1","none","true","","0","","",""
"","","","","","html-button-response","202","624439","0.0-3.0-9.0","5bc151ece6491a00013a21f3","E1","batch5","","5279.299999952316","<div class = centerbox><p class = center-block-text>Great job! You are done with practice trials<br>You are about to start official trials.<br> <br> Problem <strong>1</strong> out of 25 problems</p></div>","0","tol_instruction","","","","","","","","","","","","","","","","","","","","","","","","",""
"","","","","","single-stim-button","203","629974","0.0-3.0-10.0-0.0","5bc151ece6491a00013a21f3","E1","batch5","","4534","","","tol_tohand","","","","","","","","","tol_peg_1","4534","4534","0","[[1,0,0],[3,0],[0]]","1","[[1,3,0],[2,0],[0]]","0","0","","","","","","3","",""
"","","","","","single-stim-button","204","633313","0.0-3.0-10.0-1.0","5bc151ece6491a00013a21f3","E1","batch5","","3337","","","tol_toboard","","","","","","","","","tol_peg_3","3337","3337","0","[[1,0,0],[3,0],[2]]","1","[[1,3,0],[2,0],[0]]","0","0","","","","","","3","",""
"","","","","","single-stim-button","205","634126","0.0-3.0-10.1-0.1","5bc151ece6491a00013a21f3","E1","batch5","","813","","","tol_tohand","","","","","","","","","tol_peg_2","813","813","0","[[1,0,0],[0,0],[2]]","2","[[1,3,0],[2,0],[0]]","0","0","","","","","","3","",""
"","","","","","single-stim-button","206","635353","0.0-3.0-10.1-1.1","5bc151ece6491a00013a21f3","E1","batch5","","1225","","","tol_toboard","","","","","","","","","tol_peg_1","1225","1225","0","[[1,3,0],[0,0],[2]]","2","[[1,3,0],[2,0],[0]]","0","0","","","","","","3","",""
"","","","","","single-stim-button","207","638051","0.0-3.0-10.2-0.2","5bc151ece6491a00013a21f3","E1","batch5","","2698","","","tol_tohand","","","","","","","","","tol_peg_3","2698","2698","0","[[1,3,0],[0,0],[0]]","3","[[1,3,0],[2,0],[0]]","0","0","","","","","","3","",""
"","","","","","single-stim-button","208","639167","0.0-3.0-10.2-1.2","5bc151ece6491a00013a21f3","E1","batch5","","1116","","","tol_toboard","","","","","","","","","tol_peg_2","1116","1116","0","[[1,3,0],[2,0],[0]]","3","[[1,3,0],[2,0],[0]]","0","0","","","","","","3","",""
"","","","","","poldrack-single-stim","209","640169","0.0-3.0-11.0","5bc151ece6491a00013a21f3","E1","batch5","","-1","","","tol_feedback","true","","","","","","","","","1000","1000","500","","","","","","-1","none","true","4534","8045","","",""
"","","","","","html-button-response","210","641504","0.0-3.0-12.0","5bc151ece6491a00013a21f3","E1","batch5","","1333.8000001907349","<div class = centerbox><p class = center-block-text>problem <strong>2</strong> out of 25 problems</p></div>","0","tol_trial_num","","","","","","","","","","","","","","","","","","","","","","","","",""
"","","","","","single-stim-button","211","650341","0.0-3.0-13.0-0.0","5bc151ece6491a00013a21f3","E1","batch5","","8837","","","tol_tohand","","","","","","","","","tol_peg_1","8837","8837","0","[[1,0,0],[3,0],[0]]","1","[[2,1,3],[0,0],[0]]","1","0","","","","","","5","",""
"","","","","","single-stim-button","212","651995","0.0-3.0-13.0-1.0","5bc151ece6491a00013a21f3","E1","batch5","","1654","","","tol_toboard","","","","","","","","","tol_peg_3","1654","1654","0","[[1,0,0],[3,0],[2]]","1","[[2,1,3],[0,0],[0]]","1","0","","","","","","5","",""
"","","","","","single-stim-button","213","653201","0.0-3.0-13.1-0.1","5bc151ece6491a00013a21f3","E1","batch5","","1205","","","tol_tohand","","","","","","","","","tol_peg_1","1205","1205","0","[[0,0,0],[3,0],[2]]","2","[[2,1,3],[0,0],[0]]","1","0","","","","","","5","",""
"","","","","","single-stim-button","214","654717","0.0-3.0-13.1-1.1","5bc151ece6491a00013a21f3","E1","batch5","","1515","","","tol_toboard","","","","","","","","","tol_peg_2","1515","1515","0","[[0,0,0],[3,1],[2]]","2","[[2,1,3],[0,0],[0]]","1","0","","","","","","5","",""
"","","","","","single-stim-button","215","655665","0.0-3.0-13.2-0.2","5bc151ece6491a00013a21f3","E1","batch5","","948","","","tol_tohand","","","","","","","","","tol_peg_3","948","948","0","[[0,0,0],[3,1],[0]]","3","[[2,1,3],[0,0],[0]]","1","0","","","","","","5","",""
"","","","","","single-stim-button","216","656570","0.0-3.0-13.2-1.2","5bc151ece6491a00013a21f3","E1","batch5","","904","","","tol_toboard","","","","","","","","","tol_peg_1","904","904","0","[[2,0,0],[3,1],[0]]","3","[[2,1,3],[0,0],[0]]","1","0","","","","","","5","",""
"","","","","","single-stim-button","217","657648","0.0-3.0-13.3-0.3","5bc151ece6491a00013a21f3","E1","batch5","","1078","","","tol_tohand","","","","","","","","","tol_peg_2","1078","1078","0","[[2,0,0],[3,0],[0]]","4","[[2,1,3],[0,0],[0]]","1","0","","","","","","5","",""
"","","","","","single-stim-button","218","658594","0.0-3.0-13.3-1.3","5bc151ece6491a00013a21f3","E1","batch5","","946","","","tol_toboard","","","","","","","","","tol_peg_1","946","946","0","[[2,1,0],[3,0],[0]]","4","[[2,1,3],[0,0],[0]]","1","0","","","","","","5","",""
"","","","","","single-stim-button","219","660386","0.0-3.0-13.4-0.4","5bc151ece6491a00013a21f3","E1","batch5","","1792","","","tol_tohand","","","","","","","","","tol_peg_1","1792","1792","0","[[2,0,0],[3,0],[0]]","5","[[2,1,3],[0,0],[0]]","1","0","","","","","","5","",""
"","","","","","single-stim-button","220","661508","0.0-3.0-13.4-1.4","5bc151ece6491a00013a21f3","E1","batch5","","1121","","","tol_toboard","","","","","","","","","tol_peg_1","1121","1121","0","[[2,1,0],[3,0],[0]]","5","[[2,1,3],[0,0],[0]]","1","0","","","","","","5","",""
"","","","","","single-stim-button","221","662959","0.0-3.0-13.5-0.5","5bc151ece6491a00013a21f3","E1","batch5","","1451","","","tol_tohand","","","","","","","","","tol_peg_2","1451","1451","0","[[2,1,0],[0,0],[0]]","6","[[2,1,3],[0,0],[0]]","1","0","","","","","","5","",""
"","","","","","single-stim-button","222","663891","0.0-3.0-13.5-1.5","5bc151ece6491a00013a21f3","E1","batch5","","932","","","tol_toboard","","","","","","","","","tol_peg_1","932","932","0","[[2,1,3],[0,0],[0]]","6","[[2,1,3],[0,0],[0]]","1","0","","","","","","5","",""
"","","","","","poldrack-single-stim","223","664894","0.0-3.0-14.0","5bc151ece6491a00013a21f3","E1","batch5","","-1","","","tol_feedback","true","","","","","","","","","1000","1000","500","","","","","","-1","none","true","8837","15311","","",""
"","","","","","html-button-response","224","665873","0.0-3.0-15.0","5bc151ece6491a00013a21f3","E1","batch5","","978.5","<div class = centerbox><p class = center-block-text>problem <strong>3</strong> out of 25 problems</p></div>","0","tol_trial_num","","","","","","","","","","","","","","","","","","","","","","","","",""
"","","","","","single-stim-button","225","675017","0.0-3.0-16.0-0.0","5bc151ece6491a00013a21f3","E1","batch5","","9143","","","tol_tohand","","","","","","","","","tol_peg_1","9143","9143","0","[[2,0,0],[0,0],[1]]","1","[[1,2,0],[3,0],[0]]","2","0","","","","","","4","",""
"","","","","","single-stim-button","226","677331","0.0-3.0-16.0-1.0","5bc151ece6491a00013a21f3","E1","batch5","","2314","","","tol_toboard","","","","","","","","","tol_peg_2","2314","2314","0","[[2,0,0],[3,0],[1]]","1","[[1,2,0],[3,0],[0]]","2","0","","","","","","4","",""
"","","","","","single-stim-button","227","679077","0.0-3.0-16.1-0.1","5bc151ece6491a00013a21f3","E1","batch5","","1746","","","tol_tohand","","","","","","","","","tol_peg_1","1746","1746","0","[[0,0,0],[3,0],[1]]","2","[[1,2,0],[3,0],[0]]","2","0","","","","","","4","",""
"","","","","","single-stim-button","228","680185","0.0-3.0-16.1-1.1","5bc151ece6491a00013a21f3","E1","batch5","","1108","","","tol_toboard","","","","","","","","","tol_peg_2","1108","1108","0","[[0,0,0],[3,2],[1]]","2","[[1,2,0],[3,0],[0]]","2","0","","","","","","4","",""
"","","","","","single-stim-button","229","681107","0.0-3.0-16.2-0.2","5bc151ece6491a00013a21f3","E1","batch5","","922","","","tol_tohand","","","","","","","","","tol_peg_3","922","922","0","[[0,0,0],[3,2],[0]]","3","[[1,2,0],[3,0],[0]]","2","0","","","","","","4","",""
"","","","","","single-stim-button","230","682077","0.0-3.0-16.2-1.2","5bc151ece6491a00013a21f3","E1","batch5","","970","","","tol_toboard","","","","","","","","","tol_peg_1","970","970","0","[[1,0,0],[3,2],[0]]","3","[[1,2,0],[3,0],[0]]","2","0","","","","","","4","",""
"","","","","","single-stim-button","231","682975","0.0-3.0-16.3-0.3","5bc151ece6491a00013a21f3","E1","batch5","","897","","","tol_tohand","","","","","","","","","tol_peg_2","897","897","0","[[1,0,0],[3,0],[0]]","4","[[1,2,0],[3,0],[0]]","2","0","","","","","","4","",""
"","","","","","single-stim-button","232","683845","0.0-3.0-16.3-1.3","5bc151ece6491a00013a21f3","E1","batch5","","869","","","tol_toboard","","","","","","","","","tol_peg_1","869","869","0","[[1,2,0],[3,0],[0]]","4","[[1,2,0],[3,0],[0]]","2","0","","","","","","4","",""
"","","","","","poldrack-single-stim","233","684847","0.0-3.0-17.0","5bc151ece6491a00013a21f3","E1","batch5","","-1","","","tol_feedback","true","","","","","","","","","1000","1000","500","","","","","","-1","none","true","9143","12708","","",""
"","","","","","html-button-response","234","685888","0.0-3.0-18.0","5bc151ece6491a00013a21f3","E1","batch5","","1039.7000000476837","<div class = centerbox><p class = center-block-text>problem <strong>4</strong> out of 25 problems</p></div>","0","tol_trial_num","","","","","","","","","","","","","","","","","","","","","","","","",""
"","","","","","single-stim-button","235","690248","0.0-3.0-19.0-0.0","5bc151ece6491a00013a21f3","E1","batch5","","4360","","","tol_tohand","","","","","","","","","tol_peg_2","4360","4360","0","[[3,0,0],[2,0],[0]]","1","[[3,0,0],[1,0],[2]]","3","0","","","","","","3","",""
"","","","","","single-stim-button","236","691263","0.0-3.0-19.0-1.0","5bc151ece6491a00013a21f3","E1","batch5","","1013","","","tol_toboard","","","","","","","","","tol_peg_1","1013","1013","0","[[3,1,0],[2,0],[0]]","1","[[3,0,0],[1,0],[2]]","3","0","","","","","","3","",""
"","","","","","single-stim-button","237","692294","0.0-3.0-19.1-0.1","5bc151ece6491a00013a21f3","E1","batch5","","1031","","","tol_tohand","","","","","","","","","tol_peg_2","1031","1031","0","[[3,1,0],[0,0],[0]]","2","[[3,0,0],[1,0],[2]]","3","0","","","","","","3","",""
"","","","","","single-stim-button","238","693176","0.0-3.0-19.1-1.1","5bc151ece6491a00013a21f3","E1","batch5","","881","","","tol_toboard","","","","","","","","","tol_peg_3","881","881","0","[[3,1,0],[0,0],[2]]","2","[[3,0,0],[1,0],[2]]","3","0","","","","","","3","",""
"","","","","","single-stim-button","239","694091","0.0-3.0-19.2-0.2","5bc151ece6491a00013a21f3","E1","batch5","","914","","","tol_tohand","","","","","","","","","tol_peg_1","914","914","0","[[3,0,0],[0,0],[2]]","3","[[3,0,0],[1,0],[2]]","3","0","","","","","","3","",""
"","","","","","single-stim-button","240","694963","0.0-3.0-19.2-1.2","5bc151ece6491a00013a21f3","E1","batch5","","872","","","tol_toboard","","","","","","","","","tol_peg_2","872","872","0","[[3,0,0],[1,0],[2]]","3","[[3,0,0],[1,0],[2]]","3","0","","","","","","3","",""
"","","","","","poldrack-single-stim","241","695970","0.0-3.0-20.0","5bc151ece6491a00013a21f3","E1","batch5","","-1","","","tol_feedback","true","","","","","","","","","1000","1000","500","","","","","","-1","none","true","4360","6305","","",""
"","","","","","html-button-response","242","696999","0.0-3.0-21.0","5bc151ece6491a00013a21f3","E1","batch5","","1028.1000001430511","<div class = centerbox><p class = center-block-text>problem <strong>5</strong> out of 25 problems</p></div>","0","tol_trial_num","","","","","","","","","","","","","","","","","","","","","","","","",""
"","","","","","single-stim-button","243","716298","0.0-3.0-22.0-0.0","5bc151ece6491a00013a21f3","E1","batch5","","19299","","","tol_tohand","","","","","","","","","tol_peg_1","19299","19299","0","[[0,0,0],[2,0],[3]]","1","[[0,0,0],[1,2],[3]]","4","0","","","","","","7","",""
"","","","","","single-stim-button","244","718332","0.0-3.0-22.0-1.0","5bc151ece6491a00013a21f3","E1","batch5","","2034","","","tol_toboard","","","","","","","","","tol_peg_2","2034","2034","0","[[0,0,0],[2,1],[3]]","1","[[0,0,0],[1,2],[3]]","4","0","","","","","","7","",""
"","","","","","single-stim-button","245","719312","0.0-3.0-22.1-0.1","5bc151ece6491a00013a21f3","E1","batch5","","980","","","tol_tohand","","","","","","","","","tol_peg_2","980","980","0","[[0,0,0],[2,0],[3]]","2","[[0,0,0],[1,2],[3]]","4","0","","","","","","7","",""
"","","","","","single-stim-button","246","726669","0.0-3.0-22.1-1.1","5bc151ece6491a00013a21f3","E1","batch5","","7356","","","tol_toboard","","","","","","","","","tol_peg_1","7356","7356","0","[[1,0,0],[2,0],[3]]","2","[[0,0,0],[1,2],[3]]","4","0","","","","","","7","",""
"","","","","","single-stim-button","247","737927","0.0-3.0-22.2-0.2","5bc151ece6491a00013a21f3","E1","batch5","","11257","","","tol_tohand","","","","","","","","","tol_peg_3","11257","11257","0","[[1,0,0],[2,0],[0]]","3","[[0,0,0],[1,2],[3]]","4","0","","","","","","7","",""
"","","","","","single-stim-button","248","741150","0.0-3.0-22.2-1.2","5bc151ece6491a00013a21f3","E1","batch5","","3222","","","tol_toboard","","","","","","","","","tol_peg_1","3222","3222","0","[[1,3,0],[2,0],[0]]","3","[[0,0,0],[1,2],[3]]","4","0","","","","","","7","",""
"","","","","","single-stim-button","249","742200","0.0-3.0-22.3-0.3","5bc151ece6491a00013a21f3","E1","batch5","","1050","","","tol_tohand","","","","","","","","","tol_peg_2","1050","1050","0","[[1,3,0],[0,0],[0]]","4","[[0,0,0],[1,2],[3]]","4","0","","","","","","7","",""
"","","","","","single-stim-button","250","744620","0.0-3.0-22.3-1.3","5bc151ece6491a00013a21f3","E1","batch5","","2420","","","tol_toboard","","","","","","","","","tol_peg_3","2420","2420","0","[[1,3,0],[0,0],[2]]","4","[[0,0,0],[1,2],[3]]","4","0","","","","","","7","",""
"","","","","","single-stim-button","251","750335","0.0-3.0-22.4-0.4","5bc151ece6491a00013a21f3","E1","batch5","","5715","","","tol_tohand","","","","","","","","","tol_peg_1","5715","5715","0","[[1,0,0],[0,0],[2]]","5","[[0,0,0],[1,2],[3]]","4","0","","","","","","7","",""
"","","","","","single-stim-button","252","757608","0.0-3.0-22.4-1.4","5bc151ece6491a00013a21f3","E1","batch5","","7273","","","tol_toboard","","","","","","","","","tol_peg_2","7273","7273","0","[[1,0,0],[3,0],[2]]","5","[[0,0,0],[1,2],[3]]","4","0","","","","","","7","",""
"","","","","","single-stim-button","253","760766","0.0-3.0-22.5-0.5","5bc151ece6491a00013a21f3","E1","batch5","","3158","","","tol_tohand","","","","","","","","","tol_peg_3","3158","3158","0","[[1,0,0],[3,0],[0]]","6","[[0,0,0],[1,2],[3]]","4","0","","","","","","7","",""
"","","","","","single-stim-button","254","769693","0.0-3.0-22.5-1.5","5bc151ece6491a00013a21f3","E1","batch5","","8927","","","tol_toboard","","","","","","","","","tol_peg_3","8927","8927","0","[[1,0,0],[3,0],[2]]","6","[[0,0,0],[1,2],[3]]","4","0","","","","","","7","",""
"","","","","","single-stim-button","255","771132","0.0-3.0-22.6-0.6","5bc151ece6491a00013a21f3","E1","batch5","","1437","","","tol_tohand","","","","","","","","","tol_peg_1","1437","1437","0","[[0,0,0],[3,0],[2]]","7","[[0,0,0],[1,2],[3]]","4","0","","","","","","7","",""
"","","","","","single-stim-button","256","772156","0.0-3.0-22.6-1.6","5bc151ece6491a00013a21f3","E1","batch5","","1024","","","tol_toboard","","","","","","","","","tol_peg_2","1024","1024","0","[[0,0,0],[3,1],[2]]","7","[[0,0,0],[1,2],[3]]","4","0","","","","","","7","",""
"","","","","","single-stim-button","257","773138","0.0-3.0-22.7-0.7","5bc151ece6491a00013a21f3","E1","batch5","","981","","","tol_tohand","","","","","","","","","tol_peg_3","981","981","0","[[0,0,0],[3,1],[0]]","8","[[0,0,0],[1,2],[3]]","4","0","","","","","","7","",""
"","","","","","single-stim-button","258","775904","0.0-3.0-22.7-1.7","5bc151ece6491a00013a21f3","E1","batch5","","2766","","","tol_toboard","","","","","","","","","tol_peg_1","2766","2766","0","[[2,0,0],[3,1],[0]]","8","[[0,0,0],[1,2],[3]]","4","0","","","","","","7","",""
"","","","","","single-stim-button","259","778383","0.0-3.0-22.8-0.8","5bc151ece6491a00013a21f3","E1","batch5","","2478","","","tol_tohand","","","","","","","","","tol_peg_2","2478","2478","0","[[2,0,0],[3,0],[0]]","9","[[0,0,0],[1,2],[3]]","4","0","","","","","","7","",""
"","","","","","single-stim-button","260","781579","0.0-3.0-22.8-1.8","5bc151ece6491a00013a21f3","E1","batch5","","3196","","","tol_toboard","","","","","","","","","tol_peg_3","3196","3196","0","[[2,0,0],[3,0],[1]]","9","[[0,0,0],[1,2],[3]]","4","0","","","","","","7","",""
"","","","","","single-stim-button","261","784161","0.0-3.0-22.9-0.9","5bc151ece6491a00013a21f3","E1","batch5","","2582","","","tol_tohand","","","","","","","","","tol_peg_3","2582","2582","0","[[2,0,0],[3,0],[0]]","10","[[0,0,0],[1,2],[3]]","4","0","","","","","","7","",""
"","","","","","single-stim-button","262","785540","0.0-3.0-22.9-1.9","5bc151ece6491a00013a21f3","E1","batch5","","1377","","","tol_toboard","","","","","","","","","tol_peg_1","1377","1377","0","[[2,1,0],[3,0],[0]]","10","[[0,0,0],[1,2],[3]]","4","0","","","","","","7","",""
"","","","","","single-stim-button","263","788034","0.0-3.0-22.10-0.10","5bc151ece6491a00013a21f3","E1","batch5","","2494","","","tol_tohand","","","","","","","","","tol_peg_2","2494","2494","0","[[2,1,0],[0,0],[0]]","11","[[0,0,0],[1,2],[3]]","4","0","","","","","","7","",""
"","","","","","single-stim-button","264","788966","0.0-3.0-22.10-1.10","5bc151ece6491a00013a21f3","E1","batch5","","932","","","tol_toboard","","","","","","","","","tol_peg_3","932","932","0","[[2,1,0],[0,0],[3]]","11","[[0,0,0],[1,2],[3]]","4","0","","","","","","7","",""
"","","","","","single-stim-button","265","792585","0.0-3.0-22.11-0.11","5bc151ece6491a00013a21f3","E1","batch5","","3618","","","tol_tohand","","","","","","","","","tol_peg_1","3618","3618","0","[[2,0,0],[0,0],[3]]","12","[[0,0,0],[1,2],[3]]","4","0","","","","","","7","",""
"","","","","","single-stim-button","266","793681","0.0-3.0-22.11-1.11","5bc151ece6491a00013a21f3","E1","batch5","","1095","","","tol_toboard","","","","","","","","","tol_peg_2","1095","1095","0","[[2,0,0],[1,0],[3]]","12","[[0,0,0],[1,2],[3]]","4","0","","","","","","7","",""
"","","","","","single-stim-button","267","795229","0.0-3.0-22.12-0.12","5bc151ece6491a00013a21f3","E1","batch5","","1547","","","tol_tohand","","","","","","","","","tol_peg_1","1547","1547","0","[[0,0,0],[1,0],[3]]","13","[[0,0,0],[1,2],[3]]","4","0","","","","","","7","",""
"","","","","","single-stim-button","268","795982","0.0-3.0-22.12-1.12","5bc151ece6491a00013a21f3","E1","batch5","","753","","","tol_toboard","","","","","","","","","tol_peg_2","753","753","0","[[0,0,0],[1,2],[3]]","13","[[0,0,0],[1,2],[3]]","4","0","","","","","","7","",""
"","","","","","poldrack-single-stim","269","796984","0.0-3.0-23.0","5bc151ece6491a00013a21f3","E1","batch5","","-1","","","tol_feedback","true","","","","","","","","","1000","1000","500","","","","","","-1","none","true","19299","56596","","",""
"","","","","","html-button-response","270","797949","0.0-3.0-24.0","5bc151ece6491a00013a21f3","E1","batch5","","964.5","<div class = centerbox><p class = center-block-text>problem <strong>6</strong> out of 25 problems</p></div>","0","tol_trial_num","","","","","","","","","","","","","","","","","","","","","","","","",""
"","","","","","single-stim-button","271","818692","0.0-3.0-25.0-0.0","5bc151ece6491a00013a21f3","E1","batch5","","20742","","","tol_tohand","","","","","","","","","tol_peg_2","20742","20742","0","[[0,0,0],[1,0],[3]]","1","[[1,0,0],[2,3],[0]]","5","0","","","","","","6","",""
"","","","","","single-stim-button","272","833120","0.0-3.0-25.0-1.0","5bc151ece6491a00013a21f3","E1","batch5","","14427","","","tol_toboard","","","","","","","","","tol_peg_1","14427","14427","0","[[2,0,0],[1,0],[3]]","1","[[1,0,0],[2,3],[0]]","5","0","","","","","","6","",""
"","","","","","single-stim-button","273","834608","0.0-3.0-25.1-0.1","5bc151ece6491a00013a21f3","E1","batch5","","1488","","","tol_tohand","","","","","","","","","tol_peg_3","1488","1488","0","[[2,0,0],[1,0],[0]]","2","[[1,0,0],[2,3],[0]]","5","0","","","","","","6","",""
"","","","","","single-stim-button","274","835796","0.0-3.0-25.1-1.1","5bc151ece6491a00013a21f3","E1","batch5","","1188","","","tol_toboard","","","","","","","","","tol_peg_2","1188","1188","0","[[2,0,0],[1,3],[0]]","2","[[1,0,0],[2,3],[0]]","5","0","","","","","","6","",""
"","","","","","single-stim-button","275","836648","0.0-3.0-25.2-0.2","5bc151ece6491a00013a21f3","E1","batch5","","852","","","tol_tohand","","","","","","","","","tol_peg_1","852","852","0","[[0,0,0],[1,3],[0]]","3","[[1,0,0],[2,3],[0]]","5","0","","","","","","6","",""
"","","","","","single-stim-button","276","837638","0.0-3.0-25.2-1.2","5bc151ece6491a00013a21f3","E1","batch5","","990","","","tol_toboard","","","","","","","","","tol_peg_3","990","990","0","[[0,0,0],[1,3],[2]]","3","[[1,0,0],[2,3],[0]]","5","0","","","","","","6","",""
"","","","","","single-stim-button","277","841568","0.0-3.0-25.3-0.3","5bc151ece6491a00013a21f3","E1","batch5","","3930","","","tol_tohand","","","","","","","","","tol_peg_2","3930","3930","0","[[0,0,0],[1,0],[2]]","4","[[1,0,0],[2,3],[0]]","5","0","","","","","","6","",""
"","","","","","single-stim-button","278","842539","0.0-3.0-25.3-1.3","5bc151ece6491a00013a21f3","E1","batch5","","970","","","tol_toboard","","","","","","","","","tol_peg_1","970","970","0","[[3,0,0],[1,0],[2]]","4","[[1,0,0],[2,3],[0]]","5","0","","","","","","6","",""
"","","","","","single-stim-button","279","844657","0.0-3.0-25.4-0.4","5bc151ece6491a00013a21f3","E1","batch5","","2118","","","tol_tohand","","","","","","","","","tol_peg_2","2118","2118","0","[[3,0,0],[0,0],[2]]","5","[[1,0,0],[2,3],[0]]","5","0","","","","","","6","",""
"","","","","","single-stim-button","280","845423","0.0-3.0-25.4-1.4","5bc151ece6491a00013a21f3","E1","batch5","","766","","","tol_toboard","","","","","","","","","tol_peg_1","766","766","0","[[3,1,0],[0,0],[2]]","5","[[1,0,0],[2,3],[0]]","5","0","","","","","","6","",""
"","","","","","single-stim-button","281","846481","0.0-3.0-25.5-0.5","5bc151ece6491a00013a21f3","E1","batch5","","1057","","","tol_tohand","","","","","","","","","tol_peg_3","1057","1057","0","[[3,1,0],[0,0],[0]]","6","[[1,0,0],[2,3],[0]]","5","0","","","","","","6","",""
"","","","","","single-stim-button","282","848068","0.0-3.0-25.5-1.5","5bc151ece6491a00013a21f3","E1","batch5","","1587","","","tol_toboard","","","","","","","","","tol_peg_2","1587","1587","0","[[3,1,0],[2,0],[0]]","6","[[1,0,0],[2,3],[0]]","5","0","","","","","","6","",""
"","","","","","single-stim-button","283","849040","0.0-3.0-25.6-0.6","5bc151ece6491a00013a21f3","E1","batch5","","971","","","tol_tohand","","","","","","","","","tol_peg_1","971","971","0","[[3,0,0],[2,0],[0]]","7","[[1,0,0],[2,3],[0]]","5","0","","","","","","6","",""
"","","","","","single-stim-button","284","850612","0.0-3.0-25.6-1.6","5bc151ece6491a00013a21f3","E1","batch5","","1572","","","tol_toboard","","","","","","","","","tol_peg_3","1572","1572","0","[[3,0,0],[2,0],[1]]","7","[[1,0,0],[2,3],[0]]","5","0","","","","","","6","",""
"","","","","","single-stim-button","285","851516","0.0-3.0-25.7-0.7","5bc151ece6491a00013a21f3","E1","batch5","","904","","","tol_tohand","","","","","","","","","tol_peg_1","904","904","0","[[0,0,0],[2,0],[1]]","8","[[1,0,0],[2,3],[0]]","5","0","","","","","","6","",""
"","","","","","single-stim-button","286","853048","0.0-3.0-25.7-1.7","5bc151ece6491a00013a21f3","E1","batch5","","1532","","","tol_toboard","","","","","","","","","tol_peg_2","1532","1532","0","[[0,0,0],[2,3],[1]]","8","[[1,0,0],[2,3],[0]]","5","0","","","","","","6","",""
"","","","","","single-stim-button","287","854263","0.0-3.0-25.8-0.8","5bc151ece6491a00013a21f3","E1","batch5","","1214","","","tol_tohand","","","","","","","","","tol_peg_3","1214","1214","0","[[0,0,0],[2,3],[0]]","9","[[1,0,0],[2,3],[0]]","5","0","","","","","","6","",""
"","","","","","single-stim-button","288","855502","0.0-3.0-25.8-1.8","5bc151ece6491a00013a21f3","E1","batch5","","1239","","","tol_toboard","","","","","","","","","tol_peg_1","1239","1239","0","[[1,0,0],[2,3],[0]]","9","[[1,0,0],[2,3],[0]]","5","0","","","","","","6","",""
"","","","","","poldrack-single-stim","289","856513","0.0-3.0-26.0","5bc151ece6491a00013a21f3","E1","batch5","","-1","","","tol_feedback","true","","","","","","","","","1000","1000","500","","","","","","-1","none","true","20742","33276","","",""
"","","","","","html-button-response","290","857783","0.0-3.0-27.0","5bc151ece6491a00013a21f3","E1","batch5","","1268.6000001430511","<div class = centerbox><p class = center-block-text>problem <strong>7</strong> out of 25 problems</p></div>","0","tol_trial_num","","","","","","","","","","","","","","","","","","","","","","","","",""
"","","","","","single-stim-button","291","871911","0.0-3.0-28.0-0.0","5bc151ece6491a00013a21f3","E1","batch5","","14127","","","tol_tohand","","","","","","","","","tol_peg_3","14127","14127","0","[[2,1,0],[0,0],[0]]","1","[[1,2,0],[3,0],[0]]","6","0","","","","","","5","",""
"","","","","","single-stim-button","292","872761","0.0-3.0-28.0-1.0","5bc151ece6491a00013a21f3","E1","batch5","","849","","","tol_toboard","","","","","","","","","tol_peg_2","849","849","0","[[2,1,0],[3,0],[0]]","1","[[1,2,0],[3,0],[0]]","6","0","","","","","","5","",""
"","","","","","single-stim-button","293","874289","0.0-3.0-28.1-0.1","5bc151ece6491a00013a21f3","E1","batch5","","1528","","","tol_tohand","","","","","","","","","tol_peg_1","1528","1528","0","[[2,0,0],[3,0],[0]]","2","[[1,2,0],[3,0],[0]]","6","0","","","","","","5","",""
"","","","","","single-stim-button","294","877727","0.0-3.0-28.1-1.1","5bc151ece6491a00013a21f3","E1","batch5","","3438","","","tol_toboard","","","","","","","","","tol_peg_3","3438","3438","0","[[2,0,0],[3,0],[1]]","2","[[1,2,0],[3,0],[0]]","6","0","","","","","","5","",""
"","","","","","single-stim-button","295","878690","0.0-3.0-28.2-0.2","5bc151ece6491a00013a21f3","E1","batch5","","962","","","tol_tohand","","","","","","","","","tol_peg_1","962","962","0","[[0,0,0],[3,0],[1]]","3","[[1,2,0],[3,0],[0]]","6","0","","","","","","5","",""
"","","","","","single-stim-button","296","879598","0.0-3.0-28.2-1.2","5bc151ece6491a00013a21f3","E1","batch5","","907","","","tol_toboard","","","","","","","","","tol_peg_2","907","907","0","[[0,0,0],[3,2],[1]]","3","[[1,2,0],[3,0],[0]]","6","0","","","","","","5","",""
"","","","","","single-stim-button","297","880352","0.0-3.0-28.3-0.3","5bc151ece6491a00013a21f3","E1","batch5","","754","","","tol_tohand","","","","","","","","","tol_peg_3","754","754","0","[[0,0,0],[3,2],[0]]","4","[[1,2,0],[3,0],[0]]","6","0","","","","","","5","",""
"","","","","","single-stim-button","298","881856","0.0-3.0-28.3-1.3","5bc151ece6491a00013a21f3","E1","batch5","","1504","","","tol_toboard","","","","","","","","","tol_peg_1","1504","1504","0","[[1,0,0],[3,2],[0]]","4","[[1,2,0],[3,0],[0]]","6","0","","","","","","5","",""
"","","","","","single-stim-button","299","882830","0.0-3.0-28.4-0.4","5bc151ece6491a00013a21f3","E1","batch5","","974","","","tol_tohand","","","","","","","","","tol_peg_2","974","974","0","[[1,0,0],[3,0],[0]]","5","[[1,2,0],[3,0],[0]]","6","0","","","","","","5","",""
"","","","","","single-stim-button","300","883962","0.0-3.0-28.4-1.4","5bc151ece6491a00013a21f3","E1","batch5","","1132","","","tol_toboard","","","","","","","","","tol_peg_1","1132","1132","0","[[1,2,0],[3,0],[0]]","5","[[1,2,0],[3,0],[0]]","6","0","","","","","","5","",""
"","","","","","poldrack-single-stim","301","884966","0.0-3.0-29.0","5bc151ece6491a00013a21f3","E1","batch5","","-1","","","tol_feedback","true","","","","","","","","","1000","1000","500","","","","","","-1","none","true","14127","18345","","",""
"","","","","","html-button-response","302","886258","0.0-3.0-30.0","5bc151ece6491a00013a21f3","E1","batch5","","1291.5999999046326","<div class = centerbox><p class = center-block-text>problem <strong>8</strong> out of 25 problems</p></div>","0","tol_trial_num","","","","","","","","","","","","","","","","","","","","","","","","",""
"","","","","","single-stim-button","303","897072","0.0-3.0-31.0-0.0","5bc151ece6491a00013a21f3","E1","batch5","","10813","","","tol_tohand","","","","","","","","","tol_peg_3","10813","10813","0","[[0,0,0],[2,3],[0]]","1","[[1,2,0],[3,0],[0]]","7","0","","","","","","4","",""
"","","","","","single-stim-button","304","898968","0.0-3.0-31.0-1.0","5bc151ece6491a00013a21f3","E1","batch5","","1896","","","tol_toboard","","","","","","","","","tol_peg_1","1896","1896","0","[[1,0,0],[2,3],[0]]","1","[[1,2,0],[3,0],[0]]","7","0","","","","","","4","",""
"","","","","","single-stim-button","305","902145","0.0-3.0-31.1-0.1","5bc151ece6491a00013a21f3","E1","batch5","","3176","","","tol_tohand","","","","","","","","","tol_peg_2","3176","3176","0","[[1,0,0],[2,0],[0]]","2","[[1,2,0],[3,0],[0]]","7","0","","","","","","4","",""
"","","","","","single-stim-button","306","903255","0.0-3.0-31.1-1.1","5bc151ece6491a00013a21f3","E1","batch5","","1110","","","tol_toboard","","","","","","","","","tol_peg_3","1110","1110","0","[[1,0,0],[2,0],[3]]","2","[[1,2,0],[3,0],[0]]","7","0","","","","","","4","",""
"","","","","","single-stim-button","307","903951","0.0-3.0-31.2-0.2","5bc151ece6491a00013a21f3","E1","batch5","","695","","","tol_tohand","","","","","","","","","tol_peg_2","695","695","0","[[1,0,0],[0,0],[3]]","3","[[1,2,0],[3,0],[0]]","7","0","","","","","","4","",""
"","","","","","single-stim-button","308","904757","0.0-3.0-31.2-1.2","5bc151ece6491a00013a21f3","E1","batch5","","806","","","tol_toboard","","","","","","","","","tol_peg_1","806","806","0","[[1,2,0],[0,0],[3]]","3","[[1,2,0],[3,0],[0]]","7","0","","","","","","4","",""
"","","","","","single-stim-button","309","905889","0.0-3.0-31.3-0.3","5bc151ece6491a00013a21f3","E1","batch5","","1132","","","tol_tohand","","","","","","","","","tol_peg_3","1132","1132","0","[[1,2,0],[0,0],[0]]","4","[[1,2,0],[3,0],[0]]","7","0","","","","","","4","",""
"","","","","","single-stim-button","310","906635","0.0-3.0-31.3-1.3","5bc151ece6491a00013a21f3","E1","batch5","","746","","","tol_toboard","","","","","","","","","tol_peg_2","746","746","0","[[1,2,0],[3,0],[0]]","4","[[1,2,0],[3,0],[0]]","7","0","","","","","","4","",""
"","","","","","poldrack-single-stim","311","907637","0.0-3.0-32.0","5bc151ece6491a00013a21f3","E1","batch5","","-1","","","tol_feedback","true","","","","","","","","","1000","1000","500","","","","","","-1","none","true","10813","15816","","",""
"","","","","","html-button-response","312","908812","0.0-3.0-33.0","5bc151ece6491a00013a21f3","E1","batch5","","1174.5","<div class = centerbox><p class = center-block-text>problem <strong>9</strong> out of 25 problems</p></div>","0","tol_trial_num","","","","","","","","","","","","","","","","","","","","","","","","",""
"","","","","","single-stim-button","313","919085","0.0-3.0-34.0-0.0","5bc151ece6491a00013a21f3","E1","batch5","","10273","","","tol_tohand","","","","","","","","","tol_peg_3","10273","10273","0","[[3,2,0],[0,0],[0]]","1","[[2,1,0],[3,0],[0]]","8","0","","","","","","6","",""
"","","","","","single-stim-button","314","920255","0.0-3.0-34.0-1.0","5bc151ece6491a00013a21f3","E1","batch5","","1169","","","tol_toboard","","","","","","","","","tol_peg_2","1169","1169","0","[[3,2,0],[1,0],[0]]","1","[[2,1,0],[3,0],[0]]","8","0","","","","","","6","",""
"","","","","","single-stim-button","315","922467","0.0-3.0-34.1-0.1","5bc151ece6491a00013a21f3","E1","batch5","","2211","","","tol_tohand","","","","","","","","","tol_peg_1","2211","2211","0","[[3,0,0],[1,0],[0]]","2","[[2,1,0],[3,0],[0]]","8","0","","","","","","6","",""
"","","","","","single-stim-button","316","923598","0.0-3.0-34.1-1.1","5bc151ece6491a00013a21f3","E1","batch5","","1130","","","tol_toboard","","","","","","","","","tol_peg_3","1130","1130","0","[[3,0,0],[1,0],[2]]","2","[[2,1,0],[3,0],[0]]","8","0","","","","","","6","",""
"","","","","","single-stim-button","317","925850","0.0-3.0-34.2-0.2","5bc151ece6491a00013a21f3","E1","batch5","","2252","","","tol_tohand","","","","","","","","","tol_peg_1","2252","2252","0","[[0,0,0],[1,0],[2]]","3","[[2,1,0],[3,0],[0]]","8","0","","","","","","6","",""
"","","","","","single-stim-button","318","927198","0.0-3.0-34.2-1.2","5bc151ece6491a00013a21f3","E1","batch5","","1348","","","tol_toboard","","","","","","","","","tol_peg_2","1348","1348","0","[[0,0,0],[1,3],[2]]","3","[[2,1,0],[3,0],[0]]","8","0","","","","","","6","",""
"","","","","","single-stim-button","319","929674","0.0-3.0-34.3-0.3","5bc151ece6491a00013a21f3","E1","batch5","","2475","","","tol_tohand","","","","","","","","","tol_peg_3","2475","2475","0","[[0,0,0],[1,3],[0]]","4","[[2,1,0],[3,0],[0]]","8","0","","","","","","6","",""
"","","","","","single-stim-button","320","930779","0.0-3.0-34.3-1.3","5bc151ece6491a00013a21f3","E1","batch5","","1104","","","tol_toboard","","","","","","","","","tol_peg_1","1104","1104","0","[[2,0,0],[1,3],[0]]","4","[[2,1,0],[3,0],[0]]","8","0","","","","","","6","",""
"","","","","","single-stim-button","321","932551","0.0-3.0-34.4-0.4","5bc151ece6491a00013a21f3","E1","batch5","","1772","","","tol_tohand","","","","","","","","","tol_peg_2","1772","1772","0","[[2,0,0],[1,0],[0]]","5","[[2,1,0],[3,0],[0]]","8","0","","","","","","6","",""
"","","","","","single-stim-button","322","933757","0.0-3.0-34.4-1.4","5bc151ece6491a00013a21f3","E1","batch5","","1206","","","tol_toboard","","","","","","","","","tol_peg_3","1206","1206","0","[[2,0,0],[1,0],[3]]","5","[[2,1,0],[3,0],[0]]","8","0","","","","","","6","",""
"","","","","","single-stim-button","323","934583","0.0-3.0-34.5-0.5","5bc151ece6491a00013a21f3","E1","batch5","","826","","","tol_tohand","","","","","","","","","tol_peg_2","826","826","0","[[2,0,0],[0,0],[3]]","6","[[2,1,0],[3,0],[0]]","8","0","","","","","","6","",""
"","","","","","single-stim-button","324","935695","0.0-3.0-34.5-1.5","5bc151ece6491a00013a21f3","E1","batch5","","1112","","","tol_toboard","","","","","","","","","tol_peg_1","1112","1112","0","[[2,1,0],[0,0],[3]]","6","[[2,1,0],[3,0],[0]]","8","0","","","","","","6","",""
"","","","","","single-stim-button","325","936638","0.0-3.0-34.6-0.6","5bc151ece6491a00013a21f3","E1","batch5","","942","","","tol_tohand","","","","","","","","","tol_peg_3","942","942","0","[[2,1,0],[0,0],[0]]","7","[[2,1,0],[3,0],[0]]","8","0","","","","","","6","",""
"","","","","","single-stim-button","326","939412","0.0-3.0-34.6-1.6","5bc151ece6491a00013a21f3","E1","batch5","","2774","","","tol_toboard","","","","","","","","","tol_peg_2","2774","2774","0","[[2,1,0],[3,0],[0]]","7","[[2,1,0],[3,0],[0]]","8","0","","","","","","6","",""
"","","","","","poldrack-single-stim","327","940426","0.0-3.0-35.0","5bc151ece6491a00013a21f3","E1","batch5","","-1","","","tol_feedback","true","","","","","","","","","1000","1000","500","","","","","","-1","none","true","10273","20751","","",""
"","","","","","html-button-response","328","941610","0.0-3.0-36.0","5bc151ece6491a00013a21f3","E1","batch5","","1183.5","<div class = centerbox><p class = center-block-text>problem <strong>10</strong> out of 25 problems</p></div>","0","tol_trial_num","","","","","","","","","","","","","","","","","","","","","","","","",""
"","","","","","single-stim-button","329","948661","0.0-3.0-37.0-0.0","5bc151ece6491a00013a21f3","E1","batch5","","7050","","","tol_tohand","","","","","","","","","tol_peg_2","7050","7050","0","[[3,0,0],[0,0],[2]]","1","[[3,0,0],[2,1],[0]]","9","0","","","","","","3","",""
"","","","","","single-stim-button","330","951076","0.0-3.0-37.0-1.0","5bc151ece6491a00013a21f3","E1","batch5","","2414","","","tol_toboard","","","","","","","","","tol_peg_1","2414","2414","0","[[3,1,0],[0,0],[2]]","1","[[3,0,0],[2,1],[0]]","9","0","","","","","","3","",""
"","","","","","single-stim-button","331","952214","0.0-3.0-37.1-0.1","5bc151ece6491a00013a21f3","E1","batch5","","1138","","","tol_tohand","","","","","","","","","tol_peg_3","1138","1138","0","[[3,1,0],[0,0],[0]]","2","[[3,0,0],[2,1],[0]]","9","0","","","","","","3","",""
"","","","","","single-stim-button","332","953102","0.0-3.0-37.1-1.1","5bc151ece6491a00013a21f3","E1","batch5","","888","","","tol_toboard","","","","","","","","","tol_peg_2","888","888","0","[[3,1,0],[2,0],[0]]","2","[[3,0,0],[2,1],[0]]","9","0","","","","","","3","",""
"","","","","","single-stim-button","333","954268","0.0-3.0-37.2-0.2","5bc151ece6491a00013a21f3","E1","batch5","","1166","","","tol_tohand","","","","","","","","","tol_peg_1","1166","1166","0","[[3,0,0],[2,0],[0]]","3","[[3,0,0],[2,1],[0]]","9","0","","","","","","3","",""
"","","","","","single-stim-button","334","955150","0.0-3.0-37.2-1.2","5bc151ece6491a00013a21f3","E1","batch5","","882","","","tol_toboard","","","","","","","","","tol_peg_2","882","882","0","[[3,0,0],[2,1],[0]]","3","[[3,0,0],[2,1],[0]]","9","0","","","","","","3","",""
"","","","","","poldrack-single-stim","335","956157","0.0-3.0-38.0","5bc151ece6491a00013a21f3","E1","batch5","","-1","","","tol_feedback","true","","","","","","","","","1000","1000","500","","","","","","-1","none","true","7050","9354","","",""
"","","","","","html-button-response","336","957582","0.0-3.0-39.0","5bc151ece6491a00013a21f3","E1","batch5","","1424.5999999046326","<div class = centerbox><p class = center-block-text>problem <strong>11</strong> out of 25 problems</p></div>","0","tol_trial_num","","","","","","","","","","","","","","","","","","","","","","","","",""
"","","","","","single-stim-button","337","960486","0.0-3.0-40.0-0.0","5bc151ece6491a00013a21f3","E1","batch5","","2903","","","tol_tohand","","","","","","","","","tol_peg_1","2903","2903","0","[[1,0,0],[3,0],[0]]","1","[[2,0,0],[1,3],[0]]","10","0","","","","","","6","",""
"","","","","","single-stim-button","338","969830","0.0-3.0-40.0-1.0","5bc151ece6491a00013a21f3","E1","batch5","","9343","","","tol_toboard","","","","","","","","","tol_peg_2","9343","9343","0","[[1,0,0],[3,2],[0]]","1","[[2,0,0],[1,3],[0]]","10","0","","","","","","6","",""
"","","","","","single-stim-button","339","972239","0.0-3.0-40.1-0.1","5bc151ece6491a00013a21f3","E1","batch5","","2407","","","tol_tohand","","","","","","","","","tol_peg_1","2407","2407","0","[[0,0,0],[3,2],[0]]","2","[[2,0,0],[1,3],[0]]","10","0","","","","","","6","",""
"","","","","","single-stim-button","340","973621","0.0-3.0-40.1-1.1","5bc151ece6491a00013a21f3","E1","batch5","","1381","","","tol_toboard","","","","","","","","","tol_peg_3","1381","1381","0","[[0,0,0],[3,2],[1]]","2","[[2,0,0],[1,3],[0]]","10","0","","","","","","6","",""
"","","","","","single-stim-button","341","974529","0.0-3.0-40.2-0.2","5bc151ece6491a00013a21f3","E1","batch5","","907","","","tol_tohand","","","","","","","","","tol_peg_2","907","907","0","[[0,0,0],[3,0],[1]]","3","[[2,0,0],[1,3],[0]]","10","0","","","","","","6","",""
"","","","","","single-stim-button","342","975535","0.0-3.0-40.2-1.2","5bc151ece6491a00013a21f3","E1","batch5","","1006","","","tol_toboard","","","","","","","","","tol_peg_1","1006","1006","0","[[2,0,0],[3,0],[1]]","3","[[2,0,0],[1,3],[0]]","10","0","","","","","","6","",""
"","","","","","single-stim-button","343","977186","0.0-3.0-40.3-0.3","5bc151ece6491a00013a21f3","E1","batch5","","1650","","","tol_tohand","","","","","","","","","tol_peg_2","1650","1650","0","[[2,0,0],[0,0],[1]]","4","[[2,0,0],[1,3],[0]]","10","0","","","","","","6","",""
"","","","","","single-stim-button","344","978526","0.0-3.0-40.3-1.3","5bc151ece6491a00013a21f3","E1","batch5","","1340","","","tol_toboard","","","","","","","","","tol_peg_1","1340","1340","0","[[2,3,0],[0,0],[1]]","4","[[2,0,0],[1,3],[0]]","10","0","","","","","","6","",""
"","","","","","single-stim-button","345","979460","0.0-3.0-40.4-0.4","5bc151ece6491a00013a21f3","E1","batch5","","934","","","tol_tohand","","","","","","","","","tol_peg_3","934","934","0","[[2,3,0],[0,0],[0]]","5","[[2,0,0],[1,3],[0]]","10","0","","","","","","6","",""
"","","","","","single-stim-button","346","980452","0.0-3.0-40.4-1.4","5bc151ece6491a00013a21f3","E1","batch5","","992","","","tol_toboard","","","","","","","","","tol_peg_2","992","992","0","[[2,3,0],[1,0],[0]]","5","[[2,0,0],[1,3],[0]]","10","0","","","","","","6","",""
"","","","","","single-stim-button","347","981086","0.0-3.0-40.5-0.5","5bc151ece6491a00013a21f3","E1","batch5","","634","","","tol_tohand","","","","","","","","","tol_peg_1","634","634","0","[[2,0,0],[1,0],[0]]","6","[[2,0,0],[1,3],[0]]","10","0","","","","","","6","",""
