"success","timeout","failed_images","failed_audio","failed_video","trial_type","trial_index","time_elapsed","internal_node_id","subject_id","study_id","session_id","task","rt","stimulus","response","item","answer","correct","spm_correct","spm_rt","view_history","fiar_detect_rt","fiar_detect_correct","total_correct_fiar_detect","post_trial_gap","choices","mouse_click","stim_duration","block_duration","timing_post_trial","current_position","tol_num_moves_made","tol_target","tol_problem_id","tol_rt","key_press","possible_responses","tol_correct","preplanning","tol_rt_per_trial","tol_min_moves"
"true","false","[]","[]","[]","preload","0","9464","0.0-0.0","5bc3f805f70e2e000121f9b0","E1","batch5","","","","","","","","","","","","","","","","","","","","","","","","","","","","","",""
"true","","","","","fullscreen","1","33366","0.0-1.0-0.0","5bc3f805f70e2e000121f9b0","E1","batch5","","","","","","","","","","","","","","","","","","","","","","","","","","","","","",""
"true","","","","","fullscreen","2","39672","0.0-2.0-0.0","5bc3f805f70e2e000121f9b0","E1","batch5","spm_fullscreen","","","","","","","","","","","","","","","","","","","","","","","","","","","","",""
"","","","","","html-button-response","3","61980","0.0-2.0-1.0","5bc3f805f70e2e000121f9b0","E1","batch5","","22303.79999998212","<p class = block-text><b>Instructions</b> <br>This is a widely used intelligence test in research. <br>In this test, a figure with a missing piece will be presented.<br>Below the figure are alternative pieces to complete the figure, only one of which is correct.<br> Different figures might involve different principles for obtaining the missing piece<br>Your job is to select the most logical piece to complete the figure.</p>","0","","","","","","","","","","","","","","","","","","","","","","","","","",""
"","","","","","html-keyboard-response","4","62792","0.0-2.0-2.0-0.0","5bc3f805f70e2e000121f9b0","E1","batch5","spm_show_trial_num","null","<p class=block-text>Trial 1 out of 60</p>","null","","","","","","","","","","","","","","","","","","","","","","","","","",""
"","","","","","image-button-response","5","76164","0.0-2.0-2.0-1.0","5bc3f805f70e2e000121f9b0","E1","batch5","spm_respsonse","13363.200000017881","img/question_1_1.jpeg","3","mat_01","4","1","1","13363.200000017881","","","","","","","","","","","","","","","","","","","","",""
"","","","","","html-keyboard-response","6","77246","0.0-2.0-2.0-0.1","5bc3f805f70e2e000121f9b0","E1","batch5","spm_show_trial_num","null","<p class=block-text>Trial 2 out of 60</p>","null","","","","","","","","","","","","","","","","","","","","","","","","","",""
"","","","","","image-button-response","7","83109","0.0-2.0-2.0-1.1","5bc3f805f70e2e000121f9b0","E1","batch5","spm_respsonse","5859.100000023842","img/question_1_2.jpeg","4","mat_02","5","1","1","5859.100000023842","","","","","","","","","","","","","","","","","","","","",""
"","","","","","html-keyboard-response","8","84174","0.0-2.0-2.0-0.2","5bc3f805f70e2e000121f9b0","E1","batch5","spm_show_trial_num","null","<p class=block-text>Trial 3 out of 60</p>","null","","","","","","","","","","","","","","","","","","","","","","","","","",""
"","","","","","image-button-response","9","89715","0.0-2.0-2.0-1.2","5bc3f805f70e2e000121f9b0","E1","batch5","spm_respsonse","5536.0999999940395","img/question_1_3.jpeg","0","mat_03","1","1","1","5536.0999999940395","","","","","","","","","","","","","","","","","","","","",""
"","","","","","html-keyboard-response","10","90793","0.0-2.0-2.0-0.3","5bc3f805f70e2e000121f9b0","E1","batch5","spm_show_trial_num","null","<p class=block-text>Trial 4 out of 60</p>","null","","","","","","","","","","","","","","","","","","","","","","","","","",""
"","","","","","image-button-response","11","96960","0.0-2.0-2.0-1.3","5bc3f805f70e2e000121f9b0","E1","batch5","spm_respsonse","6161.700000017881","img/question_1_4.jpeg","1","mat_04","2","1","1","6161.700000017881","","","","","","","","","","","","","","","","","","","","",""
"","","","","","html-keyboard-response","12","98030","0.0-2.0-2.0-0.4","5bc3f805f70e2e000121f9b0","E1","batch5","spm_show_trial_num","null","<p class=block-text>Trial 5 out of 60</p>","null","","","","","","","","","","","","","","","","","","","","","","","","","",""
"","","","","","image-button-response","13","104799","0.0-2.0-2.0-1.4","5bc3f805f70e2e000121f9b0","E1","batch5","spm_respsonse","6763.299999982119","img/question_1_5.jpeg","5","mat_05","6","1","1","6763.299999982119","","","","","","","","","","","","","","","","","","","","",""
"","","","","","html-keyboard-response","14","105862","0.0-2.0-2.0-0.5","5bc3f805f70e2e000121f9b0","E1","batch5","spm_show_trial_num","null","<p class=block-text>Trial 6 out of 60</p>","null","","","","","","","","","","","","","","","","","","","","","","","","","",""
"","","","","","image-button-response","15","116127","0.0-2.0-2.0-1.5","5bc3f805f70e2e000121f9b0","E1","batch5","spm_respsonse","10260.09999999404","img/question_1_6.jpeg","2","mat_06","3","1","1","10260.09999999404","","","","","","","","","","","","","","","","","","","","",""
"","","","","","html-keyboard-response","16","117194","0.0-2.0-2.0-0.6","5bc3f805f70e2e000121f9b0","E1","batch5","spm_show_trial_num","null","<p class=block-text>Trial 7 out of 60</p>","null","","","","","","","","","","","","","","","","","","","","","","","","","",""
"","","","","","image-button-response","17","129418","0.0-2.0-2.0-1.6","5bc3f805f70e2e000121f9b0","E1","batch5","spm_respsonse","12218.199999988079","img/question_1_7.jpeg","5","mat_07","6","1","1","12218.199999988079","","","","","","","","","","","","","","","","","","","","",""
"","","","","","html-keyboard-response","18","130488","0.0-2.0-2.0-0.7","5bc3f805f70e2e000121f9b0","E1","batch5","spm_show_trial_num","null","<p class=block-text>Trial 8 out of 60</p>","null","","","","","","","","","","","","","","","","","","","","","","","","","",""
"","","","","","image-button-response","19","136485","0.0-2.0-2.0-1.7","5bc3f805f70e2e000121f9b0","E1","batch5","spm_respsonse","5992","img/question_1_8.jpeg","1","mat_08","2","1","1","5992","","","","","","","","","","","","","","","","","","","","",""
"","","","","","html-keyboard-response","20","137553","0.0-2.0-2.0-0.8","5bc3f805f70e2e000121f9b0","E1","batch5","spm_show_trial_num","null","<p class=block-text>Trial 9 out of 60</p>","null","","","","","","","","","","","","","","","","","","","","","","","","","",""
"","","","","","image-button-response","21","145231","0.0-2.0-2.0-1.8","5bc3f805f70e2e000121f9b0","E1","batch5","spm_respsonse","7672.200000017881","img/question_1_9.jpeg","0","mat_09","1","1","1","7672.200000017881","","","","","","","","","","","","","","","","","","","","",""
"","","","","","html-keyboard-response","22","146308","0.0-2.0-2.0-0.9","5bc3f805f70e2e000121f9b0","E1","batch5","spm_show_trial_num","null","<p class=block-text>Trial 10 out of 60</p>","null","","","","","","","","","","","","","","","","","","","","","","","","","",""
"","","","","","image-button-response","23","156998","0.0-2.0-2.0-1.9","5bc3f805f70e2e000121f9b0","E1","batch5","spm_respsonse","10684.5","img/question_1_10.jpeg","2","mat_10","3","1","1","10684.5","","","","","","","","","","","","","","","","","","","","",""
"","","","","","html-keyboard-response","24","158058","0.0-2.0-2.0-0.10","5bc3f805f70e2e000121f9b0","E1","batch5","spm_show_trial_num","null","<p class=block-text>Trial 11 out of 60</p>","null","","","","","","","","","","","","","","","","","","","","","","","","","",""
"","","","","","image-button-response","25","174422","0.0-2.0-2.0-1.10","5bc3f805f70e2e000121f9b0","E1","batch5","spm_respsonse","16359.200000017881","img/question_1_11.jpeg","3","mat_11","4","1","1","16359.200000017881","","","","","","","","","","","","","","","","","","","","",""
"","","","","","html-keyboard-response","26","175483","0.0-2.0-2.0-0.11","5bc3f805f70e2e000121f9b0","E1","batch5","spm_show_trial_num","null","<p class=block-text>Trial 12 out of 60</p>","null","","","","","","","","","","","","","","","","","","","","","","","","","",""
"","","","","","image-button-response","27","200516","0.0-2.0-2.0-1.11","5bc3f805f70e2e000121f9b0","E1","batch5","spm_respsonse","25027.5","img/question_1_12.jpeg","4","mat_12","5","1","1","25027.5","","","","","","","","","","","","","","","","","","","","",""
"","","","","","html-keyboard-response","28","201577","0.0-2.0-2.0-0.12","5bc3f805f70e2e000121f9b0","E1","batch5","spm_show_trial_num","null","<p class=block-text>Trial 13 out of 60</p>","null","","","","","","","","","","","","","","","","","","","","","","","","","",""
"","","","","","image-button-response","29","209706","0.0-2.0-2.0-1.12","5bc3f805f70e2e000121f9b0","E1","batch5","spm_respsonse","8124","img/question_2_1.jpeg","1","mat_13","2","1","1","8124","","","","","","","","","","","","","","","","","","","","",""
"","","","","","html-keyboard-response","30","210781","0.0-2.0-2.0-0.13","5bc3f805f70e2e000121f9b0","E1","batch5","spm_show_trial_num","null","<p class=block-text>Trial 14 out of 60</p>","null","","","","","","","","","","","","","","","","","","","","","","","","","",""
"","","","","","image-button-response","31","219043","0.0-2.0-2.0-1.13","5bc3f805f70e2e000121f9b0","E1","batch5","spm_respsonse","8256.5","img/question_2_2.jpeg","5","mat_14","6","1","1","8256.5","","","","","","","","","","","","","","","","","","","","",""
"","","","","","html-keyboard-response","32","220114","0.0-2.0-2.0-0.14","5bc3f805f70e2e000121f9b0","E1","batch5","spm_show_trial_num","null","<p class=block-text>Trial 15 out of 60</p>","null","","","","","","","","","","","","","","","","","","","","","","","","","",""
"","","","","","image-button-response","33","226335","0.0-2.0-2.0-1.14","5bc3f805f70e2e000121f9b0","E1","batch5","spm_respsonse","6215.800000011921","img/question_2_3.jpeg","0","mat_15","1","1","1","6215.800000011921","","","","","","","","","","","","","","","","","","","","",""
"","","","","","html-keyboard-response","34","227408","0.0-2.0-2.0-0.15","5bc3f805f70e2e000121f9b0","E1","batch5","spm_show_trial_num","null","<p class=block-text>Trial 16 out of 60</p>","null","","","","","","","","","","","","","","","","","","","","","","","","","",""
"","","","","","image-button-response","35","254028","0.0-2.0-2.0-1.15","5bc3f805f70e2e000121f9b0","E1","batch5","spm_respsonse","26615.90000000596","img/question_2_4.jpeg","1","mat_16","2","1","1","26615.90000000596","","","","","","","","","","","","","","","","","","","","",""
"","","","","","html-keyboard-response","36","255105","0.0-2.0-2.0-0.16","5bc3f805f70e2e000121f9b0","E1","batch5","spm_show_trial_num","null","<p class=block-text>Trial 17 out of 60</p>","null","","","","","","","","","","","","","","","","","","","","","","","","","",""
"","","","","","image-button-response","37","261396","0.0-2.0-2.0-1.16","5bc3f805f70e2e000121f9b0","E1","batch5","spm_respsonse","6286.9000000059605","img/question_2_5.jpeg","0","mat_17","1","1","1","6286.9000000059605","","","","","","","","","","","","","","","","","","","","",""
"","","","","","html-keyboard-response","38","262466","0.0-2.0-2.0-0.17","5bc3f805f70e2e000121f9b0","E1","batch5","spm_show_trial_num","null","<p class=block-text>Trial 18 out of 60</p>","null","","","","","","","","","","","","","","","","","","","","","","","","","",""
"","","","","","image-button-response","39","272933","0.0-2.0-2.0-1.17","5bc3f805f70e2e000121f9b0","E1","batch5","spm_respsonse","10461.90000000596","img/question_2_6.jpeg","2","mat_18","3","1","1","10461.90000000596","","","","","","","","","","","","","","","","","","","","",""
"","","","","","html-keyboard-response","40","273997","0.0-2.0-2.0-0.18","5bc3f805f70e2e000121f9b0","E1","batch5","spm_show_trial_num","null","<p class=block-text>Trial 19 out of 60</p>","null","","","","","","","","","","","","","","","","","","","","","","","","","",""
"","","","","","image-button-response","41","284871","0.0-2.0-2.0-1.18","5bc3f805f70e2e000121f9b0","E1","batch5","spm_respsonse","10868.200000017881","img/question_2_7.jpeg","4","mat_19","5","1","1","10868.200000017881","","","","","","","","","","","","","","","","","","","","",""
"","","","","","html-keyboard-response","42","285937","0.0-2.0-2.0-0.19","5bc3f805f70e2e000121f9b0","E1","batch5","spm_show_trial_num","null","<p class=block-text>Trial 20 out of 60</p>","null","","","","","","","","","","","","","","","","","","","","","","","","","",""
"","","","","","image-button-response","43","298292","0.0-2.0-2.0-1.19","5bc3f805f70e2e000121f9b0","E1","batch5","spm_respsonse","12350.09999999404","img/question_2_8.jpeg","5","mat_20","6","1","1","12350.09999999404","","","","","","","","","","","","","","","","","","","","",""
"","","","","","html-keyboard-response","44","299355","0.0-2.0-2.0-0.20","5bc3f805f70e2e000121f9b0","E1","batch5","spm_show_trial_num","null","<p class=block-text>Trial 21 out of 60</p>","null","","","","","","","","","","","","","","","","","","","","","","","","","",""
"","","","","","image-button-response","45","305169","0.0-2.0-2.0-1.20","5bc3f805f70e2e000121f9b0","E1","batch5","spm_respsonse","5808","img/question_2_9.jpeg","3","mat_21","4","1","1","5808","","","","","","","","","","","","","","","","","","","","",""
"","","","","","html-keyboard-response","46","306240","0.0-2.0-2.0-0.21","5bc3f805f70e2e000121f9b0","E1","batch5","spm_show_trial_num","null","<p class=block-text>Trial 22 out of 60</p>","null","","","","","","","","","","","","","","","","","","","","","","","","","",""
"","","","","","image-button-response","47","319721","0.0-2.0-2.0-1.21","5bc3f805f70e2e000121f9b0","E1","batch5","spm_respsonse","13475.699999988079","img/question_2_10.jpeg","2","mat_22","3","1","1","13475.699999988079","","","","","","","","","","","","","","","","","","","","",""
"","","","","","html-keyboard-response","48","320788","0.0-2.0-2.0-0.22","5bc3f805f70e2e000121f9b0","E1","batch5","spm_show_trial_num","null","<p class=block-text>Trial 23 out of 60</p>","null","","","","","","","","","","","","","","","","","","","","","","","","","",""
"","","","","","image-button-response","49","326897","0.0-2.0-2.0-1.22","5bc3f805f70e2e000121f9b0","E1","batch5","spm_respsonse","6103.9000000059605","img/question_2_11.jpeg","3","mat_23","4","1","1","6103.9000000059605","","","","","","","","","","","","","","","","","","","","",""
"","","","","","html-keyboard-response","50","327968","0.0-2.0-2.0-0.23","5bc3f805f70e2e000121f9b0","E1","batch5","spm_show_trial_num","null","<p class=block-text>Trial 24 out of 60</p>","null","","","","","","","","","","","","","","","","","","","","","","","","","",""
"","","","","","image-button-response","51","386601","0.0-2.0-2.0-1.23","5bc3f805f70e2e000121f9b0","E1","batch5","spm_respsonse","58628.40000000596","img/question_2_12.jpeg","5","mat_24","5","0","0","58628.40000000596","","","","","","","","","","","","","","","","","","","","",""
"","","","","","html-button-response","52","391272","0.0-2.0-3.0","5bc3f805f70e2e000121f9b0","E1","batch5","attention_check","4403.5999999940395","<p class = block-text>Attention check: Please choose 1<br></p>","0","","","true","","","","","","","","","","","","","","","","","","","","","","",""
"","","","","","html-keyboard-response","53","392076","0.0-2.0-4.0-0.0","5bc3f805f70e2e000121f9b0","E1","batch5","spm_show_trial_num","null","<p class=block-text>Trial 25 out of 60</p>","null","","","","","","","","","","","","","","","","","","","","","","","","","",""
"","","","","","image-button-response","54","403351","0.0-2.0-4.0-1.0","5bc3f805f70e2e000121f9b0","E1","batch5","spm_respsonse","11269.300000011921","img/question_3_1.jpeg","7","mat_25","8","1","1","11269.300000011921","","","","","","","","","","","","","","","","","","","","",""
"","","","","","html-keyboard-response","55","404415","0.0-2.0-4.0-0.1","5bc3f805f70e2e000121f9b0","E1","batch5","spm_show_trial_num","null","<p class=block-text>Trial 26 out of 60</p>","null","","","","","","","","","","","","","","","","","","","","","","","","","",""
"","","","","","image-button-response","56","414352","0.0-2.0-4.0-1.1","5bc3f805f70e2e000121f9b0","E1","batch5","spm_respsonse","9931.40000000596","img/question_3_2.jpeg","1","mat_26","2","1","1","9931.40000000596","","","","","","","","","","","","","","","","","","","","",""
"","","","","","html-keyboard-response","57","415416","0.0-2.0-4.0-0.2","5bc3f805f70e2e000121f9b0","E1","batch5","spm_show_trial_num","null","<p class=block-text>Trial 27 out of 60</p>","null","","","","","","","","","","","","","","","","","","","","","","","","","",""
"","","","","","image-button-response","58","425668","0.0-2.0-4.0-1.2","5bc3f805f70e2e000121f9b0","E1","batch5","spm_respsonse","10250.09999999404","img/question_3_3.jpeg","2","mat_27","3","1","1","10250.09999999404","","","","","","","","","","","","","","","","","","","","",""
"","","","","","html-keyboard-response","59","426740","0.0-2.0-4.0-0.3","5bc3f805f70e2e000121f9b0","E1","batch5","spm_show_trial_num","null","<p class=block-text>Trial 28 out of 60</p>","null","","","","","","","","","","","","","","","","","","","","","","","","","",""
"","","","","","image-button-response","60","440623","0.0-2.0-4.0-1.3","5bc3f805f70e2e000121f9b0","E1","batch5","spm_respsonse","13877.199999988079","img/question_3_4.jpeg","7","mat_28","8","1","1","13877.199999988079","","","","","","","","","","","","","","","","","","","","",""
"","","","","","html-keyboard-response","61","441696","0.0-2.0-4.0-0.4","5bc3f805f70e2e000121f9b0","E1","batch5","spm_show_trial_num","null","<p class=block-text>Trial 29 out of 60</p>","null","","","","","","","","","","","","","","","","","","","","","","","","","",""
"","","","","","image-button-response","62","448302","0.0-2.0-4.0-1.4","5bc3f805f70e2e000121f9b0","E1","batch5","spm_respsonse","6599.399999976158","img/question_3_5.jpeg","6","mat_29","7","1","1","6599.399999976158","","","","","","","","","","","","","","","","","","","","",""
"","","","","","html-keyboard-response","63","449358","0.0-2.0-4.0-0.5","5bc3f805f70e2e000121f9b0","E1","batch5","spm_show_trial_num","null","<p class=block-text>Trial 30 out of 60</p>","null","","","","","","","","","","","","","","","","","","","","","","","","","",""
"","","","","","image-button-response","64","482283","0.0-2.0-4.0-1.5","5bc3f805f70e2e000121f9b0","E1","batch5","spm_respsonse","32918.90000000596","img/question_3_6.jpeg","3","mat_30","4","1","1","32918.90000000596","","","","","","","","","","","","","","","","","","","","",""
"","","","","","html-keyboard-response","65","483349","0.0-2.0-4.0-0.6","5bc3f805f70e2e000121f9b0","E1","batch5","spm_show_trial_num","null","<p class=block-text>Trial 31 out of 60</p>","null","","","","","","","","","","","","","","","","","","","","","","","","","",""
"","","","","","image-button-response","66","500635","0.0-2.0-4.0-1.6","5bc3f805f70e2e000121f9b0","E1","batch5","spm_respsonse","17279.19999998808","img/question_3_7.jpeg","4","mat_31","5","1","1","17279.19999998808","","","","","","","","","","","","","","","","","","","","",""
"","","","","","html-keyboard-response","67","501697","0.0-2.0-4.0-0.7","5bc3f805f70e2e000121f9b0","E1","batch5","spm_show_trial_num","null","<p class=block-text>Trial 32 out of 60</p>","null","","","","","","","","","","","","","","","","","","","","","","","","","",""
"","","","","","image-button-response","68","539186","0.0-2.0-4.0-1.7","5bc3f805f70e2e000121f9b0","E1","batch5","spm_respsonse","37484.90000000596","img/question_3_8.jpeg","0","mat_32","1","1","1","37484.90000000596","","","","","","","","","","","","","","","","","","","","",""
"","","","","","html-keyboard-response","69","540257","0.0-2.0-4.0-0.8","5bc3f805f70e2e000121f9b0","E1","batch5","spm_show_trial_num","null","<p class=block-text>Trial 33 out of 60</p>","null","","","","","","","","","","","","","","","","","","","","","","","","","",""
"","","","","","image-button-response","70","566195","0.0-2.0-4.0-1.8","5bc3f805f70e2e000121f9b0","E1","batch5","spm_respsonse","25934.90000000596","img/question_3_9.jpeg","6","mat_33","7","1","1","25934.90000000596","","","","","","","","","","","","","","","","","","","","",""
"","","","","","html-keyboard-response","71","567268","0.0-2.0-4.0-0.9","5bc3f805f70e2e000121f9b0","E1","batch5","spm_show_trial_num","null","<p class=block-text>Trial 34 out of 60</p>","null","","","","","","","","","","","","","","","","","","","","","","","","","",""
"","","","","","image-button-response","72","594211","0.0-2.0-4.0-1.9","5bc3f805f70e2e000121f9b0","E1","batch5","spm_respsonse","26936.40000000596","img/question_3_10.jpeg","0","mat_34","6","0","0","26936.40000000596","","","","","","","","","","","","","","","","","","","","",""
"","","","","","html-keyboard-response","73","595293","0.0-2.0-4.0-0.10","5bc3f805f70e2e000121f9b0","E1","batch5","spm_show_trial_num","null","<p class=block-text>Trial 35 out of 60</p>","null","","","","","","","","","","","","","","","","","","","","","","","","","",""
"","","","","","image-button-response","74","647666","0.0-2.0-4.0-1.10","5bc3f805f70e2e000121f9b0","E1","batch5","spm_respsonse","52368","img/question_3_11.jpeg","0","mat_35","1","1","1","52368","","","","","","","","","","","","","","","","","","","","",""
"","","","","","html-keyboard-response","75","648739","0.0-2.0-4.0-0.11","5bc3f805f70e2e000121f9b0","E1","batch5","spm_show_trial_num","null","<p class=block-text>Trial 36 out of 60</p>","null","","","","","","","","","","","","","","","","","","","","","","","","","",""
"","","","","","image-button-response","76","664932","0.0-2.0-4.0-1.11","5bc3f805f70e2e000121f9b0","E1","batch5","spm_respsonse","16187.5","img/question_3_12.jpeg","2","mat_36","2","0","0","16187.5","","","","","","","","","","","","","","","","","","","","",""
"","","","","","html-keyboard-response","77","666003","0.0-2.0-4.0-0.12","5bc3f805f70e2e000121f9b0","E1","batch5","spm_show_trial_num","null","<p class=block-text>Trial 37 out of 60</p>","null","","","","","","","","","","","","","","","","","","","","","","","","","",""
"","","","","","image-button-response","78","673311","0.0-2.0-4.0-1.12","5bc3f805f70e2e000121f9b0","E1","batch5","spm_respsonse","7302.699999988079","img/question_4_1.jpeg","2","mat_37","3","1","1","7302.699999988079","","","","","","","","","","","","","","","","","","","","",""
"","","","","","html-keyboard-response","79","674382","0.0-2.0-4.0-0.13","5bc3f805f70e2e000121f9b0","E1","batch5","spm_show_trial_num","null","<p class=block-text>Trial 38 out of 60</p>","null","","","","","","","","","","","","","","","","","","","","","","","","","",""
"","","","","","image-button-response","80","693013","0.0-2.0-4.0-1.13","5bc3f805f70e2e000121f9b0","E1","batch5","spm_respsonse","18626.29999998212","img/question_4_2.jpeg","3","mat_38","4","1","1","18626.29999998212","","","","","","","","","","","","","","","","","","","","",""
"","","","","","html-keyboard-response","81","694080","0.0-2.0-4.0-0.14","5bc3f805f70e2e000121f9b0","E1","batch5","spm_show_trial_num","null","<p class=block-text>Trial 39 out of 60</p>","null","","","","","","","","","","","","","","","","","","","","","","","","","",""
"","","","","","image-button-response","82","705424","0.0-2.0-4.0-1.14","5bc3f805f70e2e000121f9b0","E1","batch5","spm_respsonse","11338.200000017881","img/question_4_3.jpeg","2","mat_39","3","1","1","11338.200000017881","","","","","","","","","","","","","","","","","","","","",""
"","","","","","html-keyboard-response","83","706492","0.0-2.0-4.0-0.15","5bc3f805f70e2e000121f9b0","E1","batch5","spm_show_trial_num","null","<p class=block-text>Trial 40 out of 60</p>","null","","","","","","","","","","","","","","","","","","","","","","","","","",""
"","","","","","image-button-response","84","728434","0.0-2.0-4.0-1.15","5bc3f805f70e2e000121f9b0","E1","batch5","spm_respsonse","21936.90000000596","img/question_4_4.jpeg","6","mat_40","7","1","1","21936.90000000596","","","","","","","","","","","","","","","","","","","","",""
"","","","","","html-keyboard-response","85","729492","0.0-2.0-4.0-0.16","5bc3f805f70e2e000121f9b0","E1","batch5","spm_show_trial_num","null","<p class=block-text>Trial 41 out of 60</p>","null","","","","","","","","","","","","","","","","","","","","","","","","","",""
"","","","","","image-button-response","86","745043","0.0-2.0-4.0-1.16","5bc3f805f70e2e000121f9b0","E1","batch5","spm_respsonse","15545.299999982119","img/question_4_5.jpeg","7","mat_41","8","1","1","15545.299999982119","","","","","","","","","","","","","","","","","","","","",""
"","","","","","html-keyboard-response","87","746098","0.0-2.0-4.0-0.17","5bc3f805f70e2e000121f9b0","E1","batch5","spm_show_trial_num","null","<p class=block-text>Trial 42 out of 60</p>","null","","","","","","","","","","","","","","","","","","","","","","","","","",""
"","","","","","image-button-response","88","762792","0.0-2.0-4.0-1.17","5bc3f805f70e2e000121f9b0","E1","batch5","spm_respsonse","16686.5","img/question_4_6.jpeg","5","mat_42","6","1","1","16686.5","","","","","","","","","","","","","","","","","","","","",""
"","","","","","html-keyboard-response","89","763858","0.0-2.0-4.0-0.18","5bc3f805f70e2e000121f9b0","E1","batch5","spm_show_trial_num","null","<p class=block-text>Trial 43 out of 60</p>","null","","","","","","","","","","","","","","","","","","","","","","","","","",""
"","","","","","image-button-response","90","794004","0.0-2.0-4.0-1.18","5bc3f805f70e2e000121f9b0","E1","batch5","spm_respsonse","30140.80000001192","img/question_4_7.jpeg","4","mat_43","5","1","1","30140.80000001192","","","","","","","","","","","","","","","","","","","","",""
"","","","","","html-keyboard-response","91","795085","0.0-2.0-4.0-0.19","5bc3f805f70e2e000121f9b0","E1","batch5","spm_show_trial_num","null","<p class=block-text>Trial 44 out of 60</p>","null","","","","","","","","","","","","","","","","","","","","","","","","","",""
"","","","","","image-button-response","92","840504","0.0-2.0-4.0-1.19","5bc3f805f70e2e000121f9b0","E1","batch5","spm_respsonse","45413.60000002384","img/question_4_8.jpeg","4","mat_44","4","0","0","45413.60000002384","","","","","","","","","","","","","","","","","","","","",""
"","","","","","html-keyboard-response","93","841581","0.0-2.0-4.0-0.20","5bc3f805f70e2e000121f9b0","E1","batch5","spm_show_trial_num","null","<p class=block-text>Trial 45 out of 60</p>","null","","","","","","","","","","","","","","","","","","","","","","","","","",""
"","","","","","image-button-response","94","890653","0.0-2.0-4.0-1.20","5bc3f805f70e2e000121f9b0","E1","batch5","spm_respsonse","49066.40000000596","img/question_4_9.jpeg","0","mat_45","1","1","1","49066.40000000596","","","","","","","","","","","","","","","","","","","","",""
"","","","","","html-keyboard-response","95","891717","0.0-2.0-4.0-0.21","5bc3f805f70e2e000121f9b0","E1","batch5","spm_show_trial_num","null","<p class=block-text>Trial 46 out of 60</p>","null","","","","","","","","","","","","","","","","","","","","","","","","","",""
"","","","","","image-button-response","96","932406","0.0-2.0-4.0-1.21","5bc3f805f70e2e000121f9b0","E1","batch5","spm_respsonse","40682","img/question_4_10.jpeg","4","mat_46","2","0","0","40682","","","","","","","","","","","","","","","","","","","","",""
"","","","","","html-keyboard-response","97","933477","0.0-2.0-4.0-0.22","5bc3f805f70e2e000121f9b0","E1","batch5","spm_show_trial_num","null","<p class=block-text>Trial 47 out of 60</p>","null","","","","","","","","","","","","","","","","","","","","","","","","","",""
"","","","","","image-button-response","98","999421","0.0-2.0-4.0-1.22","5bc3f805f70e2e000121f9b0","E1","batch5","spm_respsonse","65938.90000000596","img/question_4_11.jpeg","6","mat_47","5","0","0","65938.90000000596","","","","","","","","","","","","","","","","","","","","",""
"","","","","","html-keyboard-response","99","1000501","0.0-2.0-4.0-0.23","5bc3f805f70e2e000121f9b0","E1","batch5","spm_show_trial_num","null","<p class=block-text>Trial 48 out of 60</p>","null","","","","","","","","","","","","","","","","","","","","","","","","","",""
"","","","","","image-button-response","100","1038505","0.0-2.0-4.0-1.23","5bc3f805f70e2e000121f9b0","E1","batch5","spm_respsonse","37998.40000000596","img/question_4_12.jpeg","6","mat_48","6","0","0","37998.40000000596","","","","","","","","","","","","","","","","","","","","",""
"","","","","","html-keyboard-response","101","1039573","0.0-2.0-4.0-0.24","5bc3f805f70e2e000121f9b0","E1","batch5","spm_show_trial_num","null","<p class=block-text>Trial 49 out of 60</p>","null","","","","","","","","","","","","","","","","","","","","","","","","","",""
"","","","","","image-button-response","102","1062387","0.0-2.0-4.0-1.24","5bc3f805f70e2e000121f9b0","E1","batch5","spm_respsonse","22808.20000001788","img/question_5_1.jpeg","2","mat_49","7","0","0","22808.20000001788","","","","","","","","","","","","","","","","","","","","",""
"","","","","","html-keyboard-response","103","1063446","0.0-2.0-4.0-0.25","5bc3f805f70e2e000121f9b0","E1","batch5","spm_show_trial_num","null","<p class=block-text>Trial 50 out of 60</p>","null","","","","","","","","","","","","","","","","","","","","","","","","","",""
"","","","","","image-button-response","104","1088252","0.0-2.0-4.0-1.25","5bc3f805f70e2e000121f9b0","E1","batch5","spm_respsonse","24800","img/question_5_2.jpeg","5","mat_50","6","1","1","24800","","","","","","","","","","","","","","","","","","","","",""
"","","","","","html-keyboard-response","105","1089326","0.0-2.0-4.0-0.26","5bc3f805f70e2e000121f9b0","E1","batch5","spm_show_trial_num","null","<p class=block-text>Trial 51 out of 60</p>","null","","","","","","","","","","","","","","","","","","","","","","","","","",""
"","","","","","image-button-response","106","1109954","0.0-2.0-4.0-1.26","5bc3f805f70e2e000121f9b0","E1","batch5","spm_respsonse","20622.59999999404","img/question_5_3.jpeg","7","mat_51","8","1","1","20622.59999999404","","","","","","","","","","","","","","","","","","","","",""
"","","","","","html-keyboard-response","107","1111026","0.0-2.0-4.0-0.27","5bc3f805f70e2e000121f9b0","E1","batch5","spm_show_trial_num","null","<p class=block-text>Trial 52 out of 60</p>","null","","","","","","","","","","","","","","","","","","","","","","","","","",""
"","","","","","image-button-response","108","1128460","0.0-2.0-4.0-1.27","5bc3f805f70e2e000121f9b0","E1","batch5","spm_respsonse","17430.90000000596","img/question_5_4.jpeg","1","mat_52","2","1","1","17430.90000000596","","","","","","","","","","","","","","","","","","","","",""
"","","","","","html-keyboard-response","109","1129532","0.0-2.0-4.0-0.28","5bc3f805f70e2e000121f9b0","E1","batch5","spm_show_trial_num","null","<p class=block-text>Trial 53 out of 60</p>","null","","","","","","","","","","","","","","","","","","","","","","","","","",""
"","","","","","image-button-response","110","1141129","0.0-2.0-4.0-1.28","5bc3f805f70e2e000121f9b0","E1","batch5","spm_respsonse","11592.200000017881","img/question_5_5.jpeg","0","mat_53","1","1","1","11592.200000017881","","","","","","","","","","","","","","","","","","","","",""
"","","","","","html-keyboard-response","111","1142191","0.0-2.0-4.0-0.29","5bc3f805f70e2e000121f9b0","E1","batch5","spm_show_trial_num","null","<p class=block-text>Trial 54 out of 60</p>","null","","","","","","","","","","","","","","","","","","","","","","","","","",""
"","","","","","image-button-response","112","1162483","0.0-2.0-4.0-1.29","5bc3f805f70e2e000121f9b0","E1","batch5","spm_respsonse","20285.59999999404","img/question_5_6.jpeg","3","mat_54","5","0","0","20285.59999999404","","","","","","","","","","","","","","","","","","","","",""
"","","","","","html-keyboard-response","113","1163556","0.0-2.0-4.0-0.30","5bc3f805f70e2e000121f9b0","E1","batch5","spm_show_trial_num","null","<p class=block-text>Trial 55 out of 60</p>","null","","","","","","","","","","","","","","","","","","","","","","","","","",""
"","","","","","image-button-response","114","1217321","0.0-2.0-4.0-1.30","5bc3f805f70e2e000121f9b0","E1","batch5","spm_respsonse","53759.70000001788","img/question_5_7.jpeg","0","mat_55","1","1","1","53759.70000001788","","","","","","","","","","","","","","","","","","","","",""
"","","","","","html-keyboard-response","115","1218389","0.0-2.0-4.0-0.31","5bc3f805f70e2e000121f9b0","E1","batch5","spm_show_trial_num","null","<p class=block-text>Trial 56 out of 60</p>","null","","","","","","","","","","","","","","","","","","","","","","","","","",""
"","","","","","image-button-response","116","1258408","0.0-2.0-4.0-1.31","5bc3f805f70e2e000121f9b0","E1","batch5","spm_respsonse","40014.59999999404","img/question_5_8.jpeg","1","mat_56","6","0","0","40014.59999999404","","","","","","","","","","","","","","","","","","","","",""
"","","","","","html-keyboard-response","117","1259480","0.0-2.0-4.0-0.32","5bc3f805f70e2e000121f9b0","E1","batch5","spm_show_trial_num","null","<p class=block-text>Trial 57 out of 60</p>","null","","","","","","","","","","","","","","","","","","","","","","","","","",""
"","","","","","image-button-response","118","1322164","0.0-2.0-4.0-1.32","5bc3f805f70e2e000121f9b0","E1","batch5","spm_respsonse","62679.30000001192","img/question_5_9.jpeg","6","mat_57","3","0","0","62679.30000001192","","","","","","","","","","","","","","","","","","","","",""
"","","","","","html-keyboard-response","119","1323225","0.0-2.0-4.0-0.33","5bc3f805f70e2e000121f9b0","E1","batch5","spm_show_trial_num","null","<p class=block-text>Trial 58 out of 60</p>","null","","","","","","","","","","","","","","","","","","","","","","","","","",""
"","","","","","image-button-response","120","1358656","0.0-2.0-4.0-1.33","5bc3f805f70e2e000121f9b0","E1","batch5","spm_respsonse","35425.69999998808","img/question_5_10.jpeg","0","mat_58","2","0","0","35425.69999998808","","","","","","","","","","","","","","","","","","","","",""
"","","","","","html-keyboard-response","121","1359719","0.0-2.0-4.0-0.34","5bc3f805f70e2e000121f9b0","E1","batch5","spm_show_trial_num","null","<p class=block-text>Trial 59 out of 60</p>","null","","","","","","","","","","","","","","","","","","","","","","","","","",""
"","","","","","image-button-response","122","1393364","0.0-2.0-4.0-1.34","5bc3f805f70e2e000121f9b0","E1","batch5","spm_respsonse","33639","img/question_5_11.jpeg","6","mat_59","4","0","0","33639","","","","","","","","","","","","","","","","","","","","",""
"","","","","","html-keyboard-response","123","1394434","0.0-2.0-4.0-0.35","5bc3f805f70e2e000121f9b0","E1","batch5","spm_show_trial_num","null","<p class=block-text>Trial 60 out of 60</p>","null","","","","","","","","","","","","","","","","","","","","","","","","","",""
"","","","","","image-button-response","124","1441048","0.0-2.0-4.0-1.35","5bc3f805f70e2e000121f9b0","E1","batch5","spm_respsonse","46607.69999998808","img/question_5_12.jpeg","4","mat_60","5","1","1","46607.69999998808","","","","","","","","","","","","","","","","","","","","",""
"","","","","","html-button-response","125","1459991","0.0-2.0-5.0","5bc3f805f70e2e000121f9b0","E1","batch5","spm_goodbye","18686","<p class= block-text>This concludes the Standard Progressive Matrix game. Thank you for your responses!<br> When you are ready, click the button continue</p>","0","","","","","","","","","","","","","","","","","","","","","","","","","",""
"true","","","","","fullscreen","126","1465781","0.0-3.0-0.0","5bc3f805f70e2e000121f9b0","E1","batch5","","","","","","","","","","","","","","","","","","","","","","","","","","","","","",""
"","","","","","instructions","127","1499105","0.0-3.0-1.0-0.0","5bc3f805f70e2e000121f9b0","E1","batch5","","33320.90000000596","","","","","","","","[{""page_index"":0,""viewing_time"":25392.70000001788},{""page_index"":1,""viewing_time"":7927.5}]","","","","","","","","","","","","","","","","","","","",""
"","","","","","html-button-response","128","1502345","0.0-3.0-1.0-1.0-0.0","5bc3f805f70e2e000121f9b0","E1","batch5","pattern_enter_quiz","3237.800000011921","<p class=block-text> Let's answer a few questions <br>","0","","","","","","","","","","","","","","","","","","","","","","","","","",""
"","","","","","html-button-response","129","1511773","0.0-3.0-1.0-1.0-1.0","5bc3f805f70e2e000121f9b0","E1","batch5","pattern_quiz","9425.699999988079","<p class = block-text>True or False: You will have as much time as you want to make each choice. <br></p>","0","","","false","","","","","","","","","","","","","","","","","","","","","","",""
"","","","","","html-button-response","130","1515197","0.0-3.0-1.0-1.0-2.0","5bc3f805f70e2e000121f9b0","E1","batch5","pattern_quiz_feedback","3417.5","<p class = block-text>Incorrect. Remember, You should make your choice as fast as you can.</p>","0","","","","","","","","","","","","","","","","","","","","","","","","","",""
"","","","","","html-button-response","131","1521894","0.0-3.0-1.0-1.0-3.0","5bc3f805f70e2e000121f9b0","E1","batch5","pattern_quiz","6695","<p class = block-text>True or False: You will look for 4 pieces in black or white color connected in a row either horizontally, vertically or diagonally. <br></p>","0","","","true","","","","","","","","","","","","","","","","","","","","","","",""
"","","","","","html-button-response","132","1523534","0.0-3.0-1.0-1.0-4.0","5bc3f805f70e2e000121f9b0","E1","batch5","pattern_quiz_feedback","1636.5","<p class = block-text>Correct! </p>","0","","","","","","","","","","","","","","","","","","","","","","","","","",""
"","","","","","html-button-response","133","1528267","0.0-3.0-1.0-2.0-0.0","5bc3f805f70e2e000121f9b0","E1","batch5","","4727.299999982119","<p class = block-text>You made too many incorrect choices.</p><p class = block-text>You will now repeat the instruction and quiz</p>","0","","","","","","","","","","","","","","","","","","","","","","","","","",""
"","","","","","instructions","134","1533192","0.0-3.0-1.1-0.1","5bc3f805f70e2e000121f9b0","E1","batch5","","4920","","","","","","","","[{""page_index"":0,""viewing_time"":2641.300000011921},{""page_index"":1,""viewing_time"":2278.0999999940395}]","","","","","","","","","","","","","","","","","","","",""
"","","","","","html-button-response","135","1535378","0.0-3.0-1.1-1.1-0.1","5bc3f805f70e2e000121f9b0","E1","batch5","pattern_enter_quiz","2183.300000011921","<p class=block-text> Let's answer a few questions <br>","0","","","","","","","","","","","","","","","","","","","","","","","","","",""
"","","","","","html-button-response","136","1538334","0.0-3.0-1.1-1.1-1.1","5bc3f805f70e2e000121f9b0","E1","batch5","pattern_quiz","2952.7000000178814","<p class = block-text>True or False: You will have as much time as you want to make each choice. <br></p>","1","","","true","","","","","","","","","","","","","","","","","","","","","","",""
"","","","","","html-button-response","137","1541425","0.0-3.0-1.1-1.1-2.1","5bc3f805f70e2e000121f9b0","E1","batch5","pattern_quiz_feedback","3089.5","<p class = block-text>Correct! You should make your choice <strong> as fast as you can</strong>.</p>","0","","","","","","","","","","","","","","","","","","","","","","","","","",""
"","","","","","html-button-response","138","1545136","0.0-3.0-1.1-1.1-3.1","5bc3f805f70e2e000121f9b0","E1","batch5","pattern_quiz","3709","<p class = block-text>True or False: You will look for 4 pieces in black or white color connected in a row either horizontally, vertically or diagonally. <br></p>","0","","","true","","","","","","","","","","","","","","","","","","","","","","",""
"","","","","","html-button-response","139","1546458","0.0-3.0-1.1-1.1-4.1","5bc3f805f70e2e000121f9b0","E1","batch5","pattern_quiz_feedback","1320","<p class = block-text>Correct! </p>","0","","","","","","","","","","","","","","","","","","","","","","","","","",""
"","","","","","html-button-response","140","1554447","0.0-3.0-2.0","5bc3f805f70e2e000121f9b0","E1","batch5","pattern_enter_practice","7987.300000011921","<p class=block-text> Now that you've understood the game, let's do a few practice trials before we start!<br> <br>","0","","","","","","","","","","","","","","","","","","","","","","","","","",""
"","","","","","image-keyboard-response","141","1559190","0.0-3.0-3.0-0.0","5bc3f805f70e2e000121f9b0","E1","batch5","pattern_practice","4737","stim/prac_no_18_1.png","j","","j","true","","","","","","","","","","","","","","","","","","","","","","",""
"","","","","","html-keyboard-response","142","1560220","0.0-3.0-3.0-1.0","5bc3f805f70e2e000121f9b0","E1","batch5","pattern_feedback","null","<p style=""font-size:30px;color:green;"">Correct!</p>","null","","","","","","","","","","","","","","","","","","","","","","","","","",""
"","","","","","image-keyboard-response","143","1561719","0.0-3.0-3.0-0.1","5bc3f805f70e2e000121f9b0","E1","batch5","pattern_practice","1496.0999999940395","stim/prac_yes_20_dia_b1.png","f","","f","true","","","","","","","","","","","","","","","","","","","","","","",""
"","","","","","html-keyboard-response","144","1562726","0.0-3.0-3.0-1.1","5bc3f805f70e2e000121f9b0","E1","batch5","pattern_feedback","null","<p style=""font-size:30px;color:green;"">Correct!</p>","null","","","","","","","","","","","","","","","","","","","","","","","","","",""
"","","","","","image-keyboard-response","145","1564840","0.0-3.0-3.0-0.2","5bc3f805f70e2e000121f9b0","E1","batch5","pattern_practice","2109.9000000059605","stim/prac_yes_18_hor_w1.png","j","","f","false","","","","","","","","","","","","","","","","","","","","","","",""
"","","","","","html-keyboard-response","146","1565867","0.0-3.0-3.0-1.2","5bc3f805f70e2e000121f9b0","E1","batch5","pattern_feedback","null","<p style=""font-size:30px;color:red;"">Wrong.</p>","null","","","","","","","","","","","","","","","","","","","","","","","","","",""
"","","","","","image-keyboard-response","147","1568332","0.0-3.0-3.0-0.3","5bc3f805f70e2e000121f9b0","E1","batch5","pattern_practice","2462.0999999940395","stim/prac_yes_16_ver_w1.png","f","","f","true","","","","","","","","","","","","","","","","","","","","","","",""
"","","","","","html-keyboard-response","148","1569358","0.0-3.0-3.0-1.3","5bc3f805f70e2e000121f9b0","E1","batch5","pattern_feedback","null","<p style=""font-size:30px;color:green;"">Correct!</p>","null","","","","","","","","","","","","","","","","","","","","","","","","","",""
"","","","","","image-keyboard-response","149","1571533","0.0-3.0-3.0-0.4","5bc3f805f70e2e000121f9b0","E1","batch5","pattern_practice","2170.5999999940395","stim/prac_no_16_1.png","j","","j","true","","","","","","","","","","","","","","","","","","","","","","",""
"","","","","","html-keyboard-response","150","1572550","0.0-3.0-3.0-1.4","5bc3f805f70e2e000121f9b0","E1","batch5","pattern_feedback","null","<p style=""font-size:30px;color:green;"">Correct!</p>","null","","","","","","","","","","","","","","","","","","","","","","","","","",""
"","","","","","html-button-response","151","1581902","0.0-3.0-4.0","5bc3f805f70e2e000121f9b0","E1","batch5","pattern_enter_official_trials","9349","<p class=block-text> Good job! You are done with practice trials!<br>
        You responded correctly on 80% of the trials.<br>
        Press the button below to start official trials. Now you won't see any feedback about your response</p>","0","","","","","","","","","","","","","","","","","","","","","","","","","",""
"","","","","","html-keyboard-response","152","1582719","0.0-3.0-5.0-0.0","5bc3f805f70e2e000121f9b0","E1","batch5","pattern_show_trial_num","null","<p class=block-text>Trial 1 out of 78</p>","null","","","","","","","","","","","","","","","","","","","","","","","","","",""
"","","","","","image-keyboard-response","153","1587142","0.0-3.0-5.0-1.0","5bc3f805f70e2e000121f9b0","E1","batch5","pattern_response","4417.399999976158","stim/yes_12_hor_w1_w.png","f","pattern_42","f","true","","","","4417.399999976158","true","1","","","","","","","","","","","","","","","","",""
"","","","","","html-keyboard-response","154","1588472","0.0-3.0-5.0-0.1","5bc3f805f70e2e000121f9b0","E1","batch5","pattern_show_trial_num","null","<p class=block-text>Trial 2 out of 78</p>","null","","","","","","","","","","","","","","","","","","","","","","","","","",""
"","","","","","image-keyboard-response","155","1591706","0.0-3.0-5.0-1.1","5bc3f805f70e2e000121f9b0","E1","batch5","pattern_response","3228.5","stim/yes_30_ver_b1_b.png","f","pattern_54","f","true","","","","3228.5","true","2","","","","","","","","","","","","","","","","",""
"","","","","","html-keyboard-response","156","1593035","0.0-3.0-5.0-0.2","5bc3f805f70e2e000121f9b0","E1","batch5","pattern_show_trial_num","null","<p class=block-text>Trial 3 out of 78</p>","null","","","","","","","","","","","","","","","","","","","","","","","","","",""
"","","","","","image-keyboard-response","157","1595202","0.0-3.0-5.0-1.2","5bc3f805f70e2e000121f9b0","E1","batch5","pattern_response","2163.2000000178814","stim/no_51_1.png","j","pattern_31","j","true","","","","2163.2000000178814","true","3","","","","","","","","","","","","","","","","",""
"","","","","","html-keyboard-response","158","1596519","0.0-3.0-5.0-0.3","5bc3f805f70e2e000121f9b0","E1","batch5","pattern_show_trial_num","null","<p class=block-text>Trial 4 out of 78</p>","null","","","","","","","","","","","","","","","","","","","","","","","","","",""
"","","","","","image-keyboard-response","159","1599234","0.0-3.0-5.0-1.3","5bc3f805f70e2e000121f9b0","E1","batch5","pattern_response","2711.300000011921","stim/no_33_1_b.png","j","pattern_15","j","true","","","","2711.300000011921","true","4","","","","","","","","","","","","","","","","",""
"","","","","","html-keyboard-response","160","1600551","0.0-3.0-5.0-0.4","5bc3f805f70e2e000121f9b0","E1","batch5","pattern_show_trial_num","null","<p class=block-text>Trial 5 out of 78</p>","null","","","","","","","","","","","","","","","","","","","","","","","","","",""
"","","","","","image-keyboard-response","161","1602752","0.0-3.0-5.0-1.4","5bc3f805f70e2e000121f9b0","E1","batch5","pattern_response","2197.0999999940395","stim/no_43_2_b.png","j","pattern_23","j","true","","","","2197.0999999940395","true","5","","","","","","","","","","","","","","","","",""
"","","","","","html-keyboard-response","162","1604057","0.0-3.0-5.0-0.5","5bc3f805f70e2e000121f9b0","E1","batch5","pattern_show_trial_num","null","<p class=block-text>Trial 6 out of 78</p>","null","","","","","","","","","","","","","","","","","","","","","","","","","",""
"","","","","","image-keyboard-response","163","1604900","0.0-3.0-5.0-1.5","5bc3f805f70e2e000121f9b0","E1","batch5","pattern_response","839.8000000119209","stim/yes_15_dia_b1u_b.png","f","pattern_44","f","true","","","","839.8000000119209","true","6","","","","","","","","","","","","","","","","",""
"","","","","","html-keyboard-response","164","1606213","0.0-3.0-5.0-0.6","5bc3f805f70e2e000121f9b0","E1","batch5","pattern_show_trial_num","null","<p class=block-text>Trial 7 out of 78</p>","null","","","","","","","","","","","","","","","","","","","","","","","","","",""
"","","","","","image-keyboard-response","165","1608623","0.0-3.0-5.0-1.6","5bc3f805f70e2e000121f9b0","E1","batch5","pattern_response","2407.2999999821186","stim/yes_51_dia_b1.png","f","pattern_72","f","true","","","","2407.2999999821186","true","7","","","","","","","","","","","","","","","","",""
"","","","","","html-keyboard-response","166","1609940","0.0-3.0-5.0-0.7","5bc3f805f70e2e000121f9b0","E1","batch5","pattern_show_trial_num","null","<p class=block-text>Trial 8 out of 78</p>","null","","","","","","","","","","","","","","","","","","","","","","","","","",""
"","","","","","image-keyboard-response","167","1613224","0.0-3.0-5.0-1.7","5bc3f805f70e2e000121f9b0","E1","batch5","pattern_response","3281.4000000059605","stim/no_49_2_b.png","j","pattern_29","j","true","","","","3281.4000000059605","true","8","","","","","","","","","","","","","","","","",""
"","","","","","html-keyboard-response","168","1614550","0.0-3.0-5.0-0.8","5bc3f805f70e2e000121f9b0","E1","batch5","pattern_show_trial_num","null","<p class=block-text>Trial 9 out of 78</p>","null","","","","","","","","","","","","","","","","","","","","","","","","","",""
"","","","","","image-keyboard-response","169","1616019","0.0-3.0-5.0-1.8","5bc3f805f70e2e000121f9b0","E1","batch5","pattern_response","1464.9000000059605","stim/yes_33_dia_w1_w.png","j","pattern_56","f","false","","","","1464.9000000059605","false","8","","","","","","","","","","","","","","","","",""
"","","","","","html-keyboard-response","170","1617348","0.0-3.0-5.0-0.9","5bc3f805f70e2e000121f9b0","E1","batch5","pattern_show_trial_num","null","<p class=block-text>Trial 10 out of 78</p>","null","","","","","","","","","","","","","","","","","","","","","","","","","",""
"","","","","","image-keyboard-response","171","1619488","0.0-3.0-5.0-1.9","5bc3f805f70e2e000121f9b0","E1","batch5","pattern_response","2136.9000000059605","stim/no_22_1_b.png","j","pattern_07","j","true","","","","2136.9000000059605","true","9","","","","","","","","","","","","","","","","",""
"","","","","","html-keyboard-response","172","1620803","0.0-3.0-5.0-0.10","5bc3f805f70e2e000121f9b0","E1","batch5","pattern_show_trial_num","null","<p class=block-text>Trial 11 out of 78</p>","null","","","","","","","","","","","","","","","","","","","","","","","","","",""
"","","","","","image-keyboard-response","173","1622404","0.0-3.0-5.0-1.10","5bc3f805f70e2e000121f9b0","E1","batch5","pattern_response","1596.6000000238419","stim/no_18_1_b.png","j","pattern_05","j","true","","","","1596.6000000238419","true","10","","","","","","","","","","","","","","","","",""
"","","","","","html-keyboard-response","174","1623725","0.0-3.0-5.0-0.11","5bc3f805f70e2e000121f9b0","E1","batch5","pattern_show_trial_num","null","<p class=block-text>Trial 12 out of 78</p>","null","","","","","","","","","","","","","","","","","","","","","","","","","",""
"","","","","","image-keyboard-response","175","1625283","0.0-3.0-5.0-1.11","5bc3f805f70e2e000121f9b0","E1","batch5","pattern_response","1554.5","stim/yes_49_hor_w1_b.png","f","pattern_70","f","true","","","","1554.5","true","11","","","","","","","","","","","","","","","","",""
"","","","","","html-keyboard-response","176","1626601","0.0-3.0-5.0-0.12","5bc3f805f70e2e000121f9b0","E1","batch5","pattern_show_trial_num","null","<p class=block-text>Trial 13 out of 78</p>","null","","","","","","","","","","","","","","","","","","","","","","","","","",""
"","","","","","image-keyboard-response","177","1627912","0.0-3.0-5.0-1.12","5bc3f805f70e2e000121f9b0","E1","batch5","pattern_response","1307.8999999761581","stim/no_12_1.png","j","pattern_01","j","true","","","","1307.8999999761581","true","12","","","","","","","","","","","","","","","","",""
"","","","","","html-keyboard-response","178","1629236","0.0-3.0-5.0-0.13","5bc3f805f70e2e000121f9b0","E1","batch5","pattern_show_trial_num","null","<p class=block-text>Trial 14 out of 78</p>","null","","","","","","","","","","","","","","","","","","","","","","","","","",""
"","","","","","image-keyboard-response","179","1632852","0.0-3.0-5.0-1.13","5bc3f805f70e2e000121f9b0","E1","batch5","pattern_response","3613.199999988079","stim/no_53_1_b.png","j","pattern_33","j","true","","","","3613.199999988079","true","13","","","","","","","","","","","","","","","","",""
"","","","","","html-keyboard-response","180","1634175","0.0-3.0-5.0-0.14","5bc3f805f70e2e000121f9b0","E1","batch5","pattern_show_trial_num","null","<p class=block-text>Trial 15 out of 78</p>","null","","","","","","","","","","","","","","","","","","","","","","","","","",""
"","","","","","image-keyboard-response","181","1635278","0.0-3.0-5.0-1.14","5bc3f805f70e2e000121f9b0","E1","batch5","pattern_response","1100.0999999940395","stim/no_15_1_w.png","j","pattern_03","j","true","","","","1100.0999999940395","true","14","","","","","","","","","","","","","","","","",""
"","","","","","html-keyboard-response","182","1636598","0.0-3.0-5.0-0.15","5bc3f805f70e2e000121f9b0","E1","batch5","pattern_show_trial_num","null","<p class=block-text>Trial 16 out of 78</p>","null","","","","","","","","","","","","","","","","","","","","","","","","","",""
"","","","","","image-keyboard-response","183","1639950","0.0-3.0-5.0-1.15","5bc3f805f70e2e000121f9b0","E1","batch5","pattern_response","3349.4000000059605","stim/no_47_1_b.png","j","pattern_27","j","true","","","","3349.4000000059605","true","15","","","","","","","","","","","","","","","","",""
"","","","","","html-keyboard-response","184","1641269","0.0-3.0-5.0-0.16","5bc3f805f70e2e000121f9b0","E1","batch5","pattern_show_trial_num","null","<p class=block-text>Trial 17 out of 78</p>","null","","","","","","","","","","","","","","","","","","","","","","","","","",""
"","","","","","image-keyboard-response","185","1642819","0.0-3.0-5.0-1.16","5bc3f805f70e2e000121f9b0","E1","batch5","pattern_response","1547","stim/yes_26_dia_w2_w.png","f","pattern_50","f","true","","","","1547","true","16","","","","","","","","","","","","","","","","",""
"","","","","","html-keyboard-response","186","1644139","0.0-3.0-5.0-0.17","5bc3f805f70e2e000121f9b0","E1","batch5","pattern_show_trial_num","null","<p class=block-text>Trial 18 out of 78</p>","null","","","","","","","","","","","","","","","","","","","","","","","","","",""
"","","","","","image-keyboard-response","187","1647926","0.0-3.0-5.0-1.17","5bc3f805f70e2e000121f9b0","E1","batch5","pattern_response","3783.5","stim/no_45_1_w.png","j","pattern_25","j","true","","","","3783.5","true","17","","","","","","","","","","","","","","","","",""
"","","","","","html-keyboard-response","188","1649242","0.0-3.0-5.0-0.18","5bc3f805f70e2e000121f9b0","E1","batch5","pattern_show_trial_num","null","<p class=block-text>Trial 19 out of 78</p>","null","","","","","","","","","","","","","","","","","","","","","","","","","",""
"","","","","","image-keyboard-response","189","1652258","0.0-3.0-5.0-1.18","5bc3f805f70e2e000121f9b0","E1","batch5","pattern_response","3009.800000011921","stim/no_37_2_w.png","j","pattern_19","j","true","","","","3009.800000011921","true","18","","","","","","","","","","","","","","","","",""
"","","","","","html-keyboard-response","190","1653582","0.0-3.0-5.0-0.19","5bc3f805f70e2e000121f9b0","E1","batch5","pattern_show_trial_num","null","<p class=block-text>Trial 20 out of 78</p>","null","","","","","","","","","","","","","","","","","","","","","","","","","",""
"","","","","","image-keyboard-response","191","1654623","0.0-3.0-5.0-1.19","5bc3f805f70e2e000121f9b0","E1","batch5","pattern_response","1036.4000000059605","stim/yes_70_ver_b1.png","f","pattern_80","f","true","","","","1036.4000000059605","true","19","","","","","","","","","","","","","","","","",""
"","","","","","html-keyboard-response","192","1655938","0.0-3.0-5.0-0.20","5bc3f805f70e2e000121f9b0","E1","batch5","pattern_show_trial_num","null","<p class=block-text>Trial 21 out of 78</p>","null","","","","","","","","","","","","","","","","","","","","","","","","","",""
"","","","","","image-keyboard-response","193","1656910","0.0-3.0-5.0-1.20","5bc3f805f70e2e000121f9b0","E1","batch5","pattern_response","969.0999999940395","stim/yes_44_ver_w1_w.png","f","pattern_66","f","true","","","","969.0999999940395","true","20","","","","","","","","","","","","","","","","",""
"","","","","","html-keyboard-response","194","1658236","0.0-3.0-5.0-0.21","5bc3f805f70e2e000121f9b0","E1","batch5","pattern_show_trial_num","null","<p class=block-text>Trial 22 out of 78</p>","null","","","","","","","","","","","","","","","","","","","","","","","","","",""
"","","","","","image-keyboard-response","195","1661081","0.0-3.0-5.0-1.21","5bc3f805f70e2e000121f9b0","E1","batch5","pattern_response","2841.0999999940395","stim/yes_63_dia_b1.png","f","pattern_78","f","true","","","","2841.0999999940395","true","21","","","","","","","","","","","","","","","","",""
"","","","","","html-keyboard-response","196","1662405","0.0-3.0-5.0-0.22","5bc3f805f70e2e000121f9b0","E1","batch5","pattern_show_trial_num","null","<p class=block-text>Trial 23 out of 78</p>","null","","","","","","","","","","","","","","","","","","","","","","","","","",""
"","","","","","image-keyboard-response","197","1665042","0.0-3.0-5.0-1.22","5bc3f805f70e2e000121f9b0","E1","batch5","pattern_response","2632.800000011921","stim/no_39_1_w.png","j","pattern_21","j","true","","","","2632.800000011921","true","22","","","","","","","","","","","","","","","","",""
"","","","","","html-keyboard-response","198","1666359","0.0-3.0-5.0-0.23","5bc3f805f70e2e000121f9b0","E1","batch5","pattern_show_trial_num","null","<p class=block-text>Trial 24 out of 78</p>","null","","","","","","","","","","","","","","","","","","","","","","","","","",""
"","","","","","image-keyboard-response","199","1667760","0.0-3.0-5.0-1.23","5bc3f805f70e2e000121f9b0","E1","batch5","pattern_response","1397.300000011921","stim/yes_17_ver_b1_b.png","f","pattern_46","f","true","","","","1397.300000011921","true","23","","","","","","","","","","","","","","","","",""
"","","","","","html-keyboard-response","200","1669083","0.0-3.0-5.0-0.24","5bc3f805f70e2e000121f9b0","E1","batch5","pattern_show_trial_num","null","<p class=block-text>Trial 25 out of 78</p>","null","","","","","","","","","","","","","","","","","","","","","","","","","",""
"","","","","","image-keyboard-response","201","1672653","0.0-3.0-5.0-1.24","5bc3f805f70e2e000121f9b0","E1","batch5","pattern_response","3567.7000000178814","stim/no_58_1_w.png","j","pattern_35","j","true","","","","3567.7000000178814","true","24","","","","","","","","","","","","","","","","",""
"","","","","","html-keyboard-response","202","1673977","0.0-3.0-5.0-0.25","5bc3f805f70e2e000121f9b0","E1","batch5","pattern_show_trial_num","null","<p class=block-text>Trial 26 out of 78</p>","null","","","","","","","","","","","","","","","","","","","","","","","","","",""
"","","","","","image-keyboard-response","203","1676658","0.0-3.0-5.0-1.25","5bc3f805f70e2e000121f9b0","E1","batch5","pattern_response","2676.300000011921","stim/no_36_1_b.png","j","pattern_17","j","true","","","","2676.300000011921","true","25","","","","","","","","","","","","","","","","",""
"","","","","","html-keyboard-response","204","1677988","0.0-3.0-5.0-0.26","5bc3f805f70e2e000121f9b0","E1","batch5","pattern_show_trial_num","null","<p class=block-text>Trial 27 out of 78</p>","null","","","","","","","","","","","","","","","","","","","","","","","","","",""
"","","","","","image-keyboard-response","205","1679265","0.0-3.0-5.0-1.26","5bc3f805f70e2e000121f9b0","E1","batch5","pattern_response","1272.7000000178814","stim/yes_39_hor_w1_w.png","f","pattern_62","f","true","","","","1272.7000000178814","true","26","","","","","","","","","","","","","","","","",""
"","","","","","html-keyboard-response","206","1680581","0.0-3.0-5.0-0.27","5bc3f805f70e2e000121f9b0","E1","batch5","pattern_show_trial_num","null","<p class=block-text>Trial 28 out of 78</p>","null","","","","","","","","","","","","","","","","","","","","","","","","","",""
"","","","","","image-keyboard-response","207","1682184","0.0-3.0-5.0-1.27","5bc3f805f70e2e000121f9b0","E1","batch5","pattern_response","1598.7000000178814","stim/no_25_1_b.png","j","pattern_09","j","true","","","","1598.7000000178814","true","27","","","","","","","","","","","","","","","","",""
"","","","","","html-keyboard-response","208","1683505","0.0-3.0-5.0-0.28","5bc3f805f70e2e000121f9b0","E1","batch5","pattern_show_trial_num","null","<p class=block-text>Trial 29 out of 78</p>","null","","","","","","","","","","","","","","","","","","","","","","","","","",""
"","","","","","image-keyboard-response","209","1686946","0.0-3.0-5.0-1.28","5bc3f805f70e2e000121f9b0","E1","batch5","pattern_response","3438.7999999821186","stim/no_67_1.png","j","pattern_39","j","true","","","","3438.7999999821186","true","28","","","","","","","","","","","","","","","","",""
"","","","","","html-keyboard-response","210","1688253","0.0-3.0-5.0-0.29","5bc3f805f70e2e000121f9b0","E1","batch5","pattern_show_trial_num","null","<p class=block-text>Trial 30 out of 78</p>","null","","","","","","","","","","","","","","","","","","","","","","","","","",""
"","","","","","image-keyboard-response","211","1691284","0.0-3.0-5.0-1.29","5bc3f805f70e2e000121f9b0","E1","batch5","pattern_response","3025.5999999940395","stim/yes_37_hor_w1_w.png","f","pattern_60","f","true","","","","3025.5999999940395","true","29","","","","","","","","","","","","","","","","",""
"","","","","","html-keyboard-response","212","1692597","0.0-3.0-5.0-0.30","5bc3f805f70e2e000121f9b0","E1","batch5","pattern_show_trial_num","null","<p class=block-text>Trial 31 out of 78</p>","null","","","","","","","","","","","","","","","","","","","","","","","","","",""
"","","","","","image-keyboard-response","213","1694880","0.0-3.0-5.0-1.30","5bc3f805f70e2e000121f9b0","E1","batch5","pattern_response","2278.9000000059605","stim/no_28_2.png","j","pattern_11","j","true","","","","2278.9000000059605","true","30","","","","","","","","","","","","","","","","",""
"","","","","","html-keyboard-response","214","1696195","0.0-3.0-5.0-0.31","5bc3f805f70e2e000121f9b0","E1","batch5","pattern_show_trial_num","null","<p class=block-text>Trial 32 out of 78</p>","null","","","","","","","","","","","","","","","","","","","","","","","","","",""
"","","","","","image-keyboard-response","215","1701260","0.0-3.0-5.0-1.31","5bc3f805f70e2e000121f9b0","E1","batch5","pattern_response","5062.200000017881","stim/yes_58_dia_w1_w.png","j","pattern_76","f","false","","","","5062.200000017881","false","30","","","","","","","","","","","","","","","","",""
"","","","","","html-keyboard-response","216","1702573","0.0-3.0-5.0-0.32","5bc3f805f70e2e000121f9b0","E1","batch5","pattern_show_trial_num","null","<p class=block-text>Trial 33 out of 78</p>","null","","","","","","","","","","","","","","","","","","","","","","","","","",""
"","","","","","image-keyboard-response","217","1704163","0.0-3.0-5.0-1.32","5bc3f805f70e2e000121f9b0","E1","batch5","pattern_response","1584.4000000059605","stim/yes_53_ver_b1_b.png","f","pattern_74","f","true","","","","1584.4000000059605","true","31","","","","","","","","","","","","","","","","",""
"","","","","","html-keyboard-response","218","1705476","0.0-3.0-5.0-0.33","5bc3f805f70e2e000121f9b0","E1","batch5","pattern_show_trial_num","null","<p class=block-text>Trial 34 out of 78</p>","null","","","","","","","","","","","","","","","","","","","","","","","","","",""
"","","","","","image-keyboard-response","219","1709052","0.0-3.0-5.0-1.33","5bc3f805f70e2e000121f9b0","E1","batch5","pattern_response","3573.100000023842","stim/no_30_1_b.png","j","pattern_13","j","true","","","","3573.100000023842","true","32","","","","","","","","","","","","","","","","",""
"","","","","","html-keyboard-response","220","1710360","0.0-3.0-5.0-0.34","5bc3f805f70e2e000121f9b0","E1","batch5","pattern_show_trial_num","null","<p class=block-text>Trial 35 out of 78</p>","null","","","","","","","","","","","","","","","","","","","","","","","","","",""
"","","","","","image-keyboard-response","221","1712881","0.0-3.0-5.0-1.34","5bc3f805f70e2e000121f9b0","E1","batch5","pattern_response","2517.199999988079","stim/yes_42_dia_w1_w.png","f","pattern_64","f","true","","","","2517.199999988079","true","33","","","","","","","","","","","","","","","","",""
"","","","","","html-keyboard-response","222","1714200","0.0-3.0-5.0-0.35","5bc3f805f70e2e000121f9b0","E1","batch5","pattern_show_trial_num","null","<p class=block-text>Trial 36 out of 78</p>","null","","","","","","","","","","","","","","","","","","","","","","","","","",""
"","","","","","image-keyboard-response","223","1715300","0.0-3.0-5.0-1.35","5bc3f805f70e2e000121f9b0","E1","batch5","pattern_response","1095.800000011921","stim/yes_36_ver_w1_w.png","f","pattern_58","f","true","","","","1095.800000011921","true","34","","","","","","","","","","","","","","","","",""
"","","","","","html-keyboard-response","224","1716618","0.0-3.0-5.0-0.36","5bc3f805f70e2e000121f9b0","E1","batch5","pattern_show_trial_num","null","<p class=block-text>Trial 37 out of 78</p>","null","","","","","","","","","","","","","","","","","","","","","","","","","",""
"","","","","","image-keyboard-response","225","1717819","0.0-3.0-5.0-1.36","5bc3f805f70e2e000121f9b0","E1","batch5","pattern_response","1196.3999999761581","stim/yes_46_ver_b1_b.png","f","pattern_68","f","true","","","","1196.3999999761581","true","35","","","","","","","","","","","","","","","","",""
"","","","","","html-keyboard-response","226","1719137","0.0-3.0-5.0-0.37","5bc3f805f70e2e000121f9b0","E1","batch5","pattern_show_trial_num","null","<p class=block-text>Trial 38 out of 78</p>","null","","","","","","","","","","","","","","","","","","","","","","","","","",""
"","","","","","image-keyboard-response","227","1720233","0.0-3.0-5.0-1.37","5bc3f805f70e2e000121f9b0","E1","batch5","pattern_response","1093.5","stim/yes_23_ver_b1.png","f","pattern_48","f","true","","","","1093.5","true","36","","","","","","","","","","","","","","","","",""
"","","","","","html-keyboard-response","228","1721564","0.0-3.0-5.0-0.38","5bc3f805f70e2e000121f9b0","E1","batch5","pattern_show_trial_num","null","<p class=block-text>Trial 39 out of 78</p>","null","","","","","","","","","","","","","","","","","","","","","","","","","",""
"","","","","","image-keyboard-response","229","1722819","0.0-3.0-5.0-1.38","5bc3f805f70e2e000121f9b0","E1","batch5","pattern_response","1252.0999999940395","stim/yes_29_hor_b1_b.png","f","pattern_52","f","true","","","","1252.0999999940395","true","37","","","","","","","","","","","","","","","","",""
"","","","","","image-keyboard-response","230","1727210","0.0-3.0-6.0","5bc3f805f70e2e000121f9b0","E1","batch5","attention_check","3874.800000011921","stim/empty_board.png","j","","j","true","","","","","","","500","[""f"",""j""]","","","","","","","","","","","","","","",""
"","","","","","html-keyboard-response","231","1728015","0.0-3.0-7.0-0.0","5bc3f805f70e2e000121f9b0","E1","batch5","pattern_show_trial_num","null","<p class=block-text>Trial 40 out of 78</p>","null","","","","","","","","","","","","","","","","","","","","","","","","","",""
"","","","","","image-keyboard-response","232","1729849","0.0-3.0-7.0-1.0","5bc3f805f70e2e000121f9b0","E1","batch5","pattern_response","1827.300000011921","stim/yes_22_ver_w1.png","f","pattern_47","f","true","","","","1827.300000011921","true","38","","","","","","","","","","","","","","","","",""
"","","","","","html-keyboard-response","233","1731157","0.0-3.0-7.0-0.1","5bc3f805f70e2e000121f9b0","E1","batch5","pattern_show_trial_num","null","<p class=block-text>Trial 41 out of 78</p>","null","","","","","","","","","","","","","","","","","","","","","","","","","",""
"","","","","","image-keyboard-response","234","1733845","0.0-3.0-7.0-1.1","5bc3f805f70e2e000121f9b0","E1","batch5","pattern_response","2684.5999999940395","stim/no_29_1_b.png","j","pattern_12","j","true","","","","2684.5999999940395","true","39","","","","","","","","","","","","","","","","",""
"","","","","","html-keyboard-response","235","1735152","0.0-3.0-7.0-0.2","5bc3f805f70e2e000121f9b0","E1","batch5","pattern_show_trial_num","null","<p class=block-text>Trial 42 out of 78</p>","null","","","","","","","","","","","","","","","","","","","","","","","","","",""
"","","","","","image-keyboard-response","236","1740332","0.0-3.0-7.0-1.2","5bc3f805f70e2e000121f9b0","E1","batch5","pattern_response","5176.5","stim/no_55_1_w.png","j","pattern_34","j","true","","","","5176.5","true","40","","","","","","","","","","","","","","","","",""
"","","","","","html-keyboard-response","237","1741641","0.0-3.0-7.0-0.3","5bc3f805f70e2e000121f9b0","E1","batch5","pattern_show_trial_num","null","<p class=block-text>Trial 43 out of 78</p>","null","","","","","","","","","","","","","","","","","","","","","","","","","",""
"","","","","","image-keyboard-response","238","1744184","0.0-3.0-7.0-1.3","5bc3f805f70e2e000121f9b0","E1","batch5","pattern_response","2537.2000000178814","stim/yes_67_hor_b1.png","f","pattern_79","f","true","","","","2537.2000000178814","true","41","","","","","","","","","","","","","","","","",""
"","","","","","html-keyboard-response","239","1745505","0.0-3.0-7.0-0.4","5bc3f805f70e2e000121f9b0","E1","batch5","pattern_show_trial_num","null","<p class=block-text>Trial 44 out of 78</p>","null","","","","","","","","","","","","","","","","","","","","","","","","","",""
"","","","","","image-keyboard-response","240","1746347","0.0-3.0-7.0-1.4","5bc3f805f70e2e000121f9b0","E1","batch5","pattern_response","837.5999999940395","stim/yes_28_ver_b1.png","f","pattern_51","f","true","","","","837.5999999940395","true","42","","","","","","","","","","","","","","","","",""
"","","","","","html-keyboard-response","241","1747672","0.0-3.0-7.0-0.5","5bc3f805f70e2e000121f9b0","E1","batch5","pattern_show_trial_num","null","<p class=block-text>Trial 45 out of 78</p>","null","","","","","","","","","","","","","","","","","","","","","","","","","",""
"","","","","","image-keyboard-response","242","1751431","0.0-3.0-7.0-1.5","5bc3f805f70e2e000121f9b0","E1","batch5","pattern_response","3757.199999988079","stim/no_62_1_w.png","j","pattern_36","j","true","","","","3757.199999988079","true","43","","","","","","","","","","","","","","","","",""
"","","","","","html-keyboard-response","243","1752745","0.0-3.0-7.0-0.6","5bc3f805f70e2e000121f9b0","E1","batch5","pattern_show_trial_num","null","<p class=block-text>Trial 46 out of 78</p>","null","","","","","","","","","","","","","","","","","","","","","","","","","",""
"","","","","","image-keyboard-response","244","1756816","0.0-3.0-7.0-1.6","5bc3f805f70e2e000121f9b0","E1","batch5","pattern_response","4066.699999988079","stim/yes_50_dia_w1.png","j","pattern_71","f","false","","","","4066.699999988079","false","43","","","","","","","","","","","","","","","","",""
"","","","","","html-keyboard-response","245","1758144","0.0-3.0-7.0-0.7","5bc3f805f70e2e000121f9b0","E1","batch5","pattern_show_trial_num","null","<p class=block-text>Trial 47 out of 78</p>","null","","","","","","","","","","","","","","","","","","","","","","","","","",""
"","","","","","image-keyboard-response","246","1761187","0.0-3.0-7.0-1.7","5bc3f805f70e2e000121f9b0","E1","batch5","pattern_response","3038.4000000059605","stim/no_38_1_b.png","j","pattern_20","j","true","","","","3038.4000000059605","true","44","","","","","","","","","","","","","","","","",""
"","","","","","html-keyboard-response","247","1762505","0.0-3.0-7.0-0.8","5bc3f805f70e2e000121f9b0","E1","batch5","pattern_show_trial_num","null","<p class=block-text>Trial 48 out of 78</p>","null","","","","","","","","","","","","","","","","","","","","","","","","","",""
"","","","","","image-keyboard-response","248","1764545","0.0-3.0-7.0-1.8","5bc3f805f70e2e000121f9b0","E1","batch5","pattern_response","2035.7000000178814","stim/no_23_1.png","j","pattern_08","j","true","","","","2035.7000000178814","true","45","","","","","","","","","","","","","","","","",""
"","","","","","html-keyboard-response","249","1765855","0.0-3.0-7.0-0.9","5bc3f805f70e2e000121f9b0","E1","batch5","pattern_show_trial_num","null","<p class=block-text>Trial 49 out of 78</p>","null","","","","","","","","","","","","","","","","","","","","","","","","","",""
"","","","","","image-keyboard-response","250","1767197","0.0-3.0-7.0-1.9","5bc3f805f70e2e000121f9b0","E1","batch5","pattern_response","1339.5999999940395","stim/no_17_1_w.png","j","pattern_04","j","true","","","","1339.5999999940395","true","46","","","","","","","","","","","","","","","","",""
"","","","","","html-keyboard-response","251","1768505","0.0-3.0-7.0-0.10","5bc3f805f70e2e000121f9b0","E1","batch5","pattern_show_trial_num","null","<p class=block-text>Trial 50 out of 78</p>","null","","","","","","","","","","","","","","","","","","","","","","","","","",""
"","","","","","image-keyboard-response","252","1769489","0.0-3.0-7.0-1.10","5bc3f805f70e2e000121f9b0","E1","batch5","pattern_response","981.3000000119209","stim/yes_38_hor_b1_b.png","f","pattern_61","f","true","","","","981.3000000119209","true","47","","","","","","","","","","","","","","","","",""
"","","","","","html-keyboard-response","253","1770795","0.0-3.0-7.0-0.11","5bc3f805f70e2e000121f9b0","E1","batch5","pattern_show_trial_num","null","<p class=block-text>Trial 51 out of 78</p>","null","","","","","","","","","","","","","","","","","","","","","","","","","",""
"","","","","","image-keyboard-response","254","1772929","0.0-3.0-7.0-1.11","5bc3f805f70e2e000121f9b0","E1","batch5","pattern_response","2130.0999999940395","stim/no_26_1_w.png","j","pattern_10","j","true","","","","2130.0999999940395","true","48","","","","","","","","","","","","","","","","",""
"","","","","","html-keyboard-response","255","1774249","0.0-3.0-7.0-0.12","5bc3f805f70e2e000121f9b0","E1","batch5","pattern_show_trial_num","null","<p class=block-text>Trial 52 out of 78</p>","null","","","","","","","","","","","","","","","","","","","","","","","","","",""
"","","","","","image-keyboard-response","256","1778321","0.0-3.0-7.0-1.12","5bc3f805f70e2e000121f9b0","E1","batch5","pattern_response","4068.899999976158","stim/yes_48_dia_w1_w.png","j","pattern_69","f","false","","","","4068.899999976158","false","48","","","","","","","","","","","","","","","","",""
"","","","","","html-keyboard-response","257","1779641","0.0-3.0-7.0-0.13","5bc3f805f70e2e000121f9b0","E1","batch5","pattern_show_trial_num","null","<p class=block-text>Trial 53 out of 78</p>","null","","","","","","","","","","","","","","","","","","","","","","","","","",""
"","","","","","image-keyboard-response","258","1783493","0.0-3.0-7.0-1.13","5bc3f805f70e2e000121f9b0","E1","batch5","pattern_response","3847.300000011921","stim/no_52_1.png","j","pattern_32","j","true","","","","3847.300000011921","true","49","","","","","","","","","","","","","","","","",""
"","","","","","html-keyboard-response","259","1784817","0.0-3.0-7.0-0.14","5bc3f805f70e2e000121f9b0","E1","batch5","pattern_show_trial_num","null","<p class=block-text>Trial 54 out of 78</p>","null","","","","","","","","","","","","","","","","","","","","","","","","","",""
"","","","","","image-keyboard-response","260","1788696","0.0-3.0-7.0-1.14","5bc3f805f70e2e000121f9b0","E1","batch5","pattern_response","3873.5999999940395","stim/no_42_1_w.png","j","pattern_22","j","true","","","","3873.5999999940395","true","50","","","","","","","","","","","","","","","","",""
"","","","","","html-keyboard-response","261","1790019","0.0-3.0-7.0-0.15","5bc3f805f70e2e000121f9b0","E1","batch5","pattern_show_trial_num","null","<p class=block-text>Trial 55 out of 78</p>","null","","","","","","","","","","","","","","","","","","","","","","","","","",""
"","","","","","image-keyboard-response","262","1791379","0.0-3.0-7.0-1.15","5bc3f805f70e2e000121f9b0","E1","batch5","pattern_response","1355.800000011921","stim/no_36_2_w.png","f","pattern_18","j","false","","","","1355.800000011921","false","50","","","","","","","","","","","","","","","","",""
"","","","","","html-keyboard-response","263","1792698","0.0-3.0-7.0-0.16","5bc3f805f70e2e000121f9b0","E1","batch5","pattern_show_trial_num","null","<p class=block-text>Trial 56 out of 78</p>","null","","","","","","","","","","","","","","","","","","","","","","","","","",""
"","","","","","image-keyboard-response","264","1795511","0.0-3.0-7.0-1.16","5bc3f805f70e2e000121f9b0","E1","batch5","pattern_response","2809.699999988079","stim/no_46_1_b.png","j","pattern_26","j","true","","","","2809.699999988079","true","51","","","","","","","","","","","","","","","","",""
"","","","","","html-keyboard-response","265","1796824","0.0-3.0-7.0-0.17","5bc3f805f70e2e000121f9b0","E1","batch5","pattern_show_trial_num","null","<p class=block-text>Trial 57 out of 78</p>","null","","","","","","","","","","","","","","","","","","","","","","","","","",""
"","","","","","image-keyboard-response","266","1800197","0.0-3.0-7.0-1.17","5bc3f805f70e2e000121f9b0","E1","batch5","pattern_response","3369.0999999940395","stim/no_50_1.png","j","pattern_30","j","true","","","","3369.0999999940395","true","52","","","","","","","","","","","","","","","","",""
"","","","","","html-keyboard-response","267","1801515","0.0-3.0-7.0-0.18","5bc3f805f70e2e000121f9b0","E1","batch5","pattern_show_trial_num","null","<p class=block-text>Trial 58 out of 78</p>","null","","","","","","","","","","","","","","","","","","","","","","","","","",""
"","","","","","image-keyboard-response","268","1803165","0.0-3.0-7.0-1.18","5bc3f805f70e2e000121f9b0","E1","batch5","pattern_response","1648.0999999940395","stim/yes_31_hor_b1.png","f","pattern_55","f","true","","","","1648.0999999940395","true","53","","","","","","","","","","","","","","","","",""
"","","","","","html-keyboard-response","269","1804489","0.0-3.0-7.0-0.19","5bc3f805f70e2e000121f9b0","E1","batch5","pattern_show_trial_num","null","<p class=block-text>Trial 59 out of 78</p>","null","","","","","","","","","","","","","","","","","","","","","","","","","",""
"","","","","","image-keyboard-response","270","1807165","0.0-3.0-7.0-1.19","5bc3f805f70e2e000121f9b0","E1","batch5","pattern_response","2673.199999988079","stim/no_48_1_w.png","j","pattern_28","j","true","","","","2673.199999988079","true","54","","","","","","","","","","","","","","","","",""
"","","","","","html-keyboard-response","271","1808475","0.0-3.0-7.0-0.20","5bc3f805f70e2e000121f9b0","E1","batch5","pattern_show_trial_num","null","<p class=block-text>Trial 60 out of 78</p>","null","","","","","","","","","","","","","","","","","","","","","","","","","",""
"","","","","","image-keyboard-response","272","1813799","0.0-3.0-7.0-1.20","5bc3f805f70e2e000121f9b0","E1","batch5","pattern_response","5319.9000000059605","stim/no_32_1_w.png","j","pattern_14","j","true","","","","5319.9000000059605","true","55","","","","","","","","","","","","","","","","",""
"","","","","","html-keyboard-response","273","1815112","0.0-3.0-7.0-0.21","5bc3f805f70e2e000121f9b0","E1","batch5","pattern_show_trial_num","null","<p class=block-text>Trial 61 out of 78</p>","null","","","","","","","","","","","","","","","","","","","","","","","","","",""
"","","","","","image-keyboard-response","274","1817276","0.0-3.0-7.0-1.21","5bc3f805f70e2e000121f9b0","E1","batch5","pattern_response","2159.699999988079","stim/no_34_1_b.png","j","pattern_16","j","true","","","","2159.699999988079","true","56","","","","","","","","","","","","","","","","",""
"","","","","","html-keyboard-response","275","1818585","0.0-3.0-7.0-0.22","5bc3f805f70e2e000121f9b0","E1","batch5","pattern_show_trial_num","null","<p class=block-text>Trial 62 out of 78</p>","null","","","","","","","","","","","","","","","","","","","","","","","","","",""
"","","","","","image-keyboard-response","276","1819503","0.0-3.0-7.0-1.22","5bc3f805f70e2e000121f9b0","E1","batch5","pattern_response","916.0999999940395","stim/no_13_2_b.png","j","pattern_02","j","true","","","","916.0999999940395","true","57","","","","","","","","","","","","","","","","",""
"","","","","","html-keyboard-response","277","1820819","0.0-3.0-7.0-0.23","5bc3f805f70e2e000121f9b0","E1","batch5","pattern_show_trial_num","null","<p class=block-text>Trial 63 out of 78</p>","null","","","","","","","","","","","","","","","","","","","","","","","","","",""
"","","","","","image-keyboard-response","278","1823658","0.0-3.0-7.0-1.23","5bc3f805f70e2e000121f9b0","E1","batch5","pattern_response","2835.199999988079","stim/yes_40_dia_b1_b.png","j","pattern_63","f","false","","","","2835.199999988079","false","57","","","","","","","","","","","","","","","","",""
"","","","","","html-keyboard-response","279","1824986","0.0-3.0-7.0-0.24","5bc3f805f70e2e000121f9b0","E1","batch5","pattern_show_trial_num","null","<p class=block-text>Trial 64 out of 78</p>","null","","","","","","","","","","","","","","","","","","","","","","","","","",""
"","","","","","image-keyboard-response","280","1825902","0.0-3.0-7.0-1.24","5bc3f805f70e2e000121f9b0","E1","batch5","pattern_response","912.3000000119209","stim/yes_55_hor_w1_w.png","f","pattern_75","f","true","","","","912.3000000119209","true","58","","","","","","","","","","","","","","","","",""
"","","","","","html-keyboard-response","281","1827219","0.0-3.0-7.0-0.25","5bc3f805f70e2e000121f9b0","E1","batch5","pattern_show_trial_num","null","<p class=block-text>Trial 65 out of 78</p>","null","","","","","","","","","","","","","","","","","","","","","","","","","",""
"","","","","","image-keyboard-response","282","1828464","0.0-3.0-7.0-1.25","5bc3f805f70e2e000121f9b0","E1","batch5","pattern_response","1242.5999999940395","stim/no_20_1_w.png","j","pattern_06","j","true","","","","1242.5999999940395","true","59","","","","","","","","","","","","","","","","",""
"","","","","","html-keyboard-response","283","1829773","0.0-3.0-7.0-0.26","5bc3f805f70e2e000121f9b0","E1","batch5","pattern_show_trial_num","null","<p class=block-text>Trial 66 out of 78</p>","null","","","","","","","","","","","","","","","","","","","","","","","","","",""
"","","","","","image-keyboard-response","284","1831171","0.0-3.0-7.0-1.26","5bc3f805f70e2e000121f9b0","E1","batch5","pattern_response","1394.9000000059605","stim/yes_60_ver_b1_b.png","f","pattern_77","f","true","","","","1394.9000000059605","true","60","","","","","","","","","","","","","","","","",""
"","","","","","html-keyboard-response","285","1832483","0.0-3.0-7.0-0.27","5bc3f805f70e2e000121f9b0","E1","batch5","pattern_show_trial_num","null","<p class=block-text>Trial 67 out of 78</p>","null","","","","","","","","","","","","","","","","","","","","","","","","","",""
"","","","","","image-keyboard-response","286","1837180","0.0-3.0-7.0-1.27","5bc3f805f70e2e000121f9b0","E1","batch5","pattern_response","4694.9000000059605","stim/no_65_1_b.png","j","pattern_38","j","true","","","","4694.9000000059605","true","61","","","","","","","","","","","","","","","","",""
"","","","","","html-keyboard-response","287","1838494","0.0-3.0-7.0-0.28","5bc3f805f70e2e000121f9b0","E1","batch5","pattern_show_trial_num","null","<p class=block-text>Trial 68 out of 78</p>","null","","","","","","","","","","","","","","","","","","","","","","","","","",""
"","","","","","image-keyboard-response","288","1839491","0.0-3.0-7.0-1.28","5bc3f805f70e2e000121f9b0","E1","batch5","pattern_response","992.0999999940395","stim/yes_25_hor_b1_b.png","f","pattern_49","f","true","","","","992.0999999940395","true","62","","","","","","","","","","","","","","","","",""
"","","","","","html-keyboard-response","289","1840821","0.0-3.0-7.0-0.29","5bc3f805f70e2e000121f9b0","E1","batch5","pattern_show_trial_num","null","<p class=block-text>Trial 69 out of 78</p>","null","","","","","","","","","","","","","","","","","","","","","","","","","",""
"","","","","","image-keyboard-response","290","1842133","0.0-3.0-7.0-1.29","5bc3f805f70e2e000121f9b0","E1","batch5","pattern_response","1310","stim/yes_17_dia_w1.png","f","pattern_45","f","true","","","","1310","true","63","","","","","","","","","","","","","","","","",""
"","","","","","html-keyboard-response","291","1843443","0.0-3.0-7.0-0.30","5bc3f805f70e2e000121f9b0","E1","batch5","pattern_show_trial_num","null","<p class=block-text>Trial 70 out of 78</p>","null","","","","","","","","","","","","","","","","","","","","","","","","","",""
"","","","","","image-keyboard-response","292","1844448","0.0-3.0-7.0-1.30","5bc3f805f70e2e000121f9b0","E1","batch5","pattern_response","1001","stim/yes_35_dia_b1.png","f","pattern_57","f","true","","","","1001","true","64","","","","","","","","","","","","","","","","",""
"","","","","","html-keyboard-response","293","1845766","0.0-3.0-7.0-0.31","5bc3f805f70e2e000121f9b0","E1","batch5","pattern_show_trial_num","null","<p class=block-text>Trial 71 out of 78</p>","null","","","","","","","","","","","","","","","","","","","","","","","","","",""
"","","","","","image-keyboard-response","294","1848002","0.0-3.0-7.0-1.31","5bc3f805f70e2e000121f9b0","E1","batch5","pattern_response","2232.5999999940395","stim/no_44_1.png","j","pattern_24","j","true","","","","2232.5999999940395","true","65","","","","","","","","","","","","","","","","",""
"","","","","","html-keyboard-response","295","1849316","0.0-3.0-7.0-0.32","5bc3f805f70e2e000121f9b0","E1","batch5","pattern_show_trial_num","null","<p class=block-text>Trial 72 out of 78</p>","null","","","","","","","","","","","","","","","","","","","","","","","","","",""
"","","","","","image-keyboard-response","296","1851313","0.0-3.0-7.0-1.32","5bc3f805f70e2e000121f9b0","E1","batch5","pattern_response","1993.0999999940395","stim/yes_52_ver_w1.png","f","pattern_73","f","true","","","","1993.0999999940395","true","66","","","","","","","","","","","","","","","","",""
"","","","","","html-keyboard-response","297","1852625","0.0-3.0-7.0-0.33","5bc3f805f70e2e000121f9b0","E1","batch5","pattern_show_trial_num","null","<p class=block-text>Trial 73 out of 78</p>","null","","","","","","","","","","","","","","","","","","","","","","","","","",""
"","","","","","image-keyboard-response","298","1854229","0.0-3.0-7.0-1.33","5bc3f805f70e2e000121f9b0","E1","batch5","pattern_response","1601.1000000238419","stim/yes_43_ver_w1_w.png","f","pattern_65","f","true","","","","1601.1000000238419","true","67","","","","","","","","","","","","","","","","",""
"","","","","","html-keyboard-response","299","1855558","0.0-3.0-7.0-0.34","5bc3f805f70e2e000121f9b0","E1","batch5","pattern_show_trial_num","null","<p class=block-text>Trial 74 out of 78</p>","null","","","","","","","","","","","","","","","","","","","","","","","","","",""
"","","","","","image-keyboard-response","300","1857978","0.0-3.0-7.0-1.34","5bc3f805f70e2e000121f9b0","E1","batch5","pattern_response","2416.300000011921","stim/yes_29_ver_w1.png","f","pattern_53","f","true","","","","2416.300000011921","true","68","","","","","","","","","","","","","","","","",""
"","","","","","html-keyboard-response","301","1859307","0.0-3.0-7.0-0.35","5bc3f805f70e2e000121f9b0","E1","batch5","pattern_show_trial_num","null","<p class=block-text>Trial 75 out of 78</p>","null","","","","","","","","","","","","","","","","","","","","","","","","","",""
"","","","","","image-keyboard-response","302","1861404","0.0-3.0-7.0-1.35","5bc3f805f70e2e000121f9b0","E1","batch5","pattern_response","2093.5","stim/yes_37_dia_w1.png","j","pattern_59","f","false","","","","2093.5","false","68","","","","","","","","","","","","","","","","",""
"","","","","","html-keyboard-response","303","1862714","0.0-3.0-7.0-0.36","5bc3f805f70e2e000121f9b0","E1","batch5","pattern_show_trial_num","null","<p class=block-text>Trial 76 out of 78</p>","null","","","","","","","","","","","","","","","","","","","","","","","","","",""
"","","","","","image-keyboard-response","304","1867223","0.0-3.0-7.0-1.36","5bc3f805f70e2e000121f9b0","E1","batch5","pattern_response","4506.5999999940395","stim/no_70_2.png","j","pattern_40","j","true","","","","4506.5999999940395","true","69","","","","","","","","","","","","","","","","",""
"","","","","","html-keyboard-response","305","1868541","0.0-3.0-7.0-0.37","5bc3f805f70e2e000121f9b0","E1","batch5","pattern_show_trial_num","null","<p class=block-text>Trial 77 out of 78</p>","null","","","","","","","","","","","","","","","","","","","","","","","","","",""
"","","","","","image-keyboard-response","306","1869385","0.0-3.0-7.0-1.37","5bc3f805f70e2e000121f9b0","E1","batch5","pattern_response","840","stim/yes_14_hor_b1_w.png","f","pattern_43","f","true","","","","840","true","70","","","","","","","","","","","","","","","","",""
"","","","","","html-keyboard-response","307","1870713","0.0-3.0-7.0-0.38","5bc3f805f70e2e000121f9b0","E1","batch5","pattern_show_trial_num","null","<p class=block-text>Trial 78 out of 78</p>","null","","","","","","","","","","","","","","","","","","","","","","","","","",""
"","","","","","image-keyboard-response","308","1872106","0.0-3.0-7.0-1.38","5bc3f805f70e2e000121f9b0","E1","batch5","pattern_response","1390.4000000059605","stim/yes_45_hor_b2_b.png","f","pattern_67","f","true","","","","1390.4000000059605","true","71","","","","","","","","","","","","","","","","",""
"","","","","","html-button-response","309","1880603","0.0-3.0-8.0","5bc3f805f70e2e000121f9b0","E1","batch5","","7983.4000000059605","<p class = block-text>This concludes the 4-in-a-row detection game.Thank you for your responses!<br>
            You responded correctly on 91% of the trials.<br>
            When you are ready, press ""Continue"" button to continue </p>","0","","","","","","","","","","","","","","","","","","","","","","","","","",""
"true","","","","","fullscreen","310","1900540","0.0-4.0-0.0","5bc3f805f70e2e000121f9b0","E1","batch5","","","","","","","","","","","","","","","","","","","","","","","","","","","","","",""
"","","","","","instructions","311","2018866","0.0-4.0-1.0-0.0-0.0","5bc3f805f70e2e000121f9b0","E1","batch5","tol-instructions","118324.60000002384","","","","","","","","[{""page_index"":0,""viewing_time"":32467},{""page_index"":1,""viewing_time"":9202.700000017881},{""page_index"":2,""viewing_time"":8655.90000000596},{""page_index"":3,""viewing_time"":15003.899999976158},{""page_index"":4,""viewing_time"":16311.800000011921},{""page_index"":5,""viewing_time"":26080.19999998808},{""page_index"":6,""viewing_time"":10602.600000023842}]","","","","","","","","","","","","","","","","","","","",""
"","","","","","html-button-response","312","2021267","0.0-4.0-1.0-1.0-0.0","5bc3f805f70e2e000121f9b0","E1","batch5","tol_enter_quiz","2398.5","<p class=block-text> Let's answer a few questions <br>","0","","","","","","","","","","","","","","","","","","","","","","","","","",""
"","","","","","html-button-response","313","2026868","0.0-4.0-1.0-1.0-1.0","5bc3f805f70e2e000121f9b0","E1","batch5","tol_quiz","5598.199999988079","<p class = block-text>True or False: You can only move the ball on top of a peg. <br></p>","1","","","false","","","","","","","","","","","","","","","","","","","","","","",""
"","","","","","html-button-response","314","2031978","0.0-4.0-1.0-1.0-2.0","5bc3f805f70e2e000121f9b0","E1","batch5","tol_quiz_feedback","5106.200000017881","<p class = block-text>Incorrect. Remember, you can only move the ball on top of a peg.</p>","0","","","","","","","","","","","","","","","","","","","","","","","","","",""
"","","","","","html-button-response","315","2037655","0.0-4.0-1.0-1.0-3.0","5bc3f805f70e2e000121f9b0","E1","batch5","tol_quiz","5675","<p class = block-text>True or False: You should try to match your board with the target board with fewest moves possible. <br></p>","0","","","true","","","","","","","","","","","","","","","","","","","","","","",""
"","","","","","html-button-response","316","2039002","0.0-4.0-1.0-1.0-4.0","5bc3f805f70e2e000121f9b0","E1","batch5","tol_quiz_feedback","1343.5","<p class = block-text>Correct! </p>","0","","","","","","","","","","","","","","","","","","","","","","","","","",""
"","","","","","html-button-response","317","2040718","0.0-4.0-1.0-2.0-0.0","5bc3f805f70e2e000121f9b0","E1","batch5","","1713.199999988079","<p class = block-text>You made too many incorrect choices.</p><p class = block-text>You will now repeat the instructions and quiz</p>","0","","","","","","","","","","","","","","","","","","","","","","","","","",""
"","","","","","instructions","318","2052951","0.0-4.0-1.1-0.1-0.1","5bc3f805f70e2e000121f9b0","E1","batch5","tol-instructions","12231.40000000596","","","","","","","","[{""page_index"":0,""viewing_time"":2982.7999999821186},{""page_index"":1,""viewing_time"":1460.4000000059605},{""page_index"":2,""viewing_time"":763},{""page_index"":3,""viewing_time"":1539},{""page_index"":4,""viewing_time"":1469.7000000178814},{""page_index"":5,""viewing_time"":1623.2999999821186},{""page_index"":6,""viewing_time"":2392.7000000178814}]","","","","","","","","","","","","","","","","","","","",""
"","","","","","html-button-response","319","2054721","0.0-4.0-1.1-1.1-0.1","5bc3f805f70e2e000121f9b0","E1","batch5","tol_enter_quiz","1767.699999988079","<p class=block-text> Let's answer a few questions <br>","0","","","","","","","","","","","","","","","","","","","","","","","","","",""
"","","","","","html-button-response","320","2060168","0.0-4.0-1.1-1.1-1.1","5bc3f805f70e2e000121f9b0","E1","batch5","tol_quiz","5445","<p class = block-text>True or False: You can only move the ball on top of a peg. <br></p>","0","","","true","","","","","","","","","","","","","","","","","","","","","","",""
"","","","","","html-button-response","321","2061707","0.0-4.0-1.1-1.1-2.1","5bc3f805f70e2e000121f9b0","E1","batch5","tol_quiz_feedback","1536.199999988079","<p class = block-text>Correct! You can only move the ball on top of a peg.</p>","0","","","","","","","","","","","","","","","","","","","","","","","","","",""
"","","","","","html-button-response","322","2065638","0.0-4.0-1.1-1.1-3.1","5bc3f805f70e2e000121f9b0","E1","batch5","tol_quiz","3928.5","<p class = block-text>True or False: You should try to match your board with the target board with fewest moves possible. <br></p>","0","","","true","","","","","","","","","","","","","","","","","","","","","","",""
"","","","","","html-button-response","323","2066939","0.0-4.0-1.1-1.1-4.1","5bc3f805f70e2e000121f9b0","E1","batch5","tol_quiz_feedback","1298.2999999821186","<p class = block-text>Correct! </p>","0","","","","","","","","","","","","","","","","","","","","","","","","","",""
"","","","","","html-button-response","324","2071624","0.0-4.0-2.0","5bc3f805f70e2e000121f9b0","E1","batch5","","4682.699999988079","<p class=block-text> Now that you've understood the game, let's practice a few easier examples before we start!<br> <br>","0","","","","","","","","","","","","","","","","","","","","","","","","","",""
"","","","","","single-stim-button","325","2076092","0.0-4.0-3.0-0.0","5bc3f805f70e2e000121f9b0","E1","batch5","tol_practice","4462","","","","","","","","","","","","","","tol_peg_2","4462","4462","0","[[1,2,0],[0,0],[0]]","1","[[1,2,0],[0,0],[3]]","practice","4462","","","","","",""
"","","","","","single-stim-button","326","2078886","0.0-4.0-3.0-1.0","5bc3f805f70e2e000121f9b0","E1","batch5","tol_practice","2793","","","","","","","","","","","","","","tol_peg_3","2793","2793","0","[[1,2,0],[0,0],[3]]","1","[[1,2,0],[0,0],[3]]","practice","2793","","","","","",""
"","","","","","poldrack-single-stim","327","2079892","0.0-4.0-4.0","5bc3f805f70e2e000121f9b0","E1","batch5","tol_feedback","-1","","","","","true","","","","","","","","","","1000","1000","500","","","","","","-1","none","true","","0",""
"","","","","","single-stim-button","328","2084874","0.0-4.0-5.0-0.0","5bc3f805f70e2e000121f9b0","E1","batch5","tol_practice","4979","","","","","","","","","","","","","","tol_peg_1","4979","4979","0","[[1,0,0],[3,0],[0]]","2","[[0,0,0],[3,1],[2]]","practice","4979","","","","","",""
"","","","","","single-stim-button","329","2087621","0.0-4.0-5.0-1.0","5bc3f805f70e2e000121f9b0","E1","batch5","tol_practice","2745","","","","","","","","","","","","","","tol_peg_3","2745","2745","0","[[1,0,0],[3,0],[2]]","2","[[0,0,0],[3,1],[2]]","practice","2745","","","","","",""
"","","","","","single-stim-button","330","2089075","0.0-4.0-5.1-0.1","5bc3f805f70e2e000121f9b0","E1","batch5","tol_practice","1452","","","","","","","","","","","","","","tol_peg_1","1452","1452","0","[[0,0,0],[3,0],[2]]","3","[[0,0,0],[3,1],[2]]","practice","1452","","","","","",""
"","","","","","single-stim-button","331","2091006","0.0-4.0-5.1-1.1","5bc3f805f70e2e000121f9b0","E1","batch5","tol_practice","1929","","","","","","","","","","","","","","tol_peg_2","1929","1929","0","[[0,0,0],[3,1],[2]]","3","[[0,0,0],[3,1],[2]]","practice","1929","","","","","",""
"","","","","","poldrack-single-stim","332","2092023","0.0-4.0-6.0","5bc3f805f70e2e000121f9b0","E1","batch5","tol_feedback","-1","","","","","true","","","","","","","","","","1000","1000","500","","","","","","-1","none","true","","0",""
"","","","","","single-stim-button","333","2095376","0.0-4.0-7.0-0.0","5bc3f805f70e2e000121f9b0","E1","batch5","tol_practice","3351","","","","","","","","","","","","","","tol_peg_2","3351","3351","0","[[1,2,0],[0,0],[0]]","4","[[1,0,0],[2,0],[3]]","practice","3351","","","","","",""
"","","","","","single-stim-button","334","2097608","0.0-4.0-7.0-1.0","5bc3f805f70e2e000121f9b0","E1","batch5","tol_practice","2230","","","","","","","","","","","","","","tol_peg_3","2230","2230","0","[[1,2,0],[0,0],[3]]","4","[[1,0,0],[2,0],[3]]","practice","2230","","","","","",""
"","","","","","single-stim-button","335","2098985","0.0-4.0-7.1-0.1","5bc3f805f70e2e000121f9b0","E1","batch5","tol_practice","1375","","","","","","","","","","","","","","tol_peg_1","1375","1375","0","[[1,0,0],[0,0],[3]]","5","[[1,0,0],[2,0],[3]]","practice","1375","","","","","",""
"","","","","","single-stim-button","336","2101062","0.0-4.0-7.1-1.1","5bc3f805f70e2e000121f9b0","E1","batch5","tol_practice","2076","","","","","","","","","","","","","","tol_peg_2","2076","2076","0","[[1,0,0],[2,0],[3]]","5","[[1,0,0],[2,0],[3]]","practice","2076","","","","","",""
"","","","","","poldrack-single-stim","337","2102074","0.0-4.0-8.0","5bc3f805f70e2e000121f9b0","E1","batch5","tol_feedback","-1","","","","","true","","","","","","","","","","1000","1000","500","","","","","","-1","none","true","","0",""
"","","","","","html-button-response","338","2111318","0.0-4.0-9.0","5bc3f805f70e2e000121f9b0","E1","batch5","tol_instruction","9243.09999999404","<div class = centerbox><p class = center-block-text>Great job! You are done with practice trials<br>You are about to start official trials.<br> <br> Problem <strong>1</strong> out of 25 problems</p></div>","0","","","","","","","","","","","","","","","","","","","","","","","","","",""
"","","","","","single-stim-button","339","2116690","0.0-4.0-10.0-0.0","5bc3f805f70e2e000121f9b0","E1","batch5","tol_tohand","4360","","","","","","","","","","","","","","tol_peg_2","4360","4360","0","[[1,2,0],[0,0],[0]]","1","[[1,3,0],[2,0],[0]]","0","0","","","","","","3"
"","","","","","single-stim-button","340","2126361","0.0-4.0-10.0-1.0","5bc3f805f70e2e000121f9b0","E1","batch5","tol_toboard","9668","","","","","","","","","","","","","","tol_peg_3","9668","9668","0","[[1,2,0],[0,0],[3]]","1","[[1,3,0],[2,0],[0]]","0","0","","","","","","3"
"","","","","","single-stim-button","341","2127954","0.0-4.0-10.1-0.1","5bc3f805f70e2e000121f9b0","E1","batch5","tol_tohand","1590","","","","","","","","","","","","","","tol_peg_1","1590","1590","0","[[1,0,0],[0,0],[3]]","2","[[1,3,0],[2,0],[0]]","0","0","","","","","","3"
"","","","","","single-stim-button","342","2129647","0.0-4.0-10.1-1.1","5bc3f805f70e2e000121f9b0","E1","batch5","tol_toboard","1691","","","","","","","","","","","","","","tol_peg_2","1691","1691","0","[[1,0,0],[2,0],[3]]","2","[[1,3,0],[2,0],[0]]","0","0","","","","","","3"
"","","","","","single-stim-button","343","2131822","0.0-4.0-10.2-0.2","5bc3f805f70e2e000121f9b0","E1","batch5","tol_tohand","2173","","","","","","","","","","","","","","tol_peg_3","2173","2173","0","[[1,0,0],[2,0],[0]]","3","[[1,3,0],[2,0],[0]]","0","0","","","","","","3"
