"success","timeout","failed_images","failed_audio","failed_video","trial_type","trial_index","time_elapsed","internal_node_id","subject_id","study_id","session_id","view_history","rt","stimulus","response","task","correct","answer","item","fiar_detect_rt","fiar_detect_correct","total_correct_fiar_detect","post_trial_gap","choices","mouse_click","stim_duration","block_duration","timing_post_trial","current_position","tol_num_moves_made","tol_target","tol_problem_id","tol_rt","key_press","possible_responses","tol_correct","preplanning","tol_rt_per_trial","tol_min_moves","spm_correct","spm_rt"
"true","false","[]","[]","[]","preload","0","8900","0.0-0.0","5bcbde9d08a62c0001f86bd0","F1","batch6","","","","","","","","","","","","","","","","","","","","","","","","","","","","","",""
"true","","","","","fullscreen","1","23026","0.0-1.0-0.0","5bcbde9d08a62c0001f86bd0","F1","batch6","","","","","","","","","","","","","","","","","","","","","","","","","","","","","",""
"true","","","","","fullscreen","2","27353","0.0-2.0-0.0","5bcbde9d08a62c0001f86bd0","F1","batch6","","","","","","","","","","","","","","","","","","","","","","","","","","","","","",""
"","","","","","instructions","3","40692","0.0-2.0-1.0-0.0","5bcbde9d08a62c0001f86bd0","F1","batch6","[{""page_index"":0,""viewing_time"":9278.799999952316},{""page_index"":1,""viewing_time"":4058.7000000476837}]","13337.699999928474","","","","","","","","","","","","","","","","","","","","","","","","","","","",""
"","","","","","html-button-response","4","41693","0.0-2.0-1.0-1.0-0.0","5bcbde9d08a62c0001f86bd0","F1","batch6","","1000.5","<p class=block-text> Let's answer a few questions <br>","0","pattern_enter_quiz","","","","","","","","","","","","","","","","","","","","","","","","",""
"","","","","","html-button-response","5","43357","0.0-2.0-1.0-1.0-1.0","5bcbde9d08a62c0001f86bd0","F1","batch6","","1662.8999999761581","<p class = block-text>True or False: You will have as much time as you want to make each choice. <br></p>","1","pattern_quiz","true","","","","","","","","","","","","","","","","","","","","","","","",""
"","","","","","html-button-response","6","44361","0.0-2.0-1.0-1.0-2.0","5bcbde9d08a62c0001f86bd0","F1","batch6","","1003.2999999523163","<p class = block-text>Correct! You should make your choice <strong> as fast as you can</strong>.</p>","0","pattern_quiz_feedback","","","","","","","","","","","","","","","","","","","","","","","","",""
"","","","","","html-button-response","7","48915","0.0-2.0-1.0-1.0-3.0","5bcbde9d08a62c0001f86bd0","F1","batch6","","4553.199999928474","<p class = block-text>True or False: You will look for 4 pieces in black or white color connected in a row either horizontally, vertically or diagonally. <br></p>","0","pattern_quiz","true","","","","","","","","","","","","","","","","","","","","","","","",""
"","","","","","html-button-response","8","49697","0.0-2.0-1.0-1.0-4.0","5bcbde9d08a62c0001f86bd0","F1","batch6","","781.0999999046326","<p class = block-text>Correct! </p>","0","pattern_quiz_feedback","","","","","","","","","","","","","","","","","","","","","","","","",""
"","","","","","html-button-response","9","50906","0.0-2.0-2.0","5bcbde9d08a62c0001f86bd0","F1","batch6","","1208.2000000476837","<p class=block-text> Now that you've understood the game, let's do a few practice trials before we start!<br> <br>","0","pattern_enter_practice","","","","","","","","","","","","","","","","","","","","","","","","",""
"","","","","","image-keyboard-response","10","52246","0.0-2.0-3.0-0.0","5bcbde9d08a62c0001f86bd0","F1","batch6","","1334.6000000238419","stim/prac_no_18_1.png","j","pattern_practice","true","j","","","","","","","","","","","","","","","","","","","","","","",""
"","","","","","html-keyboard-response","11","53267","0.0-2.0-3.0-1.0","5bcbde9d08a62c0001f86bd0","F1","batch6","","null","<p style=""font-size:30px;color:green;"">Correct!</p>","null","pattern_feedback","","","","","","","","","","","","","","","","","","","","","","","","",""
"","","","","","image-keyboard-response","12","54641","0.0-2.0-3.0-0.1","5bcbde9d08a62c0001f86bd0","F1","batch6","","1370.1999999284744","stim/prac_no_16_1.png","j","pattern_practice","true","j","","","","","","","","","","","","","","","","","","","","","","",""
"","","","","","html-keyboard-response","13","55662","0.0-2.0-3.0-1.1","5bcbde9d08a62c0001f86bd0","F1","batch6","","null","<p style=""font-size:30px;color:green;"">Correct!</p>","null","pattern_feedback","","","","","","","","","","","","","","","","","","","","","","","","",""
"","","","","","image-keyboard-response","14","56941","0.0-2.0-3.0-0.2","5bcbde9d08a62c0001f86bd0","F1","batch6","","1277.7000000476837","stim/prac_yes_20_dia_b1.png","f","pattern_practice","true","f","","","","","","","","","","","","","","","","","","","","","","",""
"","","","","","html-keyboard-response","15","57959","0.0-2.0-3.0-1.2","5bcbde9d08a62c0001f86bd0","F1","batch6","","null","<p style=""font-size:30px;color:green;"">Correct!</p>","null","pattern_feedback","","","","","","","","","","","","","","","","","","","","","","","","",""
"","","","","","image-keyboard-response","16","59290","0.0-2.0-3.0-0.3","5bcbde9d08a62c0001f86bd0","F1","batch6","","1329.8999999761581","stim/prac_yes_18_hor_w1.png","f","pattern_practice","true","f","","","","","","","","","","","","","","","","","","","","","","",""
"","","","","","html-keyboard-response","17","60314","0.0-2.0-3.0-1.3","5bcbde9d08a62c0001f86bd0","F1","batch6","","null","<p style=""font-size:30px;color:green;"">Correct!</p>","null","pattern_feedback","","","","","","","","","","","","","","","","","","","","","","","","",""
"","","","","","image-keyboard-response","18","61352","0.0-2.0-3.0-0.4","5bcbde9d08a62c0001f86bd0","F1","batch6","","1033","stim/prac_yes_16_ver_w1.png","f","pattern_practice","true","f","","","","","","","","","","","","","","","","","","","","","","",""
"","","","","","html-keyboard-response","19","62362","0.0-2.0-3.0-1.4","5bcbde9d08a62c0001f86bd0","F1","batch6","","null","<p style=""font-size:30px;color:green;"">Correct!</p>","null","pattern_feedback","","","","","","","","","","","","","","","","","","","","","","","","",""
"","","","","","html-button-response","20","65320","0.0-2.0-4.0","5bcbde9d08a62c0001f86bd0","F1","batch6","","2957.100000023842","<p class=block-text> Good job! You are done with practice trials!<br>
        You responded correctly on 100% of the trials.<br>
        Press the button below to start official trials. Now you won't see any feedback about your response</p>","0","pattern_enter_official_trials","","","","","","","","","","","","","","","","","","","","","","","","",""
"","","","","","html-keyboard-response","21","66136","0.0-2.0-5.0-0.0","5bcbde9d08a62c0001f86bd0","F1","batch6","","null","<p class=block-text>Trial 1 out of 78</p>","null","pattern_show_trial_num","","","","","","","","","","","","","","","","","","","","","","","","",""
"","","","","","image-keyboard-response","22","67351","0.0-2.0-5.0-1.0","5bcbde9d08a62c0001f86bd0","F1","batch6","","1210.1999999284744","stim/yes_26_dia_w2_w.png","j","pattern_response","false","f","pattern_50","1210.1999999284744","false","0","","","","","","","","","","","","","","","","","","",""
"","","","","","html-keyboard-response","23","68676","0.0-2.0-5.0-0.1","5bcbde9d08a62c0001f86bd0","F1","batch6","","null","<p class=block-text>Trial 2 out of 78</p>","null","pattern_show_trial_num","","","","","","","","","","","","","","","","","","","","","","","","",""
"","","","","","image-keyboard-response","24","69585","0.0-2.0-5.0-1.1","5bcbde9d08a62c0001f86bd0","F1","batch6","","905.2000000476837","stim/no_12_1.png","j","pattern_response","true","j","pattern_01","905.2000000476837","true","1","","","","","","","","","","","","","","","","","","",""
"","","","","","html-keyboard-response","25","70908","0.0-2.0-5.0-0.2","5bcbde9d08a62c0001f86bd0","F1","batch6","","null","<p class=block-text>Trial 3 out of 78</p>","null","pattern_show_trial_num","","","","","","","","","","","","","","","","","","","","","","","","",""
"","","","","","image-keyboard-response","26","71916","0.0-2.0-5.0-1.2","5bcbde9d08a62c0001f86bd0","F1","batch6","","1006.8999999761581","stim/yes_30_ver_b1_b.png","f","pattern_response","true","f","pattern_54","1006.8999999761581","true","2","","","","","","","","","","","","","","","","","","",""
"","","","","","html-keyboard-response","27","73230","0.0-2.0-5.0-0.3","5bcbde9d08a62c0001f86bd0","F1","batch6","","null","<p class=block-text>Trial 4 out of 78</p>","null","pattern_show_trial_num","","","","","","","","","","","","","","","","","","","","","","","","",""
"","","","","","image-keyboard-response","28","75049","0.0-2.0-5.0-1.3","5bcbde9d08a62c0001f86bd0","F1","batch6","","1815.6999999284744","stim/no_36_1_b.png","j","pattern_response","true","j","pattern_17","1815.6999999284744","true","3","","","","","","","","","","","","","","","","","","",""
"","","","","","html-keyboard-response","29","76361","0.0-2.0-5.0-0.4","5bcbde9d08a62c0001f86bd0","F1","batch6","","null","<p class=block-text>Trial 5 out of 78</p>","null","pattern_show_trial_num","","","","","","","","","","","","","","","","","","","","","","","","",""
"","","","","","image-keyboard-response","30","78460","0.0-2.0-5.0-1.4","5bcbde9d08a62c0001f86bd0","F1","batch6","","2094.5","stim/yes_46_ver_b1_b.png","j","pattern_response","false","f","pattern_68","2094.5","false","3","","","","","","","","","","","","","","","","","","",""
"","","","","","html-keyboard-response","31","79790","0.0-2.0-5.0-0.5","5bcbde9d08a62c0001f86bd0","F1","batch6","","null","<p class=block-text>Trial 6 out of 78</p>","null","pattern_show_trial_num","","","","","","","","","","","","","","","","","","","","","","","","",""
"","","","","","image-keyboard-response","32","82937","0.0-2.0-5.0-1.5","5bcbde9d08a62c0001f86bd0","F1","batch6","","3145","stim/no_67_1.png","j","pattern_response","true","j","pattern_39","3145","true","4","","","","","","","","","","","","","","","","","","",""
"","","","","","html-keyboard-response","33","84257","0.0-2.0-5.0-0.6","5bcbde9d08a62c0001f86bd0","F1","batch6","","null","<p class=block-text>Trial 7 out of 78</p>","null","pattern_show_trial_num","","","","","","","","","","","","","","","","","","","","","","","","",""
"","","","","","image-keyboard-response","34","86089","0.0-2.0-5.0-1.6","5bcbde9d08a62c0001f86bd0","F1","batch6","","1830.3999999761581","stim/no_33_1_b.png","j","pattern_response","true","j","pattern_15","1830.3999999761581","true","5","","","","","","","","","","","","","","","","","","",""
"","","","","","html-keyboard-response","35","87393","0.0-2.0-5.0-0.7","5bcbde9d08a62c0001f86bd0","F1","batch6","","null","<p class=block-text>Trial 8 out of 78</p>","null","pattern_show_trial_num","","","","","","","","","","","","","","","","","","","","","","","","",""
"","","","","","image-keyboard-response","36","88073","0.0-2.0-5.0-1.7","5bcbde9d08a62c0001f86bd0","F1","batch6","","676.2000000476837","stim/yes_39_hor_w1_w.png","f","pattern_response","true","f","pattern_62","676.2000000476837","true","6","","","","","","","","","","","","","","","","","","",""
"","","","","","html-keyboard-response","37","89398","0.0-2.0-5.0-0.8","5bcbde9d08a62c0001f86bd0","F1","batch6","","null","<p class=block-text>Trial 9 out of 78</p>","null","pattern_show_trial_num","","","","","","","","","","","","","","","","","","","","","","","","",""
"","","","","","image-keyboard-response","38","91324","0.0-2.0-5.0-1.8","5bcbde9d08a62c0001f86bd0","F1","batch6","","1922.8999999761581","stim/yes_44_ver_w1_w.png","f","pattern_response","true","f","pattern_66","1922.8999999761581","true","7","","","","","","","","","","","","","","","","","","",""
"","","","","","html-keyboard-response","39","92648","0.0-2.0-5.0-0.9","5bcbde9d08a62c0001f86bd0","F1","batch6","","null","<p class=block-text>Trial 10 out of 78</p>","null","pattern_show_trial_num","","","","","","","","","","","","","","","","","","","","","","","","",""
"","","","","","image-keyboard-response","40","95279","0.0-2.0-5.0-1.9","5bcbde9d08a62c0001f86bd0","F1","batch6","","2626.2000000476837","stim/no_37_2_w.png","j","pattern_response","true","j","pattern_19","2626.2000000476837","true","8","","","","","","","","","","","","","","","","","","",""
"","","","","","html-keyboard-response","41","96603","0.0-2.0-5.0-0.10","5bcbde9d08a62c0001f86bd0","F1","batch6","","null","<p class=block-text>Trial 11 out of 78</p>","null","pattern_show_trial_num","","","","","","","","","","","","","","","","","","","","","","","","",""
"","","","","","image-keyboard-response","42","99309","0.0-2.0-5.0-1.10","5bcbde9d08a62c0001f86bd0","F1","batch6","","2701.399999976158","stim/no_45_1_w.png","j","pattern_response","true","j","pattern_25","2701.399999976158","true","9","","","","","","","","","","","","","","","","","","",""
"","","","","","html-keyboard-response","43","100635","0.0-2.0-5.0-0.11","5bcbde9d08a62c0001f86bd0","F1","batch6","","null","<p class=block-text>Trial 12 out of 78</p>","null","pattern_show_trial_num","","","","","","","","","","","","","","","","","","","","","","","","",""
"","","","","","image-keyboard-response","44","102052","0.0-2.0-5.0-1.11","5bcbde9d08a62c0001f86bd0","F1","batch6","","1411.6000000238419","stim/yes_33_dia_w1_w.png","f","pattern_response","true","f","pattern_56","1411.6000000238419","true","10","","","","","","","","","","","","","","","","","","",""
"","","","","","html-keyboard-response","45","103367","0.0-2.0-5.0-0.12","5bcbde9d08a62c0001f86bd0","F1","batch6","","null","<p class=block-text>Trial 13 out of 78</p>","null","pattern_show_trial_num","","","","","","","","","","","","","","","","","","","","","","","","",""
"","","","","","image-keyboard-response","46","104232","0.0-2.0-5.0-1.12","5bcbde9d08a62c0001f86bd0","F1","batch6","","861.5","stim/yes_12_hor_w1_w.png","f","pattern_response","true","f","pattern_42","861.5","true","11","","","","","","","","","","","","","","","","","","",""
"","","","","","html-keyboard-response","47","105549","0.0-2.0-5.0-0.13","5bcbde9d08a62c0001f86bd0","F1","batch6","","null","<p class=block-text>Trial 14 out of 78</p>","null","pattern_show_trial_num","","","","","","","","","","","","","","","","","","","","","","","","",""
"","","","","","image-keyboard-response","48","107668","0.0-2.0-5.0-1.13","5bcbde9d08a62c0001f86bd0","F1","batch6","","2116.0999999046326","stim/yes_70_ver_b1.png","f","pattern_response","true","f","pattern_80","2116.0999999046326","true","12","","","","","","","","","","","","","","","","","","",""
"","","","","","html-keyboard-response","49","108990","0.0-2.0-5.0-0.14","5bcbde9d08a62c0001f86bd0","F1","batch6","","null","<p class=block-text>Trial 15 out of 78</p>","null","pattern_show_trial_num","","","","","","","","","","","","","","","","","","","","","","","","",""
"","","","","","image-keyboard-response","50","110230","0.0-2.0-5.0-1.14","5bcbde9d08a62c0001f86bd0","F1","batch6","","1235","stim/yes_49_hor_w1_b.png","f","pattern_response","true","f","pattern_70","1235","true","13","","","","","","","","","","","","","","","","","","",""
"","","","","","html-keyboard-response","51","111547","0.0-2.0-5.0-0.15","5bcbde9d08a62c0001f86bd0","F1","batch6","","null","<p class=block-text>Trial 16 out of 78</p>","null","pattern_show_trial_num","","","","","","","","","","","","","","","","","","","","","","","","",""
"","","","","","image-keyboard-response","52","113085","0.0-2.0-5.0-1.15","5bcbde9d08a62c0001f86bd0","F1","batch6","","1534.8999999761581","stim/no_49_2_b.png","j","pattern_response","true","j","pattern_29","1534.8999999761581","true","14","","","","","","","","","","","","","","","","","","",""
"","","","","","html-keyboard-response","53","114391","0.0-2.0-5.0-0.16","5bcbde9d08a62c0001f86bd0","F1","batch6","","null","<p class=block-text>Trial 17 out of 78</p>","null","pattern_show_trial_num","","","","","","","","","","","","","","","","","","","","","","","","",""
"","","","","","image-keyboard-response","54","116361","0.0-2.0-5.0-1.16","5bcbde9d08a62c0001f86bd0","F1","batch6","","1966","stim/yes_51_dia_b1.png","j","pattern_response","false","f","pattern_72","1966","false","14","","","","","","","","","","","","","","","","","","",""
"","","","","","html-keyboard-response","55","117681","0.0-2.0-5.0-0.17","5bcbde9d08a62c0001f86bd0","F1","batch6","","null","<p class=block-text>Trial 18 out of 78</p>","null","pattern_show_trial_num","","","","","","","","","","","","","","","","","","","","","","","","",""
"","","","","","image-keyboard-response","56","119908","0.0-2.0-5.0-1.17","5bcbde9d08a62c0001f86bd0","F1","batch6","","2225","stim/no_58_1_w.png","j","pattern_response","true","j","pattern_35","2225","true","15","","","","","","","","","","","","","","","","","","",""
"","","","","","html-keyboard-response","57","121229","0.0-2.0-5.0-0.18","5bcbde9d08a62c0001f86bd0","F1","batch6","","null","<p class=block-text>Trial 19 out of 78</p>","null","pattern_show_trial_num","","","","","","","","","","","","","","","","","","","","","","","","",""
"","","","","","image-keyboard-response","58","123020","0.0-2.0-5.0-1.18","5bcbde9d08a62c0001f86bd0","F1","batch6","","1788.7000000476837","stim/no_25_1_b.png","j","pattern_response","true","j","pattern_09","1788.7000000476837","true","16","","","","","","","","","","","","","","","","","","",""
"","","","","","html-keyboard-response","59","124345","0.0-2.0-5.0-0.19","5bcbde9d08a62c0001f86bd0","F1","batch6","","null","<p class=block-text>Trial 20 out of 78</p>","null","pattern_show_trial_num","","","","","","","","","","","","","","","","","","","","","","","","",""
"","","","","","image-keyboard-response","60","125587","0.0-2.0-5.0-1.19","5bcbde9d08a62c0001f86bd0","F1","batch6","","1237.1000000238419","stim/no_18_1_b.png","j","pattern_response","true","j","pattern_05","1237.1000000238419","true","17","","","","","","","","","","","","","","","","","","",""
"","","","","","html-keyboard-response","61","126902","0.0-2.0-5.0-0.20","5bcbde9d08a62c0001f86bd0","F1","batch6","","null","<p class=block-text>Trial 21 out of 78</p>","null","pattern_show_trial_num","","","","","","","","","","","","","","","","","","","","","","","","",""
"","","","","","image-keyboard-response","62","128421","0.0-2.0-5.0-1.20","5bcbde9d08a62c0001f86bd0","F1","batch6","","1517.3000000715256","stim/yes_15_dia_b1u_b.png","j","pattern_response","false","f","pattern_44","1517.3000000715256","false","17","","","","","","","","","","","","","","","","","","",""
"","","","","","html-keyboard-response","63","129741","0.0-2.0-5.0-0.21","5bcbde9d08a62c0001f86bd0","F1","batch6","","null","<p class=block-text>Trial 22 out of 78</p>","null","pattern_show_trial_num","","","","","","","","","","","","","","","","","","","","","","","","",""
"","","","","","image-keyboard-response","64","133374","0.0-2.0-5.0-1.21","5bcbde9d08a62c0001f86bd0","F1","batch6","","3629.399999976158","stim/yes_58_dia_w1_w.png","j","pattern_response","false","f","pattern_76","3629.399999976158","false","17","","","","","","","","","","","","","","","","","","",""
"","","","","","html-keyboard-response","65","134691","0.0-2.0-5.0-0.22","5bcbde9d08a62c0001f86bd0","F1","batch6","","null","<p class=block-text>Trial 23 out of 78</p>","null","pattern_show_trial_num","","","","","","","","","","","","","","","","","","","","","","","","",""
"","","","","","image-keyboard-response","66","136697","0.0-2.0-5.0-1.22","5bcbde9d08a62c0001f86bd0","F1","batch6","","2001.9000000953674","stim/no_30_1_b.png","j","pattern_response","true","j","pattern_13","2001.9000000953674","true","18","","","","","","","","","","","","","","","","","","",""
"","","","","","html-keyboard-response","67","138012","0.0-2.0-5.0-0.23","5bcbde9d08a62c0001f86bd0","F1","batch6","","null","<p class=block-text>Trial 24 out of 78</p>","null","pattern_show_trial_num","","","","","","","","","","","","","","","","","","","","","","","","",""
"","","","","","image-keyboard-response","68","138847","0.0-2.0-5.0-1.23","5bcbde9d08a62c0001f86bd0","F1","batch6","","833.4000000953674","stim/yes_29_hor_b1_b.png","f","pattern_response","true","f","pattern_52","833.4000000953674","true","19","","","","","","","","","","","","","","","","","","",""
"","","","","","html-keyboard-response","69","140159","0.0-2.0-5.0-0.24","5bcbde9d08a62c0001f86bd0","F1","batch6","","null","<p class=block-text>Trial 25 out of 78</p>","null","pattern_show_trial_num","","","","","","","","","","","","","","","","","","","","","","","","",""
"","","","","","image-keyboard-response","70","140944","0.0-2.0-5.0-1.24","5bcbde9d08a62c0001f86bd0","F1","batch6","","781.9000000953674","stim/no_15_1_w.png","j","pattern_response","true","j","pattern_03","781.9000000953674","true","20","","","","","","","","","","","","","","","","","","",""
"","","","","","html-keyboard-response","71","142259","0.0-2.0-5.0-0.25","5bcbde9d08a62c0001f86bd0","F1","batch6","","null","<p class=block-text>Trial 26 out of 78</p>","null","pattern_show_trial_num","","","","","","","","","","","","","","","","","","","","","","","","",""
"","","","","","image-keyboard-response","72","145736","0.0-2.0-5.0-1.25","5bcbde9d08a62c0001f86bd0","F1","batch6","","3473.100000023842","stim/yes_42_dia_w1_w.png","j","pattern_response","false","f","pattern_64","3473.100000023842","false","20","","","","","","","","","","","","","","","","","","",""
"","","","","","html-keyboard-response","73","147047","0.0-2.0-5.0-0.26","5bcbde9d08a62c0001f86bd0","F1","batch6","","null","<p class=block-text>Trial 27 out of 78</p>","null","pattern_show_trial_num","","","","","","","","","","","","","","","","","","","","","","","","",""
"","","","","","image-keyboard-response","74","147868","0.0-2.0-5.0-1.26","5bcbde9d08a62c0001f86bd0","F1","batch6","","819.2999999523163","stim/yes_17_ver_b1_b.png","f","pattern_response","true","f","pattern_46","819.2999999523163","true","21","","","","","","","","","","","","","","","","","","",""
"","","","","","html-keyboard-response","75","149185","0.0-2.0-5.0-0.27","5bcbde9d08a62c0001f86bd0","F1","batch6","","null","<p class=block-text>Trial 28 out of 78</p>","null","pattern_show_trial_num","","","","","","","","","","","","","","","","","","","","","","","","",""
"","","","","","image-keyboard-response","76","151244","0.0-2.0-5.0-1.27","5bcbde9d08a62c0001f86bd0","F1","batch6","","2057.5","stim/no_39_1_w.png","j","pattern_response","true","j","pattern_21","2057.5","true","22","","","","","","","","","","","","","","","","","","",""
"","","","","","html-keyboard-response","77","152564","0.0-2.0-5.0-0.28","5bcbde9d08a62c0001f86bd0","F1","batch6","","null","<p class=block-text>Trial 29 out of 78</p>","null","pattern_show_trial_num","","","","","","","","","","","","","","","","","","","","","","","","",""
"","","","","","image-keyboard-response","78","155659","0.0-2.0-5.0-1.28","5bcbde9d08a62c0001f86bd0","F1","batch6","","3090.100000023842","stim/yes_63_dia_b1.png","j","pattern_response","false","f","pattern_78","3090.100000023842","false","22","","","","","","","","","","","","","","","","","","",""
"","","","","","html-keyboard-response","79","156979","0.0-2.0-5.0-0.29","5bcbde9d08a62c0001f86bd0","F1","batch6","","null","<p class=block-text>Trial 30 out of 78</p>","null","pattern_show_trial_num","","","","","","","","","","","","","","","","","","","","","","","","",""
"","","","","","image-keyboard-response","80","158024","0.0-2.0-5.0-1.29","5bcbde9d08a62c0001f86bd0","F1","batch6","","1044.1000000238419","stim/yes_23_ver_b1.png","j","pattern_response","false","f","pattern_48","1044.1000000238419","false","22","","","","","","","","","","","","","","","","","","",""
"","","","","","html-keyboard-response","81","159344","0.0-2.0-5.0-0.30","5bcbde9d08a62c0001f86bd0","F1","batch6","","null","<p class=block-text>Trial 31 out of 78</p>","null","pattern_show_trial_num","","","","","","","","","","","","","","","","","","","","","","","","",""
"","","","","","image-keyboard-response","82","161335","0.0-2.0-5.0-1.30","5bcbde9d08a62c0001f86bd0","F1","batch6","","1989.2000000476837","stim/yes_53_ver_b1_b.png","f","pattern_response","true","f","pattern_74","1989.2000000476837","true","23","","","","","","","","","","","","","","","","","","",""
"","","","","","html-keyboard-response","83","162653","0.0-2.0-5.0-0.31","5bcbde9d08a62c0001f86bd0","F1","batch6","","null","<p class=block-text>Trial 32 out of 78</p>","null","pattern_show_trial_num","","","","","","","","","","","","","","","","","","","","","","","","",""
"","","","","","image-keyboard-response","84","164519","0.0-2.0-5.0-1.31","5bcbde9d08a62c0001f86bd0","F1","batch6","","1861.2999999523163","stim/no_43_2_b.png","j","pattern_response","true","j","pattern_23","1861.2999999523163","true","24","","","","","","","","","","","","","","","","","","",""
"","","","","","html-keyboard-response","85","165843","0.0-2.0-5.0-0.32","5bcbde9d08a62c0001f86bd0","F1","batch6","","null","<p class=block-text>Trial 33 out of 78</p>","null","pattern_show_trial_num","","","","","","","","","","","","","","","","","","","","","","","","",""
"","","","","","image-keyboard-response","86","168557","0.0-2.0-5.0-1.32","5bcbde9d08a62c0001f86bd0","F1","batch6","","2711","stim/no_47_1_b.png","j","pattern_response","true","j","pattern_27","2711","true","25","","","","","","","","","","","","","","","","","","",""
"","","","","","html-keyboard-response","87","169873","0.0-2.0-5.0-0.33","5bcbde9d08a62c0001f86bd0","F1","batch6","","null","<p class=block-text>Trial 34 out of 78</p>","null","pattern_show_trial_num","","","","","","","","","","","","","","","","","","","","","","","","",""
"","","","","","image-keyboard-response","88","170850","0.0-2.0-5.0-1.33","5bcbde9d08a62c0001f86bd0","F1","batch6","","972.6999999284744","stim/no_22_1_b.png","j","pattern_response","true","j","pattern_07","972.6999999284744","true","26","","","","","","","","","","","","","","","","","","",""
"","","","","","html-keyboard-response","89","172167","0.0-2.0-5.0-0.34","5bcbde9d08a62c0001f86bd0","F1","batch6","","null","<p class=block-text>Trial 35 out of 78</p>","null","pattern_show_trial_num","","","","","","","","","","","","","","","","","","","","","","","","",""
"","","","","","image-keyboard-response","90","176322","0.0-2.0-5.0-1.34","5bcbde9d08a62c0001f86bd0","F1","batch6","","4153.699999928474","stim/no_51_1.png","j","pattern_response","true","j","pattern_31","4153.699999928474","true","27","","","","","","","","","","","","","","","","","","",""
"","","","","","html-keyboard-response","91","177637","0.0-2.0-5.0-0.35","5bcbde9d08a62c0001f86bd0","F1","batch6","","null","<p class=block-text>Trial 36 out of 78</p>","null","pattern_show_trial_num","","","","","","","","","","","","","","","","","","","","","","","","",""
"","","","","","image-keyboard-response","92","178917","0.0-2.0-5.0-1.35","5bcbde9d08a62c0001f86bd0","F1","batch6","","1276.7000000476837","stim/yes_37_hor_w1_w.png","f","pattern_response","true","f","pattern_60","1276.7000000476837","true","28","","","","","","","","","","","","","","","","","","",""
"","","","","","html-keyboard-response","93","180243","0.0-2.0-5.0-0.36","5bcbde9d08a62c0001f86bd0","F1","batch6","","null","<p class=block-text>Trial 37 out of 78</p>","null","pattern_show_trial_num","","","","","","","","","","","","","","","","","","","","","","","","",""
"","","","","","image-keyboard-response","94","181283","0.0-2.0-5.0-1.36","5bcbde9d08a62c0001f86bd0","F1","batch6","","1038.5","stim/yes_36_ver_w1_w.png","f","pattern_response","true","f","pattern_58","1038.5","true","29","","","","","","","","","","","","","","","","","","",""
"","","","","","html-keyboard-response","95","182601","0.0-2.0-5.0-0.37","5bcbde9d08a62c0001f86bd0","F1","batch6","","null","<p class=block-text>Trial 38 out of 78</p>","null","pattern_show_trial_num","","","","","","","","","","","","","","","","","","","","","","","","",""
"","","","","","image-keyboard-response","96","184675","0.0-2.0-5.0-1.37","5bcbde9d08a62c0001f86bd0","F1","batch6","","2068.7999999523163","stim/no_28_2.png","j","pattern_response","true","j","pattern_11","2068.7999999523163","true","30","","","","","","","","","","","","","","","","","","",""
"","","","","","html-keyboard-response","97","185988","0.0-2.0-5.0-0.38","5bcbde9d08a62c0001f86bd0","F1","batch6","","null","<p class=block-text>Trial 39 out of 78</p>","null","pattern_show_trial_num","","","","","","","","","","","","","","","","","","","","","","","","",""
"","","","","","image-keyboard-response","98","189204","0.0-2.0-5.0-1.38","5bcbde9d08a62c0001f86bd0","F1","batch6","","3214.2999999523163","stim/no_53_1_b.png","j","pattern_response","true","j","pattern_33","3214.2999999523163","true","31","","","","","","","","","","","","","","","","","","",""
"","","","","","image-keyboard-response","99","191458","0.0-2.0-6.0","5bcbde9d08a62c0001f86bd0","F1","batch6","","1736.8999999761581","stim/empty_board.png","j","attention_check","true","j","","","","","500","[""f"",""j""]","","","","","","","","","","","","","","","","",""
"","","","","","html-keyboard-response","100","192265","0.0-2.0-7.0-0.0","5bcbde9d08a62c0001f86bd0","F1","batch6","","null","<p class=block-text>Trial 40 out of 78</p>","null","pattern_show_trial_num","","","","","","","","","","","","","","","","","","","","","","","","",""
"","","","","","image-keyboard-response","101","194125","0.0-2.0-7.0-1.0","5bcbde9d08a62c0001f86bd0","F1","batch6","","1859.3000000715256","stim/no_23_1.png","j","pattern_response","true","j","pattern_08","1859.3000000715256","true","32","","","","","","","","","","","","","","","","","","",""
"","","","","","html-keyboard-response","102","195452","0.0-2.0-7.0-0.1","5bcbde9d08a62c0001f86bd0","F1","batch6","","null","<p class=block-text>Trial 41 out of 78</p>","null","pattern_show_trial_num","","","","","","","","","","","","","","","","","","","","","","","","",""
"","","","","","image-keyboard-response","103","196709","0.0-2.0-7.0-1.1","5bcbde9d08a62c0001f86bd0","F1","batch6","","1255.1999999284744","stim/yes_52_ver_w1.png","f","pattern_response","true","f","pattern_73","1255.1999999284744","true","33","","","","","","","","","","","","","","","","","","",""
"","","","","","html-keyboard-response","104","198036","0.0-2.0-7.0-0.2","5bcbde9d08a62c0001f86bd0","F1","batch6","","null","<p class=block-text>Trial 42 out of 78</p>","null","pattern_show_trial_num","","","","","","","","","","","","","","","","","","","","","","","","",""
"","","","","","image-keyboard-response","105","199525","0.0-2.0-7.0-1.2","5bcbde9d08a62c0001f86bd0","F1","batch6","","1485.1000000238419","stim/yes_40_dia_b1_b.png","j","pattern_response","false","f","pattern_63","1485.1000000238419","false","33","","","","","","","","","","","","","","","","","","",""
"","","","","","html-keyboard-response","106","200844","0.0-2.0-7.0-0.3","5bcbde9d08a62c0001f86bd0","F1","batch6","","null","<p class=block-text>Trial 43 out of 78</p>","null","pattern_show_trial_num","","","","","","","","","","","","","","","","","","","","","","","","",""
"","","","","","image-keyboard-response","107","201755","0.0-2.0-7.0-1.3","5bcbde9d08a62c0001f86bd0","F1","batch6","","908.3999999761581","stim/yes_28_ver_b1.png","f","pattern_response","true","f","pattern_51","908.3999999761581","true","34","","","","","","","","","","","","","","","","","","",""
"","","","","","html-keyboard-response","108","203078","0.0-2.0-7.0-0.4","5bcbde9d08a62c0001f86bd0","F1","batch6","","null","<p class=block-text>Trial 44 out of 78</p>","null","pattern_show_trial_num","","","","","","","","","","","","","","","","","","","","","","","","",""
"","","","","","image-keyboard-response","109","205689","0.0-2.0-7.0-1.4","5bcbde9d08a62c0001f86bd0","F1","batch6","","2607","stim/yes_50_dia_w1.png","j","pattern_response","false","f","pattern_71","2607","false","34","","","","","","","","","","","","","","","","","","",""
"","","","","","html-keyboard-response","110","207006","0.0-2.0-7.0-0.5","5bcbde9d08a62c0001f86bd0","F1","batch6","","null","<p class=block-text>Trial 45 out of 78</p>","null","pattern_show_trial_num","","","","","","","","","","","","","","","","","","","","","","","","",""
"","","","","","image-keyboard-response","111","208489","0.0-2.0-7.0-1.5","5bcbde9d08a62c0001f86bd0","F1","batch6","","1478","stim/yes_35_dia_b1.png","f","pattern_response","true","f","pattern_57","1478","true","35","","","","","","","","","","","","","","","","","","",""
"","","","","","html-keyboard-response","112","209800","0.0-2.0-7.0-0.6","5bcbde9d08a62c0001f86bd0","F1","batch6","","null","<p class=block-text>Trial 46 out of 78</p>","null","pattern_show_trial_num","","","","","","","","","","","","","","","","","","","","","","","","",""
"","","","","","image-keyboard-response","113","212247","0.0-2.0-7.0-1.6","5bcbde9d08a62c0001f86bd0","F1","batch6","","2445.7000000476837","stim/no_48_1_w.png","j","pattern_response","true","j","pattern_28","2445.7000000476837","true","36","","","","","","","","","","","","","","","","","","",""
"","","","","","html-keyboard-response","114","213563","0.0-2.0-7.0-0.7","5bcbde9d08a62c0001f86bd0","F1","batch6","","null","<p class=block-text>Trial 47 out of 78</p>","null","pattern_show_trial_num","","","","","","","","","","","","","","","","","","","","","","","","",""
"","","","","","image-keyboard-response","115","215333","0.0-2.0-7.0-1.7","5bcbde9d08a62c0001f86bd0","F1","batch6","","1768.1000000238419","stim/no_44_1.png","j","pattern_response","true","j","pattern_24","1768.1000000238419","true","37","","","","","","","","","","","","","","","","","","",""
"","","","","","html-keyboard-response","116","216652","0.0-2.0-7.0-0.8","5bcbde9d08a62c0001f86bd0","F1","batch6","","null","<p class=block-text>Trial 48 out of 78</p>","null","pattern_show_trial_num","","","","","","","","","","","","","","","","","","","","","","","","",""
"","","","","","image-keyboard-response","117","219155","0.0-2.0-7.0-1.8","5bcbde9d08a62c0001f86bd0","F1","batch6","","2499.0999999046326","stim/yes_55_hor_w1_w.png","j","pattern_response","false","f","pattern_75","2499.0999999046326","false","37","","","","","","","","","","","","","","","","","","",""
"","","","","","html-keyboard-response","118","220473","0.0-2.0-7.0-0.9","5bcbde9d08a62c0001f86bd0","F1","batch6","","null","<p class=block-text>Trial 49 out of 78</p>","null","pattern_show_trial_num","","","","","","","","","","","","","","","","","","","","","","","","",""
"","","","","","image-keyboard-response","119","225938","0.0-2.0-7.0-1.9","5bcbde9d08a62c0001f86bd0","F1","batch6","","5461.200000047684","stim/no_62_1_w.png","j","pattern_response","true","j","pattern_36","5461.200000047684","true","38","","","","","","","","","","","","","","","","","","",""
"","","","","","html-keyboard-response","120","227259","0.0-2.0-7.0-0.10","5bcbde9d08a62c0001f86bd0","F1","batch6","","null","<p class=block-text>Trial 50 out of 78</p>","null","pattern_show_trial_num","","","","","","","","","","","","","","","","","","","","","","","","",""
"","","","","","image-keyboard-response","121","232687","0.0-2.0-7.0-1.10","5bcbde9d08a62c0001f86bd0","F1","batch6","","5423.400000095367","stim/no_65_1_b.png","j","pattern_response","true","j","pattern_38","5423.400000095367","true","39","","","","","","","","","","","","","","","","","","",""
"","","","","","html-keyboard-response","122","234004","0.0-2.0-7.0-0.11","5bcbde9d08a62c0001f86bd0","F1","batch6","","null","<p class=block-text>Trial 51 out of 78</p>","null","pattern_show_trial_num","","","","","","","","","","","","","","","","","","","","","","","","",""
"","","","","","image-keyboard-response","123","235441","0.0-2.0-7.0-1.11","5bcbde9d08a62c0001f86bd0","F1","batch6","","1431.8999999761581","stim/yes_38_hor_b1_b.png","f","pattern_response","true","f","pattern_61","1431.8999999761581","true","40","","","","","","","","","","","","","","","","","","",""
"","","","","","html-keyboard-response","124","236758","0.0-2.0-7.0-0.12","5bcbde9d08a62c0001f86bd0","F1","batch6","","null","<p class=block-text>Trial 52 out of 78</p>","null","pattern_show_trial_num","","","","","","","","","","","","","","","","","","","","","","","","",""
"","","","","","image-keyboard-response","125","240648","0.0-2.0-7.0-1.12","5bcbde9d08a62c0001f86bd0","F1","batch6","","3888","stim/no_46_1_b.png","j","pattern_response","true","j","pattern_26","3888","true","41","","","","","","","","","","","","","","","","","","",""
"","","","","","html-keyboard-response","126","241966","0.0-2.0-7.0-0.13","5bcbde9d08a62c0001f86bd0","F1","batch6","","null","<p class=block-text>Trial 53 out of 78</p>","null","pattern_show_trial_num","","","","","","","","","","","","","","","","","","","","","","","","",""
"","","","","","image-keyboard-response","127","243648","0.0-2.0-7.0-1.13","5bcbde9d08a62c0001f86bd0","F1","batch6","","1677.8999999761581","stim/yes_31_hor_b1.png","f","pattern_response","true","f","pattern_55","1677.8999999761581","true","42","","","","","","","","","","","","","","","","","","",""
"","","","","","html-keyboard-response","128","244966","0.0-2.0-7.0-0.14","5bcbde9d08a62c0001f86bd0","F1","batch6","","null","<p class=block-text>Trial 54 out of 78</p>","null","pattern_show_trial_num","","","","","","","","","","","","","","","","","","","","","","","","",""
"","","","","","image-keyboard-response","129","245765","0.0-2.0-7.0-1.14","5bcbde9d08a62c0001f86bd0","F1","batch6","","794.2999999523163","stim/no_13_2_b.png","j","pattern_response","true","j","pattern_02","794.2999999523163","true","43","","","","","","","","","","","","","","","","","","",""
"","","","","","html-keyboard-response","130","247088","0.0-2.0-7.0-0.15","5bcbde9d08a62c0001f86bd0","F1","batch6","","null","<p class=block-text>Trial 55 out of 78</p>","null","pattern_show_trial_num","","","","","","","","","","","","","","","","","","","","","","","","",""
"","","","","","image-keyboard-response","131","250345","0.0-2.0-7.0-1.15","5bcbde9d08a62c0001f86bd0","F1","batch6","","3253.7999999523163","stim/no_52_1.png","j","pattern_response","true","j","pattern_32","3253.7999999523163","true","44","","","","","","","","","","","","","","","","","","",""
"","","","","","html-keyboard-response","132","251666","0.0-2.0-7.0-0.16","5bcbde9d08a62c0001f86bd0","F1","batch6","","null","<p class=block-text>Trial 56 out of 78</p>","null","pattern_show_trial_num","","","","","","","","","","","","","","","","","","","","","","","","",""
"","","","","","image-keyboard-response","133","255464","0.0-2.0-7.0-1.16","5bcbde9d08a62c0001f86bd0","F1","batch6","","3793.600000023842","stim/no_50_1.png","j","pattern_response","true","j","pattern_30","3793.600000023842","true","45","","","","","","","","","","","","","","","","","","",""
"","","","","","html-keyboard-response","134","256791","0.0-2.0-7.0-0.17","5bcbde9d08a62c0001f86bd0","F1","batch6","","null","<p class=block-text>Trial 57 out of 78</p>","null","pattern_show_trial_num","","","","","","","","","","","","","","","","","","","","","","","","",""
"","","","","","image-keyboard-response","135","257569","0.0-2.0-7.0-1.17","5bcbde9d08a62c0001f86bd0","F1","batch6","","776.5","stim/yes_14_hor_b1_w.png","f","pattern_response","true","f","pattern_43","776.5","true","46","","","","","","","","","","","","","","","","","","",""
"","","","","","html-keyboard-response","136","258892","0.0-2.0-7.0-0.18","5bcbde9d08a62c0001f86bd0","F1","batch6","","null","<p class=block-text>Trial 58 out of 78</p>","null","pattern_show_trial_num","","","","","","","","","","","","","","","","","","","","","","","","",""
"","","","","","image-keyboard-response","137","260597","0.0-2.0-7.0-1.18","5bcbde9d08a62c0001f86bd0","F1","batch6","","1703.8999999761581","stim/yes_60_ver_b1_b.png","f","pattern_response","true","f","pattern_77","1703.8999999761581","true","47","","","","","","","","","","","","","","","","","","",""
"","","","","","html-keyboard-response","138","261920","0.0-2.0-7.0-0.19","5bcbde9d08a62c0001f86bd0","F1","batch6","","null","<p class=block-text>Trial 59 out of 78</p>","null","pattern_show_trial_num","","","","","","","","","","","","","","","","","","","","","","","","",""
"","","","","","image-keyboard-response","139","265382","0.0-2.0-7.0-1.19","5bcbde9d08a62c0001f86bd0","F1","batch6","","3458.8000000715256","stim/no_34_1_b.png","j","pattern_response","true","j","pattern_16","3458.8000000715256","true","48","","","","","","","","","","","","","","","","","","",""
"","","","","","html-keyboard-response","140","266699","0.0-2.0-7.0-0.20","5bcbde9d08a62c0001f86bd0","F1","batch6","","null","<p class=block-text>Trial 60 out of 78</p>","null","pattern_show_trial_num","","","","","","","","","","","","","","","","","","","","","","","","",""
"","","","","","image-keyboard-response","141","269696","0.0-2.0-7.0-1.20","5bcbde9d08a62c0001f86bd0","F1","batch6","","2992.7000000476837","stim/yes_37_dia_w1.png","j","pattern_response","false","f","pattern_59","2992.7000000476837","false","48","","","","","","","","","","","","","","","","","","",""
"","","","","","html-keyboard-response","142","271014","0.0-2.0-7.0-0.21","5bcbde9d08a62c0001f86bd0","F1","batch6","","null","<p class=block-text>Trial 61 out of 78</p>","null","pattern_show_trial_num","","","","","","","","","","","","","","","","","","","","","","","","",""
"","","","","","image-keyboard-response","143","272076","0.0-2.0-7.0-1.21","5bcbde9d08a62c0001f86bd0","F1","batch6","","1058.7000000476837","stim/yes_17_dia_w1.png","f","pattern_response","true","f","pattern_45","1058.7000000476837","true","49","","","","","","","","","","","","","","","","","","",""
"","","","","","html-keyboard-response","144","273389","0.0-2.0-7.0-0.22","5bcbde9d08a62c0001f86bd0","F1","batch6","","null","<p class=block-text>Trial 62 out of 78</p>","null","pattern_show_trial_num","","","","","","","","","","","","","","","","","","","","","","","","",""
"","","","","","image-keyboard-response","145","276343","0.0-2.0-7.0-1.22","5bcbde9d08a62c0001f86bd0","F1","batch6","","2952","stim/no_29_1_b.png","j","pattern_response","true","j","pattern_12","2952","true","50","","","","","","","","","","","","","","","","","","",""
"","","","","","html-keyboard-response","146","277666","0.0-2.0-7.0-0.23","5bcbde9d08a62c0001f86bd0","F1","batch6","","null","<p class=block-text>Trial 63 out of 78</p>","null","pattern_show_trial_num","","","","","","","","","","","","","","","","","","","","","","","","",""
"","","","","","image-keyboard-response","147","278658","0.0-2.0-7.0-1.23","5bcbde9d08a62c0001f86bd0","F1","batch6","","987","stim/yes_22_ver_w1.png","f","pattern_response","true","f","pattern_47","987","true","51","","","","","","","","","","","","","","","","","","",""
"","","","","","html-keyboard-response","148","279977","0.0-2.0-7.0-0.24","5bcbde9d08a62c0001f86bd0","F1","batch6","","null","<p class=block-text>Trial 64 out of 78</p>","null","pattern_show_trial_num","","","","","","","","","","","","","","","","","","","","","","","","",""
"","","","","","image-keyboard-response","149","284377","0.0-2.0-7.0-1.24","5bcbde9d08a62c0001f86bd0","F1","batch6","","4399.299999952316","stim/no_55_1_w.png","j","pattern_response","true","j","pattern_34","4399.299999952316","true","52","","","","","","","","","","","","","","","","","","",""
"","","","","","html-keyboard-response","150","285701","0.0-2.0-7.0-0.25","5bcbde9d08a62c0001f86bd0","F1","batch6","","null","<p class=block-text>Trial 65 out of 78</p>","null","pattern_show_trial_num","","","","","","","","","","","","","","","","","","","","","","","","",""
"","","","","","image-keyboard-response","151","288736","0.0-2.0-7.0-1.25","5bcbde9d08a62c0001f86bd0","F1","batch6","","3033.1999999284744","stim/no_32_1_w.png","j","pattern_response","true","j","pattern_14","3033.1999999284744","true","53","","","","","","","","","","","","","","","","","","",""
"","","","","","html-keyboard-response","152","290048","0.0-2.0-7.0-0.26","5bcbde9d08a62c0001f86bd0","F1","batch6","","null","<p class=block-text>Trial 66 out of 78</p>","null","pattern_show_trial_num","","","","","","","","","","","","","","","","","","","","","","","","",""
"","","","","","image-keyboard-response","153","292011","0.0-2.0-7.0-1.26","5bcbde9d08a62c0001f86bd0","F1","batch6","","1959.1000000238419","stim/yes_67_hor_b1.png","f","pattern_response","true","f","pattern_79","1959.1000000238419","true","54","","","","","","","","","","","","","","","","","","",""
"","","","","","html-keyboard-response","154","293334","0.0-2.0-7.0-0.27","5bcbde9d08a62c0001f86bd0","F1","batch6","","null","<p class=block-text>Trial 67 out of 78</p>","null","pattern_show_trial_num","","","","","","","","","","","","","","","","","","","","","","","","",""
"","","","","","image-keyboard-response","155","297657","0.0-2.0-7.0-1.27","5bcbde9d08a62c0001f86bd0","F1","batch6","","4319","stim/no_70_2.png","j","pattern_response","true","j","pattern_40","4319","true","55","","","","","","","","","","","","","","","","","","",""
"","","","","","html-keyboard-response","156","298974","0.0-2.0-7.0-0.28","5bcbde9d08a62c0001f86bd0","F1","batch6","","null","<p class=block-text>Trial 68 out of 78</p>","null","pattern_show_trial_num","","","","","","","","","","","","","","","","","","","","","","","","",""
"","","","","","image-keyboard-response","157","299907","0.0-2.0-7.0-1.28","5bcbde9d08a62c0001f86bd0","F1","batch6","","928.5","stim/no_17_1_w.png","j","pattern_response","true","j","pattern_04","928.5","true","56","","","","","","","","","","","","","","","","","","",""
"","","","","","html-keyboard-response","158","301224","0.0-2.0-7.0-0.29","5bcbde9d08a62c0001f86bd0","F1","batch6","","null","<p class=block-text>Trial 69 out of 78</p>","null","pattern_show_trial_num","","","","","","","","","","","","","","","","","","","","","","","","",""
"","","","","","image-keyboard-response","159","302661","0.0-2.0-7.0-1.29","5bcbde9d08a62c0001f86bd0","F1","batch6","","1434.6000000238419","stim/no_26_1_w.png","j","pattern_response","true","j","pattern_10","1434.6000000238419","true","57","","","","","","","","","","","","","","","","","","",""
"","","","","","html-keyboard-response","160","303988","0.0-2.0-7.0-0.30","5bcbde9d08a62c0001f86bd0","F1","batch6","","null","<p class=block-text>Trial 70 out of 78</p>","null","pattern_show_trial_num","","","","","","","","","","","","","","","","","","","","","","","","",""
"","","","","","image-keyboard-response","161","304722","0.0-2.0-7.0-1.30","5bcbde9d08a62c0001f86bd0","F1","batch6","","731.8999999761581","stim/yes_25_hor_b1_b.png","f","pattern_response","true","f","pattern_49","731.8999999761581","true","58","","","","","","","","","","","","","","","","","","",""
"","","","","","html-keyboard-response","162","306039","0.0-2.0-7.0-0.31","5bcbde9d08a62c0001f86bd0","F1","batch6","","null","<p class=block-text>Trial 71 out of 78</p>","null","pattern_show_trial_num","","","","","","","","","","","","","","","","","","","","","","","","",""
"","","","","","image-keyboard-response","163","307126","0.0-2.0-7.0-1.31","5bcbde9d08a62c0001f86bd0","F1","batch6","","1085.9000000953674","stim/yes_43_ver_w1_w.png","f","pattern_response","true","f","pattern_65","1085.9000000953674","true","59","","","","","","","","","","","","","","","","","","",""
"","","","","","html-keyboard-response","164","308445","0.0-2.0-7.0-0.32","5bcbde9d08a62c0001f86bd0","F1","batch6","","null","<p class=block-text>Trial 72 out of 78</p>","null","pattern_show_trial_num","","","","","","","","","","","","","","","","","","","","","","","","",""
"","","","","","image-keyboard-response","165","310488","0.0-2.0-7.0-1.32","5bcbde9d08a62c0001f86bd0","F1","batch6","","2042","stim/no_38_1_b.png","j","pattern_response","true","j","pattern_20","2042","true","60","","","","","","","","","","","","","","","","","","",""
"","","","","","html-keyboard-response","166","311801","0.0-2.0-7.0-0.33","5bcbde9d08a62c0001f86bd0","F1","batch6","","null","<p class=block-text>Trial 73 out of 78</p>","null","pattern_show_trial_num","","","","","","","","","","","","","","","","","","","","","","","","",""
"","","","","","image-keyboard-response","167","314262","0.0-2.0-7.0-1.33","5bcbde9d08a62c0001f86bd0","F1","batch6","","2459.2999999523163","stim/no_36_2_w.png","j","pattern_response","true","j","pattern_18","2459.2999999523163","true","61","","","","","","","","","","","","","","","","","","",""
"","","","","","html-keyboard-response","168","315581","0.0-2.0-7.0-0.34","5bcbde9d08a62c0001f86bd0","F1","batch6","","null","<p class=block-text>Trial 74 out of 78</p>","null","pattern_show_trial_num","","","","","","","","","","","","","","","","","","","","","","","","",""
"","","","","","image-keyboard-response","169","316850","0.0-2.0-7.0-1.34","5bcbde9d08a62c0001f86bd0","F1","batch6","","1264.6000000238419","stim/yes_45_hor_b2_b.png","f","pattern_response","true","f","pattern_67","1264.6000000238419","true","62","","","","","","","","","","","","","","","","","","",""
"","","","","","html-keyboard-response","170","318168","0.0-2.0-7.0-0.35","5bcbde9d08a62c0001f86bd0","F1","batch6","","null","<p class=block-text>Trial 75 out of 78</p>","null","pattern_show_trial_num","","","","","","","","","","","","","","","","","","","","","","","","",""
"","","","","","image-keyboard-response","171","320255","0.0-2.0-7.0-1.35","5bcbde9d08a62c0001f86bd0","F1","batch6","","2085.100000023842","stim/no_42_1_w.png","j","pattern_response","true","j","pattern_22","2085.100000023842","true","63","","","","","","","","","","","","","","","","","","",""
"","","","","","html-keyboard-response","172","321566","0.0-2.0-7.0-0.36","5bcbde9d08a62c0001f86bd0","F1","batch6","","null","<p class=block-text>Trial 76 out of 78</p>","null","pattern_show_trial_num","","","","","","","","","","","","","","","","","","","","","","","","",""
"","","","","","image-keyboard-response","173","322537","0.0-2.0-7.0-1.36","5bcbde9d08a62c0001f86bd0","F1","batch6","","966.4000000953674","stim/yes_29_ver_w1.png","f","pattern_response","true","f","pattern_53","966.4000000953674","true","64","","","","","","","","","","","","","","","","","","",""
"","","","","","html-keyboard-response","174","323857","0.0-2.0-7.0-0.37","5bcbde9d08a62c0001f86bd0","F1","batch6","","null","<p class=block-text>Trial 77 out of 78</p>","null","pattern_show_trial_num","","","","","","","","","","","","","","","","","","","","","","","","",""
"","","","","","image-keyboard-response","175","326444","0.0-2.0-7.0-1.37","5bcbde9d08a62c0001f86bd0","F1","batch6","","2584.399999976158","stim/yes_48_dia_w1_w.png","j","pattern_response","false","f","pattern_69","2584.399999976158","false","64","","","","","","","","","","","","","","","","","","",""
"","","","","","html-keyboard-response","176","327758","0.0-2.0-7.0-0.38","5bcbde9d08a62c0001f86bd0","F1","batch6","","null","<p class=block-text>Trial 78 out of 78</p>","null","pattern_show_trial_num","","","","","","","","","","","","","","","","","","","","","","","","",""
"","","","","","image-keyboard-response","177","329201","0.0-2.0-7.0-1.38","5bcbde9d08a62c0001f86bd0","F1","batch6","","1438.3999999761581","stim/no_20_1_w.png","j","pattern_response","true","j","pattern_06","1438.3999999761581","true","65","","","","","","","","","","","","","","","","","","",""
"","","","","","html-button-response","178","333316","0.0-2.0-8.0","5bcbde9d08a62c0001f86bd0","F1","batch6","","3601.600000023842","<p class = block-text>This concludes the 4-in-a-row detection game.Thank you for your responses!<br>
            You responded correctly on 83% of the trials.<br>
            When you are ready, press ""Continue"" button to continue </p>","0","","","","","","","","","","","","","","","","","","","","","","","","","",""
"true","","","","","fullscreen","179","335841","0.0-3.0-0.0","5bcbde9d08a62c0001f86bd0","F1","batch6","","","","","","","","","","","","","","","","","","","","","","","","","","","","","",""
"","","","","","instructions","180","376359","0.0-3.0-1.0-0.0-0.0","5bcbde9d08a62c0001f86bd0","F1","batch6","[{""page_index"":0,""viewing_time"":8288.200000047684},{""page_index"":1,""viewing_time"":6009.799999952316},{""page_index"":2,""viewing_time"":5833.300000071526},{""page_index"":3,""viewing_time"":7172.899999976158},{""page_index"":4,""viewing_time"":3416},{""page_index"":5,""viewing_time"":7895.100000023842},{""page_index"":6,""viewing_time"":1901.7999999523163}]","40517.200000047684","","","tol-instructions","","","","","","","","","","","","","","","","","","","","","","","","",""
"","","","","","html-button-response","181","377186","0.0-3.0-1.0-1.0-0.0","5bcbde9d08a62c0001f86bd0","F1","batch6","","826.2999999523163","<p class=block-text> Let's answer a few questions <br>","0","tol_enter_quiz","","","","","","","","","","","","","","","","","","","","","","","","",""
"","","","","","html-button-response","182","380730","0.0-3.0-1.0-1.0-1.0","5bcbde9d08a62c0001f86bd0","F1","batch6","","3543.1999999284744","<p class = block-text>True or False: You can only move the ball on top of a peg. <br></p>","0","tol_quiz","true","","","","","","","","","","","","","","","","","","","","","","","",""
"","","","","","html-button-response","183","381753","0.0-3.0-1.0-1.0-2.0","5bcbde9d08a62c0001f86bd0","F1","batch6","","1021.8999999761581","<p class = block-text>Correct! You can only move the ball on top of a peg.</p>","0","tol_quiz_feedback","","","","","","","","","","","","","","","","","","","","","","","","",""
"","","","","","html-button-response","184","383888","0.0-3.0-1.0-1.0-3.0","5bcbde9d08a62c0001f86bd0","F1","batch6","","2134.399999976158","<p class = block-text>True or False: You should try to match your board with the target board with fewest moves possible. <br></p>","0","tol_quiz","true","","","","","","","","","","","","","","","","","","","","","","","",""
"","","","","","html-button-response","185","384543","0.0-3.0-1.0-1.0-4.0","5bcbde9d08a62c0001f86bd0","F1","batch6","","654.3000000715256","<p class = block-text>Correct! </p>","0","tol_quiz_feedback","","","","","","","","","","","","","","","","","","","","","","","","",""
"","","","","","html-button-response","186","385710","0.0-3.0-2.0","5bcbde9d08a62c0001f86bd0","F1","batch6","","1166","<p class=block-text> Now that you've understood the game, let's practice a few easier examples before we start!<br> <br>","0","","","","","","","","","","","","","","","","","","","","","","","","","",""
"","","","","","single-stim-button","187","388019","0.0-3.0-3.0-0.0","5bcbde9d08a62c0001f86bd0","F1","batch6","","2307","","","tol_practice","","","","","","","","","tol_peg_2","2307","2307","0","[[1,2,0],[0,0],[0]]","1","[[1,2,0],[0,0],[3]]","practice","2307","","","","","","","",""
"","","","","","single-stim-button","188","389038","0.0-3.0-3.0-1.0","5bcbde9d08a62c0001f86bd0","F1","batch6","","1019","","","tol_practice","","","","","","","","","tol_peg_3","1019","1019","0","[[1,2,0],[0,0],[3]]","1","[[1,2,0],[0,0],[3]]","practice","1019","","","","","","","",""
"","","","","","poldrack-single-stim","189","390040","0.0-3.0-4.0","5bcbde9d08a62c0001f86bd0","F1","batch6","","-1","","","tol_feedback","true","","","","","","","","","1000","1000","500","","","","","","-1","none","true","","0","","",""
"","","","","","single-stim-button","190","393286","0.0-3.0-5.0-0.0","5bcbde9d08a62c0001f86bd0","F1","batch6","","3245","","","tol_practice","","","","","","","","","tol_peg_1","3245","3245","0","[[1,0,0],[3,0],[0]]","2","[[0,0,0],[3,1],[2]]","practice","3245","","","","","","","",""
"","","","","","single-stim-button","191","394399","0.0-3.0-5.0-1.0","5bcbde9d08a62c0001f86bd0","F1","batch6","","1112","","","tol_practice","","","","","","","","","tol_peg_3","1112","1112","0","[[1,0,0],[3,0],[2]]","2","[[0,0,0],[3,1],[2]]","practice","1112","","","","","","","",""
"","","","","","single-stim-button","192","394969","0.0-3.0-5.1-0.1","5bcbde9d08a62c0001f86bd0","F1","batch6","","570","","","tol_practice","","","","","","","","","tol_peg_2","570","570","0","[[1,0,0],[0,0],[2]]","3","[[0,0,0],[3,1],[2]]","practice","570","","","","","","","",""
"","","","","","single-stim-button","193","395786","0.0-3.0-5.1-1.1","5bcbde9d08a62c0001f86bd0","F1","batch6","","816","","","tol_practice","","","","","","","","","tol_peg_1","816","816","0","[[1,3,0],[0,0],[2]]","3","[[0,0,0],[3,1],[2]]","practice","816","","","","","","","",""
"","","","","","single-stim-button","194","399172","0.0-3.0-5.2-0.2","5bcbde9d08a62c0001f86bd0","F1","batch6","","3385","","","tol_practice","","","","","","","","","tol_peg_1","3385","3385","0","[[1,0,0],[0,0],[2]]","4","[[0,0,0],[3,1],[2]]","practice","3385","","","","","","","",""
"","","","","","single-stim-button","195","400364","0.0-3.0-5.2-1.2","5bcbde9d08a62c0001f86bd0","F1","batch6","","1192","","","tol_practice","","","","","","","","","tol_peg_1","1192","1192","0","[[1,3,0],[0,0],[2]]","4","[[0,0,0],[3,1],[2]]","practice","1192","","","","","","","",""
"","","","","","single-stim-button","196","401189","0.0-3.0-5.3-0.3","5bcbde9d08a62c0001f86bd0","F1","batch6","","823","","","tol_practice","","","","","","","","","tol_peg_1","823","823","0","[[1,0,0],[0,0],[2]]","5","[[0,0,0],[3,1],[2]]","practice","823","","","","","","","",""
"","","","","","single-stim-button","197","406450","0.0-3.0-5.3-1.3","5bcbde9d08a62c0001f86bd0","F1","batch6","","5260","","","tol_practice","","","","","","","","","tol_peg_1","5260","5260","0","[[1,3,0],[0,0],[2]]","5","[[0,0,0],[3,1],[2]]","practice","5260","","","","","","","",""
"","","","","","single-stim-button","198","407832","0.0-3.0-5.4-0.4","5bcbde9d08a62c0001f86bd0","F1","batch6","","1381","","","tol_practice","","","","","","","","","tol_peg_3","1381","1381","0","[[1,3,0],[0,0],[0]]","6","[[0,0,0],[3,1],[2]]","practice","1381","","","","","","","",""
"","","","","","single-stim-button","199","409964","0.0-3.0-5.4-1.4","5bcbde9d08a62c0001f86bd0","F1","batch6","","2132","","","tol_practice","","","","","","","","","tol_peg_2","2132","2132","0","[[1,3,0],[2,0],[0]]","6","[[0,0,0],[3,1],[2]]","practice","2132","","","","","","","",""
"","","","","","single-stim-button","200","410689","0.0-3.0-5.5-0.5","5bcbde9d08a62c0001f86bd0","F1","batch6","","724","","","tol_practice","","","","","","","","","tol_peg_1","724","724","0","[[1,0,0],[2,0],[0]]","7","[[0,0,0],[3,1],[2]]","practice","724","","","","","","","",""
"","","","","","single-stim-button","201","411588","0.0-3.0-5.5-1.5","5bcbde9d08a62c0001f86bd0","F1","batch6","","898","","","tol_practice","","","","","","","","","tol_peg_3","898","898","0","[[1,0,0],[2,0],[3]]","7","[[0,0,0],[3,1],[2]]","practice","898","","","","","","","",""
"","","","","","single-stim-button","202","412391","0.0-3.0-5.6-0.6","5bcbde9d08a62c0001f86bd0","F1","batch6","","803","","","tol_practice","","","","","","","","","tol_peg_1","803","803","0","[[0,0,0],[2,0],[3]]","8","[[0,0,0],[3,1],[2]]","practice","803","","","","","","","",""
"","","","","","single-stim-button","203","418199","0.0-3.0-5.6-1.6","5bcbde9d08a62c0001f86bd0","F1","batch6","","5807","","","tol_practice","","","","","","","","","tol_peg_2","5807","5807","0","[[0,0,0],[2,1],[3]]","8","[[0,0,0],[3,1],[2]]","practice","5807","","","","","","","",""
"","","","","","single-stim-button","204","425549","0.0-3.0-5.7-0.7","5bcbde9d08a62c0001f86bd0","F1","batch6","","7350","","","tol_practice","","","","","","","","","tol_peg_3","7350","7350","0","[[0,0,0],[2,1],[0]]","9","[[0,0,0],[3,1],[2]]","practice","7350","","","","","","","",""
"","","","","","single-stim-button","205","426427","0.0-3.0-5.7-1.7","5bcbde9d08a62c0001f86bd0","F1","batch6","","876","","","tol_practice","","","","","","","","","tol_peg_1","876","876","0","[[3,0,0],[2,1],[0]]","9","[[0,0,0],[3,1],[2]]","practice","876","","","","","","","",""
"","","","","","single-stim-button","206","430846","0.0-3.0-5.8-0.8","5bcbde9d08a62c0001f86bd0","F1","batch6","","4418","","","tol_practice","","","","","","","","","tol_peg_2","4418","4418","0","[[3,0,0],[2,0],[0]]","10","[[0,0,0],[3,1],[2]]","practice","4418","","","","","","","",""
"","","","","","single-stim-button","207","431984","0.0-3.0-5.8-1.8","5bcbde9d08a62c0001f86bd0","F1","batch6","","1138","","","tol_practice","","","","","","","","","tol_peg_1","1138","1138","0","[[3,1,0],[2,0],[0]]","10","[[0,0,0],[3,1],[2]]","practice","1138","","","","","","","",""
"","","","","","single-stim-button","208","433154","0.0-3.0-5.9-0.9","5bcbde9d08a62c0001f86bd0","F1","batch6","","1168","","","tol_practice","","","","","","","","","tol_peg_2","1168","1168","0","[[3,1,0],[0,0],[0]]","11","[[0,0,0],[3,1],[2]]","practice","1168","","","","","","","",""
"","","","","","single-stim-button","209","434142","0.0-3.0-5.9-1.9","5bcbde9d08a62c0001f86bd0","F1","batch6","","988","","","tol_practice","","","","","","","","","tol_peg_3","988","988","0","[[3,1,0],[0,0],[2]]","11","[[0,0,0],[3,1],[2]]","practice","988","","","","","","","",""
"","","","","","single-stim-button","210","435291","0.0-3.0-5.10-0.10","5bcbde9d08a62c0001f86bd0","F1","batch6","","1147","","","tol_practice","","","","","","","","","tol_peg_1","1147","1147","0","[[3,0,0],[0,0],[2]]","12","[[0,0,0],[3,1],[2]]","practice","1147","","","","","","","",""
"","","","","","single-stim-button","211","437448","0.0-3.0-5.10-1.10","5bcbde9d08a62c0001f86bd0","F1","batch6","","2156","","","tol_practice","","","","","","","","","tol_peg_2","2156","2156","0","[[3,0,0],[1,0],[2]]","12","[[0,0,0],[3,1],[2]]","practice","2156","","","","","","","",""
"","","","","","single-stim-button","212","438196","0.0-3.0-5.11-0.11","5bcbde9d08a62c0001f86bd0","F1","batch6","","748","","","tol_practice","","","","","","","","","tol_peg_3","748","748","0","[[3,0,0],[1,0],[0]]","13","[[0,0,0],[3,1],[2]]","practice","748","","","","","","","",""
"","","","","","single-stim-button","213","442029","0.0-3.0-5.11-1.11","5bcbde9d08a62c0001f86bd0","F1","batch6","","3832","","","tol_practice","","","","","","","","","tol_peg_3","3832","3832","0","[[3,0,0],[1,0],[2]]","13","[[0,0,0],[3,1],[2]]","practice","3832","","","","","","","",""
"","","","","","single-stim-button","214","442823","0.0-3.0-5.12-0.12","5bcbde9d08a62c0001f86bd0","F1","batch6","","794","","","tol_practice","","","","","","","","","tol_peg_1","794","794","0","[[0,0,0],[1,0],[2]]","14","[[0,0,0],[3,1],[2]]","practice","794","","","","","","","",""
"","","","","","single-stim-button","215","444492","0.0-3.0-5.12-1.12","5bcbde9d08a62c0001f86bd0","F1","batch6","","1667","","","tol_practice","","","","","","","","","tol_peg_2","1667","1667","0","[[0,0,0],[1,3],[2]]","14","[[0,0,0],[3,1],[2]]","practice","1667","","","","","","","",""
"","","","","","single-stim-button","216","445449","0.0-3.0-5.13-0.13","5bcbde9d08a62c0001f86bd0","F1","batch6","","956","","","tol_practice","","","","","","","","","tol_peg_3","956","956","0","[[0,0,0],[1,3],[0]]","15","[[0,0,0],[3,1],[2]]","practice","956","","","","","","","",""
"","","","","","single-stim-button","217","448047","0.0-3.0-5.13-1.13","5bcbde9d08a62c0001f86bd0","F1","batch6","","2598","","","tol_practice","","","","","","","","","tol_peg_1","2598","2598","0","[[2,0,0],[1,3],[0]]","15","[[0,0,0],[3,1],[2]]","practice","2598","","","","","","","",""
"","","","","","single-stim-button","218","449254","0.0-3.0-5.14-0.14","5bcbde9d08a62c0001f86bd0","F1","batch6","","1205","","","tol_practice","","","","","","","","","tol_peg_2","1205","1205","0","[[2,0,0],[1,0],[0]]","16","[[0,0,0],[3,1],[2]]","practice","1205","","","","","","","",""
"","","","","","single-stim-button","219","450154","0.0-3.0-5.14-1.14","5bcbde9d08a62c0001f86bd0","F1","batch6","","899","","","tol_practice","","","","","","","","","tol_peg_3","899","899","0","[[2,0,0],[1,0],[3]]","16","[[0,0,0],[3,1],[2]]","practice","899","","","","","","","",""
"","","","","","single-stim-button","220","452369","0.0-3.0-5.15-0.15","5bcbde9d08a62c0001f86bd0","F1","batch6","","2215","","","tol_practice","","","","","","","","","tol_peg_1","2215","2215","0","[[0,0,0],[1,0],[3]]","17","[[0,0,0],[3,1],[2]]","practice","2215","","","","","","","",""
"","","","","","single-stim-button","221","453888","0.0-3.0-5.15-1.15","5bcbde9d08a62c0001f86bd0","F1","batch6","","1519","","","tol_practice","","","","","","","","","tol_peg_2","1519","1519","0","[[0,0,0],[1,2],[3]]","17","[[0,0,0],[3,1],[2]]","practice","1519","","","","","","","",""
"","","","","","single-stim-button","222","454974","0.0-3.0-5.16-0.16","5bcbde9d08a62c0001f86bd0","F1","batch6","","1085","","","tol_practice","","","","","","","","","tol_peg_3","1085","1085","0","[[0,0,0],[1,2],[0]]","18","[[0,0,0],[3,1],[2]]","practice","1085","","","","","","","",""
"","","","","","single-stim-button","223","456296","0.0-3.0-5.16-1.16","5bcbde9d08a62c0001f86bd0","F1","batch6","","1322","","","tol_practice","","","","","","","","","tol_peg_1","1322","1322","0","[[3,0,0],[1,2],[0]]","18","[[0,0,0],[3,1],[2]]","practice","1322","","","","","","","",""
"","","","","","single-stim-button","224","457389","0.0-3.0-5.17-0.17","5bcbde9d08a62c0001f86bd0","F1","batch6","","1092","","","tol_practice","","","","","","","","","tol_peg_2","1092","1092","0","[[3,0,0],[1,0],[0]]","19","[[0,0,0],[3,1],[2]]","practice","1092","","","","","","","",""
"","","","","","single-stim-button","225","458539","0.0-3.0-5.17-1.17","5bcbde9d08a62c0001f86bd0","F1","batch6","","1149","","","tol_practice","","","","","","","","","tol_peg_3","1149","1149","0","[[3,0,0],[1,0],[2]]","19","[[0,0,0],[3,1],[2]]","practice","1149","","","","","","","",""
"","","","","","single-stim-button","226","459382","0.0-3.0-5.18-0.18","5bcbde9d08a62c0001f86bd0","F1","batch6","","842","","","tol_practice","","","","","","","","","tol_peg_2","842","842","0","[[3,0,0],[0,0],[2]]","20","[[0,0,0],[3,1],[2]]","practice","842","","","","","","","",""
"","","","","","single-stim-button","227","460085","0.0-3.0-5.18-1.18","5bcbde9d08a62c0001f86bd0","F1","batch6","","703","","","tol_practice","","","","","","","","","tol_peg_1","703","703","0","[[3,1,0],[0,0],[2]]","20","[[0,0,0],[3,1],[2]]","practice","703","","","","","","","",""
"","","","","","single-stim-button","228","461216","0.0-3.0-5.19-0.19","5bcbde9d08a62c0001f86bd0","F1","batch6","","1130","","","tol_practice","","","","","","","","","tol_peg_1","1130","1130","0","[[3,0,0],[0,0],[2]]","21","[[0,0,0],[3,1],[2]]","practice","1130","","","","","","","",""
"","","","","","single-stim-button","229","467708","0.0-3.0-5.19-1.19","5bcbde9d08a62c0001f86bd0","F1","batch6","","6491","","","tol_practice","","","","","","","","","tol_peg_1","6491","6491","0","[[3,1,0],[0,0],[2]]","21","[[0,0,0],[3,1],[2]]","practice","6491","","","","","","","",""
"","","","","","single-stim-button","230","468465","0.0-3.0-5.20-0.20","5bcbde9d08a62c0001f86bd0","F1","batch6","","757","","","tol_practice","","","","","","","","","tol_peg_1","757","757","0","[[3,0,0],[0,0],[2]]","22","[[0,0,0],[3,1],[2]]","practice","757","","","","","","","",""
"","","","","","single-stim-button","231","469468","0.0-3.0-5.20-1.20","5bcbde9d08a62c0001f86bd0","F1","batch6","","1003","","","tol_practice","","","","","","","","","tol_peg_1","1003","1003","0","[[3,1,0],[0,0],[2]]","22","[[0,0,0],[3,1],[2]]","practice","1003","","","","","","","",""
"","","","","","single-stim-button","232","470339","0.0-3.0-5.21-0.21","5bcbde9d08a62c0001f86bd0","F1","batch6","","870","","","tol_practice","","","","","","","","","tol_peg_1","870","870","0","[[3,0,0],[0,0],[2]]","23","[[0,0,0],[3,1],[2]]","practice","870","","","","","","","",""
"","","","","","single-stim-button","233","473437","0.0-3.0-5.21-1.21","5bcbde9d08a62c0001f86bd0","F1","batch6","","3097","","","tol_practice","","","","","","","","","tol_peg_2","3097","3097","0","[[3,0,0],[1,0],[2]]","23","[[0,0,0],[3,1],[2]]","practice","3097","","","","","","","",""
"","","","","","single-stim-button","234","474236","0.0-3.0-5.22-0.22","5bcbde9d08a62c0001f86bd0","F1","batch6","","798","","","tol_practice","","","","","","","","","tol_peg_1","798","798","0","[[0,0,0],[1,0],[2]]","24","[[0,0,0],[3,1],[2]]","practice","798","","","","","","","",""
"","","","","","single-stim-button","235","475110","0.0-3.0-5.22-1.22","5bcbde9d08a62c0001f86bd0","F1","batch6","","874","","","tol_practice","","","","","","","","","tol_peg_2","874","874","0","[[0,0,0],[1,3],[2]]","24","[[0,0,0],[3,1],[2]]","practice","874","","","","","","","",""
"","","","","","single-stim-button","236","475762","0.0-3.0-5.23-0.23","5bcbde9d08a62c0001f86bd0","F1","batch6","","652","","","tol_practice","","","","","","","","","tol_peg_3","652","652","0","[[0,0,0],[1,3],[0]]","25","[[0,0,0],[3,1],[2]]","practice","652","","","","","","","",""
"","","","","","single-stim-button","237","476615","0.0-3.0-5.23-1.23","5bcbde9d08a62c0001f86bd0","F1","batch6","","852","","","tol_practice","","","","","","","","","tol_peg_1","852","852","0","[[2,0,0],[1,3],[0]]","25","[[0,0,0],[3,1],[2]]","practice","852","","","","","","","",""
"","","","","","single-stim-button","238","480231","0.0-3.0-5.24-0.24","5bcbde9d08a62c0001f86bd0","F1","batch6","","3615","","","tol_practice","","","","","","","","","tol_peg_2","3615","3615","0","[[2,0,0],[1,0],[0]]","26","[[0,0,0],[3,1],[2]]","practice","3615","","","","","","","",""
"","","","","","single-stim-button","239","481074","0.0-3.0-5.24-1.24","5bcbde9d08a62c0001f86bd0","F1","batch6","","843","","","tol_practice","","","","","","","","","tol_peg_3","843","843","0","[[2,0,0],[1,0],[3]]","26","[[0,0,0],[3,1],[2]]","practice","843","","","","","","","",""
"","","","","","single-stim-button","240","482406","0.0-3.0-5.25-0.25","5bcbde9d08a62c0001f86bd0","F1","batch6","","1331","","","tol_practice","","","","","","","","","tol_peg_2","1331","1331","0","[[2,0,0],[0,0],[3]]","27","[[0,0,0],[3,1],[2]]","practice","1331","","","","","","","",""
"","","","","","single-stim-button","241","492795","0.0-3.0-5.25-1.25","5bcbde9d08a62c0001f86bd0","F1","batch6","","10388","","","tol_practice","","","","","","","","","tol_peg_2","10388","10388","0","[[2,0,0],[1,0],[3]]","27","[[0,0,0],[3,1],[2]]","practice","10388","","","","","","","",""
"","","","","","single-stim-button","242","493402","0.0-3.0-5.26-0.26","5bcbde9d08a62c0001f86bd0","F1","batch6","","606","","","tol_practice","","","","","","","","","tol_peg_3","606","606","0","[[2,0,0],[1,0],[0]]","28","[[0,0,0],[3,1],[2]]","practice","606","","","","","","","",""
"","","","","","single-stim-button","243","494664","0.0-3.0-5.26-1.26","5bcbde9d08a62c0001f86bd0","F1","batch6","","1261","","","tol_practice","","","","","","","","","tol_peg_2","1261","1261","0","[[2,0,0],[1,3],[0]]","28","[[0,0,0],[3,1],[2]]","practice","1261","","","","","","","",""
"","","","","","single-stim-button","244","496020","0.0-3.0-5.27-0.27","5bcbde9d08a62c0001f86bd0","F1","batch6","","1355","","","tol_practice","","","","","","","","","tol_peg_1","1355","1355","0","[[0,0,0],[1,3],[0]]","29","[[0,0,0],[3,1],[2]]","practice","1355","","","","","","","",""
"","","","","","single-stim-button","245","498883","0.0-3.0-5.27-1.27","5bcbde9d08a62c0001f86bd0","F1","batch6","","2862","","","tol_practice","","","","","","","","","tol_peg_1","2862","2862","0","[[2,0,0],[1,3],[0]]","29","[[0,0,0],[3,1],[2]]","practice","2862","","","","","","","",""
"","","","","","single-stim-button","246","499492","0.0-3.0-5.28-0.28","5bcbde9d08a62c0001f86bd0","F1","batch6","","609","","","tol_practice","","","","","","","","","tol_peg_2","609","609","0","[[2,0,0],[1,0],[0]]","30","[[0,0,0],[3,1],[2]]","practice","609","","","","","","","",""
"","","","","","single-stim-button","247","500527","0.0-3.0-5.28-1.28","5bcbde9d08a62c0001f86bd0","F1","batch6","","1035","","","tol_practice","","","","","","","","","tol_peg_1","1035","1035","0","[[2,3,0],[1,0],[0]]","30","[[0,0,0],[3,1],[2]]","practice","1035","","","","","","","",""
"","","","","","single-stim-button","248","501122","0.0-3.0-5.29-0.29","5bcbde9d08a62c0001f86bd0","F1","batch6","","594","","","tol_practice","","","","","","","","","tol_peg_2","594","594","0","[[2,3,0],[0,0],[0]]","31","[[0,0,0],[3,1],[2]]","practice","594","","","","","","","",""
"","","","","","single-stim-button","249","502194","0.0-3.0-5.29-1.29","5bcbde9d08a62c0001f86bd0","F1","batch6","","1072","","","tol_practice","","","","","","","","","tol_peg_3","1072","1072","0","[[2,3,0],[0,0],[1]]","31","[[0,0,0],[3,1],[2]]","practice","1072","","","","","","","",""
"","","","","","single-stim-button","250","540914","0.0-3.0-5.30-0.30","5bcbde9d08a62c0001f86bd0","F1","batch6","","38720","","","tol_practice","","","","","","","","","tol_peg_1","38720","38720","0","[[2,0,0],[0,0],[1]]","32","[[0,0,0],[3,1],[2]]","practice","38720","","","","","","","",""
"","","","","","single-stim-button","251","541962","0.0-3.0-5.30-1.30","5bcbde9d08a62c0001f86bd0","F1","batch6","","1048","","","tol_practice","","","","","","","","","tol_peg_2","1048","1048","0","[[2,0,0],[3,0],[1]]","32","[[0,0,0],[3,1],[2]]","practice","1048","","","","","","","",""
"","","","","","single-stim-button","252","544450","0.0-3.0-5.31-0.31","5bcbde9d08a62c0001f86bd0","F1","batch6","","2488","","","tol_practice","","","","","","","","","tol_peg_3","2488","2488","0","[[2,0,0],[3,0],[0]]","33","[[0,0,0],[3,1],[2]]","practice","2488","","","","","","","",""
"","","","","","single-stim-button","253","545263","0.0-3.0-5.31-1.31","5bcbde9d08a62c0001f86bd0","F1","batch6","","813","","","tol_practice","","","","","","","","","tol_peg_2","813","813","0","[[2,0,0],[3,1],[0]]","33","[[0,0,0],[3,1],[2]]","practice","813","","","","","","","",""
"","","","","","single-stim-button","254","545896","0.0-3.0-5.32-0.32","5bcbde9d08a62c0001f86bd0","F1","batch6","","633","","","tol_practice","","","","","","","","","tol_peg_1","633","633","0","[[0,0,0],[3,1],[0]]","34","[[0,0,0],[3,1],[2]]","practice","633","","","","","","","",""
"","","","","","single-stim-button","255","546611","0.0-3.0-5.32-1.32","5bcbde9d08a62c0001f86bd0","F1","batch6","","715","","","tol_practice","","","","","","","","","tol_peg_3","715","715","0","[[0,0,0],[3,1],[2]]","34","[[0,0,0],[3,1],[2]]","practice","715","","","","","","","",""
"","","","","","poldrack-single-stim","256","547613","0.0-3.0-6.0","5bcbde9d08a62c0001f86bd0","F1","batch6","","-1","","","tol_feedback","true","","","","","","","","","1000","1000","500","","","","","","-1","none","true","","0","","",""
"","","","","","single-stim-button","257","552145","0.0-3.0-7.0-0.0","5bcbde9d08a62c0001f86bd0","F1","batch6","","4531","","","tol_practice","","","","","","","","","tol_peg_2","4531","4531","0","[[1,2,0],[0,0],[0]]","35","[[1,0,0],[2,0],[3]]","practice","4531","","","","","","","",""
"","","","","","single-stim-button","258","552878","0.0-3.0-7.0-1.0","5bcbde9d08a62c0001f86bd0","F1","batch6","","733","","","tol_practice","","","","","","","","","tol_peg_3","733","733","0","[[1,2,0],[0,0],[3]]","35","[[1,0,0],[2,0],[3]]","practice","733","","","","","","","",""
"","","","","","single-stim-button","259","553587","0.0-3.0-7.1-0.1","5bcbde9d08a62c0001f86bd0","F1","batch6","","709","","","tol_practice","","","","","","","","","tol_peg_1","709","709","0","[[1,0,0],[0,0],[3]]","36","[[1,0,0],[2,0],[3]]","practice","709","","","","","","","",""
"","","","","","single-stim-button","260","554309","0.0-3.0-7.1-1.1","5bcbde9d08a62c0001f86bd0","F1","batch6","","722","","","tol_practice","","","","","","","","","tol_peg_2","722","722","0","[[1,0,0],[2,0],[3]]","36","[[1,0,0],[2,0],[3]]","practice","722","","","","","","","",""
"","","","","","poldrack-single-stim","261","555315","0.0-3.0-8.0","5bcbde9d08a62c0001f86bd0","F1","batch6","","-1","","","tol_feedback","true","","","","","","","","","1000","1000","500","","","","","","-1","none","true","","0","","",""
"","","","","","html-button-response","262","556861","0.0-3.0-9.0","5bcbde9d08a62c0001f86bd0","F1","batch6","","1544.3000000715256","<div class = centerbox><p class = center-block-text>Great job! You are done with practice trials<br>You are about to start official trials.<br> <br> Problem <strong>1</strong> out of 25 problems</p></div>","0","tol_instruction","","","","","","","","","","","","","","","","","","","","","","","","",""
"","","","","","single-stim-button","263","562505","0.0-3.0-10.0-0.0","5bcbde9d08a62c0001f86bd0","F1","batch6","","4643","","","tol_tohand","","","","","","","","","tol_peg_1","4643","4643","0","[[1,0,0],[3,0],[0]]","1","[[1,3,0],[2,0],[0]]","0","0","","","","","","3","",""
"","","","","","single-stim-button","264","563397","0.0-3.0-10.0-1.0","5bcbde9d08a62c0001f86bd0","F1","batch6","","891","","","tol_toboard","","","","","","","","","tol_peg_3","891","891","0","[[1,0,0],[3,0],[2]]","1","[[1,3,0],[2,0],[0]]","0","0","","","","","","3","",""
"","","","","","single-stim-button","265","564407","0.0-3.0-10.1-0.1","5bcbde9d08a62c0001f86bd0","F1","batch6","","1009","","","tol_tohand","","","","","","","","","tol_peg_2","1009","1009","0","[[1,0,0],[0,0],[2]]","2","[[1,3,0],[2,0],[0]]","0","0","","","","","","3","",""
"","","","","","single-stim-button","266","565531","0.0-3.0-10.1-1.1","5bcbde9d08a62c0001f86bd0","F1","batch6","","1124","","","tol_toboard","","","","","","","","","tol_peg_1","1124","1124","0","[[1,3,0],[0,0],[2]]","2","[[1,3,0],[2,0],[0]]","0","0","","","","","","3","",""
"","","","","","single-stim-button","267","566229","0.0-3.0-10.2-0.2","5bcbde9d08a62c0001f86bd0","F1","batch6","","698","","","tol_tohand","","","","","","","","","tol_peg_3","698","698","0","[[1,3,0],[0,0],[0]]","3","[[1,3,0],[2,0],[0]]","0","0","","","","","","3","",""
"","","","","","single-stim-button","268","567131","0.0-3.0-10.2-1.2","5bcbde9d08a62c0001f86bd0","F1","batch6","","902","","","tol_toboard","","","","","","","","","tol_peg_2","902","902","0","[[1,3,0],[2,0],[0]]","3","[[1,3,0],[2,0],[0]]","0","0","","","","","","3","",""
"","","","","","poldrack-single-stim","269","568146","0.0-3.0-11.0","5bcbde9d08a62c0001f86bd0","F1","batch6","","-1","","","tol_feedback","true","","","","","","","","","1000","1000","500","","","","","","-1","none","true","4643","6350","","",""
"","","","","","html-button-response","270","570945","0.0-3.0-12.0","5bcbde9d08a62c0001f86bd0","F1","batch6","","2797.399999976158","<div class = centerbox><p class = center-block-text>problem <strong>2</strong> out of 25 problems</p></div>","0","tol_trial_num","","","","","","","","","","","","","","","","","","","","","","","","",""
"","","","","","single-stim-button","271","576004","0.0-3.0-13.0-0.0","5bcbde9d08a62c0001f86bd0","F1","batch6","","5058","","","tol_tohand","","","","","","","","","tol_peg_1","5058","5058","0","[[1,0,0],[3,0],[0]]","1","[[2,1,3],[0,0],[0]]","1","0","","","","","","5","",""
"","","","","","single-stim-button","272","578934","0.0-3.0-13.0-1.0","5bcbde9d08a62c0001f86bd0","F1","batch6","","2929","","","tol_toboard","","","","","","","","","tol_peg_3","2929","2929","0","[[1,0,0],[3,0],[2]]","1","[[2,1,3],[0,0],[0]]","1","0","","","","","","5","",""
"","","","","","single-stim-button","273","581324","0.0-3.0-13.1-0.1","5bcbde9d08a62c0001f86bd0","F1","batch6","","2389","","","tol_tohand","","","","","","","","","tol_peg_1","2389","2389","0","[[0,0,0],[3,0],[2]]","2","[[2,1,3],[0,0],[0]]","1","0","","","","","","5","",""
"","","","","","single-stim-button","274","582373","0.0-3.0-13.1-1.1","5bcbde9d08a62c0001f86bd0","F1","batch6","","1049","","","tol_toboard","","","","","","","","","tol_peg_2","1049","1049","0","[[0,0,0],[3,1],[2]]","2","[[2,1,3],[0,0],[0]]","1","0","","","","","","5","",""
"","","","","","single-stim-button","275","583343","0.0-3.0-13.2-0.2","5bcbde9d08a62c0001f86bd0","F1","batch6","","970","","","tol_tohand","","","","","","","","","tol_peg_3","970","970","0","[[0,0,0],[3,1],[0]]","3","[[2,1,3],[0,0],[0]]","1","0","","","","","","5","",""
"","","","","","single-stim-button","276","584408","0.0-3.0-13.2-1.2","5bcbde9d08a62c0001f86bd0","F1","batch6","","1065","","","tol_toboard","","","","","","","","","tol_peg_1","1065","1065","0","[[2,0,0],[3,1],[0]]","3","[[2,1,3],[0,0],[0]]","1","0","","","","","","5","",""
"","","","","","single-stim-button","277","585616","0.0-3.0-13.3-0.3","5bcbde9d08a62c0001f86bd0","F1","batch6","","1208","","","tol_tohand","","","","","","","","","tol_peg_2","1208","1208","0","[[2,0,0],[3,0],[0]]","4","[[2,1,3],[0,0],[0]]","1","0","","","","","","5","",""
"","","","","","single-stim-button","278","586302","0.0-3.0-13.3-1.3","5bcbde9d08a62c0001f86bd0","F1","batch6","","686","","","tol_toboard","","","","","","","","","tol_peg_1","686","686","0","[[2,1,0],[3,0],[0]]","4","[[2,1,3],[0,0],[0]]","1","0","","","","","","5","",""
"","","","","","single-stim-button","279","586933","0.0-3.0-13.4-0.4","5bcbde9d08a62c0001f86bd0","F1","batch6","","631","","","tol_tohand","","","","","","","","","tol_peg_2","631","631","0","[[2,1,0],[0,0],[0]]","5","[[2,1,3],[0,0],[0]]","1","0","","","","","","5","",""
"","","","","","single-stim-button","280","587811","0.0-3.0-13.4-1.4","5bcbde9d08a62c0001f86bd0","F1","batch6","","878","","","tol_toboard","","","","","","","","","tol_peg_1","878","878","0","[[2,1,3],[0,0],[0]]","5","[[2,1,3],[0,0],[0]]","1","0","","","","","","5","",""
"","","","","","poldrack-single-stim","281","588816","0.0-3.0-14.0","5bcbde9d08a62c0001f86bd0","F1","batch6","","-1","","","tol_feedback","true","","","","","","","","","1000","1000","500","","","","","","-1","none","true","5058","10256","","",""
"","","","","","html-button-response","282","589908","0.0-3.0-15.0","5bcbde9d08a62c0001f86bd0","F1","batch6","","1090.7999999523163","<div class = centerbox><p class = center-block-text>problem <strong>3</strong> out of 25 problems</p></div>","0","tol_trial_num","","","","","","","","","","","","","","","","","","","","","","","","",""
"","","","","","single-stim-button","283","600053","0.0-3.0-16.0-0.0","5bcbde9d08a62c0001f86bd0","F1","batch6","","10145","","","tol_tohand","","","","","","","","","tol_peg_1","10145","10145","0","[[2,0,0],[0,0],[1]]","1","[[1,2,0],[3,0],[0]]","2","0","","","","","","4","",""
"","","","","","single-stim-button","284","600873","0.0-3.0-16.0-1.0","5bcbde9d08a62c0001f86bd0","F1","batch6","","819","","","tol_toboard","","","","","","","","","tol_peg_2","819","819","0","[[2,0,0],[3,0],[1]]","1","[[1,2,0],[3,0],[0]]","2","0","","","","","","4","",""
"","","","","","single-stim-button","285","601364","0.0-3.0-16.1-0.1","5bcbde9d08a62c0001f86bd0","F1","batch6","","491","","","tol_tohand","","","","","","","","","tol_peg_3","491","491","0","[[2,0,0],[3,0],[0]]","2","[[1,2,0],[3,0],[0]]","2","0","","","","","","4","",""
"","","","","","single-stim-button","286","602279","0.0-3.0-16.1-1.1","5bcbde9d08a62c0001f86bd0","F1","batch6","","915","","","tol_toboard","","","","","","","","","tol_peg_2","915","915","0","[[2,0,0],[3,1],[0]]","2","[[1,2,0],[3,0],[0]]","2","0","","","","","","4","",""
"","","","","","single-stim-button","287","603291","0.0-3.0-16.2-0.2","5bcbde9d08a62c0001f86bd0","F1","batch6","","1011","","","tol_tohand","","","","","","","","","tol_peg_1","1011","1011","0","[[0,0,0],[3,1],[0]]","3","[[1,2,0],[3,0],[0]]","2","0","","","","","","4","",""
"","","","","","single-stim-button","288","603922","0.0-3.0-16.2-1.2","5bcbde9d08a62c0001f86bd0","F1","batch6","","630","","","tol_toboard","","","","","","","","","tol_peg_3","630","630","0","[[0,0,0],[3,1],[2]]","3","[[1,2,0],[3,0],[0]]","2","0","","","","","","4","",""
"","","","","","single-stim-button","289","606525","0.0-3.0-16.3-0.3","5bcbde9d08a62c0001f86bd0","F1","batch6","","2603","","","tol_tohand","","","","","","","","","tol_peg_2","2603","2603","0","[[0,0,0],[3,0],[2]]","4","[[1,2,0],[3,0],[0]]","2","0","","","","","","4","",""
"","","","","","single-stim-button","290","607261","0.0-3.0-16.3-1.3","5bcbde9d08a62c0001f86bd0","F1","batch6","","735","","","tol_toboard","","","","","","","","","tol_peg_1","735","735","0","[[1,0,0],[3,0],[2]]","4","[[1,2,0],[3,0],[0]]","2","0","","","","","","4","",""
"","","","","","single-stim-button","291","608156","0.0-3.0-16.4-0.4","5bcbde9d08a62c0001f86bd0","F1","batch6","","894","","","tol_tohand","","","","","","","","","tol_peg_3","894","894","0","[[1,0,0],[3,0],[0]]","5","[[1,2,0],[3,0],[0]]","2","0","","","","","","4","",""
"","","","","","single-stim-button","292","608848","0.0-3.0-16.4-1.4","5bcbde9d08a62c0001f86bd0","F1","batch6","","692","","","tol_toboard","","","","","","","","","tol_peg_1","692","692","0","[[1,2,0],[3,0],[0]]","5","[[1,2,0],[3,0],[0]]","2","0","","","","","","4","",""
"","","","","","poldrack-single-stim","293","609851","0.0-3.0-17.0","5bcbde9d08a62c0001f86bd0","F1","batch6","","-1","","","tol_feedback","true","","","","","","","","","1000","1000","500","","","","","","-1","none","true","10145","15144","","",""
"","","","","","html-button-response","294","610756","0.0-3.0-18.0","5bcbde9d08a62c0001f86bd0","F1","batch6","","905","<div class = centerbox><p class = center-block-text>problem <strong>4</strong> out of 25 problems</p></div>","0","tol_trial_num","","","","","","","","","","","","","","","","","","","","","","","","",""
"","","","","","single-stim-button","295","614536","0.0-3.0-19.0-0.0","5bcbde9d08a62c0001f86bd0","F1","batch6","","3779","","","tol_tohand","","","","","","","","","tol_peg_2","3779","3779","0","[[3,0,0],[2,0],[0]]","1","[[3,0,0],[1,0],[2]]","3","0","","","","","","3","",""
"","","","","","single-stim-button","296","615966","0.0-3.0-19.0-1.0","5bcbde9d08a62c0001f86bd0","F1","batch6","","1429","","","tol_toboard","","","","","","","","","tol_peg_1","1429","1429","0","[[3,1,0],[2,0],[0]]","1","[[3,0,0],[1,0],[2]]","3","0","","","","","","3","",""
"","","","","","single-stim-button","297","616694","0.0-3.0-19.1-0.1","5bcbde9d08a62c0001f86bd0","F1","batch6","","727","","","tol_tohand","","","","","","","","","tol_peg_2","727","727","0","[[3,1,0],[0,0],[0]]","2","[[3,0,0],[1,0],[2]]","3","0","","","","","","3","",""
"","","","","","single-stim-button","298","617400","0.0-3.0-19.1-1.1","5bcbde9d08a62c0001f86bd0","F1","batch6","","705","","","tol_toboard","","","","","","","","","tol_peg_3","705","705","0","[[3,1,0],[0,0],[2]]","2","[[3,0,0],[1,0],[2]]","3","0","","","","","","3","",""
"","","","","","single-stim-button","299","618070","0.0-3.0-19.2-0.2","5bcbde9d08a62c0001f86bd0","F1","batch6","","669","","","tol_tohand","","","","","","","","","tol_peg_1","669","669","0","[[3,0,0],[0,0],[2]]","3","[[3,0,0],[1,0],[2]]","3","0","","","","","","3","",""
"","","","","","single-stim-button","300","618727","0.0-3.0-19.2-1.2","5bcbde9d08a62c0001f86bd0","F1","batch6","","656","","","tol_toboard","","","","","","","","","tol_peg_2","656","656","0","[[3,0,0],[1,0],[2]]","3","[[3,0,0],[1,0],[2]]","3","0","","","","","","3","",""
"","","","","","poldrack-single-stim","301","619740","0.0-3.0-20.0","5bcbde9d08a62c0001f86bd0","F1","batch6","","-1","","","tol_feedback","true","","","","","","","","","1000","1000","500","","","","","","-1","none","true","3779","5175","","",""
"","","","","","html-button-response","302","621138","0.0-3.0-21.0","5bcbde9d08a62c0001f86bd0","F1","batch6","","1397.2000000476837","<div class = centerbox><p class = center-block-text>problem <strong>5</strong> out of 25 problems</p></div>","0","tol_trial_num","","","","","","","","","","","","","","","","","","","","","","","","",""
"","","","","","single-stim-button","303","637357","0.0-3.0-22.0-0.0","5bcbde9d08a62c0001f86bd0","F1","batch6","","16218","","","tol_tohand","","","","","","","","","tol_peg_1","16218","16218","0","[[0,0,0],[2,0],[3]]","1","[[0,0,0],[1,2],[3]]","4","0","","","","","","7","",""
"","","","","","single-stim-button","304","638390","0.0-3.0-22.0-1.0","5bcbde9d08a62c0001f86bd0","F1","batch6","","1032","","","tol_toboard","","","","","","","","","tol_peg_2","1032","1032","0","[[0,0,0],[2,1],[3]]","1","[[0,0,0],[1,2],[3]]","4","0","","","","","","7","",""
"","","","","","single-stim-button","305","638966","0.0-3.0-22.1-0.1","5bcbde9d08a62c0001f86bd0","F1","batch6","","576","","","tol_tohand","","","","","","","","","tol_peg_3","576","576","0","[[0,0,0],[2,1],[0]]","2","[[0,0,0],[1,2],[3]]","4","0","","","","","","7","",""
"","","","","","single-stim-button","306","639795","0.0-3.0-22.1-1.1","5bcbde9d08a62c0001f86bd0","F1","batch6","","828","","","tol_toboard","","","","","","","","","tol_peg_1","828","828","0","[[3,0,0],[2,1],[0]]","2","[[0,0,0],[1,2],[3]]","4","0","","","","","","7","",""
"","","","","","single-stim-button","307","641137","0.0-3.0-22.2-0.2","5bcbde9d08a62c0001f86bd0","F1","batch6","","1342","","","tol_tohand","","","","","","","","","tol_peg_2","1342","1342","0","[[3,0,0],[2,0],[0]]","3","[[0,0,0],[1,2],[3]]","4","0","","","","","","7","",""
"","","","","","single-stim-button","308","641797","0.0-3.0-22.2-1.2","5bcbde9d08a62c0001f86bd0","F1","batch6","","660","","","tol_toboard","","","","","","","","","tol_peg_3","660","660","0","[[3,0,0],[2,0],[1]]","3","[[0,0,0],[1,2],[3]]","4","0","","","","","","7","",""
"","","","","","single-stim-button","309","643049","0.0-3.0-22.3-0.3","5bcbde9d08a62c0001f86bd0","F1","batch6","","1252","","","tol_tohand","","","","","","","","","tol_peg_2","1252","1252","0","[[3,0,0],[0,0],[1]]","4","[[0,0,0],[1,2],[3]]","4","0","","","","","","7","",""
"","","","","","single-stim-button","310","643960","0.0-3.0-22.3-1.3","5bcbde9d08a62c0001f86bd0","F1","batch6","","911","","","tol_toboard","","","","","","","","","tol_peg_1","911","911","0","[[3,2,0],[0,0],[1]]","4","[[0,0,0],[1,2],[3]]","4","0","","","","","","7","",""
"","","","","","single-stim-button","311","644684","0.0-3.0-22.4-0.4","5bcbde9d08a62c0001f86bd0","F1","batch6","","723","","","tol_tohand","","","","","","","","","tol_peg_3","723","723","0","[[3,2,0],[0,0],[0]]","5","[[0,0,0],[1,2],[3]]","4","0","","","","","","7","",""
"","","","","","single-stim-button","312","645591","0.0-3.0-22.4-1.4","5bcbde9d08a62c0001f86bd0","F1","batch6","","907","","","tol_toboard","","","","","","","","","tol_peg_2","907","907","0","[[3,2,0],[1,0],[0]]","5","[[0,0,0],[1,2],[3]]","4","0","","","","","","7","",""
"","","","","","single-stim-button","313","646568","0.0-3.0-22.5-0.5","5bcbde9d08a62c0001f86bd0","F1","batch6","","976","","","tol_tohand","","","","","","","","","tol_peg_1","976","976","0","[[3,0,0],[1,0],[0]]","6","[[0,0,0],[1,2],[3]]","4","0","","","","","","7","",""
"","","","","","single-stim-button","314","647228","0.0-3.0-22.5-1.5","5bcbde9d08a62c0001f86bd0","F1","batch6","","660","","","tol_toboard","","","","","","","","","tol_peg_2","660","660","0","[[3,0,0],[1,2],[0]]","6","[[0,0,0],[1,2],[3]]","4","0","","","","","","7","",""
"","","","","","single-stim-button","315","647902","0.0-3.0-22.6-0.6","5bcbde9d08a62c0001f86bd0","F1","batch6","","673","","","tol_tohand","","","","","","","","","tol_peg_1","673","673","0","[[0,0,0],[1,2],[0]]","7","[[0,0,0],[1,2],[3]]","4","0","","","","","","7","",""
"","","","","","single-stim-button","316","648751","0.0-3.0-22.6-1.6","5bcbde9d08a62c0001f86bd0","F1","batch6","","849","","","tol_toboard","","","","","","","","","tol_peg_3","849","849","0","[[0,0,0],[1,2],[3]]","7","[[0,0,0],[1,2],[3]]","4","0","","","","","","7","",""
"","","","","","poldrack-single-stim","317","649759","0.0-3.0-23.0","5bcbde9d08a62c0001f86bd0","F1","batch6","","-1","","","tol_feedback","true","","","","","","","","","1000","1000","500","","","","","","-1","none","true","16218","21760","","",""
"","","","","","html-button-response","318","650765","0.0-3.0-24.0","5bcbde9d08a62c0001f86bd0","F1","batch6","","1004.8999999761581","<div class = centerbox><p class = center-block-text>problem <strong>6</strong> out of 25 problems</p></div>","0","tol_trial_num","","","","","","","","","","","","","","","","","","","","","","","","",""
"","","","","","single-stim-button","319","655328","0.0-3.0-25.0-0.0","5bcbde9d08a62c0001f86bd0","F1","batch6","","4562","","","tol_tohand","","","","","","","","","tol_peg_3","4562","4562","0","[[0,0,0],[1,2],[0]]","1","[[1,0,0],[2,3],[0]]","5","0","","","","","","6","",""
"","","","","","single-stim-button","320","660303","0.0-3.0-25.0-1.0","5bcbde9d08a62c0001f86bd0","F1","batch6","","4974","","","tol_toboard","","","","","","","","","tol_peg_3","4974","4974","0","[[0,0,0],[1,2],[3]]","1","[[1,0,0],[2,3],[0]]","5","0","","","","","","6","",""
"","","","","","single-stim-button","321","661317","0.0-3.0-25.1-0.1","5bcbde9d08a62c0001f86bd0","F1","batch6","","1013","","","tol_tohand","","","","","","","","","tol_peg_2","1013","1013","0","[[0,0,0],[1,0],[3]]","2","[[1,0,0],[2,3],[0]]","5","0","","","","","","6","",""
"","","","","","single-stim-button","322","662811","0.0-3.0-25.1-1.1","5bcbde9d08a62c0001f86bd0","F1","batch6","","1494","","","tol_toboard","","","","","","","","","tol_peg_1","1494","1494","0","[[2,0,0],[1,0],[3]]","2","[[1,0,0],[2,3],[0]]","5","0","","","","","","6","",""
"","","","","","single-stim-button","323","664095","0.0-3.0-25.2-0.2","5bcbde9d08a62c0001f86bd0","F1","batch6","","1283","","","tol_tohand","","","","","","","","","tol_peg_2","1283","1283","0","[[2,0,0],[0,0],[3]]","3","[[1,0,0],[2,3],[0]]","5","0","","","","","","6","",""
"","","","","","single-stim-button","324","665554","0.0-3.0-25.2-1.2","5bcbde9d08a62c0001f86bd0","F1","batch6","","1458","","","tol_toboard","","","","","","","","","tol_peg_2","1458","1458","0","[[2,0,0],[1,0],[3]]","3","[[1,0,0],[2,3],[0]]","5","0","","","","","","6","",""
"","","","","","single-stim-button","325","666377","0.0-3.0-25.3-0.3","5bcbde9d08a62c0001f86bd0","F1","batch6","","823","","","tol_tohand","","","","","","","","","tol_peg_3","823","823","0","[[2,0,0],[1,0],[0]]","4","[[1,0,0],[2,3],[0]]","5","0","","","","","","6","",""
"","","","","","single-stim-button","326","667189","0.0-3.0-25.3-1.3","5bcbde9d08a62c0001f86bd0","F1","batch6","","812","","","tol_toboard","","","","","","","","","tol_peg_2","812","812","0","[[2,0,0],[1,3],[0]]","4","[[1,0,0],[2,3],[0]]","5","0","","","","","","6","",""
"","","","","","single-stim-button","327","668051","0.0-3.0-25.4-0.4","5bcbde9d08a62c0001f86bd0","F1","batch6","","861","","","tol_tohand","","","","","","","","","tol_peg_1","861","861","0","[[0,0,0],[1,3],[0]]","5","[[1,0,0],[2,3],[0]]","5","0","","","","","","6","",""
"","","","","","single-stim-button","328","670446","0.0-3.0-25.4-1.4","5bcbde9d08a62c0001f86bd0","F1","batch6","","2395","","","tol_toboard","","","","","","","","","tol_peg_3","2395","2395","0","[[0,0,0],[1,3],[2]]","5","[[1,0,0],[2,3],[0]]","5","0","","","","","","6","",""
"","","","","","single-stim-button","329","671421","0.0-3.0-25.5-0.5","5bcbde9d08a62c0001f86bd0","F1","batch6","","974","","","tol_tohand","","","","","","","","","tol_peg_2","974","974","0","[[0,0,0],[1,0],[2]]","6","[[1,0,0],[2,3],[0]]","5","0","","","","","","6","",""
"","","","","","single-stim-button","330","672622","0.0-3.0-25.5-1.5","5bcbde9d08a62c0001f86bd0","F1","batch6","","1201","","","tol_toboard","","","","","","","","","tol_peg_1","1201","1201","0","[[3,0,0],[1,0],[2]]","6","[[1,0,0],[2,3],[0]]","5","0","","","","","","6","",""
"","","","","","single-stim-button","331","673226","0.0-3.0-25.6-0.6","5bcbde9d08a62c0001f86bd0","F1","batch6","","603","","","tol_tohand","","","","","","","","","tol_peg_2","603","603","0","[[3,0,0],[0,0],[2]]","7","[[1,0,0],[2,3],[0]]","5","0","","","","","","6","",""
"","","","","","single-stim-button","332","673842","0.0-3.0-25.6-1.6","5bcbde9d08a62c0001f86bd0","F1","batch6","","616","","","tol_toboard","","","","","","","","","tol_peg_1","616","616","0","[[3,1,0],[0,0],[2]]","7","[[1,0,0],[2,3],[0]]","5","0","","","","","","6","",""
"","","","","","single-stim-button","333","675586","0.0-3.0-25.7-0.7","5bcbde9d08a62c0001f86bd0","F1","batch6","","1743","","","tol_tohand","","","","","","","","","tol_peg_3","1743","1743","0","[[3,1,0],[0,0],[0]]","8","[[1,0,0],[2,3],[0]]","5","0","","","","","","6","",""
"","","","","","single-stim-button","334","676259","0.0-3.0-25.7-1.7","5bcbde9d08a62c0001f86bd0","F1","batch6","","673","","","tol_toboard","","","","","","","","","tol_peg_2","673","673","0","[[3,1,0],[2,0],[0]]","8","[[1,0,0],[2,3],[0]]","5","0","","","","","","6","",""
"","","","","","single-stim-button","335","677229","0.0-3.0-25.8-0.8","5bcbde9d08a62c0001f86bd0","F1","batch6","","970","","","tol_tohand","","","","","","","","","tol_peg_1","970","970","0","[[3,0,0],[2,0],[0]]","9","[[1,0,0],[2,3],[0]]","5","0","","","","","","6","",""
"","","","","","single-stim-button","336","677935","0.0-3.0-25.8-1.8","5bcbde9d08a62c0001f86bd0","F1","batch6","","706","","","tol_toboard","","","","","","","","","tol_peg_3","706","706","0","[[3,0,0],[2,0],[1]]","9","[[1,0,0],[2,3],[0]]","5","0","","","","","","6","",""
"","","","","","single-stim-button","337","678627","0.0-3.0-25.9-0.9","5bcbde9d08a62c0001f86bd0","F1","batch6","","691","","","tol_tohand","","","","","","","","","tol_peg_1","691","691","0","[[0,0,0],[2,0],[1]]","10","[[1,0,0],[2,3],[0]]","5","0","","","","","","6","",""
"","","","","","single-stim-button","338","679454","0.0-3.0-25.9-1.9","5bcbde9d08a62c0001f86bd0","F1","batch6","","827","","","tol_toboard","","","","","","","","","tol_peg_2","827","827","0","[[0,0,0],[2,3],[1]]","10","[[1,0,0],[2,3],[0]]","5","0","","","","","","6","",""
"","","","","","single-stim-button","339","679947","0.0-3.0-25.10-0.10","5bcbde9d08a62c0001f86bd0","F1","batch6","","491","","","tol_tohand","","","","","","","","","tol_peg_3","491","491","0","[[0,0,0],[2,3],[0]]","11","[[1,0,0],[2,3],[0]]","5","0","","","","","","6","",""
"","","","","","single-stim-button","340","680642","0.0-3.0-25.10-1.10","5bcbde9d08a62c0001f86bd0","F1","batch6","","694","","","tol_toboard","","","","","","","","","tol_peg_1","694","694","0","[[1,0,0],[2,3],[0]]","11","[[1,0,0],[2,3],[0]]","5","0","","","","","","6","",""
"","","","","","poldrack-single-stim","341","681656","0.0-3.0-26.0","5bcbde9d08a62c0001f86bd0","F1","batch6","","-1","","","tol_feedback","true","","","","","","","","","1000","1000","500","","","","","","-1","none","true","4562","14014","","",""
"","","","","","html-button-response","342","682922","0.0-3.0-27.0","5bcbde9d08a62c0001f86bd0","F1","batch6","","1263.2999999523163","<div class = centerbox><p class = center-block-text>problem <strong>7</strong> out of 25 problems</p></div>","0","tol_trial_num","","","","","","","","","","","","","","","","","","","","","","","","",""
"","","","","","single-stim-button","343","688037","0.0-3.0-28.0-0.0","5bcbde9d08a62c0001f86bd0","F1","batch6","","5115","","","tol_tohand","","","","","","","","","tol_peg_1","5115","5115","0","[[2,0,0],[0,0],[3]]","1","[[1,2,0],[3,0],[0]]","6","0","","","","","","5","",""
"","","","","","single-stim-button","344","689589","0.0-3.0-28.0-1.0","5bcbde9d08a62c0001f86bd0","F1","batch6","","1552","","","tol_toboard","","","","","","","","","tol_peg_2","1552","1552","0","[[2,0,0],[1,0],[3]]","1","[[1,2,0],[3,0],[0]]","6","0","","","","","","5","",""
"","","","","","single-stim-button","345","691026","0.0-3.0-28.1-0.1","5bcbde9d08a62c0001f86bd0","F1","batch6","","1435","","","tol_tohand","","","","","","","","","tol_peg_3","1435","1435","0","[[2,0,0],[1,0],[0]]","2","[[1,2,0],[3,0],[0]]","6","0","","","","","","5","",""
"","","","","","single-stim-button","346","692354","0.0-3.0-28.1-1.1","5bcbde9d08a62c0001f86bd0","F1","batch6","","1328","","","tol_toboard","","","","","","","","","tol_peg_3","1328","1328","0","[[2,0,0],[1,0],[3]]","2","[[1,2,0],[3,0],[0]]","6","0","","","","","","5","",""
