"success","timeout","failed_images","failed_audio","failed_video","trial_type","trial_index","time_elapsed","internal_node_id","subject_id","study_id","session_id","view_history","rt","stimulus","response","task","correct","answer","item","fiar_detect_rt","fiar_detect_correct","total_correct_fiar_detect","post_trial_gap","choices","spm_correct","spm_rt","mouse_click","stim_duration","block_duration","timing_post_trial","current_position","tol_num_moves_made","tol_target","tol_problem_id","tol_rt","key_press","possible_responses","tol_correct","preplanning","tol_rt_per_trial","tol_min_moves"
"true","false","[]","[]","[]","preload","0","9491","0.0-0.0","5bd283469afb5b00015bdd5a","B2","batch2","","","","","","","","","","","","","","","","","","","","","","","","","","","","","",""
"true","","","","","fullscreen","1","47019","0.0-1.0-0.0","5bd283469afb5b00015bdd5a","B2","batch2","","","","","","","","","","","","","","","","","","","","","","","","","","","","","",""
"true","","","","","fullscreen","2","49211","0.0-2.0-0.0","5bd283469afb5b00015bdd5a","B2","batch2","","","","","","","","","","","","","","","","","","","","","","","","","","","","","",""
"","","","","","instructions","3","72803","0.0-2.0-1.0-0.0","5bd283469afb5b00015bdd5a","B2","batch2","[{""page_index"":0,""viewing_time"":13302},{""page_index"":1,""viewing_time"":10288.700000047684}]","23590.799999952316","","","","","","","","","","","","","","","","","","","","","","","","","","","",""
"","","","","","html-button-response","4","74004","0.0-2.0-1.0-1.0-0.0","5bd283469afb5b00015bdd5a","B2","batch2","","1200.5","<p class=block-text> Let's answer a few questions <br>","0","pattern_enter_quiz","","","","","","","","","","","","","","","","","","","","","","","","",""
"","","","","","html-button-response","5","77058","0.0-2.0-1.0-1.0-1.0","5bd283469afb5b00015bdd5a","B2","batch2","","3053.0999999046326","<p class = block-text>True or False: You will have as much time as you want to make each choice. <br></p>","1","pattern_quiz","true","","","","","","","","","","","","","","","","","","","","","","","",""
"","","","","","html-button-response","6","78194","0.0-2.0-1.0-1.0-2.0","5bd283469afb5b00015bdd5a","B2","batch2","","1135.5","<p class = block-text>Correct! You should make your choice <strong> as fast as you can</strong>.</p>","0","pattern_quiz_feedback","","","","","","","","","","","","","","","","","","","","","","","","",""
"","","","","","html-button-response","7","80661","0.0-2.0-1.0-1.0-3.0","5bd283469afb5b00015bdd5a","B2","batch2","","2466.2999999523163","<p class = block-text>True or False: You will look for 4 pieces in black or white color connected in a row either horizontally, vertically or diagonally. <br></p>","0","pattern_quiz","true","","","","","","","","","","","","","","","","","","","","","","","",""
"","","","","","html-button-response","8","81386","0.0-2.0-1.0-1.0-4.0","5bd283469afb5b00015bdd5a","B2","batch2","","724.7000000476837","<p class = block-text>Correct! </p>","0","pattern_quiz_feedback","","","","","","","","","","","","","","","","","","","","","","","","",""
"","","","","","html-button-response","9","83282","0.0-2.0-2.0","5bd283469afb5b00015bdd5a","B2","batch2","","1894.7000000476837","<p class=block-text> Now that you've understood the game, let's do a few practice trials before we start!<br> <br>","0","pattern_enter_practice","","","","","","","","","","","","","","","","","","","","","","","","",""
"","","","","","image-keyboard-response","10","85311","0.0-2.0-3.0-0.0","5bd283469afb5b00015bdd5a","B2","batch2","","2027.2999999523163","stim/prac_no_18_1.png","j","pattern_practice","true","j","","","","","","","","","","","","","","","","","","","","","","",""
"","","","","","html-keyboard-response","11","86315","0.0-2.0-3.0-1.0","5bd283469afb5b00015bdd5a","B2","batch2","","null","<p style=""font-size:30px;color:green;"">Correct!</p>","null","pattern_feedback","","","","","","","","","","","","","","","","","","","","","","","","",""
"","","","","","image-keyboard-response","12","87970","0.0-2.0-3.0-0.1","5bd283469afb5b00015bdd5a","B2","batch2","","1654.4000000953674","stim/prac_no_16_1.png","j","pattern_practice","true","j","","","","","","","","","","","","","","","","","","","","","","",""
"","","","","","html-keyboard-response","13","88988","0.0-2.0-3.0-1.1","5bd283469afb5b00015bdd5a","B2","batch2","","null","<p style=""font-size:30px;color:green;"">Correct!</p>","null","pattern_feedback","","","","","","","","","","","","","","","","","","","","","","","","",""
"","","","","","image-keyboard-response","14","89802","0.0-2.0-3.0-0.2","5bd283469afb5b00015bdd5a","B2","batch2","","813.2000000476837","stim/prac_yes_18_hor_w1.png","f","pattern_practice","true","f","","","","","","","","","","","","","","","","","","","","","","",""
"","","","","","html-keyboard-response","15","90816","0.0-2.0-3.0-1.2","5bd283469afb5b00015bdd5a","B2","batch2","","null","<p style=""font-size:30px;color:green;"">Correct!</p>","null","pattern_feedback","","","","","","","","","","","","","","","","","","","","","","","","",""
"","","","","","image-keyboard-response","16","91604","0.0-2.0-3.0-0.3","5bd283469afb5b00015bdd5a","B2","batch2","","787.5999999046326","stim/prac_yes_16_ver_w1.png","f","pattern_practice","true","f","","","","","","","","","","","","","","","","","","","","","","",""
"","","","","","html-keyboard-response","17","92637","0.0-2.0-3.0-1.3","5bd283469afb5b00015bdd5a","B2","batch2","","null","<p style=""font-size:30px;color:green;"">Correct!</p>","null","pattern_feedback","","","","","","","","","","","","","","","","","","","","","","","","",""
"","","","","","image-keyboard-response","18","95078","0.0-2.0-3.0-0.4","5bd283469afb5b00015bdd5a","B2","batch2","","2440","stim/prac_yes_20_dia_b1.png","j","pattern_practice","false","f","","","","","","","","","","","","","","","","","","","","","","",""
"","","","","","html-keyboard-response","19","96097","0.0-2.0-3.0-1.4","5bd283469afb5b00015bdd5a","B2","batch2","","null","<p style=""font-size:30px;color:red;"">Wrong.</p>","null","pattern_feedback","","","","","","","","","","","","","","","","","","","","","","","","",""
"","","","","","html-button-response","20","99210","0.0-2.0-4.0","5bd283469afb5b00015bdd5a","B2","batch2","","3113.100000143051","<p class=block-text> Good job! You are done with practice trials!<br>
        You responded correctly on 80% of the trials.<br>
        Press the button below to start official trials. Now you won't see any feedback about your response</p>","0","pattern_enter_official_trials","","","","","","","","","","","","","","","","","","","","","","","","",""
"","","","","","html-keyboard-response","21","100012","0.0-2.0-5.0-0.0","5bd283469afb5b00015bdd5a","B2","batch2","","null","<p class=block-text>Trial 1 out of 78</p>","null","pattern_show_trial_num","","","","","","","","","","","","","","","","","","","","","","","","",""
"","","","","","image-keyboard-response","22","101586","0.0-2.0-5.0-1.0","5bd283469afb5b00015bdd5a","B2","batch2","","1573","stim/no_15_1_w.png","j","pattern_response","true","j","pattern_03","1573","true","1","","","","","","","","","","","","","","","","","","",""
"","","","","","html-keyboard-response","23","102889","0.0-2.0-5.0-0.1","5bd283469afb5b00015bdd5a","B2","batch2","","null","<p class=block-text>Trial 2 out of 78</p>","null","pattern_show_trial_num","","","","","","","","","","","","","","","","","","","","","","","","",""
"","","","","","image-keyboard-response","24","108906","0.0-2.0-5.0-1.1","5bd283469afb5b00015bdd5a","B2","batch2","","6016.099999904633","stim/yes_63_dia_b1.png","j","pattern_response","false","f","pattern_78","6016.099999904633","false","1","","","","","","","","","","","","","","","","","","",""
"","","","","","html-keyboard-response","25","110218","0.0-2.0-5.0-0.2","5bd283469afb5b00015bdd5a","B2","batch2","","null","<p class=block-text>Trial 3 out of 78</p>","null","pattern_show_trial_num","","","","","","","","","","","","","","","","","","","","","","","","",""
"","","","","","image-keyboard-response","26","113881","0.0-2.0-5.0-1.2","5bd283469afb5b00015bdd5a","B2","batch2","","3662.7000000476837","stim/no_30_1_b.png","j","pattern_response","true","j","pattern_13","3662.7000000476837","true","2","","","","","","","","","","","","","","","","","","",""
"","","","","","html-keyboard-response","27","115206","0.0-2.0-5.0-0.3","5bd283469afb5b00015bdd5a","B2","batch2","","null","<p class=block-text>Trial 4 out of 78</p>","null","pattern_show_trial_num","","","","","","","","","","","","","","","","","","","","","","","","",""
"","","","","","image-keyboard-response","28","116681","0.0-2.0-5.0-1.3","5bd283469afb5b00015bdd5a","B2","batch2","","1474.5","stim/yes_44_ver_w1_w.png","f","pattern_response","true","f","pattern_66","1474.5","true","3","","","","","","","","","","","","","","","","","","",""
"","","","","","html-keyboard-response","29","117982","0.0-2.0-5.0-0.4","5bd283469afb5b00015bdd5a","B2","batch2","","null","<p class=block-text>Trial 5 out of 78</p>","null","pattern_show_trial_num","","","","","","","","","","","","","","","","","","","","","","","","",""
"","","","","","image-keyboard-response","30","122665","0.0-2.0-5.0-1.4","5bd283469afb5b00015bdd5a","B2","batch2","","4682.399999856949","stim/no_51_1.png","j","pattern_response","true","j","pattern_31","4682.399999856949","true","4","","","","","","","","","","","","","","","","","","",""
"","","","","","html-keyboard-response","31","123988","0.0-2.0-5.0-0.5","5bd283469afb5b00015bdd5a","B2","batch2","","null","<p class=block-text>Trial 6 out of 78</p>","null","pattern_show_trial_num","","","","","","","","","","","","","","","","","","","","","","","","",""
"","","","","","image-keyboard-response","32","125130","0.0-2.0-5.0-1.5","5bd283469afb5b00015bdd5a","B2","batch2","","1141","stim/no_12_1.png","j","pattern_response","true","j","pattern_01","1141","true","5","","","","","","","","","","","","","","","","","","",""
"","","","","","html-keyboard-response","33","126446","0.0-2.0-5.0-0.6","5bd283469afb5b00015bdd5a","B2","batch2","","null","<p class=block-text>Trial 7 out of 78</p>","null","pattern_show_trial_num","","","","","","","","","","","","","","","","","","","","","","","","",""
"","","","","","image-keyboard-response","34","129793","0.0-2.0-5.0-1.6","5bd283469afb5b00015bdd5a","B2","batch2","","3345.5","stim/yes_33_dia_w1_w.png","f","pattern_response","true","f","pattern_56","3345.5","true","6","","","","","","","","","","","","","","","","","","",""
"","","","","","html-keyboard-response","35","131097","0.0-2.0-5.0-0.7","5bd283469afb5b00015bdd5a","B2","batch2","","null","<p class=block-text>Trial 8 out of 78</p>","null","pattern_show_trial_num","","","","","","","","","","","","","","","","","","","","","","","","",""
"","","","","","image-keyboard-response","36","132572","0.0-2.0-5.0-1.7","5bd283469afb5b00015bdd5a","B2","batch2","","1474.1000001430511","stim/yes_15_dia_b1u_b.png","f","pattern_response","true","f","pattern_44","1474.1000001430511","true","7","","","","","","","","","","","","","","","","","","",""
"","","","","","html-keyboard-response","37","133897","0.0-2.0-5.0-0.8","5bd283469afb5b00015bdd5a","B2","batch2","","null","<p class=block-text>Trial 9 out of 78</p>","null","pattern_show_trial_num","","","","","","","","","","","","","","","","","","","","","","","","",""
"","","","","","image-keyboard-response","38","144029","0.0-2.0-5.0-1.8","5bd283469afb5b00015bdd5a","B2","batch2","","10131.400000095367","stim/yes_53_ver_b1_b.png","j","pattern_response","false","f","pattern_74","10131.400000095367","false","7","","","","","","","","","","","","","","","","","","",""
"","","","","","html-keyboard-response","39","145343","0.0-2.0-5.0-0.9","5bd283469afb5b00015bdd5a","B2","batch2","","null","<p class=block-text>Trial 10 out of 78</p>","null","pattern_show_trial_num","","","","","","","","","","","","","","","","","","","","","","","","",""
"","","","","","image-keyboard-response","40","147800","0.0-2.0-5.0-1.9","5bd283469afb5b00015bdd5a","B2","batch2","","2456.7999999523163","stim/yes_30_ver_b1_b.png","f","pattern_response","true","f","pattern_54","2456.7999999523163","true","8","","","","","","","","","","","","","","","","","","",""
"","","","","","html-keyboard-response","41","149124","0.0-2.0-5.0-0.10","5bd283469afb5b00015bdd5a","B2","batch2","","null","<p class=block-text>Trial 11 out of 78</p>","null","pattern_show_trial_num","","","","","","","","","","","","","","","","","","","","","","","","",""
"","","","","","image-keyboard-response","42","151472","0.0-2.0-5.0-1.10","5bd283469afb5b00015bdd5a","B2","batch2","","2347.2000000476837","stim/yes_70_ver_b1.png","f","pattern_response","true","f","pattern_80","2347.2000000476837","true","9","","","","","","","","","","","","","","","","","","",""
"","","","","","html-keyboard-response","43","152786","0.0-2.0-5.0-0.11","5bd283469afb5b00015bdd5a","B2","batch2","","null","<p class=block-text>Trial 12 out of 78</p>","null","pattern_show_trial_num","","","","","","","","","","","","","","","","","","","","","","","","",""
"","","","","","image-keyboard-response","44","160147","0.0-2.0-5.0-1.11","5bd283469afb5b00015bdd5a","B2","batch2","","7360.600000143051","stim/no_39_1_w.png","j","pattern_response","true","j","pattern_21","7360.600000143051","true","10","","","","","","","","","","","","","","","","","","",""
"","","","","","html-keyboard-response","45","161457","0.0-2.0-5.0-0.12","5bd283469afb5b00015bdd5a","B2","batch2","","null","<p class=block-text>Trial 13 out of 78</p>","null","pattern_show_trial_num","","","","","","","","","","","","","","","","","","","","","","","","",""
"","","","","","image-keyboard-response","46","164152","0.0-2.0-5.0-1.12","5bd283469afb5b00015bdd5a","B2","batch2","","2692.9000000953674","stim/no_22_1_b.png","j","pattern_response","true","j","pattern_07","2692.9000000953674","true","11","","","","","","","","","","","","","","","","","","",""
"","","","","","html-keyboard-response","47","165478","0.0-2.0-5.0-0.13","5bd283469afb5b00015bdd5a","B2","batch2","","null","<p class=block-text>Trial 14 out of 78</p>","null","pattern_show_trial_num","","","","","","","","","","","","","","","","","","","","","","","","",""
"","","","","","image-keyboard-response","48","169856","0.0-2.0-5.0-1.13","5bd283469afb5b00015bdd5a","B2","batch2","","4376.700000047684","stim/no_25_1_b.png","j","pattern_response","true","j","pattern_09","4376.700000047684","true","12","","","","","","","","","","","","","","","","","","",""
"","","","","","html-keyboard-response","49","171172","0.0-2.0-5.0-0.14","5bd283469afb5b00015bdd5a","B2","batch2","","null","<p class=block-text>Trial 15 out of 78</p>","null","pattern_show_trial_num","","","","","","","","","","","","","","","","","","","","","","","","",""
"","","","","","image-keyboard-response","50","177648","0.0-2.0-5.0-1.14","5bd283469afb5b00015bdd5a","B2","batch2","","6474.599999904633","stim/no_33_1_b.png","j","pattern_response","true","j","pattern_15","6474.599999904633","true","13","","","","","","","","","","","","","","","","","","",""
"","","","","","html-keyboard-response","51","178961","0.0-2.0-5.0-0.15","5bd283469afb5b00015bdd5a","B2","batch2","","null","<p class=block-text>Trial 16 out of 78</p>","null","pattern_show_trial_num","","","","","","","","","","","","","","","","","","","","","","","","",""
"","","","","","image-keyboard-response","52","186631","0.0-2.0-5.0-1.15","5bd283469afb5b00015bdd5a","B2","batch2","","7669.700000047684","stim/no_37_2_w.png","j","pattern_response","true","j","pattern_19","7669.700000047684","true","14","","","","","","","","","","","","","","","","","","",""
"","","","","","html-keyboard-response","53","187943","0.0-2.0-5.0-0.16","5bd283469afb5b00015bdd5a","B2","batch2","","null","<p class=block-text>Trial 17 out of 78</p>","null","pattern_show_trial_num","","","","","","","","","","","","","","","","","","","","","","","","",""
"","","","","","image-keyboard-response","54","196192","0.0-2.0-5.0-1.16","5bd283469afb5b00015bdd5a","B2","batch2","","8247.700000047684","stim/no_43_2_b.png","j","pattern_response","true","j","pattern_23","8247.700000047684","true","15","","","","","","","","","","","","","","","","","","",""
"","","","","","html-keyboard-response","55","197505","0.0-2.0-5.0-0.17","5bd283469afb5b00015bdd5a","B2","batch2","","null","<p class=block-text>Trial 18 out of 78</p>","null","pattern_show_trial_num","","","","","","","","","","","","","","","","","","","","","","","","",""
"","","","","","image-keyboard-response","56","198423","0.0-2.0-5.0-1.17","5bd283469afb5b00015bdd5a","B2","batch2","","917.8999998569489","stim/yes_12_hor_w1_w.png","f","pattern_response","true","f","pattern_42","917.8999998569489","true","16","","","","","","","","","","","","","","","","","","",""
"","","","","","html-keyboard-response","57","199729","0.0-2.0-5.0-0.18","5bd283469afb5b00015bdd5a","B2","batch2","","null","<p class=block-text>Trial 19 out of 78</p>","null","pattern_show_trial_num","","","","","","","","","","","","","","","","","","","","","","","","",""
"","","","","","image-keyboard-response","58","205352","0.0-2.0-5.0-1.18","5bd283469afb5b00015bdd5a","B2","batch2","","5622.600000143051","stim/no_47_1_b.png","j","pattern_response","true","j","pattern_27","5622.600000143051","true","17","","","","","","","","","","","","","","","","","","",""
"","","","","","html-keyboard-response","59","206666","0.0-2.0-5.0-0.19","5bd283469afb5b00015bdd5a","B2","batch2","","null","<p class=block-text>Trial 20 out of 78</p>","null","pattern_show_trial_num","","","","","","","","","","","","","","","","","","","","","","","","",""
"","","","","","image-keyboard-response","60","210193","0.0-2.0-5.0-1.19","5bd283469afb5b00015bdd5a","B2","batch2","","3526.899999856949","stim/yes_58_dia_w1_w.png","f","pattern_response","true","f","pattern_76","3526.899999856949","true","18","","","","","","","","","","","","","","","","","","",""
"","","","","","html-keyboard-response","61","211512","0.0-2.0-5.0-0.20","5bd283469afb5b00015bdd5a","B2","batch2","","null","<p class=block-text>Trial 21 out of 78</p>","null","pattern_show_trial_num","","","","","","","","","","","","","","","","","","","","","","","","",""
"","","","","","image-keyboard-response","62","212640","0.0-2.0-5.0-1.20","5bd283469afb5b00015bdd5a","B2","batch2","","1126.5","stim/yes_49_hor_w1_b.png","f","pattern_response","true","f","pattern_70","1126.5","true","19","","","","","","","","","","","","","","","","","","",""
"","","","","","html-keyboard-response","63","213955","0.0-2.0-5.0-0.21","5bd283469afb5b00015bdd5a","B2","batch2","","null","<p class=block-text>Trial 22 out of 78</p>","null","pattern_show_trial_num","","","","","","","","","","","","","","","","","","","","","","","","",""
"","","","","","image-keyboard-response","64","221407","0.0-2.0-5.0-1.21","5bd283469afb5b00015bdd5a","B2","batch2","","7450.799999952316","stim/no_53_1_b.png","j","pattern_response","true","j","pattern_33","7450.799999952316","true","20","","","","","","","","","","","","","","","","","","",""
"","","","","","html-keyboard-response","65","222724","0.0-2.0-5.0-0.22","5bd283469afb5b00015bdd5a","B2","batch2","","null","<p class=block-text>Trial 23 out of 78</p>","null","pattern_show_trial_num","","","","","","","","","","","","","","","","","","","","","","","","",""
"","","","","","image-keyboard-response","66","227919","0.0-2.0-5.0-1.22","5bd283469afb5b00015bdd5a","B2","batch2","","5194","stim/no_49_2_b.png","j","pattern_response","true","j","pattern_29","5194","true","21","","","","","","","","","","","","","","","","","","",""
"","","","","","html-keyboard-response","67","229246","0.0-2.0-5.0-0.23","5bd283469afb5b00015bdd5a","B2","batch2","","null","<p class=block-text>Trial 24 out of 78</p>","null","pattern_show_trial_num","","","","","","","","","","","","","","","","","","","","","","","","",""
"","","","","","image-keyboard-response","68","230731","0.0-2.0-5.0-1.23","5bd283469afb5b00015bdd5a","B2","batch2","","1484.1999998092651","stim/yes_36_ver_w1_w.png","f","pattern_response","true","f","pattern_58","1484.1999998092651","true","22","","","","","","","","","","","","","","","","","","",""
"","","","","","html-keyboard-response","69","232047","0.0-2.0-5.0-0.24","5bd283469afb5b00015bdd5a","B2","batch2","","null","<p class=block-text>Trial 25 out of 78</p>","null","pattern_show_trial_num","","","","","","","","","","","","","","","","","","","","","","","","",""
"","","","","","image-keyboard-response","70","240639","0.0-2.0-5.0-1.24","5bd283469afb5b00015bdd5a","B2","batch2","","8591","stim/no_45_1_w.png","j","pattern_response","true","j","pattern_25","8591","true","23","","","","","","","","","","","","","","","","","","",""
"","","","","","html-keyboard-response","71","241955","0.0-2.0-5.0-0.25","5bd283469afb5b00015bdd5a","B2","batch2","","null","<p class=block-text>Trial 26 out of 78</p>","null","pattern_show_trial_num","","","","","","","","","","","","","","","","","","","","","","","","",""
"","","","","","image-keyboard-response","72","243591","0.0-2.0-5.0-1.25","5bd283469afb5b00015bdd5a","B2","batch2","","1634.5","stim/yes_26_dia_w2_w.png","f","pattern_response","true","f","pattern_50","1634.5","true","24","","","","","","","","","","","","","","","","","","",""
"","","","","","html-keyboard-response","73","244911","0.0-2.0-5.0-0.26","5bd283469afb5b00015bdd5a","B2","batch2","","null","<p class=block-text>Trial 27 out of 78</p>","null","pattern_show_trial_num","","","","","","","","","","","","","","","","","","","","","","","","",""
"","","","","","image-keyboard-response","74","246223","0.0-2.0-5.0-1.26","5bd283469afb5b00015bdd5a","B2","batch2","","1311.5","stim/yes_37_hor_w1_w.png","f","pattern_response","true","f","pattern_60","1311.5","true","25","","","","","","","","","","","","","","","","","","",""
"","","","","","html-keyboard-response","75","247535","0.0-2.0-5.0-0.27","5bd283469afb5b00015bdd5a","B2","batch2","","null","<p class=block-text>Trial 28 out of 78</p>","null","pattern_show_trial_num","","","","","","","","","","","","","","","","","","","","","","","","",""
"","","","","","image-keyboard-response","76","248743","0.0-2.0-5.0-1.27","5bd283469afb5b00015bdd5a","B2","batch2","","1207.6999998092651","stim/yes_17_ver_b1_b.png","f","pattern_response","true","f","pattern_46","1207.6999998092651","true","26","","","","","","","","","","","","","","","","","","",""
"","","","","","html-keyboard-response","77","250056","0.0-2.0-5.0-0.28","5bd283469afb5b00015bdd5a","B2","batch2","","null","<p class=block-text>Trial 29 out of 78</p>","null","pattern_show_trial_num","","","","","","","","","","","","","","","","","","","","","","","","",""
"","","","","","image-keyboard-response","78","251134","0.0-2.0-5.0-1.28","5bd283469afb5b00015bdd5a","B2","batch2","","1077.6000001430511","stim/yes_39_hor_w1_w.png","f","pattern_response","true","f","pattern_62","1077.6000001430511","true","27","","","","","","","","","","","","","","","","","","",""
"","","","","","html-keyboard-response","79","252461","0.0-2.0-5.0-0.29","5bd283469afb5b00015bdd5a","B2","batch2","","null","<p class=block-text>Trial 30 out of 78</p>","null","pattern_show_trial_num","","","","","","","","","","","","","","","","","","","","","","","","",""
"","","","","","image-keyboard-response","80","255394","0.0-2.0-5.0-1.29","5bd283469afb5b00015bdd5a","B2","batch2","","2931.9000000953674","stim/yes_46_ver_b1_b.png","f","pattern_response","true","f","pattern_68","2931.9000000953674","true","28","","","","","","","","","","","","","","","","","","",""
"","","","","","html-keyboard-response","81","256702","0.0-2.0-5.0-0.30","5bd283469afb5b00015bdd5a","B2","batch2","","null","<p class=block-text>Trial 31 out of 78</p>","null","pattern_show_trial_num","","","","","","","","","","","","","","","","","","","","","","","","",""
"","","","","","image-keyboard-response","82","259505","0.0-2.0-5.0-1.30","5bd283469afb5b00015bdd5a","B2","batch2","","2801.9000000953674","stim/no_18_1_b.png","j","pattern_response","true","j","pattern_05","2801.9000000953674","true","29","","","","","","","","","","","","","","","","","","",""
"","","","","","html-keyboard-response","83","260811","0.0-2.0-5.0-0.31","5bd283469afb5b00015bdd5a","B2","batch2","","null","<p class=block-text>Trial 32 out of 78</p>","null","pattern_show_trial_num","","","","","","","","","","","","","","","","","","","","","","","","",""
"","","","","","image-keyboard-response","84","272438","0.0-2.0-5.0-1.31","5bd283469afb5b00015bdd5a","B2","batch2","","11625.799999952316","stim/no_58_1_w.png","j","pattern_response","true","j","pattern_35","11625.799999952316","true","30","","","","","","","","","","","","","","","","","","",""
"","","","","","html-keyboard-response","85","273749","0.0-2.0-5.0-0.32","5bd283469afb5b00015bdd5a","B2","batch2","","null","<p class=block-text>Trial 33 out of 78</p>","null","pattern_show_trial_num","","","","","","","","","","","","","","","","","","","","","","","","",""
"","","","","","image-keyboard-response","86","275016","0.0-2.0-5.0-1.32","5bd283469afb5b00015bdd5a","B2","batch2","","1266.0999999046326","stim/yes_23_ver_b1.png","f","pattern_response","true","f","pattern_48","1266.0999999046326","true","31","","","","","","","","","","","","","","","","","","",""
"","","","","","html-keyboard-response","87","276325","0.0-2.0-5.0-0.33","5bd283469afb5b00015bdd5a","B2","batch2","","null","<p class=block-text>Trial 34 out of 78</p>","null","pattern_show_trial_num","","","","","","","","","","","","","","","","","","","","","","","","",""
"","","","","","image-keyboard-response","88","277552","0.0-2.0-5.0-1.33","5bd283469afb5b00015bdd5a","B2","batch2","","1225.7000000476837","stim/yes_51_dia_b1.png","f","pattern_response","true","f","pattern_72","1225.7000000476837","true","32","","","","","","","","","","","","","","","","","","",""
"","","","","","html-keyboard-response","89","278854","0.0-2.0-5.0-0.34","5bd283469afb5b00015bdd5a","B2","batch2","","null","<p class=block-text>Trial 35 out of 78</p>","null","pattern_show_trial_num","","","","","","","","","","","","","","","","","","","","","","","","",""
"","","","","","image-keyboard-response","90","286007","0.0-2.0-5.0-1.34","5bd283469afb5b00015bdd5a","B2","batch2","","7151.700000047684","stim/yes_42_dia_w1_w.png","j","pattern_response","false","f","pattern_64","7151.700000047684","false","32","","","","","","","","","","","","","","","","","","",""
"","","","","","html-keyboard-response","91","287332","0.0-2.0-5.0-0.35","5bd283469afb5b00015bdd5a","B2","batch2","","null","<p class=block-text>Trial 36 out of 78</p>","null","pattern_show_trial_num","","","","","","","","","","","","","","","","","","","","","","","","",""
"","","","","","image-keyboard-response","92","297863","0.0-2.0-5.0-1.35","5bd283469afb5b00015bdd5a","B2","batch2","","10530.099999904633","stim/no_67_1.png","j","pattern_response","true","j","pattern_39","10530.099999904633","true","33","","","","","","","","","","","","","","","","","","",""
"","","","","","html-keyboard-response","93","299175","0.0-2.0-5.0-0.36","5bd283469afb5b00015bdd5a","B2","batch2","","null","<p class=block-text>Trial 37 out of 78</p>","null","pattern_show_trial_num","","","","","","","","","","","","","","","","","","","","","","","","",""
"","","","","","image-keyboard-response","94","305545","0.0-2.0-5.0-1.36","5bd283469afb5b00015bdd5a","B2","batch2","","6368.5","stim/no_36_1_b.png","j","pattern_response","true","j","pattern_17","6368.5","true","34","","","","","","","","","","","","","","","","","","",""
"","","","","","html-keyboard-response","95","306852","0.0-2.0-5.0-0.37","5bd283469afb5b00015bdd5a","B2","batch2","","null","<p class=block-text>Trial 38 out of 78</p>","null","pattern_show_trial_num","","","","","","","","","","","","","","","","","","","","","","","","",""
"","","","","","image-keyboard-response","96","312269","0.0-2.0-5.0-1.37","5bd283469afb5b00015bdd5a","B2","batch2","","5412.799999952316","stim/no_28_2.png","j","pattern_response","true","j","pattern_11","5412.799999952316","true","35","","","","","","","","","","","","","","","","","","",""
"","","","","","html-keyboard-response","97","313570","0.0-2.0-5.0-0.38","5bd283469afb5b00015bdd5a","B2","batch2","","null","<p class=block-text>Trial 39 out of 78</p>","null","pattern_show_trial_num","","","","","","","","","","","","","","","","","","","","","","","","",""
"","","","","","image-keyboard-response","98","314484","0.0-2.0-5.0-1.38","5bd283469afb5b00015bdd5a","B2","batch2","","914","stim/yes_29_hor_b1_b.png","f","pattern_response","true","f","pattern_52","914","true","36","","","","","","","","","","","","","","","","","","",""
"","","","","","image-keyboard-response","99","317188","0.0-2.0-6.0","5bd283469afb5b00015bdd5a","B2","batch2","","2188.4000000953674","stim/empty_board.png","j","attention_check","true","j","","","","","500","[""f"",""j""]","","","","","","","","","","","","","","","","",""
"","","","","","html-keyboard-response","100","318000","0.0-2.0-7.0-0.0","5bd283469afb5b00015bdd5a","B2","batch2","","null","<p class=block-text>Trial 40 out of 78</p>","null","pattern_show_trial_num","","","","","","","","","","","","","","","","","","","","","","","","",""
"","","","","","image-keyboard-response","101","328995","0.0-2.0-7.0-1.0","5bd283469afb5b00015bdd5a","B2","batch2","","10994.300000190735","stim/no_62_1_w.png","j","pattern_response","true","j","pattern_36","10994.300000190735","true","37","","","","","","","","","","","","","","","","","","",""
"","","","","","html-keyboard-response","102","330311","0.0-2.0-7.0-0.1","5bd283469afb5b00015bdd5a","B2","batch2","","null","<p class=block-text>Trial 41 out of 78</p>","null","pattern_show_trial_num","","","","","","","","","","","","","","","","","","","","","","","","",""
"","","","","","image-keyboard-response","103","332340","0.0-2.0-7.0-1.1","5bd283469afb5b00015bdd5a","B2","batch2","","2027.5","stim/yes_48_dia_w1_w.png","f","pattern_response","true","f","pattern_69","2027.5","true","38","","","","","","","","","","","","","","","","","","",""
"","","","","","html-keyboard-response","104","333654","0.0-2.0-7.0-0.2","5bd283469afb5b00015bdd5a","B2","batch2","","null","<p class=block-text>Trial 42 out of 78</p>","null","pattern_show_trial_num","","","","","","","","","","","","","","","","","","","","","","","","",""
"","","","","","image-keyboard-response","105","334851","0.0-2.0-7.0-1.2","5bd283469afb5b00015bdd5a","B2","batch2","","1196.1999998092651","stim/yes_14_hor_b1_w.png","f","pattern_response","true","f","pattern_43","1196.1999998092651","true","39","","","","","","","","","","","","","","","","","","",""
"","","","","","html-keyboard-response","106","336163","0.0-2.0-7.0-0.3","5bd283469afb5b00015bdd5a","B2","batch2","","null","<p class=block-text>Trial 43 out of 78</p>","null","pattern_show_trial_num","","","","","","","","","","","","","","","","","","","","","","","","",""
"","","","","","image-keyboard-response","107","344443","0.0-2.0-7.0-1.3","5bd283469afb5b00015bdd5a","B2","batch2","","8279.700000047684","stim/no_42_1_w.png","j","pattern_response","true","j","pattern_22","8279.700000047684","true","40","","","","","","","","","","","","","","","","","","",""
"","","","","","html-keyboard-response","108","345749","0.0-2.0-7.0-0.4","5bd283469afb5b00015bdd5a","B2","batch2","","null","<p class=block-text>Trial 44 out of 78</p>","null","pattern_show_trial_num","","","","","","","","","","","","","","","","","","","","","","","","",""
"","","","","","image-keyboard-response","109","350059","0.0-2.0-7.0-1.4","5bd283469afb5b00015bdd5a","B2","batch2","","4309.200000047684","stim/no_26_1_w.png","j","pattern_response","true","j","pattern_10","4309.200000047684","true","41","","","","","","","","","","","","","","","","","","",""
"","","","","","html-keyboard-response","110","351367","0.0-2.0-7.0-0.5","5bd283469afb5b00015bdd5a","B2","batch2","","null","<p class=block-text>Trial 45 out of 78</p>","null","pattern_show_trial_num","","","","","","","","","","","","","","","","","","","","","","","","",""
"","","","","","image-keyboard-response","111","354547","0.0-2.0-7.0-1.5","5bd283469afb5b00015bdd5a","B2","batch2","","3179.4000000953674","stim/no_13_2_b.png","j","pattern_response","true","j","pattern_02","3179.4000000953674","true","42","","","","","","","","","","","","","","","","","","",""
"","","","","","html-keyboard-response","112","355869","0.0-2.0-7.0-0.6","5bd283469afb5b00015bdd5a","B2","batch2","","null","<p class=block-text>Trial 46 out of 78</p>","null","pattern_show_trial_num","","","","","","","","","","","","","","","","","","","","","","","","",""
"","","","","","image-keyboard-response","113","367147","0.0-2.0-7.0-1.6","5bd283469afb5b00015bdd5a","B2","batch2","","11276.599999904633","stim/no_52_1.png","j","pattern_response","true","j","pattern_32","11276.599999904633","true","43","","","","","","","","","","","","","","","","","","",""
"","","","","","html-keyboard-response","114","368463","0.0-2.0-7.0-0.7","5bd283469afb5b00015bdd5a","B2","batch2","","null","<p class=block-text>Trial 47 out of 78</p>","null","pattern_show_trial_num","","","","","","","","","","","","","","","","","","","","","","","","",""
"","","","","","image-keyboard-response","115","377146","0.0-2.0-7.0-1.7","5bd283469afb5b00015bdd5a","B2","batch2","","8682.900000095367","stim/yes_37_dia_w1.png","j","pattern_response","false","f","pattern_59","8682.900000095367","false","43","","","","","","","","","","","","","","","","","","",""
"","","","","","html-keyboard-response","116","378464","0.0-2.0-7.0-0.8","5bd283469afb5b00015bdd5a","B2","batch2","","null","<p class=block-text>Trial 48 out of 78</p>","null","pattern_show_trial_num","","","","","","","","","","","","","","","","","","","","","","","","",""
"","","","","","image-keyboard-response","117","379643","0.0-2.0-7.0-1.8","5bd283469afb5b00015bdd5a","B2","batch2","","1178.2000000476837","stim/yes_17_dia_w1.png","f","pattern_response","true","f","pattern_45","1178.2000000476837","true","44","","","","","","","","","","","","","","","","","","",""
"","","","","","html-keyboard-response","118","380959","0.0-2.0-7.0-0.9","5bd283469afb5b00015bdd5a","B2","batch2","","null","<p class=block-text>Trial 49 out of 78</p>","null","pattern_show_trial_num","","","","","","","","","","","","","","","","","","","","","","","","",""
"","","","","","image-keyboard-response","119","382555","0.0-2.0-7.0-1.9","5bd283469afb5b00015bdd5a","B2","batch2","","1594.9000000953674","stim/yes_29_ver_w1.png","f","pattern_response","true","f","pattern_53","1594.9000000953674","true","45","","","","","","","","","","","","","","","","","","",""
"","","","","","html-keyboard-response","120","383873","0.0-2.0-7.0-0.10","5bd283469afb5b00015bdd5a","B2","batch2","","null","<p class=block-text>Trial 50 out of 78</p>","null","pattern_show_trial_num","","","","","","","","","","","","","","","","","","","","","","","","",""
"","","","","","image-keyboard-response","121","387141","0.0-2.0-7.0-1.10","5bd283469afb5b00015bdd5a","B2","batch2","","3267","stim/yes_31_hor_b1.png","f","pattern_response","true","f","pattern_55","3267","true","46","","","","","","","","","","","","","","","","","","",""
"","","","","","html-keyboard-response","122","388459","0.0-2.0-7.0-0.11","5bd283469afb5b00015bdd5a","B2","batch2","","null","<p class=block-text>Trial 51 out of 78</p>","null","pattern_show_trial_num","","","","","","","","","","","","","","","","","","","","","","","","",""
"","","","","","image-keyboard-response","123","389362","0.0-2.0-7.0-1.11","5bd283469afb5b00015bdd5a","B2","batch2","","902.5","stim/yes_25_hor_b1_b.png","f","pattern_response","true","f","pattern_49","902.5","true","47","","","","","","","","","","","","","","","","","","",""
"","","","","","html-keyboard-response","124","390673","0.0-2.0-7.0-0.12","5bd283469afb5b00015bdd5a","B2","batch2","","null","<p class=block-text>Trial 52 out of 78</p>","null","pattern_show_trial_num","","","","","","","","","","","","","","","","","","","","","","","","",""
"","","","","","image-keyboard-response","125","401715","0.0-2.0-7.0-1.12","5bd283469afb5b00015bdd5a","B2","batch2","","11040.700000047684","stim/no_38_1_b.png","j","pattern_response","true","j","pattern_20","11040.700000047684","true","48","","","","","","","","","","","","","","","","","","",""
"","","","","","html-keyboard-response","126","403037","0.0-2.0-7.0-0.13","5bd283469afb5b00015bdd5a","B2","batch2","","null","<p class=block-text>Trial 53 out of 78</p>","null","pattern_show_trial_num","","","","","","","","","","","","","","","","","","","","","","","","",""
"","","","","","image-keyboard-response","127","408826","0.0-2.0-7.0-1.13","5bd283469afb5b00015bdd5a","B2","batch2","","5788.200000047684","stim/no_44_1.png","j","pattern_response","true","j","pattern_24","5788.200000047684","true","49","","","","","","","","","","","","","","","","","","",""
"","","","","","html-keyboard-response","128","410148","0.0-2.0-7.0-0.14","5bd283469afb5b00015bdd5a","B2","batch2","","null","<p class=block-text>Trial 54 out of 78</p>","null","pattern_show_trial_num","","","","","","","","","","","","","","","","","","","","","","","","",""
"","","","","","image-keyboard-response","129","416282","0.0-2.0-7.0-1.14","5bd283469afb5b00015bdd5a","B2","batch2","","6133.200000047684","stim/yes_67_hor_b1.png","f","pattern_response","true","f","pattern_79","6133.200000047684","true","50","","","","","","","","","","","","","","","","","","",""
"","","","","","html-keyboard-response","130","417593","0.0-2.0-7.0-0.15","5bd283469afb5b00015bdd5a","B2","batch2","","null","<p class=block-text>Trial 55 out of 78</p>","null","pattern_show_trial_num","","","","","","","","","","","","","","","","","","","","","","","","",""
"","","","","","image-keyboard-response","131","419474","0.0-2.0-7.0-1.15","5bd283469afb5b00015bdd5a","B2","batch2","","1879.5999999046326","stim/yes_38_hor_b1_b.png","f","pattern_response","true","f","pattern_61","1879.5999999046326","true","51","","","","","","","","","","","","","","","","","","",""
"","","","","","html-keyboard-response","132","420781","0.0-2.0-7.0-0.16","5bd283469afb5b00015bdd5a","B2","batch2","","null","<p class=block-text>Trial 56 out of 78</p>","null","pattern_show_trial_num","","","","","","","","","","","","","","","","","","","","","","","","",""
"","","","","","image-keyboard-response","133","422577","0.0-2.0-7.0-1.16","5bd283469afb5b00015bdd5a","B2","batch2","","1796","stim/no_20_1_w.png","j","pattern_response","true","j","pattern_06","1796","true","52","","","","","","","","","","","","","","","","","","",""
"","","","","","html-keyboard-response","134","423890","0.0-2.0-7.0-0.17","5bd283469afb5b00015bdd5a","B2","batch2","","null","<p class=block-text>Trial 57 out of 78</p>","null","pattern_show_trial_num","","","","","","","","","","","","","","","","","","","","","","","","",""
"","","","","","image-keyboard-response","135","426321","0.0-2.0-7.0-1.17","5bd283469afb5b00015bdd5a","B2","batch2","","2430.7000000476837","stim/yes_35_dia_b1.png","f","pattern_response","true","f","pattern_57","2430.7000000476837","true","53","","","","","","","","","","","","","","","","","","",""
"","","","","","html-keyboard-response","136","427646","0.0-2.0-7.0-0.18","5bd283469afb5b00015bdd5a","B2","batch2","","null","<p class=block-text>Trial 58 out of 78</p>","null","pattern_show_trial_num","","","","","","","","","","","","","","","","","","","","","","","","",""
"","","","","","image-keyboard-response","137","436580","0.0-2.0-7.0-1.18","5bd283469afb5b00015bdd5a","B2","batch2","","8932.799999952316","stim/no_55_1_w.png","j","pattern_response","true","j","pattern_34","8932.799999952316","true","54","","","","","","","","","","","","","","","","","","",""
"","","","","","html-keyboard-response","138","437895","0.0-2.0-7.0-0.19","5bd283469afb5b00015bdd5a","B2","batch2","","null","<p class=block-text>Trial 59 out of 78</p>","null","pattern_show_trial_num","","","","","","","","","","","","","","","","","","","","","","","","",""
"","","","","","image-keyboard-response","139","439440","0.0-2.0-7.0-1.19","5bd283469afb5b00015bdd5a","B2","batch2","","1544.1999998092651","stim/yes_45_hor_b2_b.png","f","pattern_response","true","f","pattern_67","1544.1999998092651","true","55","","","","","","","","","","","","","","","","","","",""
"","","","","","html-keyboard-response","140","440753","0.0-2.0-7.0-0.20","5bd283469afb5b00015bdd5a","B2","batch2","","null","<p class=block-text>Trial 60 out of 78</p>","null","pattern_show_trial_num","","","","","","","","","","","","","","","","","","","","","","","","",""
"","","","","","image-keyboard-response","141","442103","0.0-2.0-7.0-1.20","5bd283469afb5b00015bdd5a","B2","batch2","","1349.2999999523163","stim/yes_28_ver_b1.png","f","pattern_response","true","f","pattern_51","1349.2999999523163","true","56","","","","","","","","","","","","","","","","","","",""
"","","","","","html-keyboard-response","142","443433","0.0-2.0-7.0-0.21","5bd283469afb5b00015bdd5a","B2","batch2","","null","<p class=block-text>Trial 61 out of 78</p>","null","pattern_show_trial_num","","","","","","","","","","","","","","","","","","","","","","","","",""
"","","","","","image-keyboard-response","143","444887","0.0-2.0-7.0-1.21","5bd283469afb5b00015bdd5a","B2","batch2","","1453.8000001907349","stim/yes_52_ver_w1.png","f","pattern_response","true","f","pattern_73","1453.8000001907349","true","57","","","","","","","","","","","","","","","","","","",""
"","","","","","html-keyboard-response","144","446204","0.0-2.0-7.0-0.22","5bd283469afb5b00015bdd5a","B2","batch2","","null","<p class=block-text>Trial 62 out of 78</p>","null","pattern_show_trial_num","","","","","","","","","","","","","","","","","","","","","","","","",""
"","","","","","image-keyboard-response","145","452775","0.0-2.0-7.0-1.22","5bd283469afb5b00015bdd5a","B2","batch2","","6570.299999952316","stim/yes_60_ver_b1_b.png","f","pattern_response","true","f","pattern_77","6570.299999952316","true","58","","","","","","","","","","","","","","","","","","",""
"","","","","","html-keyboard-response","146","454093","0.0-2.0-7.0-0.23","5bd283469afb5b00015bdd5a","B2","batch2","","null","<p class=block-text>Trial 63 out of 78</p>","null","pattern_show_trial_num","","","","","","","","","","","","","","","","","","","","","","","","",""
"","","","","","image-keyboard-response","147","457567","0.0-2.0-7.0-1.23","5bd283469afb5b00015bdd5a","B2","batch2","","3473.5","stim/no_34_1_b.png","j","pattern_response","true","j","pattern_16","3473.5","true","59","","","","","","","","","","","","","","","","","","",""
"","","","","","html-keyboard-response","148","458883","0.0-2.0-7.0-0.24","5bd283469afb5b00015bdd5a","B2","batch2","","null","<p class=block-text>Trial 64 out of 78</p>","null","pattern_show_trial_num","","","","","","","","","","","","","","","","","","","","","","","","",""
"","","","","","image-keyboard-response","149","469495","0.0-2.0-7.0-1.24","5bd283469afb5b00015bdd5a","B2","batch2","","10611.200000047684","stim/no_65_1_b.png","j","pattern_response","true","j","pattern_38","10611.200000047684","true","60","","","","","","","","","","","","","","","","","","",""
"","","","","","html-keyboard-response","150","470809","0.0-2.0-7.0-0.25","5bd283469afb5b00015bdd5a","B2","batch2","","null","<p class=block-text>Trial 65 out of 78</p>","null","pattern_show_trial_num","","","","","","","","","","","","","","","","","","","","","","","","",""
"","","","","","image-keyboard-response","151","471783","0.0-2.0-7.0-1.25","5bd283469afb5b00015bdd5a","B2","batch2","","972.2999999523163","stim/yes_22_ver_w1.png","f","pattern_response","true","f","pattern_47","972.2999999523163","true","61","","","","","","","","","","","","","","","","","","",""
"","","","","","html-keyboard-response","152","473095","0.0-2.0-7.0-0.26","5bd283469afb5b00015bdd5a","B2","batch2","","null","<p class=block-text>Trial 66 out of 78</p>","null","pattern_show_trial_num","","","","","","","","","","","","","","","","","","","","","","","","",""
"","","","","","image-keyboard-response","153","475160","0.0-2.0-7.0-1.26","5bd283469afb5b00015bdd5a","B2","batch2","","2063.7000000476837","stim/yes_43_ver_w1_w.png","f","pattern_response","true","f","pattern_65","2063.7000000476837","true","62","","","","","","","","","","","","","","","","","","",""
"","","","","","html-keyboard-response","154","476474","0.0-2.0-7.0-0.27","5bd283469afb5b00015bdd5a","B2","batch2","","null","<p class=block-text>Trial 67 out of 78</p>","null","pattern_show_trial_num","","","","","","","","","","","","","","","","","","","","","","","","",""
"","","","","","image-keyboard-response","155","483439","0.0-2.0-7.0-1.27","5bd283469afb5b00015bdd5a","B2","batch2","","6964","stim/no_50_1.png","j","pattern_response","true","j","pattern_30","6964","true","63","","","","","","","","","","","","","","","","","","",""
"","","","","","html-keyboard-response","156","484750","0.0-2.0-7.0-0.28","5bd283469afb5b00015bdd5a","B2","batch2","","null","<p class=block-text>Trial 68 out of 78</p>","null","pattern_show_trial_num","","","","","","","","","","","","","","","","","","","","","","","","",""
"","","","","","image-keyboard-response","157","488390","0.0-2.0-7.0-1.28","5bd283469afb5b00015bdd5a","B2","batch2","","3638.899999856949","stim/no_23_1.png","j","pattern_response","true","j","pattern_08","3638.899999856949","true","64","","","","","","","","","","","","","","","","","","",""
"","","","","","html-keyboard-response","158","489705","0.0-2.0-7.0-0.29","5bd283469afb5b00015bdd5a","B2","batch2","","null","<p class=block-text>Trial 69 out of 78</p>","null","pattern_show_trial_num","","","","","","","","","","","","","","","","","","","","","","","","",""
"","","","","","image-keyboard-response","159","490535","0.0-2.0-7.0-1.29","5bd283469afb5b00015bdd5a","B2","batch2","","829.5","stim/yes_55_hor_w1_w.png","f","pattern_response","true","f","pattern_75","829.5","true","65","","","","","","","","","","","","","","","","","","",""
"","","","","","html-keyboard-response","160","491844","0.0-2.0-7.0-0.30","5bd283469afb5b00015bdd5a","B2","batch2","","null","<p class=block-text>Trial 70 out of 78</p>","null","pattern_show_trial_num","","","","","","","","","","","","","","","","","","","","","","","","",""
"","","","","","image-keyboard-response","161","499167","0.0-2.0-7.0-1.30","5bd283469afb5b00015bdd5a","B2","batch2","","7321.799999952316","stim/no_36_2_w.png","j","pattern_response","true","j","pattern_18","7321.799999952316","true","66","","","","","","","","","","","","","","","","","","",""
"","","","","","html-keyboard-response","162","500480","0.0-2.0-7.0-0.31","5bd283469afb5b00015bdd5a","B2","batch2","","null","<p class=block-text>Trial 71 out of 78</p>","null","pattern_show_trial_num","","","","","","","","","","","","","","","","","","","","","","","","",""
"","","","","","image-keyboard-response","163","505921","0.0-2.0-7.0-1.31","5bd283469afb5b00015bdd5a","B2","batch2","","5440.099999904633","stim/no_29_1_b.png","j","pattern_response","true","j","pattern_12","5440.099999904633","true","67","","","","","","","","","","","","","","","","","","",""
"","","","","","html-keyboard-response","164","507231","0.0-2.0-7.0-0.32","5bd283469afb5b00015bdd5a","B2","batch2","","null","<p class=block-text>Trial 72 out of 78</p>","null","pattern_show_trial_num","","","","","","","","","","","","","","","","","","","","","","","","",""
"","","","","","image-keyboard-response","165","514458","0.0-2.0-7.0-1.32","5bd283469afb5b00015bdd5a","B2","batch2","","7225.299999952316","stim/no_46_1_b.png","j","pattern_response","true","j","pattern_26","7225.299999952316","true","68","","","","","","","","","","","","","","","","","","",""
"","","","","","html-keyboard-response","166","515766","0.0-2.0-7.0-0.33","5bd283469afb5b00015bdd5a","B2","batch2","","null","<p class=block-text>Trial 73 out of 78</p>","null","pattern_show_trial_num","","","","","","","","","","","","","","","","","","","","","","","","",""
"","","","","","image-keyboard-response","167","517895","0.0-2.0-7.0-1.33","5bd283469afb5b00015bdd5a","B2","batch2","","2128.0999999046326","stim/no_17_1_w.png","j","pattern_response","true","j","pattern_04","2128.0999999046326","true","69","","","","","","","","","","","","","","","","","","",""
"","","","","","html-keyboard-response","168","519227","0.0-2.0-7.0-0.34","5bd283469afb5b00015bdd5a","B2","batch2","","null","<p class=block-text>Trial 74 out of 78</p>","null","pattern_show_trial_num","","","","","","","","","","","","","","","","","","","","","","","","",""
"","","","","","image-keyboard-response","169","529368","0.0-2.0-7.0-1.34","5bd283469afb5b00015bdd5a","B2","batch2","","10140.399999856949","stim/no_70_2.png","j","pattern_response","true","j","pattern_40","10140.399999856949","true","70","","","","","","","","","","","","","","","","","","",""
"","","","","","html-keyboard-response","170","530672","0.0-2.0-7.0-0.35","5bd283469afb5b00015bdd5a","B2","batch2","","null","<p class=block-text>Trial 75 out of 78</p>","null","pattern_show_trial_num","","","","","","","","","","","","","","","","","","","","","","","","",""
"","","","","","image-keyboard-response","171","535274","0.0-2.0-7.0-1.35","5bd283469afb5b00015bdd5a","B2","batch2","","4601","stim/yes_50_dia_w1.png","f","pattern_response","true","f","pattern_71","4601","true","71","","","","","","","","","","","","","","","","","","",""
"","","","","","html-keyboard-response","172","536594","0.0-2.0-7.0-0.36","5bd283469afb5b00015bdd5a","B2","batch2","","null","<p class=block-text>Trial 76 out of 78</p>","null","pattern_show_trial_num","","","","","","","","","","","","","","","","","","","","","","","","",""
"","","","","","image-keyboard-response","173","541846","0.0-2.0-7.0-1.36","5bd283469afb5b00015bdd5a","B2","batch2","","5251.200000047684","stim/yes_40_dia_b1_b.png","j","pattern_response","false","f","pattern_63","5251.200000047684","false","71","","","","","","","","","","","","","","","","","","",""
"","","","","","html-keyboard-response","174","543156","0.0-2.0-7.0-0.37","5bd283469afb5b00015bdd5a","B2","batch2","","null","<p class=block-text>Trial 77 out of 78</p>","null","pattern_show_trial_num","","","","","","","","","","","","","","","","","","","","","","","","",""
"","","","","","image-keyboard-response","175","547038","0.0-2.0-7.0-1.37","5bd283469afb5b00015bdd5a","B2","batch2","","3881.4000000953674","stim/no_32_1_w.png","j","pattern_response","true","j","pattern_14","3881.4000000953674","true","72","","","","","","","","","","","","","","","","","","",""
"","","","","","html-keyboard-response","176","548367","0.0-2.0-7.0-0.38","5bd283469afb5b00015bdd5a","B2","batch2","","null","<p class=block-text>Trial 78 out of 78</p>","null","pattern_show_trial_num","","","","","","","","","","","","","","","","","","","","","","","","",""
"","","","","","image-keyboard-response","177","556641","0.0-2.0-7.0-1.38","5bd283469afb5b00015bdd5a","B2","batch2","","8273.099999904633","stim/no_48_1_w.png","j","pattern_response","true","j","pattern_28","8273.099999904633","true","73","","","","","","","","","","","","","","","","","","",""
"","","","","","html-button-response","178","560766","0.0-2.0-8.0","5bd283469afb5b00015bdd5a","B2","batch2","","3611.2999999523163","<p class = block-text>This concludes the 4-in-a-row detection game.Thank you for your responses!<br>
            You responded correctly on 94% of the trials.<br>
            When you are ready, press ""Continue"" button to continue </p>","0","","","","","","","","","","","","","","","","","","","","","","","","","",""
"true","","","","","fullscreen","179","563952","0.0-3.0-0.0","5bd283469afb5b00015bdd5a","B2","batch2","","","","","spm_fullscreen","","","","","","","","","","","","","","","","","","","","","","","","",""
"","","","","","html-button-response","180","621629","0.0-3.0-1.0","5bd283469afb5b00015bdd5a","B2","batch2","","57675.799999952316","<p class = block-text><b>Instructions</b> <br>This is a widely used intelligence test in research. <br>In this test, a figure with a missing piece will be presented.<br>Below the figure are alternative pieces to complete the figure, only one of which is correct.<br> Different figures might involve different principles for obtaining the missing piece<br>Your job is to select the most logical piece to complete the figure.</p>","0","","","","","","","","","","","","","","","","","","","","","","","","","",""
"","","","","","html-keyboard-response","181","622430","0.0-3.0-2.0-0.0","5bd283469afb5b00015bdd5a","B2","batch2","","null","<p class=block-text>Trial 1 out of 60</p>","null","spm_show_trial_num","","","","","","","","","","","","","","","","","","","","","","","","",""
"","","","","","image-button-response","182","628124","0.0-3.0-2.0-1.0","5bd283469afb5b00015bdd5a","B2","batch2","","5693.099999904633","img/question_1_1.jpeg","1","spm_respsonse","0","4","mat_01","","","","","","0","5693.099999904633","","","","","","","","","","","","","","",""
"","","","","","html-keyboard-response","183","629176","0.0-3.0-2.0-0.1","5bd283469afb5b00015bdd5a","B2","batch2","","null","<p class=block-text>Trial 2 out of 60</p>","null","spm_show_trial_num","","","","","","","","","","","","","","","","","","","","","","","","",""
"","","","","","image-button-response","184","631589","0.0-3.0-2.0-1.1","5bd283469afb5b00015bdd5a","B2","batch2","","2412","img/question_1_2.jpeg","4","spm_respsonse","1","5","mat_02","","","","","","1","2412","","","","","","","","","","","","","","",""
"","","","","","html-keyboard-response","185","632646","0.0-3.0-2.0-0.2","5bd283469afb5b00015bdd5a","B2","batch2","","null","<p class=block-text>Trial 3 out of 60</p>","null","spm_show_trial_num","","","","","","","","","","","","","","","","","","","","","","","","",""
"","","","","","image-button-response","186","634989","0.0-3.0-2.0-1.2","5bd283469afb5b00015bdd5a","B2","batch2","","2341.7999999523163","img/question_1_3.jpeg","0","spm_respsonse","1","1","mat_03","","","","","","1","2341.7999999523163","","","","","","","","","","","","","","",""
"","","","","","html-keyboard-response","187","636039","0.0-3.0-2.0-0.3","5bd283469afb5b00015bdd5a","B2","batch2","","null","<p class=block-text>Trial 4 out of 60</p>","null","spm_show_trial_num","","","","","","","","","","","","","","","","","","","","","","","","",""
"","","","","","image-button-response","188","641100","0.0-3.0-2.0-1.3","5bd283469afb5b00015bdd5a","B2","batch2","","5060.299999952316","img/question_1_4.jpeg","1","spm_respsonse","1","2","mat_04","","","","","","1","5060.299999952316","","","","","","","","","","","","","","",""
"","","","","","html-keyboard-response","189","642152","0.0-3.0-2.0-0.4","5bd283469afb5b00015bdd5a","B2","batch2","","null","<p class=block-text>Trial 5 out of 60</p>","null","spm_show_trial_num","","","","","","","","","","","","","","","","","","","","","","","","",""
"","","","","","image-button-response","190","645156","0.0-3.0-2.0-1.4","5bd283469afb5b00015bdd5a","B2","batch2","","3003.100000143051","img/question_1_5.jpeg","5","spm_respsonse","1","6","mat_05","","","","","","1","3003.100000143051","","","","","","","","","","","","","","",""
"","","","","","html-keyboard-response","191","646209","0.0-3.0-2.0-0.5","5bd283469afb5b00015bdd5a","B2","batch2","","null","<p class=block-text>Trial 6 out of 60</p>","null","spm_show_trial_num","","","","","","","","","","","","","","","","","","","","","","","","",""
"","","","","","image-button-response","192","653185","0.0-3.0-2.0-1.5","5bd283469afb5b00015bdd5a","B2","batch2","","6974.600000143051","img/question_1_6.jpeg","2","spm_respsonse","1","3","mat_06","","","","","","1","6974.600000143051","","","","","","","","","","","","","","",""
"","","","","","html-keyboard-response","193","654236","0.0-3.0-2.0-0.6","5bd283469afb5b00015bdd5a","B2","batch2","","null","<p class=block-text>Trial 7 out of 60</p>","null","spm_show_trial_num","","","","","","","","","","","","","","","","","","","","","","","","",""
"","","","","","image-button-response","194","659860","0.0-3.0-2.0-1.6","5bd283469afb5b00015bdd5a","B2","batch2","","5622.5","img/question_1_7.jpeg","5","spm_respsonse","1","6","mat_07","","","","","","1","5622.5","","","","","","","","","","","","","","",""
"","","","","","html-keyboard-response","195","660911","0.0-3.0-2.0-0.7","5bd283469afb5b00015bdd5a","B2","batch2","","null","<p class=block-text>Trial 8 out of 60</p>","null","spm_show_trial_num","","","","","","","","","","","","","","","","","","","","","","","","",""
"","","","","","image-button-response","196","668997","0.0-3.0-2.0-1.7","5bd283469afb5b00015bdd5a","B2","batch2","","8084.299999952316","img/question_1_8.jpeg","1","spm_respsonse","1","2","mat_08","","","","","","1","8084.299999952316","","","","","","","","","","","","","","",""
"","","","","","html-keyboard-response","197","670056","0.0-3.0-2.0-0.8","5bd283469afb5b00015bdd5a","B2","batch2","","null","<p class=block-text>Trial 9 out of 60</p>","null","spm_show_trial_num","","","","","","","","","","","","","","","","","","","","","","","","",""
"","","","","","image-button-response","198","674627","0.0-3.0-2.0-1.8","5bd283469afb5b00015bdd5a","B2","batch2","","4569.900000095367","img/question_1_9.jpeg","0","spm_respsonse","1","1","mat_09","","","","","","1","4569.900000095367","","","","","","","","","","","","","","",""
"","","","","","html-keyboard-response","199","675679","0.0-3.0-2.0-0.9","5bd283469afb5b00015bdd5a","B2","batch2","","null","<p class=block-text>Trial 10 out of 60</p>","null","spm_show_trial_num","","","","","","","","","","","","","","","","","","","","","","","","",""
"","","","","","image-button-response","200","681091","0.0-3.0-2.0-1.9","5bd283469afb5b00015bdd5a","B2","batch2","","5411.5","img/question_1_10.jpeg","2","spm_respsonse","1","3","mat_10","","","","","","1","5411.5","","","","","","","","","","","","","","",""
"","","","","","html-keyboard-response","201","682143","0.0-3.0-2.0-0.10","5bd283469afb5b00015bdd5a","B2","batch2","","null","<p class=block-text>Trial 11 out of 60</p>","null","spm_show_trial_num","","","","","","","","","","","","","","","","","","","","","","","","",""
"","","","","","image-button-response","202","695122","0.0-3.0-2.0-1.10","5bd283469afb5b00015bdd5a","B2","batch2","","12978.800000190735","img/question_1_11.jpeg","3","spm_respsonse","1","4","mat_11","","","","","","1","12978.800000190735","","","","","","","","","","","","","","",""
"","","","","","html-keyboard-response","203","696175","0.0-3.0-2.0-0.11","5bd283469afb5b00015bdd5a","B2","batch2","","null","<p class=block-text>Trial 12 out of 60</p>","null","spm_show_trial_num","","","","","","","","","","","","","","","","","","","","","","","","",""
"","","","","","image-button-response","204","707938","0.0-3.0-2.0-1.11","5bd283469afb5b00015bdd5a","B2","batch2","","11761.5","img/question_1_12.jpeg","3","spm_respsonse","0","5","mat_12","","","","","","0","11761.5","","","","","","","","","","","","","","",""
"","","","","","html-keyboard-response","205","708990","0.0-3.0-2.0-0.12","5bd283469afb5b00015bdd5a","B2","batch2","","null","<p class=block-text>Trial 13 out of 60</p>","null","spm_show_trial_num","","","","","","","","","","","","","","","","","","","","","","","","",""
"","","","","","image-button-response","206","711914","0.0-3.0-2.0-1.12","5bd283469afb5b00015bdd5a","B2","batch2","","2923.7000000476837","img/question_2_1.jpeg","1","spm_respsonse","1","2","mat_13","","","","","","1","2923.7000000476837","","","","","","","","","","","","","","",""
"","","","","","html-keyboard-response","207","712966","0.0-3.0-2.0-0.13","5bd283469afb5b00015bdd5a","B2","batch2","","null","<p class=block-text>Trial 14 out of 60</p>","null","spm_show_trial_num","","","","","","","","","","","","","","","","","","","","","","","","",""
"","","","","","image-button-response","208","719187","0.0-3.0-2.0-1.13","5bd283469afb5b00015bdd5a","B2","batch2","","6220.599999904633","img/question_2_2.jpeg","2","spm_respsonse","0","6","mat_14","","","","","","0","6220.599999904633","","","","","","","","","","","","","","",""
"","","","","","html-keyboard-response","209","720242","0.0-3.0-2.0-0.14","5bd283469afb5b00015bdd5a","B2","batch2","","null","<p class=block-text>Trial 15 out of 60</p>","null","spm_show_trial_num","","","","","","","","","","","","","","","","","","","","","","","","",""
"","","","","","image-button-response","210","725569","0.0-3.0-2.0-1.14","5bd283469afb5b00015bdd5a","B2","batch2","","5326.5","img/question_2_3.jpeg","0","spm_respsonse","1","1","mat_15","","","","","","1","5326.5","","","","","","","","","","","","","","",""
"","","","","","html-keyboard-response","211","726621","0.0-3.0-2.0-0.15","5bd283469afb5b00015bdd5a","B2","batch2","","null","<p class=block-text>Trial 16 out of 60</p>","null","spm_show_trial_num","","","","","","","","","","","","","","","","","","","","","","","","",""
"","","","","","image-button-response","212","729665","0.0-3.0-2.0-1.15","5bd283469afb5b00015bdd5a","B2","batch2","","3044.0999999046326","img/question_2_4.jpeg","1","spm_respsonse","1","2","mat_16","","","","","","1","3044.0999999046326","","","","","","","","","","","","","","",""
"","","","","","html-keyboard-response","213","730718","0.0-3.0-2.0-0.16","5bd283469afb5b00015bdd5a","B2","batch2","","null","<p class=block-text>Trial 17 out of 60</p>","null","spm_show_trial_num","","","","","","","","","","","","","","","","","","","","","","","","",""
"","","","","","image-button-response","214","738073","0.0-3.0-2.0-1.16","5bd283469afb5b00015bdd5a","B2","batch2","","7354.100000143051","img/question_2_5.jpeg","0","spm_respsonse","1","1","mat_17","","","","","","1","7354.100000143051","","","","","","","","","","","","","","",""
"","","","","","html-keyboard-response","215","739125","0.0-3.0-2.0-0.17","5bd283469afb5b00015bdd5a","B2","batch2","","null","<p class=block-text>Trial 18 out of 60</p>","null","spm_show_trial_num","","","","","","","","","","","","","","","","","","","","","","","","",""
"","","","","","image-button-response","216","743713","0.0-3.0-2.0-1.17","5bd283469afb5b00015bdd5a","B2","batch2","","4586.599999904633","img/question_2_6.jpeg","2","spm_respsonse","1","3","mat_18","","","","","","1","4586.599999904633","","","","","","","","","","","","","","",""
"","","","","","html-keyboard-response","217","744770","0.0-3.0-2.0-0.18","5bd283469afb5b00015bdd5a","B2","batch2","","null","<p class=block-text>Trial 19 out of 60</p>","null","spm_show_trial_num","","","","","","","","","","","","","","","","","","","","","","","","",""
"","","","","","image-button-response","218","758106","0.0-3.0-2.0-1.18","5bd283469afb5b00015bdd5a","B2","batch2","","13335","img/question_2_7.jpeg","4","spm_respsonse","1","5","mat_19","","","","","","1","13335","","","","","","","","","","","","","","",""
"","","","","","html-keyboard-response","219","759157","0.0-3.0-2.0-0.19","5bd283469afb5b00015bdd5a","B2","batch2","","null","<p class=block-text>Trial 20 out of 60</p>","null","spm_show_trial_num","","","","","","","","","","","","","","","","","","","","","","","","",""
"","","","","","image-button-response","220","771297","0.0-3.0-2.0-1.19","5bd283469afb5b00015bdd5a","B2","batch2","","12138.600000143051","img/question_2_8.jpeg","5","spm_respsonse","1","6","mat_20","","","","","","1","12138.600000143051","","","","","","","","","","","","","","",""
"","","","","","html-keyboard-response","221","772353","0.0-3.0-2.0-0.20","5bd283469afb5b00015bdd5a","B2","batch2","","null","<p class=block-text>Trial 21 out of 60</p>","null","spm_show_trial_num","","","","","","","","","","","","","","","","","","","","","","","","",""
"","","","","","image-button-response","222","776514","0.0-3.0-2.0-1.20","5bd283469afb5b00015bdd5a","B2","batch2","","4159.900000095367","img/question_2_9.jpeg","3","spm_respsonse","1","4","mat_21","","","","","","1","4159.900000095367","","","","","","","","","","","","","","",""
"","","","","","html-keyboard-response","223","777564","0.0-3.0-2.0-0.21","5bd283469afb5b00015bdd5a","B2","batch2","","null","<p class=block-text>Trial 22 out of 60</p>","null","spm_show_trial_num","","","","","","","","","","","","","","","","","","","","","","","","",""
"","","","","","image-button-response","224","784632","0.0-3.0-2.0-1.21","5bd283469afb5b00015bdd5a","B2","batch2","","7067.5","img/question_2_10.jpeg","2","spm_respsonse","1","3","mat_22","","","","","","1","7067.5","","","","","","","","","","","","","","",""
"","","","","","html-keyboard-response","225","785684","0.0-3.0-2.0-0.22","5bd283469afb5b00015bdd5a","B2","batch2","","null","<p class=block-text>Trial 23 out of 60</p>","null","spm_show_trial_num","","","","","","","","","","","","","","","","","","","","","","","","",""
"","","","","","image-button-response","226","795840","0.0-3.0-2.0-1.22","5bd283469afb5b00015bdd5a","B2","batch2","","10154.700000047684","img/question_2_11.jpeg","3","spm_respsonse","1","4","mat_23","","","","","","1","10154.700000047684","","","","","","","","","","","","","","",""
"","","","","","html-keyboard-response","227","796899","0.0-3.0-2.0-0.23","5bd283469afb5b00015bdd5a","B2","batch2","","null","<p class=block-text>Trial 24 out of 60</p>","null","spm_show_trial_num","","","","","","","","","","","","","","","","","","","","","","","","",""
"","","","","","image-button-response","228","818352","0.0-3.0-2.0-1.23","5bd283469afb5b00015bdd5a","B2","batch2","","21451.39999985695","img/question_2_12.jpeg","4","spm_respsonse","1","5","mat_24","","","","","","1","21451.39999985695","","","","","","","","","","","","","","",""
"","","","","","html-button-response","229","820280","0.0-3.0-3.0","5bd283469afb5b00015bdd5a","B2","batch2","","1676.7000000476837","<p class = block-text>Attention check: Please choose 1<br></p>","0","attention_check","true","","","","","","","","","","","","","","","","","","","","","","","",""
"","","","","","html-keyboard-response","230","821080","0.0-3.0-4.0-0.0","5bd283469afb5b00015bdd5a","B2","batch2","","null","<p class=block-text>Trial 25 out of 60</p>","null","spm_show_trial_num","","","","","","","","","","","","","","","","","","","","","","","","",""
"","","","","","image-button-response","231","826191","0.0-3.0-4.0-1.0","5bd283469afb5b00015bdd5a","B2","batch2","","5110.099999904633","img/question_3_1.jpeg","7","spm_respsonse","1","8","mat_25","","","","","","1","5110.099999904633","","","","","","","","","","","","","","",""
"","","","","","html-keyboard-response","232","827244","0.0-3.0-4.0-0.1","5bd283469afb5b00015bdd5a","B2","batch2","","null","<p class=block-text>Trial 26 out of 60</p>","null","spm_show_trial_num","","","","","","","","","","","","","","","","","","","","","","","","",""
"","","","","","image-button-response","233","831319","0.0-3.0-4.0-1.1","5bd283469afb5b00015bdd5a","B2","batch2","","4074.100000143051","img/question_3_2.jpeg","1","spm_respsonse","1","2","mat_26","","","","","","1","4074.100000143051","","","","","","","","","","","","","","",""
"","","","","","html-keyboard-response","234","832371","0.0-3.0-4.0-0.2","5bd283469afb5b00015bdd5a","B2","batch2","","null","<p class=block-text>Trial 27 out of 60</p>","null","spm_show_trial_num","","","","","","","","","","","","","","","","","","","","","","","","",""
"","","","","","image-button-response","235","850448","0.0-3.0-4.0-1.2","5bd283469afb5b00015bdd5a","B2","batch2","","18075.900000095367","img/question_3_3.jpeg","2","spm_respsonse","1","3","mat_27","","","","","","1","18075.900000095367","","","","","","","","","","","","","","",""
"","","","","","html-keyboard-response","236","851499","0.0-3.0-4.0-0.3","5bd283469afb5b00015bdd5a","B2","batch2","","null","<p class=block-text>Trial 28 out of 60</p>","null","spm_show_trial_num","","","","","","","","","","","","","","","","","","","","","","","","",""
"","","","","","image-button-response","237","860118","0.0-3.0-4.0-1.3","5bd283469afb5b00015bdd5a","B2","batch2","","8618.400000095367","img/question_3_4.jpeg","7","spm_respsonse","1","8","mat_28","","","","","","1","8618.400000095367","","","","","","","","","","","","","","",""
"","","","","","html-keyboard-response","238","861169","0.0-3.0-4.0-0.4","5bd283469afb5b00015bdd5a","B2","batch2","","null","<p class=block-text>Trial 29 out of 60</p>","null","spm_show_trial_num","","","","","","","","","","","","","","","","","","","","","","","","",""
"","","","","","image-button-response","239","866046","0.0-3.0-4.0-1.4","5bd283469afb5b00015bdd5a","B2","batch2","","4876.299999952316","img/question_3_5.jpeg","6","spm_respsonse","1","7","mat_29","","","","","","1","4876.299999952316","","","","","","","","","","","","","","",""
"","","","","","html-keyboard-response","240","867098","0.0-3.0-4.0-0.5","5bd283469afb5b00015bdd5a","B2","batch2","","null","<p class=block-text>Trial 30 out of 60</p>","null","spm_show_trial_num","","","","","","","","","","","","","","","","","","","","","","","","",""
"","","","","","image-button-response","241","875729","0.0-3.0-4.0-1.5","5bd283469afb5b00015bdd5a","B2","batch2","","8630","img/question_3_6.jpeg","3","spm_respsonse","1","4","mat_30","","","","","","1","8630","","","","","","","","","","","","","","",""
"","","","","","html-keyboard-response","242","876781","0.0-3.0-4.0-0.6","5bd283469afb5b00015bdd5a","B2","batch2","","null","<p class=block-text>Trial 31 out of 60</p>","null","spm_show_trial_num","","","","","","","","","","","","","","","","","","","","","","","","",""
"","","","","","image-button-response","243","888158","0.0-3.0-4.0-1.6","5bd283469afb5b00015bdd5a","B2","batch2","","11376.299999952316","img/question_3_7.jpeg","4","spm_respsonse","1","5","mat_31","","","","","","1","11376.299999952316","","","","","","","","","","","","","","",""
"","","","","","html-keyboard-response","244","889209","0.0-3.0-4.0-0.7","5bd283469afb5b00015bdd5a","B2","batch2","","null","<p class=block-text>Trial 32 out of 60</p>","null","spm_show_trial_num","","","","","","","","","","","","","","","","","","","","","","","","",""
"","","","","","image-button-response","245","903757","0.0-3.0-4.0-1.7","5bd283469afb5b00015bdd5a","B2","batch2","","14546.299999952316","img/question_3_8.jpeg","0","spm_respsonse","1","1","mat_32","","","","","","1","14546.299999952316","","","","","","","","","","","","","","",""
"","","","","","html-keyboard-response","246","904810","0.0-3.0-4.0-0.8","5bd283469afb5b00015bdd5a","B2","batch2","","null","<p class=block-text>Trial 33 out of 60</p>","null","spm_show_trial_num","","","","","","","","","","","","","","","","","","","","","","","","",""
"","","","","","image-button-response","247","911213","0.0-3.0-4.0-1.8","5bd283469afb5b00015bdd5a","B2","batch2","","6402.5","img/question_3_9.jpeg","7","spm_respsonse","0","7","mat_33","","","","","","0","6402.5","","","","","","","","","","","","","","",""
"","","","","","html-keyboard-response","248","912266","0.0-3.0-4.0-0.9","5bd283469afb5b00015bdd5a","B2","batch2","","null","<p class=block-text>Trial 34 out of 60</p>","null","spm_show_trial_num","","","","","","","","","","","","","","","","","","","","","","","","",""
"","","","","","image-button-response","249","924219","0.0-3.0-4.0-1.9","5bd283469afb5b00015bdd5a","B2","batch2","","11951.200000047684","img/question_3_10.jpeg","7","spm_respsonse","0","6","mat_34","","","","","","0","11951.200000047684","","","","","","","","","","","","","","",""
"","","","","","html-keyboard-response","250","925271","0.0-3.0-4.0-0.10","5bd283469afb5b00015bdd5a","B2","batch2","","null","<p class=block-text>Trial 35 out of 60</p>","null","spm_show_trial_num","","","","","","","","","","","","","","","","","","","","","","","","",""
"","","","","","image-button-response","251","938037","0.0-3.0-4.0-1.10","5bd283469afb5b00015bdd5a","B2","batch2","","12764.700000047684","img/question_3_11.jpeg","7","spm_respsonse","0","1","mat_35","","","","","","0","12764.700000047684","","","","","","","","","","","","","","",""
"","","","","","html-keyboard-response","252","939088","0.0-3.0-4.0-0.11","5bd283469afb5b00015bdd5a","B2","batch2","","null","<p class=block-text>Trial 36 out of 60</p>","null","spm_show_trial_num","","","","","","","","","","","","","","","","","","","","","","","","",""
"","","","","","image-button-response","253","947584","0.0-3.0-4.0-1.11","5bd283469afb5b00015bdd5a","B2","batch2","","8495.399999856949","img/question_3_12.jpeg","4","spm_respsonse","0","2","mat_36","","","","","","0","8495.399999856949","","","","","","","","","","","","","","",""
"","","","","","html-keyboard-response","254","948637","0.0-3.0-4.0-0.12","5bd283469afb5b00015bdd5a","B2","batch2","","null","<p class=block-text>Trial 37 out of 60</p>","null","spm_show_trial_num","","","","","","","","","","","","","","","","","","","","","","","","",""
"","","","","","image-button-response","255","952733","0.0-3.0-4.0-1.12","5bd283469afb5b00015bdd5a","B2","batch2","","4095.2999999523163","img/question_4_1.jpeg","2","spm_respsonse","1","3","mat_37","","","","","","1","4095.2999999523163","","","","","","","","","","","","","","",""
"","","","","","html-keyboard-response","256","953790","0.0-3.0-4.0-0.13","5bd283469afb5b00015bdd5a","B2","batch2","","null","<p class=block-text>Trial 38 out of 60</p>","null","spm_show_trial_num","","","","","","","","","","","","","","","","","","","","","","","","",""
"","","","","","image-button-response","257","968580","0.0-3.0-4.0-1.13","5bd283469afb5b00015bdd5a","B2","batch2","","14788.800000190735","img/question_4_2.jpeg","3","spm_respsonse","1","4","mat_38","","","","","","1","14788.800000190735","","","","","","","","","","","","","","",""
"","","","","","html-keyboard-response","258","969632","0.0-3.0-4.0-0.14","5bd283469afb5b00015bdd5a","B2","batch2","","null","<p class=block-text>Trial 39 out of 60</p>","null","spm_show_trial_num","","","","","","","","","","","","","","","","","","","","","","","","",""
"","","","","","image-button-response","259","975364","0.0-3.0-4.0-1.14","5bd283469afb5b00015bdd5a","B2","batch2","","5730.5","img/question_4_3.jpeg","3","spm_respsonse","0","3","mat_39","","","","","","0","5730.5","","","","","","","","","","","","","","",""
"","","","","","html-keyboard-response","260","976425","0.0-3.0-4.0-0.15","5bd283469afb5b00015bdd5a","B2","batch2","","null","<p class=block-text>Trial 40 out of 60</p>","null","spm_show_trial_num","","","","","","","","","","","","","","","","","","","","","","","","",""
"","","","","","image-button-response","261","980819","0.0-3.0-4.0-1.15","5bd283469afb5b00015bdd5a","B2","batch2","","4393.899999856949","img/question_4_4.jpeg","1","spm_respsonse","0","7","mat_40","","","","","","0","4393.899999856949","","","","","","","","","","","","","","",""
"","","","","","html-keyboard-response","262","981870","0.0-3.0-4.0-0.16","5bd283469afb5b00015bdd5a","B2","batch2","","null","<p class=block-text>Trial 41 out of 60</p>","null","spm_show_trial_num","","","","","","","","","","","","","","","","","","","","","","","","",""
"","","","","","image-button-response","263","996747","0.0-3.0-4.0-1.16","5bd283469afb5b00015bdd5a","B2","batch2","","14875.600000143051","img/question_4_5.jpeg","7","spm_respsonse","1","8","mat_41","","","","","","1","14875.600000143051","","","","","","","","","","","","","","",""
"","","","","","html-keyboard-response","264","997798","0.0-3.0-4.0-0.17","5bd283469afb5b00015bdd5a","B2","batch2","","null","<p class=block-text>Trial 42 out of 60</p>","null","spm_show_trial_num","","","","","","","","","","","","","","","","","","","","","","","","",""
"","","","","","image-button-response","265","999770","0.0-3.0-4.0-1.17","5bd283469afb5b00015bdd5a","B2","batch2","","1970.5","img/question_4_6.jpeg","5","spm_respsonse","1","6","mat_42","","","","","","1","1970.5","","","","","","","","","","","","","","",""
"","","","","","html-keyboard-response","266","1000822","0.0-3.0-4.0-0.18","5bd283469afb5b00015bdd5a","B2","batch2","","null","<p class=block-text>Trial 43 out of 60</p>","null","spm_show_trial_num","","","","","","","","","","","","","","","","","","","","","","","","",""
"","","","","","image-button-response","267","1001570","0.0-3.0-4.0-1.18","5bd283469afb5b00015bdd5a","B2","batch2","","747.4000000953674","img/question_4_7.jpeg","1","spm_respsonse","0","5","mat_43","","","","","","0","747.4000000953674","","","","","","","","","","","","","","",""
"","","","","","html-keyboard-response","268","1002626","0.0-3.0-4.0-0.19","5bd283469afb5b00015bdd5a","B2","batch2","","null","<p class=block-text>Trial 44 out of 60</p>","null","spm_show_trial_num","","","","","","","","","","","","","","","","","","","","","","","","",""
"","","","","","image-button-response","269","1003214","0.0-3.0-4.0-1.19","5bd283469afb5b00015bdd5a","B2","batch2","","586.5","img/question_4_8.jpeg","6","spm_respsonse","0","4","mat_44","","","","","","0","586.5","","","","","","","","","","","","","","",""
"","","","","","html-keyboard-response","270","1004264","0.0-3.0-4.0-0.20","5bd283469afb5b00015bdd5a","B2","batch2","","null","<p class=block-text>Trial 45 out of 60</p>","null","spm_show_trial_num","","","","","","","","","","","","","","","","","","","","","","","","",""
"","","","","","image-button-response","271","1004795","0.0-3.0-4.0-1.20","5bd283469afb5b00015bdd5a","B2","batch2","","529.7000000476837","img/question_4_9.jpeg","3","spm_respsonse","0","1","mat_45","","","","","","0","529.7000000476837","","","","","","","","","","","","","","",""
"","","","","","html-keyboard-response","272","1005848","0.0-3.0-4.0-0.21","5bd283469afb5b00015bdd5a","B2","batch2","","null","<p class=block-text>Trial 46 out of 60</p>","null","spm_show_trial_num","","","","","","","","","","","","","","","","","","","","","","","","",""
"","","","","","image-button-response","273","1006985","0.0-3.0-4.0-1.21","5bd283469afb5b00015bdd5a","B2","batch2","","1136.2999999523163","img/question_4_10.jpeg","7","spm_respsonse","0","2","mat_46","","","","","","0","1136.2999999523163","","","","","","","","","","","","","","",""
"","","","","","html-keyboard-response","274","1008047","0.0-3.0-4.0-0.22","5bd283469afb5b00015bdd5a","B2","batch2","","null","<p class=block-text>Trial 47 out of 60</p>","null","spm_show_trial_num","","","","","","","","","","","","","","","","","","","","","","","","",""
"","","","","","image-button-response","275","1009683","0.0-3.0-4.0-1.22","5bd283469afb5b00015bdd5a","B2","batch2","","1634","img/question_4_11.jpeg","0","spm_respsonse","0","5","mat_47","","","","","","0","1634","","","","","","","","","","","","","","",""
"","","","","","html-keyboard-response","276","1010735","0.0-3.0-4.0-0.23","5bd283469afb5b00015bdd5a","B2","batch2","","null","<p class=block-text>Trial 48 out of 60</p>","null","spm_show_trial_num","","","","","","","","","","","","","","","","","","","","","","","","",""
"","","","","","image-button-response","277","1011673","0.0-3.0-4.0-1.23","5bd283469afb5b00015bdd5a","B2","batch2","","937.0999999046326","img/question_4_12.jpeg","4","spm_respsonse","0","6","mat_48","","","","","","0","937.0999999046326","","","","","","","","","","","","","","",""
"","","","","","html-keyboard-response","278","1012726","0.0-3.0-4.0-0.24","5bd283469afb5b00015bdd5a","B2","batch2","","null","<p class=block-text>Trial 49 out of 60</p>","null","spm_show_trial_num","","","","","","","","","","","","","","","","","","","","","","","","",""
"","","","","","image-button-response","279","1013290","0.0-3.0-4.0-1.24","5bd283469afb5b00015bdd5a","B2","batch2","","563","img/question_5_1.jpeg","1","spm_respsonse","0","7","mat_49","","","","","","0","563","","","","","","","","","","","","","","",""
"","","","","","html-keyboard-response","280","1014341","0.0-3.0-4.0-0.25","5bd283469afb5b00015bdd5a","B2","batch2","","null","<p class=block-text>Trial 50 out of 60</p>","null","spm_show_trial_num","","","","","","","","","","","","","","","","","","","","","","","","",""
"","","","","","image-button-response","281","1015092","0.0-3.0-4.0-1.25","5bd283469afb5b00015bdd5a","B2","batch2","","751.2999999523163","img/question_5_2.jpeg","6","spm_respsonse","0","6","mat_50","","","","","","0","751.2999999523163","","","","","","","","","","","","","","",""
"","","","","","html-keyboard-response","282","1016144","0.0-3.0-4.0-0.26","5bd283469afb5b00015bdd5a","B2","batch2","","null","<p class=block-text>Trial 51 out of 60</p>","null","spm_show_trial_num","","","","","","","","","","","","","","","","","","","","","","","","",""
"","","","","","image-button-response","283","1016754","0.0-3.0-4.0-1.26","5bd283469afb5b00015bdd5a","B2","batch2","","609.5","img/question_5_3.jpeg","3","spm_respsonse","0","8","mat_51","","","","","","0","609.5","","","","","","","","","","","","","","",""
"","","","","","html-keyboard-response","284","1017808","0.0-3.0-4.0-0.27","5bd283469afb5b00015bdd5a","B2","batch2","","null","<p class=block-text>Trial 52 out of 60</p>","null","spm_show_trial_num","","","","","","","","","","","","","","","","","","","","","","","","",""
"","","","","","image-button-response","285","1018692","0.0-3.0-4.0-1.27","5bd283469afb5b00015bdd5a","B2","batch2","","883.6000001430511","img/question_5_4.jpeg","5","spm_respsonse","0","2","mat_52","","","","","","0","883.6000001430511","","","","","","","","","","","","","","",""
"","","","","","html-keyboard-response","286","1019745","0.0-3.0-4.0-0.28","5bd283469afb5b00015bdd5a","B2","batch2","","null","<p class=block-text>Trial 53 out of 60</p>","null","spm_show_trial_num","","","","","","","","","","","","","","","","","","","","","","","","",""
"","","","","","image-button-response","287","1020300","0.0-3.0-4.0-1.28","5bd283469afb5b00015bdd5a","B2","batch2","","554.3999998569489","img/question_5_5.jpeg","2","spm_respsonse","0","1","mat_53","","","","","","0","554.3999998569489","","","","","","","","","","","","","","",""
"","","","","","html-keyboard-response","288","1021351","0.0-3.0-4.0-0.29","5bd283469afb5b00015bdd5a","B2","batch2","","null","<p class=block-text>Trial 54 out of 60</p>","null","spm_show_trial_num","","","","","","","","","","","","","","","","","","","","","","","","",""
"","","","","","image-button-response","289","1022202","0.0-3.0-4.0-1.29","5bd283469afb5b00015bdd5a","B2","batch2","","849.7999999523163","img/question_5_6.jpeg","7","spm_respsonse","0","5","mat_54","","","","","","0","849.7999999523163","","","","","","","","","","","","","","",""
"","","","","","html-keyboard-response","290","1023253","0.0-3.0-4.0-0.30","5bd283469afb5b00015bdd5a","B2","batch2","","null","<p class=block-text>Trial 55 out of 60</p>","null","spm_show_trial_num","","","","","","","","","","","","","","","","","","","","","","","","",""
"","","","","","image-button-response","291","1023797","0.0-3.0-4.0-1.30","5bd283469afb5b00015bdd5a","B2","batch2","","542.8000001907349","img/question_5_7.jpeg","5","spm_respsonse","0","1","mat_55","","","","","","0","542.8000001907349","","","","","","","","","","","","","","",""
"","","","","","html-keyboard-response","292","1024848","0.0-3.0-4.0-0.31","5bd283469afb5b00015bdd5a","B2","batch2","","null","<p class=block-text>Trial 56 out of 60</p>","null","spm_show_trial_num","","","","","","","","","","","","","","","","","","","","","","","","",""
"","","","","","image-button-response","293","1025594","0.0-3.0-4.0-1.31","5bd283469afb5b00015bdd5a","B2","batch2","","745.5999999046326","img/question_5_8.jpeg","0","spm_respsonse","0","6","mat_56","","","","","","0","745.5999999046326","","","","","","","","","","","","","","",""
"","","","","","html-keyboard-response","294","1026654","0.0-3.0-4.0-0.32","5bd283469afb5b00015bdd5a","B2","batch2","","null","<p class=block-text>Trial 57 out of 60</p>","null","spm_show_trial_num","","","","","","","","","","","","","","","","","","","","","","","","",""
"","","","","","image-button-response","295","1027538","0.0-3.0-4.0-1.32","5bd283469afb5b00015bdd5a","B2","batch2","","882.7999999523163","img/question_5_9.jpeg","4","spm_respsonse","0","3","mat_57","","","","","","0","882.7999999523163","","","","","","","","","","","","","","",""
"","","","","","html-keyboard-response","296","1028591","0.0-3.0-4.0-0.33","5bd283469afb5b00015bdd5a","B2","batch2","","null","<p class=block-text>Trial 58 out of 60</p>","null","spm_show_trial_num","","","","","","","","","","","","","","","","","","","","","","","","",""
"","","","","","image-button-response","297","1029099","0.0-3.0-4.0-1.33","5bd283469afb5b00015bdd5a","B2","batch2","","507.10000014305115","img/question_5_10.jpeg","2","spm_respsonse","0","2","mat_58","","","","","","0","507.10000014305115","","","","","","","","","","","","","","",""
"","","","","","html-keyboard-response","298","1030150","0.0-3.0-4.0-0.34","5bd283469afb5b00015bdd5a","B2","batch2","","null","<p class=block-text>Trial 59 out of 60</p>","null","spm_show_trial_num","","","","","","","","","","","","","","","","","","","","","","","","",""
"","","","","","image-button-response","299","1030921","0.0-3.0-4.0-1.34","5bd283469afb5b00015bdd5a","B2","batch2","","770.0999999046326","img/question_5_11.jpeg","6","spm_respsonse","0","4","mat_59","","","","","","0","770.0999999046326","","","","","","","","","","","","","","",""
"","","","","","html-keyboard-response","300","1031973","0.0-3.0-4.0-0.35","5bd283469afb5b00015bdd5a","B2","batch2","","null","<p class=block-text>Trial 60 out of 60</p>","null","spm_show_trial_num","","","","","","","","","","","","","","","","","","","","","","","","",""
"","","","","","image-button-response","301","1032706","0.0-3.0-4.0-1.35","5bd283469afb5b00015bdd5a","B2","batch2","","732.8000001907349","img/question_5_12.jpeg","1","spm_respsonse","0","5","mat_60","","","","","","0","732.8000001907349","","","","","","","","","","","","","","",""
"","","","","","html-button-response","302","1035345","0.0-3.0-5.0","5bd283469afb5b00015bdd5a","B2","batch2","","2388.0999999046326","<p class= block-text>This concludes the Standard Progressive Matrix game. Thank you for your responses!<br> When you are ready, click the button continue</p>","0","spm_goodbye","","","","","","","","","","","","","","","","","","","","","","","","",""
"true","","","","","fullscreen","303","1037666","0.0-4.0-0.0","5bd283469afb5b00015bdd5a","B2","batch2","","","","","","","","","","","","","","","","","","","","","","","","","","","","","",""
"","","","","","instructions","304","1060049","0.0-4.0-1.0-0.0-0.0","5bd283469afb5b00015bdd5a","B2","batch2","[{""page_index"":0,""viewing_time"":8911.5},{""page_index"":1,""viewing_time"":3866.399999856949},{""page_index"":2,""viewing_time"":2300.7999999523163},{""page_index"":3,""viewing_time"":992.8000001907349},{""page_index"":4,""viewing_time"":1287.2999999523163},{""page_index"":5,""viewing_time"":1839.5},{""page_index"":6,""viewing_time"":3183.899999856949}]","22382.39999985695","","","tol-instructions","","","","","","","","","","","","","","","","","","","","","","","","",""
"","","","","","html-button-response","305","1060827","0.0-4.0-1.0-1.0-0.0","5bd283469afb5b00015bdd5a","B2","batch2","","777.3999998569489","<p class=block-text> Let's answer a few questions <br>","0","tol_enter_quiz","","","","","","","","","","","","","","","","","","","","","","","","",""
"","","","","","html-button-response","306","1063385","0.0-4.0-1.0-1.0-1.0","5bd283469afb5b00015bdd5a","B2","batch2","","2557.4000000953674","<p class = block-text>True or False: You can only move the ball on top of a peg. <br></p>","0","tol_quiz","true","","","","","","","","","","","","","","","","","","","","","","","",""
"","","","","","html-button-response","307","1064249","0.0-4.0-1.0-1.0-2.0","5bd283469afb5b00015bdd5a","B2","batch2","","863.2999999523163","<p class = block-text>Correct! You can only move the ball on top of a peg.</p>","0","tol_quiz_feedback","","","","","","","","","","","","","","","","","","","","","","","","",""
"","","","","","html-button-response","308","1066937","0.0-4.0-1.0-1.0-3.0","5bd283469afb5b00015bdd5a","B2","batch2","","2687.899999856949","<p class = block-text>True or False: You should try to match your board with the target board with fewest moves possible. <br></p>","0","tol_quiz","true","","","","","","","","","","","","","","","","","","","","","","","",""
"","","","","","html-button-response","309","1067546","0.0-4.0-1.0-1.0-4.0","5bd283469afb5b00015bdd5a","B2","batch2","","608.7000000476837","<p class = block-text>Correct! </p>","0","tol_quiz_feedback","","","","","","","","","","","","","","","","","","","","","","","","",""
"","","","","","html-button-response","310","1068521","0.0-4.0-2.0","5bd283469afb5b00015bdd5a","B2","batch2","","973.7999999523163","<p class=block-text> Now that you've understood the game, let's practice a few easier examples before we start!<br> <br>","0","","","","","","","","","","","","","","","","","","","","","","","","","",""
"","","","","","single-stim-button","311","1076202","0.0-4.0-3.0-0.0","5bd283469afb5b00015bdd5a","B2","batch2","","7680","","","tol_practice","","","","","","","","","","","tol_peg_2","7680","7680","0","[[1,2,0],[0,0],[0]]","1","[[1,2,0],[0,0],[3]]","practice","7680","","","","","",""
"","","","","","single-stim-button","312","1077290","0.0-4.0-3.0-1.0","5bd283469afb5b00015bdd5a","B2","batch2","","1088","","","tol_practice","","","","","","","","","","","tol_peg_3","1088","1088","0","[[1,2,0],[0,0],[3]]","1","[[1,2,0],[0,0],[3]]","practice","1088","","","","","",""
"","","","","","poldrack-single-stim","313","1078292","0.0-4.0-4.0","5bd283469afb5b00015bdd5a","B2","batch2","","-1","","","tol_feedback","true","","","","","","","","","","","1000","1000","500","","","","","","-1","none","true","","0",""
"","","","","","single-stim-button","314","1081904","0.0-4.0-5.0-0.0","5bd283469afb5b00015bdd5a","B2","batch2","","3612","","","tol_practice","","","","","","","","","","","tol_peg_1","3612","3612","0","[[1,0,0],[3,0],[0]]","2","[[0,0,0],[3,1],[2]]","practice","3612","","","","","",""
"","","","","","single-stim-button","315","1082984","0.0-4.0-5.0-1.0","5bd283469afb5b00015bdd5a","B2","batch2","","1079","","","tol_practice","","","","","","","","","","","tol_peg_3","1079","1079","0","[[1,0,0],[3,0],[2]]","2","[[0,0,0],[3,1],[2]]","practice","1079","","","","","",""
"","","","","","single-stim-button","316","1084000","0.0-4.0-5.1-0.1","5bd283469afb5b00015bdd5a","B2","batch2","","1015","","","tol_practice","","","","","","","","","","","tol_peg_1","1015","1015","0","[[0,0,0],[3,0],[2]]","3","[[0,0,0],[3,1],[2]]","practice","1015","","","","","",""
"","","","","","single-stim-button","317","1085144","0.0-4.0-5.1-1.1","5bd283469afb5b00015bdd5a","B2","batch2","","1143","","","tol_practice","","","","","","","","","","","tol_peg_2","1143","1143","0","[[0,0,0],[3,1],[2]]","3","[[0,0,0],[3,1],[2]]","practice","1143","","","","","",""
"","","","","","poldrack-single-stim","318","1086146","0.0-4.0-6.0","5bd283469afb5b00015bdd5a","B2","batch2","","-1","","","tol_feedback","true","","","","","","","","","","","1000","1000","500","","","","","","-1","none","true","","0",""
"","","","","","single-stim-button","319","1089377","0.0-4.0-7.0-0.0","5bd283469afb5b00015bdd5a","B2","batch2","","3230","","","tol_practice","","","","","","","","","","","tol_peg_2","3230","3230","0","[[1,2,0],[0,0],[0]]","4","[[1,0,0],[2,0],[3]]","practice","3230","","","","","",""
"","","","","","single-stim-button","320","1089992","0.0-4.0-7.0-1.0","5bd283469afb5b00015bdd5a","B2","batch2","","615","","","tol_practice","","","","","","","","","","","tol_peg_3","615","615","0","[[1,2,0],[0,0],[3]]","4","[[1,0,0],[2,0],[3]]","practice","615","","","","","",""
"","","","","","single-stim-button","321","1091121","0.0-4.0-7.1-0.1","5bd283469afb5b00015bdd5a","B2","batch2","","1129","","","tol_practice","","","","","","","","","","","tol_peg_1","1129","1129","0","[[1,0,0],[0,0],[3]]","5","[[1,0,0],[2,0],[3]]","practice","1129","","","","","",""
"","","","","","single-stim-button","322","1092097","0.0-4.0-7.1-1.1","5bd283469afb5b00015bdd5a","B2","batch2","","975","","","tol_practice","","","","","","","","","","","tol_peg_2","975","975","0","[[1,0,0],[2,0],[3]]","5","[[1,0,0],[2,0],[3]]","practice","975","","","","","",""
"","","","","","poldrack-single-stim","323","1093098","0.0-4.0-8.0","5bd283469afb5b00015bdd5a","B2","batch2","","-1","","","tol_feedback","true","","","","","","","","","","","1000","1000","500","","","","","","-1","none","true","","0",""
"","","","","","html-button-response","324","1096201","0.0-4.0-9.0","5bd283469afb5b00015bdd5a","B2","batch2","","3102.5","<div class = centerbox><p class = center-block-text>Great job! You are done with practice trials<br>You are about to start official trials.<br> <br> Problem <strong>1</strong> out of 25 problems</p></div>","0","tol_instruction","","","","","","","","","","","","","","","","","","","","","","","","",""
"","","","","","single-stim-button","325","1100102","0.0-4.0-10.0-0.0","5bd283469afb5b00015bdd5a","B2","batch2","","2898","","","tol_tohand","","","","","","","","","","","tol_peg_2","2898","2898","0","[[1,2,0],[0,0],[0]]","1","[[1,3,0],[2,0],[0]]","0","0","","","","","","3"
"","","","","","single-stim-button","326","1102376","0.0-4.0-10.0-1.0","5bd283469afb5b00015bdd5a","B2","batch2","","2274","","","tol_toboard","","","","","","","","","","","tol_peg_3","2274","2274","0","[[1,2,0],[0,0],[3]]","1","[[1,3,0],[2,0],[0]]","0","0","","","","","","3"
"","","","","","single-stim-button","327","1102952","0.0-4.0-10.1-0.1","5bd283469afb5b00015bdd5a","B2","batch2","","576","","","tol_tohand","","","","","","","","","","","tol_peg_1","576","576","0","[[1,0,0],[0,0],[3]]","2","[[1,3,0],[2,0],[0]]","0","0","","","","","","3"
"","","","","","single-stim-button","328","1104000","0.0-4.0-10.1-1.1","5bd283469afb5b00015bdd5a","B2","batch2","","1048","","","tol_toboard","","","","","","","","","","","tol_peg_2","1048","1048","0","[[1,0,0],[2,0],[3]]","2","[[1,3,0],[2,0],[0]]","0","0","","","","","","3"
"","","","","","single-stim-button","329","1104978","0.0-4.0-10.2-0.2","5bd283469afb5b00015bdd5a","B2","batch2","","978","","","tol_tohand","","","","","","","","","","","tol_peg_3","978","978","0","[[1,0,0],[2,0],[0]]","3","[[1,3,0],[2,0],[0]]","0","0","","","","","","3"
"","","","","","single-stim-button","330","1105600","0.0-4.0-10.2-1.2","5bd283469afb5b00015bdd5a","B2","batch2","","622","","","tol_toboard","","","","","","","","","","","tol_peg_1","622","622","0","[[1,3,0],[2,0],[0]]","3","[[1,3,0],[2,0],[0]]","0","0","","","","","","3"
"","","","","","poldrack-single-stim","331","1106601","0.0-4.0-11.0","5bd283469afb5b00015bdd5a","B2","batch2","","-1","","","tol_feedback","true","","","","","","","","","","","1000","1000","500","","","","","","-1","none","true","2898","4452",""
"","","","","","html-button-response","332","1107346","0.0-4.0-12.0","5bd283469afb5b00015bdd5a","B2","batch2","","744.4000000953674","<div class = centerbox><p class = center-block-text>problem <strong>2</strong> out of 25 problems</p></div>","0","tol_trial_num","","","","","","","","","","","","","","","","","","","","","","","","",""
"","","","","","single-stim-button","333","1111017","0.0-4.0-13.0-0.0","5bd283469afb5b00015bdd5a","B2","batch2","","3671","","","tol_tohand","","","","","","","","","","","tol_peg_1","3671","3671","0","[[1,0,0],[3,0],[0]]","1","[[2,1,3],[0,0],[0]]","1","0","","","","","","5"
"","","","","","single-stim-button","334","1113617","0.0-4.0-13.0-1.0","5bd283469afb5b00015bdd5a","B2","batch2","","2600","","","tol_toboard","","","","","","","","","","","tol_peg_3","2600","2600","0","[[1,0,0],[3,0],[2]]","1","[[2,1,3],[0,0],[0]]","1","0","","","","","","5"
"","","","","","single-stim-button","335","1114144","0.0-4.0-13.1-0.1","5bd283469afb5b00015bdd5a","B2","batch2","","527","","","tol_tohand","","","","","","","","","","","tol_peg_1","527","527","0","[[0,0,0],[3,0],[2]]","2","[[2,1,3],[0,0],[0]]","1","0","","","","","","5"
"","","","","","single-stim-button","336","1119377","0.0-4.0-13.1-1.1","5bd283469afb5b00015bdd5a","B2","batch2","","5232","","","tol_toboard","","","","","","","","","","","tol_peg_2","5232","5232","0","[[0,0,0],[3,1],[2]]","2","[[2,1,3],[0,0],[0]]","1","0","","","","","","5"
"","","","","","single-stim-button","337","1120328","0.0-4.0-13.2-0.2","5bd283469afb5b00015bdd5a","B2","batch2","","951","","","tol_tohand","","","","","","","","","","","tol_peg_3","951","951","0","[[0,0,0],[3,1],[0]]","3","[[2,1,3],[0,0],[0]]","1","0","","","","","","5"
"","","","","","single-stim-button","338","1123209","0.0-4.0-13.2-1.2","5bd283469afb5b00015bdd5a","B2","batch2","","2881","","","tol_toboard","","","","","","","","","","","tol_peg_1","2881","2881","0","[[2,0,0],[3,1],[0]]","3","[[2,1,3],[0,0],[0]]","1","0","","","","","","5"
"","","","","","single-stim-button","339","1124795","0.0-4.0-13.3-0.3","5bd283469afb5b00015bdd5a","B2","batch2","","1585","","","tol_tohand","","","","","","","","","","","tol_peg_2","1585","1585","0","[[2,0,0],[3,0],[0]]","4","[[2,1,3],[0,0],[0]]","1","0","","","","","","5"
"","","","","","single-stim-button","340","1125409","0.0-4.0-13.3-1.3","5bd283469afb5b00015bdd5a","B2","batch2","","613","","","tol_toboard","","","","","","","","","","","tol_peg_1","613","613","0","[[2,1,0],[3,0],[0]]","4","[[2,1,3],[0,0],[0]]","1","0","","","","","","5"
"","","","","","single-stim-button","341","1126256","0.0-4.0-13.4-0.4","5bd283469afb5b00015bdd5a","B2","batch2","","846","","","tol_tohand","","","","","","","","","","","tol_peg_2","846","846","0","[[2,1,0],[0,0],[0]]","5","[[2,1,3],[0,0],[0]]","1","0","","","","","","5"
"","","","","","single-stim-button","342","1126952","0.0-4.0-13.4-1.4","5bd283469afb5b00015bdd5a","B2","batch2","","696","","","tol_toboard","","","","","","","","","","","tol_peg_1","696","696","0","[[2,1,3],[0,0],[0]]","5","[[2,1,3],[0,0],[0]]","1","0","","","","","","5"
"","","","","","poldrack-single-stim","343","1127953","0.0-4.0-14.0","5bd283469afb5b00015bdd5a","B2","batch2","","-1","","","tol_feedback","true","","","","","","","","","","","1000","1000","500","","","","","","-1","none","true","3671","7580",""
"","","","","","html-button-response","344","1128881","0.0-4.0-15.0","5bd283469afb5b00015bdd5a","B2","batch2","","927.6000001430511","<div class = centerbox><p class = center-block-text>problem <strong>3</strong> out of 25 problems</p></div>","0","tol_trial_num","","","","","","","","","","","","","","","","","","","","","","","","",""
"","","","","","single-stim-button","345","1131864","0.0-4.0-16.0-0.0","5bd283469afb5b00015bdd5a","B2","batch2","","2983","","","tol_tohand","","","","","","","","","","","tol_peg_3","2983","2983","0","[[2,3,0],[0,0],[0]]","1","[[1,2,0],[3,0],[0]]","2","0","","","","","","4"
"","","","","","single-stim-button","346","1133239","0.0-4.0-16.0-1.0","5bd283469afb5b00015bdd5a","B2","batch2","","1375","","","tol_toboard","","","","","","","","","","","tol_peg_2","1375","1375","0","[[2,3,0],[1,0],[0]]","1","[[1,2,0],[3,0],[0]]","2","0","","","","","","4"
"","","","","","single-stim-button","347","1133952","0.0-4.0-16.1-0.1","5bd283469afb5b00015bdd5a","B2","batch2","","712","","","tol_tohand","","","","","","","","","","","tol_peg_1","712","712","0","[[2,0,0],[1,0],[0]]","2","[[1,2,0],[3,0],[0]]","2","0","","","","","","4"
"","","","","","single-stim-button","348","1135847","0.0-4.0-16.1-1.1","5bd283469afb5b00015bdd5a","B2","batch2","","1895","","","tol_toboard","","","","","","","","","","","tol_peg_3","1895","1895","0","[[2,0,0],[1,0],[3]]","2","[[1,2,0],[3,0],[0]]","2","0","","","","","","4"
