"success","timeout","failed_images","failed_audio","failed_video","trial_type","trial_index","time_elapsed","internal_node_id","subject_id","study_id","session_id","task","rt","stimulus","response","item","answer","correct","spm_correct","spm_rt","view_history","fiar_detect_rt","fiar_detect_correct","total_correct_fiar_detect","post_trial_gap","choices","mouse_click","stim_duration","block_duration","timing_post_trial","current_position","tol_num_moves_made","tol_target","tol_problem_id","tol_rt","key_press","possible_responses","tol_correct","preplanning","tol_rt_per_trial","tol_min_moves"
"true","false","[]","[]","[]","preload","0","26148","0.0-0.0","5bd49bcc25db7b0001794063","C3","batch3","","","","","","","","","","","","","","","","","","","","","","","","","","","","","",""
"true","","","","","fullscreen","1","66650","0.0-1.0-0.0","5bd49bcc25db7b0001794063","C3","batch3","","","","","","","","","","","","","","","","","","","","","","","","","","","","","",""
"true","","","","","fullscreen","2","79583","0.0-2.0-0.0","5bd49bcc25db7b0001794063","C3","batch3","spm_fullscreen","","","","","","","","","","","","","","","","","","","","","","","","","","","","",""
"","","","","","html-button-response","3","89344","0.0-2.0-1.0","5bd49bcc25db7b0001794063","C3","batch3","","9756.600000023842","<p class = block-text><b>Instructions</b> <br>This is a widely used intelligence test in research. <br>In this test, a figure with a missing piece will be presented.<br>Below the figure are alternative pieces to complete the figure, only one of which is correct.<br> Different figures might involve different principles for obtaining the missing piece<br>Your job is to select the most logical piece to complete the figure.</p>","0","","","","","","","","","","","","","","","","","","","","","","","","","",""
"","","","","","html-keyboard-response","4","90149","0.0-2.0-2.0-0.0","5bd49bcc25db7b0001794063","C3","batch3","spm_show_trial_num","null","<p class=block-text>Trial 1 out of 60</p>","null","","","","","","","","","","","","","","","","","","","","","","","","","",""
"","","","","","image-button-response","5","97106","0.0-2.0-2.0-1.0","5bd49bcc25db7b0001794063","C3","batch3","spm_respsonse","6944.299999952316","img/question_1_1.jpeg","3","mat_01","4","1","1","6944.299999952316","","","","","","","","","","","","","","","","","","","","",""
"","","","","","html-keyboard-response","6","98183","0.0-2.0-2.0-0.1","5bd49bcc25db7b0001794063","C3","batch3","spm_show_trial_num","null","<p class=block-text>Trial 2 out of 60</p>","null","","","","","","","","","","","","","","","","","","","","","","","","","",""
"","","","","","image-button-response","7","102209","0.0-2.0-2.0-1.1","5bd49bcc25db7b0001794063","C3","batch3","spm_respsonse","4021.600000023842","img/question_1_2.jpeg","4","mat_02","5","1","1","4021.600000023842","","","","","","","","","","","","","","","","","","","","",""
"","","","","","html-keyboard-response","8","103283","0.0-2.0-2.0-0.2","5bd49bcc25db7b0001794063","C3","batch3","spm_show_trial_num","null","<p class=block-text>Trial 3 out of 60</p>","null","","","","","","","","","","","","","","","","","","","","","","","","","",""
"","","","","","image-button-response","9","109223","0.0-2.0-2.0-1.2","5bd49bcc25db7b0001794063","C3","batch3","spm_respsonse","5934.599999904633","img/question_1_3.jpeg","0","mat_03","1","1","1","5934.599999904633","","","","","","","","","","","","","","","","","","","","",""
"","","","","","html-keyboard-response","10","110289","0.0-2.0-2.0-0.3","5bd49bcc25db7b0001794063","C3","batch3","spm_show_trial_num","null","<p class=block-text>Trial 4 out of 60</p>","null","","","","","","","","","","","","","","","","","","","","","","","","","",""
"","","","","","image-button-response","11","115090","0.0-2.0-2.0-1.3","5bd49bcc25db7b0001794063","C3","batch3","spm_respsonse","4796.899999976158","img/question_1_4.jpeg","1","mat_04","2","1","1","4796.899999976158","","","","","","","","","","","","","","","","","","","","",""
"","","","","","html-keyboard-response","12","116165","0.0-2.0-2.0-0.4","5bd49bcc25db7b0001794063","C3","batch3","spm_show_trial_num","null","<p class=block-text>Trial 5 out of 60</p>","null","","","","","","","","","","","","","","","","","","","","","","","","","",""
"","","","","","image-button-response","13","121367","0.0-2.0-2.0-1.4","5bd49bcc25db7b0001794063","C3","batch3","spm_respsonse","5196.799999952316","img/question_1_5.jpeg","5","mat_05","6","1","1","5196.799999952316","","","","","","","","","","","","","","","","","","","","",""
"","","","","","html-keyboard-response","14","122448","0.0-2.0-2.0-0.5","5bd49bcc25db7b0001794063","C3","batch3","spm_show_trial_num","null","<p class=block-text>Trial 6 out of 60</p>","null","","","","","","","","","","","","","","","","","","","","","","","","","",""
"","","","","","image-button-response","15","127649","0.0-2.0-2.0-1.5","5bd49bcc25db7b0001794063","C3","batch3","spm_respsonse","5196.299999952316","img/question_1_6.jpeg","2","mat_06","3","1","1","5196.299999952316","","","","","","","","","","","","","","","","","","","","",""
"","","","","","html-keyboard-response","16","128722","0.0-2.0-2.0-0.6","5bd49bcc25db7b0001794063","C3","batch3","spm_show_trial_num","null","<p class=block-text>Trial 7 out of 60</p>","null","","","","","","","","","","","","","","","","","","","","","","","","","",""
"","","","","","image-button-response","17","143457","0.0-2.0-2.0-1.6","5bd49bcc25db7b0001794063","C3","batch3","spm_respsonse","14728.399999976158","img/question_1_7.jpeg","5","mat_07","6","1","1","14728.399999976158","","","","","","","","","","","","","","","","","","","","",""
"","","","","","html-keyboard-response","18","144532","0.0-2.0-2.0-0.7","5bd49bcc25db7b0001794063","C3","batch3","spm_show_trial_num","null","<p class=block-text>Trial 8 out of 60</p>","null","","","","","","","","","","","","","","","","","","","","","","","","","",""
"","","","","","image-button-response","19","149725","0.0-2.0-2.0-1.7","5bd49bcc25db7b0001794063","C3","batch3","spm_respsonse","5186.399999976158","img/question_1_8.jpeg","1","mat_08","2","1","1","5186.399999976158","","","","","","","","","","","","","","","","","","","","",""
"","","","","","html-keyboard-response","20","150796","0.0-2.0-2.0-0.8","5bd49bcc25db7b0001794063","C3","batch3","spm_show_trial_num","null","<p class=block-text>Trial 9 out of 60</p>","null","","","","","","","","","","","","","","","","","","","","","","","","","",""
"","","","","","image-button-response","21","157707","0.0-2.0-2.0-1.8","5bd49bcc25db7b0001794063","C3","batch3","spm_respsonse","6903.800000071526","img/question_1_9.jpeg","0","mat_09","1","1","1","6903.800000071526","","","","","","","","","","","","","","","","","","","","",""
"","","","","","html-keyboard-response","22","158782","0.0-2.0-2.0-0.9","5bd49bcc25db7b0001794063","C3","batch3","spm_show_trial_num","null","<p class=block-text>Trial 10 out of 60</p>","null","","","","","","","","","","","","","","","","","","","","","","","","","",""
"","","","","","image-button-response","23","171092","0.0-2.0-2.0-1.9","5bd49bcc25db7b0001794063","C3","batch3","spm_respsonse","12305.700000047684","img/question_1_10.jpeg","2","mat_10","3","1","1","12305.700000047684","","","","","","","","","","","","","","","","","","","","",""
"","","","","","html-keyboard-response","24","172165","0.0-2.0-2.0-0.10","5bd49bcc25db7b0001794063","C3","batch3","spm_show_trial_num","null","<p class=block-text>Trial 11 out of 60</p>","null","","","","","","","","","","","","","","","","","","","","","","","","","",""
"","","","","","image-button-response","25","194860","0.0-2.0-2.0-1.10","5bd49bcc25db7b0001794063","C3","batch3","spm_respsonse","22690.799999952316","img/question_1_11.jpeg","3","mat_11","4","1","1","22690.799999952316","","","","","","","","","","","","","","","","","","","","",""
"","","","","","html-keyboard-response","26","195938","0.0-2.0-2.0-0.11","5bd49bcc25db7b0001794063","C3","batch3","spm_show_trial_num","null","<p class=block-text>Trial 12 out of 60</p>","null","","","","","","","","","","","","","","","","","","","","","","","","","",""
"","","","","","image-button-response","27","202506","0.0-2.0-2.0-1.11","5bd49bcc25db7b0001794063","C3","batch3","spm_respsonse","6563.399999976158","img/question_1_12.jpeg","0","mat_12","5","0","0","6563.399999976158","","","","","","","","","","","","","","","","","","","","",""
"","","","","","html-keyboard-response","28","203581","0.0-2.0-2.0-0.12","5bd49bcc25db7b0001794063","C3","batch3","spm_show_trial_num","null","<p class=block-text>Trial 13 out of 60</p>","null","","","","","","","","","","","","","","","","","","","","","","","","","",""
"","","","","","image-button-response","29","208286","0.0-2.0-2.0-1.12","5bd49bcc25db7b0001794063","C3","batch3","spm_respsonse","4699.799999952316","img/question_2_1.jpeg","1","mat_13","2","1","1","4699.799999952316","","","","","","","","","","","","","","","","","","","","",""
"","","","","","html-keyboard-response","30","209362","0.0-2.0-2.0-0.13","5bd49bcc25db7b0001794063","C3","batch3","spm_show_trial_num","null","<p class=block-text>Trial 14 out of 60</p>","null","","","","","","","","","","","","","","","","","","","","","","","","","",""
"","","","","","image-button-response","31","215515","0.0-2.0-2.0-1.13","5bd49bcc25db7b0001794063","C3","batch3","spm_respsonse","6147.100000023842","img/question_2_2.jpeg","5","mat_14","6","1","1","6147.100000023842","","","","","","","","","","","","","","","","","","","","",""
"","","","","","html-keyboard-response","32","216586","0.0-2.0-2.0-0.14","5bd49bcc25db7b0001794063","C3","batch3","spm_show_trial_num","null","<p class=block-text>Trial 15 out of 60</p>","null","","","","","","","","","","","","","","","","","","","","","","","","","",""
"","","","","","image-button-response","33","222327","0.0-2.0-2.0-1.14","5bd49bcc25db7b0001794063","C3","batch3","spm_respsonse","5736.199999928474","img/question_2_3.jpeg","0","mat_15","1","1","1","5736.199999928474","","","","","","","","","","","","","","","","","","","","",""
"","","","","","html-keyboard-response","34","223387","0.0-2.0-2.0-0.15","5bd49bcc25db7b0001794063","C3","batch3","spm_show_trial_num","null","<p class=block-text>Trial 16 out of 60</p>","null","","","","","","","","","","","","","","","","","","","","","","","","","",""
"","","","","","image-button-response","35","227258","0.0-2.0-2.0-1.15","5bd49bcc25db7b0001794063","C3","batch3","spm_respsonse","3866.0999999046326","img/question_2_4.jpeg","1","mat_16","2","1","1","3866.0999999046326","","","","","","","","","","","","","","","","","","","","",""
"","","","","","html-keyboard-response","36","228338","0.0-2.0-2.0-0.16","5bd49bcc25db7b0001794063","C3","batch3","spm_show_trial_num","null","<p class=block-text>Trial 17 out of 60</p>","null","","","","","","","","","","","","","","","","","","","","","","","","","",""
"","","","","","image-button-response","37","233260","0.0-2.0-2.0-1.16","5bd49bcc25db7b0001794063","C3","batch3","spm_respsonse","4917.899999976158","img/question_2_5.jpeg","0","mat_17","1","1","1","4917.899999976158","","","","","","","","","","","","","","","","","","","","",""
"","","","","","html-keyboard-response","38","234347","0.0-2.0-2.0-0.17","5bd49bcc25db7b0001794063","C3","batch3","spm_show_trial_num","null","<p class=block-text>Trial 18 out of 60</p>","null","","","","","","","","","","","","","","","","","","","","","","","","","",""
"","","","","","image-button-response","39","239397","0.0-2.0-2.0-1.17","5bd49bcc25db7b0001794063","C3","batch3","spm_respsonse","5046.199999928474","img/question_2_6.jpeg","2","mat_18","3","1","1","5046.199999928474","","","","","","","","","","","","","","","","","","","","",""
"","","","","","html-keyboard-response","40","240480","0.0-2.0-2.0-0.18","5bd49bcc25db7b0001794063","C3","batch3","spm_show_trial_num","null","<p class=block-text>Trial 19 out of 60</p>","null","","","","","","","","","","","","","","","","","","","","","","","","","",""
"","","","","","image-button-response","41","245436","0.0-2.0-2.0-1.18","5bd49bcc25db7b0001794063","C3","batch3","spm_respsonse","4951.600000023842","img/question_2_7.jpeg","4","mat_19","5","1","1","4951.600000023842","","","","","","","","","","","","","","","","","","","","",""
"","","","","","html-keyboard-response","42","246513","0.0-2.0-2.0-0.19","5bd49bcc25db7b0001794063","C3","batch3","spm_show_trial_num","null","<p class=block-text>Trial 20 out of 60</p>","null","","","","","","","","","","","","","","","","","","","","","","","","","",""
"","","","","","image-button-response","43","251264","0.0-2.0-2.0-1.19","5bd49bcc25db7b0001794063","C3","batch3","spm_respsonse","4746.399999976158","img/question_2_8.jpeg","5","mat_20","6","1","1","4746.399999976158","","","","","","","","","","","","","","","","","","","","",""
"","","","","","html-keyboard-response","44","252346","0.0-2.0-2.0-0.20","5bd49bcc25db7b0001794063","C3","batch3","spm_show_trial_num","null","<p class=block-text>Trial 21 out of 60</p>","null","","","","","","","","","","","","","","","","","","","","","","","","","",""
"","","","","","image-button-response","45","263984","0.0-2.0-2.0-1.20","5bd49bcc25db7b0001794063","C3","batch3","spm_respsonse","11633.699999928474","img/question_2_9.jpeg","3","mat_21","4","1","1","11633.699999928474","","","","","","","","","","","","","","","","","","","","",""
"","","","","","html-keyboard-response","46","265054","0.0-2.0-2.0-0.21","5bd49bcc25db7b0001794063","C3","batch3","spm_show_trial_num","null","<p class=block-text>Trial 22 out of 60</p>","null","","","","","","","","","","","","","","","","","","","","","","","","","",""
"","","","","","image-button-response","47","271424","0.0-2.0-2.0-1.21","5bd49bcc25db7b0001794063","C3","batch3","spm_respsonse","6365.399999976158","img/question_2_10.jpeg","2","mat_22","3","1","1","6365.399999976158","","","","","","","","","","","","","","","","","","","","",""
"","","","","","html-keyboard-response","48","272497","0.0-2.0-2.0-0.22","5bd49bcc25db7b0001794063","C3","batch3","spm_show_trial_num","null","<p class=block-text>Trial 23 out of 60</p>","null","","","","","","","","","","","","","","","","","","","","","","","","","",""
"","","","","","image-button-response","49","275861","0.0-2.0-2.0-1.22","5bd49bcc25db7b0001794063","C3","batch3","spm_respsonse","3359.5","img/question_2_11.jpeg","3","mat_23","4","1","1","3359.5","","","","","","","","","","","","","","","","","","","","",""
"","","","","","html-keyboard-response","50","276926","0.0-2.0-2.0-0.23","5bd49bcc25db7b0001794063","C3","batch3","spm_show_trial_num","null","<p class=block-text>Trial 24 out of 60</p>","null","","","","","","","","","","","","","","","","","","","","","","","","","",""
"","","","","","image-button-response","51","292408","0.0-2.0-2.0-1.23","5bd49bcc25db7b0001794063","C3","batch3","spm_respsonse","15477.200000047684","img/question_2_12.jpeg","4","mat_24","5","1","1","15477.200000047684","","","","","","","","","","","","","","","","","","","","",""
"","","","","","html-button-response","52","296506","0.0-2.0-3.0","5bd49bcc25db7b0001794063","C3","batch3","attention_check","3841.100000023842","<p class = block-text>Attention check: Please choose 1<br></p>","0","","","true","","","","","","","","","","","","","","","","","","","","","","",""
"","","","","","html-keyboard-response","53","297311","0.0-2.0-4.0-0.0","5bd49bcc25db7b0001794063","C3","batch3","spm_show_trial_num","null","<p class=block-text>Trial 25 out of 60</p>","null","","","","","","","","","","","","","","","","","","","","","","","","","",""
"","","","","","image-button-response","54","302106","0.0-2.0-4.0-1.0","5bd49bcc25db7b0001794063","C3","batch3","spm_respsonse","4789.200000047684","img/question_3_1.jpeg","7","mat_25","8","1","1","4789.200000047684","","","","","","","","","","","","","","","","","","","","",""
"","","","","","html-keyboard-response","55","303178","0.0-2.0-4.0-0.1","5bd49bcc25db7b0001794063","C3","batch3","spm_show_trial_num","null","<p class=block-text>Trial 26 out of 60</p>","null","","","","","","","","","","","","","","","","","","","","","","","","","",""
"","","","","","image-button-response","56","312641","0.0-2.0-4.0-1.1","5bd49bcc25db7b0001794063","C3","batch3","spm_respsonse","9461.399999976158","img/question_3_2.jpeg","1","mat_26","2","1","1","9461.399999976158","","","","","","","","","","","","","","","","","","","","",""
"","","","","","html-keyboard-response","57","313708","0.0-2.0-4.0-0.2","5bd49bcc25db7b0001794063","C3","batch3","spm_show_trial_num","null","<p class=block-text>Trial 27 out of 60</p>","null","","","","","","","","","","","","","","","","","","","","","","","","","",""
"","","","","","image-button-response","58","333878","0.0-2.0-4.0-1.2","5bd49bcc25db7b0001794063","C3","batch3","spm_respsonse","20164.200000047684","img/question_3_3.jpeg","2","mat_27","3","1","1","20164.200000047684","","","","","","","","","","","","","","","","","","","","",""
"","","","","","html-keyboard-response","59","334959","0.0-2.0-4.0-0.3","5bd49bcc25db7b0001794063","C3","batch3","spm_show_trial_num","null","<p class=block-text>Trial 28 out of 60</p>","null","","","","","","","","","","","","","","","","","","","","","","","","","",""
"","","","","","image-button-response","60","340231","0.0-2.0-4.0-1.3","5bd49bcc25db7b0001794063","C3","batch3","spm_respsonse","5267.100000023842","img/question_3_4.jpeg","7","mat_28","8","1","1","5267.100000023842","","","","","","","","","","","","","","","","","","","","",""
"","","","","","html-keyboard-response","61","341309","0.0-2.0-4.0-0.4","5bd49bcc25db7b0001794063","C3","batch3","spm_show_trial_num","null","<p class=block-text>Trial 29 out of 60</p>","null","","","","","","","","","","","","","","","","","","","","","","","","","",""
"","","","","","image-button-response","62","347639","0.0-2.0-4.0-1.4","5bd49bcc25db7b0001794063","C3","batch3","spm_respsonse","6324.599999904633","img/question_3_5.jpeg","6","mat_29","7","1","1","6324.599999904633","","","","","","","","","","","","","","","","","","","","",""
"","","","","","html-keyboard-response","63","348717","0.0-2.0-4.0-0.5","5bd49bcc25db7b0001794063","C3","batch3","spm_show_trial_num","null","<p class=block-text>Trial 30 out of 60</p>","null","","","","","","","","","","","","","","","","","","","","","","","","","",""
"","","","","","image-button-response","64","355605","0.0-2.0-4.0-1.5","5bd49bcc25db7b0001794063","C3","batch3","spm_respsonse","6881.200000047684","img/question_3_6.jpeg","3","mat_30","4","1","1","6881.200000047684","","","","","","","","","","","","","","","","","","","","",""
"","","","","","html-keyboard-response","65","356666","0.0-2.0-4.0-0.6","5bd49bcc25db7b0001794063","C3","batch3","spm_show_trial_num","null","<p class=block-text>Trial 31 out of 60</p>","null","","","","","","","","","","","","","","","","","","","","","","","","","",""
"","","","","","image-button-response","66","362311","0.0-2.0-4.0-1.6","5bd49bcc25db7b0001794063","C3","batch3","spm_respsonse","5639.5","img/question_3_7.jpeg","4","mat_31","5","1","1","5639.5","","","","","","","","","","","","","","","","","","","","",""
"","","","","","html-keyboard-response","67","363382","0.0-2.0-4.0-0.7","5bd49bcc25db7b0001794063","C3","batch3","spm_show_trial_num","null","<p class=block-text>Trial 32 out of 60</p>","null","","","","","","","","","","","","","","","","","","","","","","","","","",""
"","","","","","image-button-response","68","371673","0.0-2.0-4.0-1.7","5bd49bcc25db7b0001794063","C3","batch3","spm_respsonse","8282.099999904633","img/question_3_8.jpeg","0","mat_32","1","1","1","8282.099999904633","","","","","","","","","","","","","","","","","","","","",""
"","","","","","html-keyboard-response","69","372746","0.0-2.0-4.0-0.8","5bd49bcc25db7b0001794063","C3","batch3","spm_show_trial_num","null","<p class=block-text>Trial 33 out of 60</p>","null","","","","","","","","","","","","","","","","","","","","","","","","","",""
"","","","","","image-button-response","70","387015","0.0-2.0-4.0-1.8","5bd49bcc25db7b0001794063","C3","batch3","spm_respsonse","14263.399999976158","img/question_3_9.jpeg","0","mat_33","7","0","0","14263.399999976158","","","","","","","","","","","","","","","","","","","","",""
"","","","","","html-keyboard-response","71","388096","0.0-2.0-4.0-0.9","5bd49bcc25db7b0001794063","C3","batch3","spm_show_trial_num","null","<p class=block-text>Trial 34 out of 60</p>","null","","","","","","","","","","","","","","","","","","","","","","","","","",""
"","","","","","image-button-response","72","433469","0.0-2.0-4.0-1.9","5bd49bcc25db7b0001794063","C3","batch3","spm_respsonse","45367.799999952316","img/question_3_10.jpeg","5","mat_34","6","1","1","45367.799999952316","","","","","","","","","","","","","","","","","","","","",""
"","","","","","html-keyboard-response","73","434527","0.0-2.0-4.0-0.10","5bd49bcc25db7b0001794063","C3","batch3","spm_show_trial_num","null","<p class=block-text>Trial 35 out of 60</p>","null","","","","","","","","","","","","","","","","","","","","","","","","","",""
"","","","","","image-button-response","74","503123","0.0-2.0-4.0-1.10","5bd49bcc25db7b0001794063","C3","batch3","spm_respsonse","68589.79999995232","img/question_3_11.jpeg","0","mat_35","1","1","1","68589.79999995232","","","","","","","","","","","","","","","","","","","","",""
"","","","","","html-keyboard-response","75","504200","0.0-2.0-4.0-0.11","5bd49bcc25db7b0001794063","C3","batch3","spm_show_trial_num","null","<p class=block-text>Trial 36 out of 60</p>","null","","","","","","","","","","","","","","","","","","","","","","","","","",""
"","","","","","image-button-response","76","515090","0.0-2.0-4.0-1.11","5bd49bcc25db7b0001794063","C3","batch3","spm_respsonse","10884","img/question_3_12.jpeg","2","mat_36","2","0","0","10884","","","","","","","","","","","","","","","","","","","","",""
"","","","","","html-keyboard-response","77","516162","0.0-2.0-4.0-0.12","5bd49bcc25db7b0001794063","C3","batch3","spm_show_trial_num","null","<p class=block-text>Trial 37 out of 60</p>","null","","","","","","","","","","","","","","","","","","","","","","","","","",""
"","","","","","image-button-response","78","531137","0.0-2.0-4.0-1.12","5bd49bcc25db7b0001794063","C3","batch3","spm_respsonse","14969.899999976158","img/question_4_1.jpeg","2","mat_37","3","1","1","14969.899999976158","","","","","","","","","","","","","","","","","","","","",""
"","","","","","html-keyboard-response","79","532212","0.0-2.0-4.0-0.13","5bd49bcc25db7b0001794063","C3","batch3","spm_show_trial_num","null","<p class=block-text>Trial 38 out of 60</p>","null","","","","","","","","","","","","","","","","","","","","","","","","","",""
"","","","","","image-button-response","80","542704","0.0-2.0-4.0-1.13","5bd49bcc25db7b0001794063","C3","batch3","spm_respsonse","10487.099999904633","img/question_4_2.jpeg","3","mat_38","4","1","1","10487.099999904633","","","","","","","","","","","","","","","","","","","","",""
"","","","","","html-keyboard-response","81","543780","0.0-2.0-4.0-0.14","5bd49bcc25db7b0001794063","C3","batch3","spm_show_trial_num","null","<p class=block-text>Trial 39 out of 60</p>","null","","","","","","","","","","","","","","","","","","","","","","","","","",""
"","","","","","image-button-response","82","545659","0.0-2.0-4.0-1.14","5bd49bcc25db7b0001794063","C3","batch3","spm_respsonse","1873.7999999523163","img/question_4_3.jpeg","3","mat_39","3","0","0","1873.7999999523163","","","","","","","","","","","","","","","","","","","","",""
"","","","","","html-keyboard-response","83","546719","0.0-2.0-4.0-0.15","5bd49bcc25db7b0001794063","C3","batch3","spm_show_trial_num","null","<p class=block-text>Trial 40 out of 60</p>","null","","","","","","","","","","","","","","","","","","","","","","","","","",""
"","","","","","image-button-response","84","557963","0.0-2.0-4.0-1.15","5bd49bcc25db7b0001794063","C3","batch3","spm_respsonse","11241.300000071526","img/question_4_4.jpeg","6","mat_40","7","1","1","11241.300000071526","","","","","","","","","","","","","","","","","","","","",""
"","","","","","html-keyboard-response","85","559028","0.0-2.0-4.0-0.16","5bd49bcc25db7b0001794063","C3","batch3","spm_show_trial_num","null","<p class=block-text>Trial 41 out of 60</p>","null","","","","","","","","","","","","","","","","","","","","","","","","","",""
"","","","","","image-button-response","86","566319","0.0-2.0-4.0-1.16","5bd49bcc25db7b0001794063","C3","batch3","spm_respsonse","7286.199999928474","img/question_4_5.jpeg","7","mat_41","8","1","1","7286.199999928474","","","","","","","","","","","","","","","","","","","","",""
"","","","","","html-keyboard-response","87","567405","0.0-2.0-4.0-0.17","5bd49bcc25db7b0001794063","C3","batch3","spm_show_trial_num","null","<p class=block-text>Trial 42 out of 60</p>","null","","","","","","","","","","","","","","","","","","","","","","","","","",""
"","","","","","image-button-response","88","581359","0.0-2.0-4.0-1.17","5bd49bcc25db7b0001794063","C3","batch3","spm_respsonse","13949.600000023842","img/question_4_6.jpeg","5","mat_42","6","1","1","13949.600000023842","","","","","","","","","","","","","","","","","","","","",""
"","","","","","html-keyboard-response","89","582428","0.0-2.0-4.0-0.18","5bd49bcc25db7b0001794063","C3","batch3","spm_show_trial_num","null","<p class=block-text>Trial 43 out of 60</p>","null","","","","","","","","","","","","","","","","","","","","","","","","","",""
"","","","","","image-button-response","90","597703","0.0-2.0-4.0-1.18","5bd49bcc25db7b0001794063","C3","batch3","spm_respsonse","15271.199999928474","img/question_4_7.jpeg","4","mat_43","5","1","1","15271.199999928474","","","","","","","","","","","","","","","","","","","","",""
"","","","","","html-keyboard-response","91","598768","0.0-2.0-4.0-0.19","5bd49bcc25db7b0001794063","C3","batch3","spm_show_trial_num","null","<p class=block-text>Trial 44 out of 60</p>","null","","","","","","","","","","","","","","","","","","","","","","","","","",""
"","","","","","image-button-response","92","610863","0.0-2.0-4.0-1.19","5bd49bcc25db7b0001794063","C3","batch3","spm_respsonse","12090.5","img/question_4_8.jpeg","3","mat_44","4","1","1","12090.5","","","","","","","","","","","","","","","","","","","","",""
"","","","","","html-keyboard-response","93","611934","0.0-2.0-4.0-0.20","5bd49bcc25db7b0001794063","C3","batch3","spm_show_trial_num","null","<p class=block-text>Trial 45 out of 60</p>","null","","","","","","","","","","","","","","","","","","","","","","","","","",""
"","","","","","image-button-response","94","635594","0.0-2.0-4.0-1.20","5bd49bcc25db7b0001794063","C3","batch3","spm_respsonse","23656.100000023842","img/question_4_9.jpeg","0","mat_45","1","1","1","23656.100000023842","","","","","","","","","","","","","","","","","","","","",""
"","","","","","html-keyboard-response","95","636674","0.0-2.0-4.0-0.21","5bd49bcc25db7b0001794063","C3","batch3","spm_show_trial_num","null","<p class=block-text>Trial 46 out of 60</p>","null","","","","","","","","","","","","","","","","","","","","","","","","","",""
"","","","","","image-button-response","96","650892","0.0-2.0-4.0-1.21","5bd49bcc25db7b0001794063","C3","batch3","spm_respsonse","14212.099999904633","img/question_4_10.jpeg","1","mat_46","2","1","1","14212.099999904633","","","","","","","","","","","","","","","","","","","","",""
"","","","","","html-keyboard-response","97","651976","0.0-2.0-4.0-0.22","5bd49bcc25db7b0001794063","C3","batch3","spm_show_trial_num","null","<p class=block-text>Trial 47 out of 60</p>","null","","","","","","","","","","","","","","","","","","","","","","","","","",""
"","","","","","image-button-response","98","666998","0.0-2.0-4.0-1.22","5bd49bcc25db7b0001794063","C3","batch3","spm_respsonse","15016.5","img/question_4_11.jpeg","6","mat_47","5","0","0","15016.5","","","","","","","","","","","","","","","","","","","","",""
"","","","","","html-keyboard-response","99","668076","0.0-2.0-4.0-0.23","5bd49bcc25db7b0001794063","C3","batch3","spm_show_trial_num","null","<p class=block-text>Trial 48 out of 60</p>","null","","","","","","","","","","","","","","","","","","","","","","","","","",""
"","","","","","image-button-response","100","688835","0.0-2.0-4.0-1.23","5bd49bcc25db7b0001794063","C3","batch3","spm_respsonse","20754","img/question_4_12.jpeg","7","mat_48","6","0","0","20754","","","","","","","","","","","","","","","","","","","","",""
"","","","","","html-keyboard-response","101","689900","0.0-2.0-4.0-0.24","5bd49bcc25db7b0001794063","C3","batch3","spm_show_trial_num","null","<p class=block-text>Trial 49 out of 60</p>","null","","","","","","","","","","","","","","","","","","","","","","","","","",""
"","","","","","image-button-response","102","694725","0.0-2.0-4.0-1.24","5bd49bcc25db7b0001794063","C3","batch3","spm_respsonse","4819.799999952316","img/question_5_1.jpeg","6","mat_49","7","1","1","4819.799999952316","","","","","","","","","","","","","","","","","","","","",""
"","","","","","html-keyboard-response","103","695807","0.0-2.0-4.0-0.25","5bd49bcc25db7b0001794063","C3","batch3","spm_show_trial_num","null","<p class=block-text>Trial 50 out of 60</p>","null","","","","","","","","","","","","","","","","","","","","","","","","","",""
"","","","","","image-button-response","104","706839","0.0-2.0-4.0-1.25","5bd49bcc25db7b0001794063","C3","batch3","spm_respsonse","11026.800000071526","img/question_5_2.jpeg","0","mat_50","6","0","0","11026.800000071526","","","","","","","","","","","","","","","","","","","","",""
"","","","","","html-keyboard-response","105","707910","0.0-2.0-4.0-0.26","5bd49bcc25db7b0001794063","C3","batch3","spm_show_trial_num","null","<p class=block-text>Trial 51 out of 60</p>","null","","","","","","","","","","","","","","","","","","","","","","","","","",""
"","","","","","image-button-response","106","718719","0.0-2.0-4.0-1.26","5bd49bcc25db7b0001794063","C3","batch3","spm_respsonse","10803.399999976158","img/question_5_3.jpeg","7","mat_51","8","1","1","10803.399999976158","","","","","","","","","","","","","","","","","","","","",""
"","","","","","html-keyboard-response","107","719791","0.0-2.0-4.0-0.27","5bd49bcc25db7b0001794063","C3","batch3","spm_show_trial_num","null","<p class=block-text>Trial 52 out of 60</p>","null","","","","","","","","","","","","","","","","","","","","","","","","","",""
"","","","","","image-button-response","108","727649","0.0-2.0-4.0-1.27","5bd49bcc25db7b0001794063","C3","batch3","spm_respsonse","7853.299999952316","img/question_5_4.jpeg","1","mat_52","2","1","1","7853.299999952316","","","","","","","","","","","","","","","","","","","","",""
"","","","","","html-keyboard-response","109","728732","0.0-2.0-4.0-0.28","5bd49bcc25db7b0001794063","C3","batch3","spm_show_trial_num","null","<p class=block-text>Trial 53 out of 60</p>","null","","","","","","","","","","","","","","","","","","","","","","","","","",""
"","","","","","image-button-response","110","734275","0.0-2.0-4.0-1.28","5bd49bcc25db7b0001794063","C3","batch3","spm_respsonse","5537.800000071526","img/question_5_5.jpeg","0","mat_53","1","1","1","5537.800000071526","","","","","","","","","","","","","","","","","","","","",""
"","","","","","html-keyboard-response","111","735342","0.0-2.0-4.0-0.29","5bd49bcc25db7b0001794063","C3","batch3","spm_show_trial_num","null","<p class=block-text>Trial 54 out of 60</p>","null","","","","","","","","","","","","","","","","","","","","","","","","","",""
"","","","","","image-button-response","112","744261","0.0-2.0-4.0-1.29","5bd49bcc25db7b0001794063","C3","batch3","spm_respsonse","8914.199999928474","img/question_5_6.jpeg","4","mat_54","5","1","1","8914.199999928474","","","","","","","","","","","","","","","","","","","","",""
"","","","","","html-keyboard-response","113","745334","0.0-2.0-4.0-0.30","5bd49bcc25db7b0001794063","C3","batch3","spm_show_trial_num","null","<p class=block-text>Trial 55 out of 60</p>","null","","","","","","","","","","","","","","","","","","","","","","","","","",""
"","","","","","image-button-response","114","758119","0.0-2.0-4.0-1.30","5bd49bcc25db7b0001794063","C3","batch3","spm_respsonse","12780.699999928474","img/question_5_7.jpeg","3","mat_55","1","0","0","12780.699999928474","","","","","","","","","","","","","","","","","","","","",""
"","","","","","html-keyboard-response","115","759193","0.0-2.0-4.0-0.31","5bd49bcc25db7b0001794063","C3","batch3","spm_show_trial_num","null","<p class=block-text>Trial 56 out of 60</p>","null","","","","","","","","","","","","","","","","","","","","","","","","","",""
"","","","","","image-button-response","116","769335","0.0-2.0-4.0-1.31","5bd49bcc25db7b0001794063","C3","batch3","spm_respsonse","10136.899999976158","img/question_5_8.jpeg","5","mat_56","6","1","1","10136.899999976158","","","","","","","","","","","","","","","","","","","","",""
"","","","","","html-keyboard-response","117","770417","0.0-2.0-4.0-0.32","5bd49bcc25db7b0001794063","C3","batch3","spm_show_trial_num","null","<p class=block-text>Trial 57 out of 60</p>","null","","","","","","","","","","","","","","","","","","","","","","","","","",""
"","","","","","image-button-response","118","777495","0.0-2.0-4.0-1.32","5bd49bcc25db7b0001794063","C3","batch3","spm_respsonse","7072.899999976158","img/question_5_9.jpeg","2","mat_57","3","1","1","7072.899999976158","","","","","","","","","","","","","","","","","","","","",""
"","","","","","html-keyboard-response","119","778576","0.0-2.0-4.0-0.33","5bd49bcc25db7b0001794063","C3","batch3","spm_show_trial_num","null","<p class=block-text>Trial 58 out of 60</p>","null","","","","","","","","","","","","","","","","","","","","","","","","","",""
"","","","","","image-button-response","120","791831","0.0-2.0-4.0-1.33","5bd49bcc25db7b0001794063","C3","batch3","spm_respsonse","13249.700000047684","img/question_5_10.jpeg","1","mat_58","2","1","1","13249.700000047684","","","","","","","","","","","","","","","","","","","","",""
"","","","","","html-keyboard-response","121","792900","0.0-2.0-4.0-0.34","5bd49bcc25db7b0001794063","C3","batch3","spm_show_trial_num","null","<p class=block-text>Trial 59 out of 60</p>","null","","","","","","","","","","","","","","","","","","","","","","","","","",""
"","","","","","image-button-response","122","803177","0.0-2.0-4.0-1.34","5bd49bcc25db7b0001794063","C3","batch3","spm_respsonse","10276.300000071526","img/question_5_11.jpeg","6","mat_59","4","0","0","10276.300000071526","","","","","","","","","","","","","","","","","","","","",""
"","","","","","html-keyboard-response","123","804243","0.0-2.0-4.0-0.35","5bd49bcc25db7b0001794063","C3","batch3","spm_show_trial_num","null","<p class=block-text>Trial 60 out of 60</p>","null","","","","","","","","","","","","","","","","","","","","","","","","","",""
"","","","","","image-button-response","124","808805","0.0-2.0-4.0-1.35","5bd49bcc25db7b0001794063","C3","batch3","spm_respsonse","4557","img/question_5_12.jpeg","7","mat_60","5","0","0","4557","","","","","","","","","","","","","","","","","","","","",""
"","","","","","html-button-response","125","811187","0.0-2.0-5.0","5bd49bcc25db7b0001794063","C3","batch3","spm_goodbye","2114.3000000715256","<p class= block-text>This concludes the Standard Progressive Matrix game. Thank you for your responses!<br> When you are ready, click the button continue</p>","0","","","","","","","","","","","","","","","","","","","","","","","","","",""
"true","","","","","fullscreen","126","814220","0.0-3.0-0.0","5bd49bcc25db7b0001794063","C3","batch3","","","","","","","","","","","","","","","","","","","","","","","","","","","","","",""
"","","","","","instructions","127","832377","0.0-3.0-1.0-0.0","5bd49bcc25db7b0001794063","C3","batch3","","18152.399999976158","","","","","","","","[{""page_index"":0,""viewing_time"":13050.5},{""page_index"":1,""viewing_time"":5101.700000047684}]","","","","","","","","","","","","","","","","","","","",""
"","","","","","html-button-response","128","835516","0.0-3.0-1.0-1.0-0.0","5bd49bcc25db7b0001794063","C3","batch3","pattern_enter_quiz","3138.100000023842","<p class=block-text> Let's answer a few questions <br>","0","","","","","","","","","","","","","","","","","","","","","","","","","",""
"","","","","","html-button-response","129","837674","0.0-3.0-1.0-1.0-1.0","5bd49bcc25db7b0001794063","C3","batch3","pattern_quiz","2155","<p class = block-text>True or False: You will have as much time as you want to make each choice. <br></p>","1","","","true","","","","","","","","","","","","","","","","","","","","","","",""
"","","","","","html-button-response","130","838832","0.0-3.0-1.0-1.0-2.0","5bd49bcc25db7b0001794063","C3","batch3","pattern_quiz_feedback","1152.8000000715256","<p class = block-text>Correct! You should make your choice <strong> as fast as you can</strong>.</p>","0","","","","","","","","","","","","","","","","","","","","","","","","","",""
"","","","","","html-button-response","131","841940","0.0-3.0-1.0-1.0-3.0","5bd49bcc25db7b0001794063","C3","batch3","pattern_quiz","3105.7999999523163","<p class = block-text>True or False: You will look for 4 pieces in black or white color connected in a row either horizontally, vertically or diagonally. <br></p>","0","","","true","","","","","","","","","","","","","","","","","","","","","","",""
"","","","","","html-button-response","132","843725","0.0-3.0-1.0-1.0-4.0","5bd49bcc25db7b0001794063","C3","batch3","pattern_quiz_feedback","1781.8999999761581","<p class = block-text>Correct! </p>","0","","","","","","","","","","","","","","","","","","","","","","","","","",""
"","","","","","html-button-response","133","845757","0.0-3.0-2.0","5bd49bcc25db7b0001794063","C3","batch3","pattern_enter_practice","2025.2999999523163","<p class=block-text> Now that you've understood the game, let's do a few practice trials before we start!<br> <br>","0","","","","","","","","","","","","","","","","","","","","","","","","","",""
"","","","","","image-keyboard-response","134","847121","0.0-3.0-3.0-0.0","5bd49bcc25db7b0001794063","C3","batch3","pattern_practice","1359.7000000476837","stim/prac_yes_20_dia_b1.png","j","","f","false","","","","","","","","","","","","","","","","","","","","","","",""
"","","","","","html-keyboard-response","135","848154","0.0-3.0-3.0-1.0","5bd49bcc25db7b0001794063","C3","batch3","pattern_feedback","null","<p style=""font-size:30px;color:red;"">Wrong.</p>","null","","","","","","","","","","","","","","","","","","","","","","","","","",""
"","","","","","image-keyboard-response","136","850507","0.0-3.0-3.0-0.1","5bd49bcc25db7b0001794063","C3","batch3","pattern_practice","2350.6999999284744","stim/prac_no_18_1.png","j","","j","true","","","","","","","","","","","","","","","","","","","","","","",""
"","","","","","html-keyboard-response","137","851528","0.0-3.0-3.0-1.1","5bd49bcc25db7b0001794063","C3","batch3","pattern_feedback","null","<p style=""font-size:30px;color:green;"">Correct!</p>","null","","","","","","","","","","","","","","","","","","","","","","","","","",""
"","","","","","image-keyboard-response","138","853981","0.0-3.0-3.0-0.2","5bd49bcc25db7b0001794063","C3","batch3","pattern_practice","2449.600000023842","stim/prac_no_16_1.png","j","","j","true","","","","","","","","","","","","","","","","","","","","","","",""
"","","","","","html-keyboard-response","139","855012","0.0-3.0-3.0-1.2","5bd49bcc25db7b0001794063","C3","batch3","pattern_feedback","null","<p style=""font-size:30px;color:green;"">Correct!</p>","null","","","","","","","","","","","","","","","","","","","","","","","","","",""
"","","","","","image-keyboard-response","140","855690","0.0-3.0-3.0-0.3","5bd49bcc25db7b0001794063","C3","batch3","pattern_practice","673.3000000715256","stim/prac_yes_16_ver_w1.png","f","","f","true","","","","","","","","","","","","","","","","","","","","","","",""
"","","","","","html-keyboard-response","141","856721","0.0-3.0-3.0-1.3","5bd49bcc25db7b0001794063","C3","batch3","pattern_feedback","null","<p style=""font-size:30px;color:green;"">Correct!</p>","null","","","","","","","","","","","","","","","","","","","","","","","","","",""
"","","","","","image-keyboard-response","142","857473","0.0-3.0-3.0-0.4","5bd49bcc25db7b0001794063","C3","batch3","pattern_practice","747.5","stim/prac_yes_18_hor_w1.png","f","","f","true","","","","","","","","","","","","","","","","","","","","","","",""
"","","","","","html-keyboard-response","143","858495","0.0-3.0-3.0-1.4","5bd49bcc25db7b0001794063","C3","batch3","pattern_feedback","null","<p style=""font-size:30px;color:green;"">Correct!</p>","null","","","","","","","","","","","","","","","","","","","","","","","","","",""
"","","","","","html-button-response","144","892094","0.0-3.0-4.0","5bd49bcc25db7b0001794063","C3","batch3","pattern_enter_official_trials","33592","<p class=block-text> Good job! You are done with practice trials!<br>
        You responded correctly on 80% of the trials.<br>
        Press the button below to start official trials. Now you won't see any feedback about your response</p>","0","","","","","","","","","","","","","","","","","","","","","","","","","",""
"","","","","","html-keyboard-response","145","892906","0.0-3.0-5.0-0.0","5bd49bcc25db7b0001794063","C3","batch3","pattern_show_trial_num","null","<p class=block-text>Trial 1 out of 78</p>","null","","","","","","","","","","","","","","","","","","","","","","","","","",""
"","","","","","image-keyboard-response","146","895777","0.0-3.0-5.0-1.0","5bd49bcc25db7b0001794063","C3","batch3","pattern_response","2865.5999999046326","stim/no_36_1_b.png","f","pattern_17","j","false","","","","2865.5999999046326","false","0","","","","","","","","","","","","","","","","",""
"","","","","","html-keyboard-response","147","897090","0.0-3.0-5.0-0.1","5bd49bcc25db7b0001794063","C3","batch3","pattern_show_trial_num","null","<p class=block-text>Trial 2 out of 78</p>","null","","","","","","","","","","","","","","","","","","","","","","","","","",""
"","","","","","image-keyboard-response","148","897976","0.0-3.0-5.0-1.1","5bd49bcc25db7b0001794063","C3","batch3","pattern_response","880.6000000238419","stim/yes_39_hor_w1_w.png","f","pattern_62","f","true","","","","880.6000000238419","true","1","","","","","","","","","","","","","","","","",""
"","","","","","html-keyboard-response","149","899290","0.0-3.0-5.0-0.2","5bd49bcc25db7b0001794063","C3","batch3","pattern_show_trial_num","null","<p class=block-text>Trial 3 out of 78</p>","null","","","","","","","","","","","","","","","","","","","","","","","","","",""
"","","","","","image-keyboard-response","150","901418","0.0-3.0-5.0-1.2","5bd49bcc25db7b0001794063","C3","batch3","pattern_response","2124.1999999284744","stim/yes_70_ver_b1.png","f","pattern_80","f","true","","","","2124.1999999284744","true","2","","","","","","","","","","","","","","","","",""
"","","","","","html-keyboard-response","151","902748","0.0-3.0-5.0-0.3","5bd49bcc25db7b0001794063","C3","batch3","pattern_show_trial_num","null","<p class=block-text>Trial 4 out of 78</p>","null","","","","","","","","","","","","","","","","","","","","","","","","","",""
"","","","","","image-keyboard-response","152","903494","0.0-3.0-5.0-1.3","5bd49bcc25db7b0001794063","C3","batch3","pattern_response","742.2000000476837","stim/yes_37_hor_w1_w.png","f","pattern_60","f","true","","","","742.2000000476837","true","3","","","","","","","","","","","","","","","","",""
"","","","","","html-keyboard-response","153","904807","0.0-3.0-5.0-0.4","5bd49bcc25db7b0001794063","C3","batch3","pattern_show_trial_num","null","<p class=block-text>Trial 5 out of 78</p>","null","","","","","","","","","","","","","","","","","","","","","","","","","",""
"","","","","","image-keyboard-response","154","908000","0.0-3.0-5.0-1.4","5bd49bcc25db7b0001794063","C3","batch3","pattern_response","3189.7999999523163","stim/no_53_1_b.png","j","pattern_33","j","true","","","","3189.7999999523163","true","4","","","","","","","","","","","","","","","","",""
"","","","","","html-keyboard-response","155","909321","0.0-3.0-5.0-0.5","5bd49bcc25db7b0001794063","C3","batch3","pattern_show_trial_num","null","<p class=block-text>Trial 6 out of 78</p>","null","","","","","","","","","","","","","","","","","","","","","","","","","",""
"","","","","","image-keyboard-response","156","910243","0.0-3.0-5.0-1.5","5bd49bcc25db7b0001794063","C3","batch3","pattern_response","915.8999999761581","stim/no_12_1.png","j","pattern_01","j","true","","","","915.8999999761581","true","5","","","","","","","","","","","","","","","","",""
"","","","","","html-keyboard-response","157","911574","0.0-3.0-5.0-0.6","5bd49bcc25db7b0001794063","C3","batch3","pattern_show_trial_num","null","<p class=block-text>Trial 7 out of 78</p>","null","","","","","","","","","","","","","","","","","","","","","","","","","",""
"","","","","","image-keyboard-response","158","914335","0.0-3.0-5.0-1.6","5bd49bcc25db7b0001794063","C3","batch3","pattern_response","2756.899999976158","stim/no_51_1.png","j","pattern_31","j","true","","","","2756.899999976158","true","6","","","","","","","","","","","","","","","","",""
"","","","","","html-keyboard-response","159","915657","0.0-3.0-5.0-0.7","5bd49bcc25db7b0001794063","C3","batch3","pattern_show_trial_num","null","<p class=block-text>Trial 8 out of 78</p>","null","","","","","","","","","","","","","","","","","","","","","","","","","",""
"","","","","","image-keyboard-response","160","916727","0.0-3.0-5.0-1.7","5bd49bcc25db7b0001794063","C3","batch3","pattern_response","1065.3999999761581","stim/yes_53_ver_b1_b.png","f","pattern_74","f","true","","","","1065.3999999761581","true","7","","","","","","","","","","","","","","","","",""
"","","","","","html-keyboard-response","161","918049","0.0-3.0-5.0-0.8","5bd49bcc25db7b0001794063","C3","batch3","pattern_show_trial_num","null","<p class=block-text>Trial 9 out of 78</p>","null","","","","","","","","","","","","","","","","","","","","","","","","","",""
"","","","","","image-keyboard-response","162","921142","0.0-3.0-5.0-1.8","5bd49bcc25db7b0001794063","C3","batch3","pattern_response","3090","stim/yes_42_dia_w1_w.png","j","pattern_64","f","false","","","","3090","false","7","","","","","","","","","","","","","","","","",""
"","","","","","html-keyboard-response","163","922472","0.0-3.0-5.0-0.9","5bd49bcc25db7b0001794063","C3","batch3","pattern_show_trial_num","null","<p class=block-text>Trial 10 out of 78</p>","null","","","","","","","","","","","","","","","","","","","","","","","","","",""
"","","","","","image-keyboard-response","164","923398","0.0-3.0-5.0-1.9","5bd49bcc25db7b0001794063","C3","batch3","pattern_response","921.3999999761581","stim/yes_29_hor_b1_b.png","f","pattern_52","f","true","","","","921.3999999761581","true","8","","","","","","","","","","","","","","","","",""
"","","","","","html-keyboard-response","165","924721","0.0-3.0-5.0-0.10","5bd49bcc25db7b0001794063","C3","batch3","pattern_show_trial_num","null","<p class=block-text>Trial 11 out of 78</p>","null","","","","","","","","","","","","","","","","","","","","","","","","","",""
"","","","","","image-keyboard-response","166","928869","0.0-3.0-5.0-1.10","5bd49bcc25db7b0001794063","C3","batch3","pattern_response","4141.399999976158","stim/yes_44_ver_w1_w.png","j","pattern_66","f","false","","","","4141.399999976158","false","8","","","","","","","","","","","","","","","","",""
"","","","","","html-keyboard-response","167","930198","0.0-3.0-5.0-0.11","5bd49bcc25db7b0001794063","C3","batch3","pattern_show_trial_num","null","<p class=block-text>Trial 12 out of 78</p>","null","","","","","","","","","","","","","","","","","","","","","","","","","",""
"","","","","","image-keyboard-response","168","933343","0.0-3.0-5.0-1.11","5bd49bcc25db7b0001794063","C3","batch3","pattern_response","3139.5","stim/no_30_1_b.png","j","pattern_13","j","true","","","","3139.5","true","9","","","","","","","","","","","","","","","","",""
"","","","","","html-keyboard-response","169","934657","0.0-3.0-5.0-0.12","5bd49bcc25db7b0001794063","C3","batch3","pattern_show_trial_num","null","<p class=block-text>Trial 13 out of 78</p>","null","","","","","","","","","","","","","","","","","","","","","","","","","",""
"","","","","","image-keyboard-response","170","935976","0.0-3.0-5.0-1.12","5bd49bcc25db7b0001794063","C3","batch3","pattern_response","1314.6000000238419","stim/yes_26_dia_w2_w.png","f","pattern_50","f","true","","","","1314.6000000238419","true","10","","","","","","","","","","","","","","","","",""
"","","","","","html-keyboard-response","171","937290","0.0-3.0-5.0-0.13","5bd49bcc25db7b0001794063","C3","batch3","pattern_show_trial_num","null","<p class=block-text>Trial 14 out of 78</p>","null","","","","","","","","","","","","","","","","","","","","","","","","","",""
"","","","","","image-keyboard-response","172","944535","0.0-3.0-5.0-1.13","5bd49bcc25db7b0001794063","C3","batch3","pattern_response","7242.200000047684","stim/no_43_2_b.png","j","pattern_23","j","true","","","","7242.200000047684","true","11","","","","","","","","","","","","","","","","",""
"","","","","","html-keyboard-response","173","945863","0.0-3.0-5.0-0.14","5bd49bcc25db7b0001794063","C3","batch3","pattern_show_trial_num","null","<p class=block-text>Trial 15 out of 78</p>","null","","","","","","","","","","","","","","","","","","","","","","","","","",""
"","","","","","image-keyboard-response","174","946791","0.0-3.0-5.0-1.14","5bd49bcc25db7b0001794063","C3","batch3","pattern_response","923.2000000476837","stim/yes_49_hor_w1_b.png","f","pattern_70","f","true","","","","923.2000000476837","true","12","","","","","","","","","","","","","","","","",""
"","","","","","html-keyboard-response","175","948122","0.0-3.0-5.0-0.15","5bd49bcc25db7b0001794063","C3","batch3","pattern_show_trial_num","null","<p class=block-text>Trial 16 out of 78</p>","null","","","","","","","","","","","","","","","","","","","","","","","","","",""
"","","","","","image-keyboard-response","176","951950","0.0-3.0-5.0-1.15","5bd49bcc25db7b0001794063","C3","batch3","pattern_response","3824","stim/yes_51_dia_b1.png","j","pattern_72","f","false","","","","3824","false","12","","","","","","","","","","","","","","","","",""
"","","","","","html-keyboard-response","177","953288","0.0-3.0-5.0-0.16","5bd49bcc25db7b0001794063","C3","batch3","pattern_show_trial_num","null","<p class=block-text>Trial 17 out of 78</p>","null","","","","","","","","","","","","","","","","","","","","","","","","","",""
"","","","","","image-keyboard-response","178","957161","0.0-3.0-5.0-1.16","5bd49bcc25db7b0001794063","C3","batch3","pattern_response","3867.2999999523163","stim/no_49_2_b.png","j","pattern_29","j","true","","","","3867.2999999523163","true","13","","","","","","","","","","","","","","","","",""
"","","","","","html-keyboard-response","179","958490","0.0-3.0-5.0-0.17","5bd49bcc25db7b0001794063","C3","batch3","pattern_show_trial_num","null","<p class=block-text>Trial 18 out of 78</p>","null","","","","","","","","","","","","","","","","","","","","","","","","","",""
"","","","","","image-keyboard-response","180","959391","0.0-3.0-5.0-1.17","5bd49bcc25db7b0001794063","C3","batch3","pattern_response","895.1999999284744","stim/yes_23_ver_b1.png","f","pattern_48","f","true","","","","895.1999999284744","true","14","","","","","","","","","","","","","","","","",""
"","","","","","html-keyboard-response","181","960714","0.0-3.0-5.0-0.18","5bd49bcc25db7b0001794063","C3","batch3","pattern_show_trial_num","null","<p class=block-text>Trial 19 out of 78</p>","null","","","","","","","","","","","","","","","","","","","","","","","","","",""
"","","","","","image-keyboard-response","182","961359","0.0-3.0-5.0-1.18","5bd49bcc25db7b0001794063","C3","batch3","pattern_response","641.2000000476837","stim/yes_36_ver_w1_w.png","f","pattern_58","f","true","","","","641.2000000476837","true","15","","","","","","","","","","","","","","","","",""
"","","","","","html-keyboard-response","183","962688","0.0-3.0-5.0-0.19","5bd49bcc25db7b0001794063","C3","batch3","pattern_show_trial_num","null","<p class=block-text>Trial 20 out of 78</p>","null","","","","","","","","","","","","","","","","","","","","","","","","","",""
"","","","","","image-keyboard-response","184","969551","0.0-3.0-5.0-1.19","5bd49bcc25db7b0001794063","C3","batch3","pattern_response","6858.399999976158","stim/yes_63_dia_b1.png","j","pattern_78","f","false","","","","6858.399999976158","false","15","","","","","","","","","","","","","","","","",""
"","","","","","html-keyboard-response","185","970873","0.0-3.0-5.0-0.20","5bd49bcc25db7b0001794063","C3","batch3","pattern_show_trial_num","null","<p class=block-text>Trial 21 out of 78</p>","null","","","","","","","","","","","","","","","","","","","","","","","","","",""
"","","","","","image-keyboard-response","186","972885","0.0-3.0-5.0-1.20","5bd49bcc25db7b0001794063","C3","batch3","pattern_response","1986","stim/no_47_1_b.png","j","pattern_27","j","true","","","","1986","true","16","","","","","","","","","","","","","","","","",""
"","","","","","html-keyboard-response","187","974206","0.0-3.0-5.0-0.21","5bd49bcc25db7b0001794063","C3","batch3","pattern_show_trial_num","null","<p class=block-text>Trial 22 out of 78</p>","null","","","","","","","","","","","","","","","","","","","","","","","","","",""
"","","","","","image-keyboard-response","188","976635","0.0-3.0-5.0-1.21","5bd49bcc25db7b0001794063","C3","batch3","pattern_response","2424.600000023842","stim/no_25_1_b.png","j","pattern_09","j","true","","","","2424.600000023842","true","17","","","","","","","","","","","","","","","","",""
"","","","","","html-keyboard-response","189","977956","0.0-3.0-5.0-0.22","5bd49bcc25db7b0001794063","C3","batch3","pattern_show_trial_num","null","<p class=block-text>Trial 23 out of 78</p>","null","","","","","","","","","","","","","","","","","","","","","","","","","",""
"","","","","","image-keyboard-response","190","979142","0.0-3.0-5.0-1.22","5bd49bcc25db7b0001794063","C3","batch3","pattern_response","1180.7000000476837","stim/yes_33_dia_w1_w.png","f","pattern_56","f","true","","","","1180.7000000476837","true","18","","","","","","","","","","","","","","","","",""
"","","","","","html-keyboard-response","191","980464","0.0-3.0-5.0-0.23","5bd49bcc25db7b0001794063","C3","batch3","pattern_show_trial_num","null","<p class=block-text>Trial 24 out of 78</p>","null","","","","","","","","","","","","","","","","","","","","","","","","","",""
"","","","","","image-keyboard-response","192","981251","0.0-3.0-5.0-1.23","5bd49bcc25db7b0001794063","C3","batch3","pattern_response","783.8999999761581","stim/yes_17_ver_b1_b.png","f","pattern_46","f","true","","","","783.8999999761581","true","19","","","","","","","","","","","","","","","","",""
"","","","","","html-keyboard-response","193","982573","0.0-3.0-5.0-0.24","5bd49bcc25db7b0001794063","C3","batch3","pattern_show_trial_num","null","<p class=block-text>Trial 25 out of 78</p>","null","","","","","","","","","","","","","","","","","","","","","","","","","",""
"","","","","","image-keyboard-response","194","984366","0.0-3.0-5.0-1.24","5bd49bcc25db7b0001794063","C3","batch3","pattern_response","1791.1999999284744","stim/no_18_1_b.png","j","pattern_05","j","true","","","","1791.1999999284744","true","20","","","","","","","","","","","","","","","","",""
"","","","","","html-keyboard-response","195","985687","0.0-3.0-5.0-0.25","5bd49bcc25db7b0001794063","C3","batch3","pattern_show_trial_num","null","<p class=block-text>Trial 26 out of 78</p>","null","","","","","","","","","","","","","","","","","","","","","","","","","",""
"","","","","","image-keyboard-response","196","988981","0.0-3.0-5.0-1.25","5bd49bcc25db7b0001794063","C3","batch3","pattern_response","3290.5999999046326","stim/no_45_1_w.png","j","pattern_25","j","true","","","","3290.5999999046326","true","21","","","","","","","","","","","","","","","","",""
"","","","","","html-keyboard-response","197","990304","0.0-3.0-5.0-0.26","5bd49bcc25db7b0001794063","C3","batch3","pattern_show_trial_num","null","<p class=block-text>Trial 27 out of 78</p>","null","","","","","","","","","","","","","","","","","","","","","","","","","",""
"","","","","","image-keyboard-response","198","994690","0.0-3.0-5.0-1.26","5bd49bcc25db7b0001794063","C3","batch3","pattern_response","4380.5","stim/yes_58_dia_w1_w.png","j","pattern_76","f","false","","","","4380.5","false","21","","","","","","","","","","","","","","","","",""
"","","","","","html-keyboard-response","199","996004","0.0-3.0-5.0-0.27","5bd49bcc25db7b0001794063","C3","batch3","pattern_show_trial_num","null","<p class=block-text>Trial 28 out of 78</p>","null","","","","","","","","","","","","","","","","","","","","","","","","","",""
"","","","","","image-keyboard-response","200","997698","0.0-3.0-5.0-1.27","5bd49bcc25db7b0001794063","C3","batch3","pattern_response","1689.8999999761581","stim/no_22_1_b.png","j","pattern_07","j","true","","","","1689.8999999761581","true","22","","","","","","","","","","","","","","","","",""
"","","","","","html-keyboard-response","201","999028","0.0-3.0-5.0-0.28","5bd49bcc25db7b0001794063","C3","batch3","pattern_show_trial_num","null","<p class=block-text>Trial 29 out of 78</p>","null","","","","","","","","","","","","","","","","","","","","","","","","","",""
"","","","","","image-keyboard-response","202","1001913","0.0-3.0-5.0-1.28","5bd49bcc25db7b0001794063","C3","batch3","pattern_response","2881","stim/no_37_2_w.png","j","pattern_19","j","true","","","","2881","true","23","","","","","","","","","","","","","","","","",""
"","","","","","html-keyboard-response","203","1003228","0.0-3.0-5.0-0.29","5bd49bcc25db7b0001794063","C3","batch3","pattern_show_trial_num","null","<p class=block-text>Trial 30 out of 78</p>","null","","","","","","","","","","","","","","","","","","","","","","","","","",""
"","","","","","image-keyboard-response","204","1005274","0.0-3.0-5.0-1.29","5bd49bcc25db7b0001794063","C3","batch3","pattern_response","2042.4000000953674","stim/no_39_1_w.png","j","pattern_21","j","true","","","","2042.4000000953674","true","24","","","","","","","","","","","","","","","","",""
"","","","","","html-keyboard-response","205","1006586","0.0-3.0-5.0-0.30","5bd49bcc25db7b0001794063","C3","batch3","pattern_show_trial_num","null","<p class=block-text>Trial 31 out of 78</p>","null","","","","","","","","","","","","","","","","","","","","","","","","","",""
"","","","","","image-keyboard-response","206","1007423","0.0-3.0-5.0-1.30","5bd49bcc25db7b0001794063","C3","batch3","pattern_response","833.1000000238419","stim/yes_12_hor_w1_w.png","f","pattern_42","f","true","","","","833.1000000238419","true","25","","","","","","","","","","","","","","","","",""
"","","","","","html-keyboard-response","207","1008738","0.0-3.0-5.0-0.31","5bd49bcc25db7b0001794063","C3","batch3","pattern_show_trial_num","null","<p class=block-text>Trial 32 out of 78</p>","null","","","","","","","","","","","","","","","","","","","","","","","","","",""
"","","","","","image-keyboard-response","208","1010697","0.0-3.0-5.0-1.31","5bd49bcc25db7b0001794063","C3","batch3","pattern_response","1954.6999999284744","stim/no_28_2.png","j","pattern_11","j","true","","","","1954.6999999284744","true","26","","","","","","","","","","","","","","","","",""
"","","","","","html-keyboard-response","209","1012019","0.0-3.0-5.0-0.32","5bd49bcc25db7b0001794063","C3","batch3","pattern_show_trial_num","null","<p class=block-text>Trial 33 out of 78</p>","null","","","","","","","","","","","","","","","","","","","","","","","","","",""
"","","","","","image-keyboard-response","210","1017258","0.0-3.0-5.0-1.32","5bd49bcc25db7b0001794063","C3","batch3","pattern_response","5233.399999976158","stim/no_67_1.png","j","pattern_39","j","true","","","","5233.399999976158","true","27","","","","","","","","","","","","","","","","",""
"","","","","","html-keyboard-response","211","1018570","0.0-3.0-5.0-0.33","5bd49bcc25db7b0001794063","C3","batch3","pattern_show_trial_num","null","<p class=block-text>Trial 34 out of 78</p>","null","","","","","","","","","","","","","","","","","","","","","","","","","",""
"","","","","","image-keyboard-response","212","1023458","0.0-3.0-5.0-1.33","5bd49bcc25db7b0001794063","C3","batch3","pattern_response","4883.200000047684","stim/yes_46_ver_b1_b.png","j","pattern_68","f","false","","","","4883.200000047684","false","27","","","","","","","","","","","","","","","","",""
"","","","","","html-keyboard-response","213","1024787","0.0-3.0-5.0-0.34","5bd49bcc25db7b0001794063","C3","batch3","pattern_show_trial_num","null","<p class=block-text>Trial 35 out of 78</p>","null","","","","","","","","","","","","","","","","","","","","","","","","","",""
"","","","","","image-keyboard-response","214","1025964","0.0-3.0-5.0-1.34","5bd49bcc25db7b0001794063","C3","batch3","pattern_response","1171.9000000953674","stim/yes_30_ver_b1_b.png","f","pattern_54","f","true","","","","1171.9000000953674","true","28","","","","","","","","","","","","","","","","",""
"","","","","","html-keyboard-response","215","1027287","0.0-3.0-5.0-0.35","5bd49bcc25db7b0001794063","C3","batch3","pattern_show_trial_num","null","<p class=block-text>Trial 36 out of 78</p>","null","","","","","","","","","","","","","","","","","","","","","","","","","",""
"","","","","","image-keyboard-response","216","1028349","0.0-3.0-5.0-1.35","5bd49bcc25db7b0001794063","C3","batch3","pattern_response","1058.5999999046326","stim/no_15_1_w.png","j","pattern_03","j","true","","","","1058.5999999046326","true","29","","","","","","","","","","","","","","","","",""
"","","","","","html-keyboard-response","217","1029657","0.0-3.0-5.0-0.36","5bd49bcc25db7b0001794063","C3","batch3","pattern_show_trial_num","null","<p class=block-text>Trial 37 out of 78</p>","null","","","","","","","","","","","","","","","","","","","","","","","","","",""
"","","","","","image-keyboard-response","218","1034589","0.0-3.0-5.0-1.36","5bd49bcc25db7b0001794063","C3","batch3","pattern_response","4929","stim/no_58_1_w.png","j","pattern_35","j","true","","","","4929","true","30","","","","","","","","","","","","","","","","",""
"","","","","","html-keyboard-response","219","1035902","0.0-3.0-5.0-0.37","5bd49bcc25db7b0001794063","C3","batch3","pattern_show_trial_num","null","<p class=block-text>Trial 38 out of 78</p>","null","","","","","","","","","","","","","","","","","","","","","","","","","",""
"","","","","","image-keyboard-response","220","1037056","0.0-3.0-5.0-1.37","5bd49bcc25db7b0001794063","C3","batch3","pattern_response","1151.6000000238419","stim/yes_15_dia_b1u_b.png","f","pattern_44","f","true","","","","1151.6000000238419","true","31","","","","","","","","","","","","","","","","",""
"","","","","","html-keyboard-response","221","1038370","0.0-3.0-5.0-0.38","5bd49bcc25db7b0001794063","C3","batch3","pattern_show_trial_num","null","<p class=block-text>Trial 39 out of 78</p>","null","","","","","","","","","","","","","","","","","","","","","","","","","",""
"","","","","","image-keyboard-response","222","1041390","0.0-3.0-5.0-1.38","5bd49bcc25db7b0001794063","C3","batch3","pattern_response","3016.5","stim/no_33_1_b.png","j","pattern_15","j","true","","","","3016.5","true","32","","","","","","","","","","","","","","","","",""
"","","","","","image-keyboard-response","223","1043455","0.0-3.0-6.0","5bd49bcc25db7b0001794063","C3","batch3","attention_check","1559","stim/empty_board.png","j","","j","true","","","","","","","500","[""f"",""j""]","","","","","","","","","","","","","","",""
"","","","","","html-keyboard-response","224","1044270","0.0-3.0-7.0-0.0","5bd49bcc25db7b0001794063","C3","batch3","pattern_show_trial_num","null","<p class=block-text>Trial 40 out of 78</p>","null","","","","","","","","","","","","","","","","","","","","","","","","","",""
"","","","","","image-keyboard-response","225","1045923","0.0-3.0-7.0-1.0","5bd49bcc25db7b0001794063","C3","batch3","pattern_response","1645.3999999761581","stim/yes_17_dia_w1.png","f","pattern_45","f","true","","","","1645.3999999761581","true","33","","","","","","","","","","","","","","","","",""
"","","","","","html-keyboard-response","226","1047246","0.0-3.0-7.0-0.1","5bd49bcc25db7b0001794063","C3","batch3","pattern_show_trial_num","null","<p class=block-text>Trial 41 out of 78</p>","null","","","","","","","","","","","","","","","","","","","","","","","","","",""
"","","","","","image-keyboard-response","227","1051409","0.0-3.0-7.0-1.1","5bd49bcc25db7b0001794063","C3","batch3","pattern_response","4159.299999952316","stim/yes_52_ver_w1.png","f","pattern_73","f","true","","","","4159.299999952316","true","34","","","","","","","","","","","","","","","","",""
"","","","","","html-keyboard-response","228","1052714","0.0-3.0-7.0-0.2","5bd49bcc25db7b0001794063","C3","batch3","pattern_show_trial_num","null","<p class=block-text>Trial 42 out of 78</p>","null","","","","","","","","","","","","","","","","","","","","","","","","","",""
"","","","","","image-keyboard-response","229","1053617","0.0-3.0-7.0-1.2","5bd49bcc25db7b0001794063","C3","batch3","pattern_response","898.6000000238419","stim/yes_55_hor_w1_w.png","f","pattern_75","f","true","","","","898.6000000238419","true","35","","","","","","","","","","","","","","","","",""
"","","","","","html-keyboard-response","230","1054937","0.0-3.0-7.0-0.3","5bd49bcc25db7b0001794063","C3","batch3","pattern_show_trial_num","null","<p class=block-text>Trial 43 out of 78</p>","null","","","","","","","","","","","","","","","","","","","","","","","","","",""
"","","","","","image-keyboard-response","231","1055914","0.0-3.0-7.0-1.3","5bd49bcc25db7b0001794063","C3","batch3","pattern_response","971.5","stim/yes_43_ver_w1_w.png","f","pattern_65","f","true","","","","971.5","true","36","","","","","","","","","","","","","","","","",""
"","","","","","html-keyboard-response","232","1057248","0.0-3.0-7.0-0.4","5bd49bcc25db7b0001794063","C3","batch3","pattern_show_trial_num","null","<p class=block-text>Trial 44 out of 78</p>","null","","","","","","","","","","","","","","","","","","","","","","","","","",""
"","","","","","image-keyboard-response","233","1061475","0.0-3.0-7.0-1.4","5bd49bcc25db7b0001794063","C3","batch3","pattern_response","4224.699999928474","stim/no_36_2_w.png","j","pattern_18","j","true","","","","4224.699999928474","true","37","","","","","","","","","","","","","","","","",""
"","","","","","html-keyboard-response","234","1062789","0.0-3.0-7.0-0.5","5bd49bcc25db7b0001794063","C3","batch3","pattern_show_trial_num","null","<p class=block-text>Trial 45 out of 78</p>","null","","","","","","","","","","","","","","","","","","","","","","","","","",""
"","","","","","image-keyboard-response","235","1065991","0.0-3.0-7.0-1.5","5bd49bcc25db7b0001794063","C3","batch3","pattern_response","3180","stim/no_29_1_b.png","j","pattern_12","j","true","","","","3180","true","38","","","","","","","","","","","","","","","","",""
"","","","","","html-keyboard-response","236","1067322","0.0-3.0-7.0-0.6","5bd49bcc25db7b0001794063","C3","batch3","pattern_show_trial_num","null","<p class=block-text>Trial 46 out of 78</p>","null","","","","","","","","","","","","","","","","","","","","","","","","","",""
"","","","","","image-keyboard-response","237","1072843","0.0-3.0-7.0-1.6","5bd49bcc25db7b0001794063","C3","batch3","pattern_response","5515.200000047684","stim/no_70_2.png","j","pattern_40","j","true","","","","5515.200000047684","true","39","","","","","","","","","","","","","","","","",""
"","","","","","html-keyboard-response","238","1074172","0.0-3.0-7.0-0.7","5bd49bcc25db7b0001794063","C3","batch3","pattern_show_trial_num","null","<p class=block-text>Trial 47 out of 78</p>","null","","","","","","","","","","","","","","","","","","","","","","","","","",""
"","","","","","image-keyboard-response","239","1077474","0.0-3.0-7.0-1.7","5bd49bcc25db7b0001794063","C3","batch3","pattern_response","3297.600000023842","stim/no_46_1_b.png","j","pattern_26","j","true","","","","3297.600000023842","true","40","","","","","","","","","","","","","","","","",""
"","","","","","html-keyboard-response","240","1078787","0.0-3.0-7.0-0.8","5bd49bcc25db7b0001794063","C3","batch3","pattern_show_trial_num","null","<p class=block-text>Trial 48 out of 78</p>","null","","","","","","","","","","","","","","","","","","","","","","","","","",""
"","","","","","image-keyboard-response","241","1081391","0.0-3.0-7.0-1.8","5bd49bcc25db7b0001794063","C3","batch3","pattern_response","2598.6999999284744","stim/yes_45_hor_b2_b.png","f","pattern_67","f","true","","","","2598.6999999284744","true","41","","","","","","","","","","","","","","","","",""
"","","","","","html-keyboard-response","242","1082722","0.0-3.0-7.0-0.9","5bd49bcc25db7b0001794063","C3","batch3","pattern_show_trial_num","null","<p class=block-text>Trial 49 out of 78</p>","null","","","","","","","","","","","","","","","","","","","","","","","","","",""
"","","","","","image-keyboard-response","243","1086474","0.0-3.0-7.0-1.9","5bd49bcc25db7b0001794063","C3","batch3","pattern_response","3746.7000000476837","stim/no_55_1_w.png","j","pattern_34","j","true","","","","3746.7000000476837","true","42","","","","","","","","","","","","","","","","",""
"","","","","","html-keyboard-response","244","1087805","0.0-3.0-7.0-0.10","5bd49bcc25db7b0001794063","C3","batch3","pattern_show_trial_num","null","<p class=block-text>Trial 50 out of 78</p>","null","","","","","","","","","","","","","","","","","","","","","","","","","",""
"","","","","","image-keyboard-response","245","1088616","0.0-3.0-7.0-1.10","5bd49bcc25db7b0001794063","C3","batch3","pattern_response","805.5","stim/yes_67_hor_b1.png","f","pattern_79","f","true","","","","805.5","true","43","","","","","","","","","","","","","","","","",""
"","","","","","html-keyboard-response","246","1089947","0.0-3.0-7.0-0.11","5bd49bcc25db7b0001794063","C3","batch3","pattern_show_trial_num","null","<p class=block-text>Trial 51 out of 78</p>","null","","","","","","","","","","","","","","","","","","","","","","","","","",""
"","","","","","image-keyboard-response","247","1091100","0.0-3.0-7.0-1.11","5bd49bcc25db7b0001794063","C3","batch3","pattern_response","1150","stim/yes_29_ver_w1.png","f","pattern_53","f","true","","","","1150","true","44","","","","","","","","","","","","","","","","",""
"","","","","","html-keyboard-response","248","1092421","0.0-3.0-7.0-0.12","5bd49bcc25db7b0001794063","C3","batch3","pattern_show_trial_num","null","<p class=block-text>Trial 52 out of 78</p>","null","","","","","","","","","","","","","","","","","","","","","","","","","",""
"","","","","","image-keyboard-response","249","1095808","0.0-3.0-7.0-1.12","5bd49bcc25db7b0001794063","C3","batch3","pattern_response","3382.5","stim/yes_60_ver_b1_b.png","f","pattern_77","f","true","","","","3382.5","true","45","","","","","","","","","","","","","","","","",""
"","","","","","html-keyboard-response","250","1097120","0.0-3.0-7.0-0.13","5bd49bcc25db7b0001794063","C3","batch3","pattern_show_trial_num","null","<p class=block-text>Trial 53 out of 78</p>","null","","","","","","","","","","","","","","","","","","","","","","","","","",""
"","","","","","image-keyboard-response","251","1099150","0.0-3.0-7.0-1.13","5bd49bcc25db7b0001794063","C3","batch3","pattern_response","2024.8999999761581","stim/no_38_1_b.png","j","pattern_20","j","true","","","","2024.8999999761581","true","46","","","","","","","","","","","","","","","","",""
"","","","","","html-keyboard-response","252","1100470","0.0-3.0-7.0-0.14","5bd49bcc25db7b0001794063","C3","batch3","pattern_show_trial_num","null","<p class=block-text>Trial 54 out of 78</p>","null","","","","","","","","","","","","","","","","","","","","","","","","","",""
"","","","","","image-keyboard-response","253","1104047","0.0-3.0-7.0-1.14","5bd49bcc25db7b0001794063","C3","batch3","pattern_response","3572.399999976158","stim/yes_50_dia_w1.png","j","pattern_71","f","false","","","","3572.399999976158","false","46","","","","","","","","","","","","","","","","",""
"","","","","","html-keyboard-response","254","1105361","0.0-3.0-7.0-0.15","5bd49bcc25db7b0001794063","C3","batch3","pattern_show_trial_num","null","<p class=block-text>Trial 55 out of 78</p>","null","","","","","","","","","","","","","","","","","","","","","","","","","",""
"","","","","","image-keyboard-response","255","1109956","0.0-3.0-7.0-1.15","5bd49bcc25db7b0001794063","C3","batch3","pattern_response","4593.299999952316","stim/no_50_1.png","j","pattern_30","j","true","","","","4593.299999952316","true","47","","","","","","","","","","","","","","","","",""
"","","","","","html-keyboard-response","256","1111283","0.0-3.0-7.0-0.16","5bd49bcc25db7b0001794063","C3","batch3","pattern_show_trial_num","null","<p class=block-text>Trial 56 out of 78</p>","null","","","","","","","","","","","","","","","","","","","","","","","","","",""
"","","","","","image-keyboard-response","257","1113968","0.0-3.0-7.0-1.16","5bd49bcc25db7b0001794063","C3","batch3","pattern_response","2677.6999999284744","stim/no_52_1.png","j","pattern_32","j","true","","","","2677.6999999284744","true","48","","","","","","","","","","","","","","","","",""
"","","","","","html-keyboard-response","258","1115292","0.0-3.0-7.0-0.17","5bd49bcc25db7b0001794063","C3","batch3","pattern_show_trial_num","null","<p class=block-text>Trial 57 out of 78</p>","null","","","","","","","","","","","","","","","","","","","","","","","","","",""
"","","","","","image-keyboard-response","259","1119353","0.0-3.0-7.0-1.17","5bd49bcc25db7b0001794063","C3","batch3","pattern_response","4056.100000023842","stim/no_62_1_w.png","j","pattern_36","j","true","","","","4056.100000023842","true","49","","","","","","","","","","","","","","","","",""
"","","","","","html-keyboard-response","260","1120667","0.0-3.0-7.0-0.18","5bd49bcc25db7b0001794063","C3","batch3","pattern_show_trial_num","null","<p class=block-text>Trial 58 out of 78</p>","null","","","","","","","","","","","","","","","","","","","","","","","","","",""
"","","","","","image-keyboard-response","261","1121546","0.0-3.0-7.0-1.18","5bd49bcc25db7b0001794063","C3","batch3","pattern_response","873.5","stim/yes_25_hor_b1_b.png","f","pattern_49","f","true","","","","873.5","true","50","","","","","","","","","","","","","","","","",""
"","","","","","html-keyboard-response","262","1122866","0.0-3.0-7.0-0.19","5bd49bcc25db7b0001794063","C3","batch3","pattern_show_trial_num","null","<p class=block-text>Trial 59 out of 78</p>","null","","","","","","","","","","","","","","","","","","","","","","","","","",""
"","","","","","image-keyboard-response","263","1127080","0.0-3.0-7.0-1.19","5bd49bcc25db7b0001794063","C3","batch3","pattern_response","4208.400000095367","stim/yes_40_dia_b1_b.png","j","pattern_63","f","false","","","","4208.400000095367","false","50","","","","","","","","","","","","","","","","",""
"","","","","","html-keyboard-response","264","1128401","0.0-3.0-7.0-0.20","5bd49bcc25db7b0001794063","C3","batch3","pattern_show_trial_num","null","<p class=block-text>Trial 60 out of 78</p>","null","","","","","","","","","","","","","","","","","","","","","","","","","",""
"","","","","","image-keyboard-response","265","1130245","0.0-3.0-7.0-1.20","5bd49bcc25db7b0001794063","C3","batch3","pattern_response","1839","stim/no_13_2_b.png","j","pattern_02","j","true","","","","1839","true","51","","","","","","","","","","","","","","","","",""
"","","","","","html-keyboard-response","266","1131567","0.0-3.0-7.0-0.21","5bd49bcc25db7b0001794063","C3","batch3","pattern_show_trial_num","null","<p class=block-text>Trial 61 out of 78</p>","null","","","","","","","","","","","","","","","","","","","","","","","","","",""
"","","","","","image-keyboard-response","267","1134896","0.0-3.0-7.0-1.21","5bd49bcc25db7b0001794063","C3","batch3","pattern_response","3325.600000023842","stim/no_48_1_w.png","j","pattern_28","j","true","","","","3325.600000023842","true","52","","","","","","","","","","","","","","","","",""
"","","","","","html-keyboard-response","268","1136217","0.0-3.0-7.0-0.22","5bd49bcc25db7b0001794063","C3","batch3","pattern_show_trial_num","null","<p class=block-text>Trial 62 out of 78</p>","null","","","","","","","","","","","","","","","","","","","","","","","","","",""
"","","","","","image-keyboard-response","269","1140445","0.0-3.0-7.0-1.22","5bd49bcc25db7b0001794063","C3","batch3","pattern_response","4223.5","stim/yes_37_dia_w1.png","j","pattern_59","f","false","","","","4223.5","false","52","","","","","","","","","","","","","","","","",""
"","","","","","html-keyboard-response","270","1141777","0.0-3.0-7.0-0.23","5bd49bcc25db7b0001794063","C3","batch3","pattern_show_trial_num","null","<p class=block-text>Trial 63 out of 78</p>","null","","","","","","","","","","","","","","","","","","","","","","","","","",""
"","","","","","image-keyboard-response","271","1142653","0.0-3.0-7.0-1.23","5bd49bcc25db7b0001794063","C3","batch3","pattern_response","871.7999999523163","stim/yes_28_ver_b1.png","f","pattern_51","f","true","","","","871.7999999523163","true","53","","","","","","","","","","","","","","","","",""
"","","","","","html-keyboard-response","272","1143975","0.0-3.0-7.0-0.24","5bd49bcc25db7b0001794063","C3","batch3","pattern_show_trial_num","null","<p class=block-text>Trial 64 out of 78</p>","null","","","","","","","","","","","","","","","","","","","","","","","","","",""
"","","","","","image-keyboard-response","273","1145972","0.0-3.0-7.0-1.24","5bd49bcc25db7b0001794063","C3","batch3","pattern_response","1993.6999999284744","stim/yes_35_dia_b1.png","j","pattern_57","f","false","","","","1993.6999999284744","false","53","","","","","","","","","","","","","","","","",""
"","","","","","html-keyboard-response","274","1147301","0.0-3.0-7.0-0.25","5bd49bcc25db7b0001794063","C3","batch3","pattern_show_trial_num","null","<p class=block-text>Trial 65 out of 78</p>","null","","","","","","","","","","","","","","","","","","","","","","","","","",""
"","","","","","image-keyboard-response","275","1149028","0.0-3.0-7.0-1.25","5bd49bcc25db7b0001794063","C3","batch3","pattern_response","1723.6000000238419","stim/no_32_1_w.png","j","pattern_14","j","true","","","","1723.6000000238419","true","54","","","","","","","","","","","","","","","","",""
"","","","","","html-keyboard-response","276","1150351","0.0-3.0-7.0-0.26","5bd49bcc25db7b0001794063","C3","batch3","pattern_show_trial_num","null","<p class=block-text>Trial 66 out of 78</p>","null","","","","","","","","","","","","","","","","","","","","","","","","","",""
"","","","","","image-keyboard-response","277","1151387","0.0-3.0-7.0-1.26","5bd49bcc25db7b0001794063","C3","batch3","pattern_response","1031","stim/yes_38_hor_b1_b.png","f","pattern_61","f","true","","","","1031","true","55","","","","","","","","","","","","","","","","",""
"","","","","","html-keyboard-response","278","1152700","0.0-3.0-7.0-0.27","5bd49bcc25db7b0001794063","C3","batch3","pattern_show_trial_num","null","<p class=block-text>Trial 67 out of 78</p>","null","","","","","","","","","","","","","","","","","","","","","","","","","",""
"","","","","","image-keyboard-response","279","1155853","0.0-3.0-7.0-1.27","5bd49bcc25db7b0001794063","C3","batch3","pattern_response","3149","stim/yes_48_dia_w1_w.png","j","pattern_69","f","false","","","","3149","false","55","","","","","","","","","","","","","","","","",""
"","","","","","html-keyboard-response","280","1157173","0.0-3.0-7.0-0.28","5bd49bcc25db7b0001794063","C3","batch3","pattern_show_trial_num","null","<p class=block-text>Trial 68 out of 78</p>","null","","","","","","","","","","","","","","","","","","","","","","","","","",""
"","","","","","image-keyboard-response","281","1160238","0.0-3.0-7.0-1.28","5bd49bcc25db7b0001794063","C3","batch3","pattern_response","3059.7000000476837","stim/no_42_1_w.png","j","pattern_22","j","true","","","","3059.7000000476837","true","56","","","","","","","","","","","","","","","","",""
"","","","","","html-keyboard-response","282","1161551","0.0-3.0-7.0-0.29","5bd49bcc25db7b0001794063","C3","batch3","pattern_show_trial_num","null","<p class=block-text>Trial 69 out of 78</p>","null","","","","","","","","","","","","","","","","","","","","","","","","","",""
"","","","","","image-keyboard-response","283","1164042","0.0-3.0-7.0-1.29","5bd49bcc25db7b0001794063","C3","batch3","pattern_response","2486.5","stim/no_26_1_w.png","j","pattern_10","j","true","","","","2486.5","true","57","","","","","","","","","","","","","","","","",""
"","","","","","html-keyboard-response","284","1165367","0.0-3.0-7.0-0.30","5bd49bcc25db7b0001794063","C3","batch3","pattern_show_trial_num","null","<p class=block-text>Trial 70 out of 78</p>","null","","","","","","","","","","","","","","","","","","","","","","","","","",""
"","","","","","image-keyboard-response","285","1166051","0.0-3.0-7.0-1.30","5bd49bcc25db7b0001794063","C3","batch3","pattern_response","680.8000000715256","stim/yes_14_hor_b1_w.png","f","pattern_43","f","true","","","","680.8000000715256","true","58","","","","","","","","","","","","","","","","",""
"","","","","","html-keyboard-response","286","1167387","0.0-3.0-7.0-0.31","5bd49bcc25db7b0001794063","C3","batch3","pattern_show_trial_num","null","<p class=block-text>Trial 71 out of 78</p>","null","","","","","","","","","","","","","","","","","","","","","","","","","",""
"","","","","","image-keyboard-response","287","1169087","0.0-3.0-7.0-1.31","5bd49bcc25db7b0001794063","C3","batch3","pattern_response","1696.3999999761581","stim/no_23_1.png","j","pattern_08","j","true","","","","1696.3999999761581","true","59","","","","","","","","","","","","","","","","",""
"","","","","","html-keyboard-response","288","1170406","0.0-3.0-7.0-0.32","5bd49bcc25db7b0001794063","C3","batch3","pattern_show_trial_num","null","<p class=block-text>Trial 72 out of 78</p>","null","","","","","","","","","","","","","","","","","","","","","","","","","",""
"","","","","","image-keyboard-response","289","1174194","0.0-3.0-7.0-1.32","5bd49bcc25db7b0001794063","C3","batch3","pattern_response","3783","stim/no_65_1_b.png","j","pattern_38","j","true","","","","3783","true","60","","","","","","","","","","","","","","","","",""
"","","","","","html-keyboard-response","290","1175513","0.0-3.0-7.0-0.33","5bd49bcc25db7b0001794063","C3","batch3","pattern_show_trial_num","null","<p class=block-text>Trial 73 out of 78</p>","null","","","","","","","","","","","","","","","","","","","","","","","","","",""
"","","","","","image-keyboard-response","291","1176794","0.0-3.0-7.0-1.33","5bd49bcc25db7b0001794063","C3","batch3","pattern_response","1276","stim/no_17_1_w.png","j","pattern_04","j","true","","","","1276","true","61","","","","","","","","","","","","","","","","",""
"","","","","","html-keyboard-response","292","1178123","0.0-3.0-7.0-0.34","5bd49bcc25db7b0001794063","C3","batch3","pattern_show_trial_num","null","<p class=block-text>Trial 74 out of 78</p>","null","","","","","","","","","","","","","","","","","","","","","","","","","",""
"","","","","","image-keyboard-response","293","1181183","0.0-3.0-7.0-1.34","5bd49bcc25db7b0001794063","C3","batch3","pattern_response","3056.5","stim/no_44_1.png","j","pattern_24","j","true","","","","3056.5","true","62","","","","","","","","","","","","","","","","",""
"","","","","","html-keyboard-response","294","1182505","0.0-3.0-7.0-0.35","5bd49bcc25db7b0001794063","C3","batch3","pattern_show_trial_num","null","<p class=block-text>Trial 75 out of 78</p>","null","","","","","","","","","","","","","","","","","","","","","","","","","",""
"","","","","","image-keyboard-response","295","1183183","0.0-3.0-7.0-1.35","5bd49bcc25db7b0001794063","C3","batch3","pattern_response","672.2999999523163","stim/yes_22_ver_w1.png","f","pattern_47","f","true","","","","672.2999999523163","true","63","","","","","","","","","","","","","","","","",""
"","","","","","html-keyboard-response","296","1184506","0.0-3.0-7.0-0.36","5bd49bcc25db7b0001794063","C3","batch3","pattern_show_trial_num","null","<p class=block-text>Trial 76 out of 78</p>","null","","","","","","","","","","","","","","","","","","","","","","","","","",""
"","","","","","image-keyboard-response","297","1185575","0.0-3.0-7.0-1.36","5bd49bcc25db7b0001794063","C3","batch3","pattern_response","1065.1999999284744","stim/no_20_1_w.png","j","pattern_06","j","true","","","","1065.1999999284744","true","64","","","","","","","","","","","","","","","","",""
"","","","","","html-keyboard-response","298","1186896","0.0-3.0-7.0-0.37","5bd49bcc25db7b0001794063","C3","batch3","pattern_show_trial_num","null","<p class=block-text>Trial 77 out of 78</p>","null","","","","","","","","","","","","","","","","","","","","","","","","","",""
"","","","","","image-keyboard-response","299","1188641","0.0-3.0-7.0-1.37","5bd49bcc25db7b0001794063","C3","batch3","pattern_response","1741.8999999761581","stim/yes_31_hor_b1.png","f","pattern_55","f","true","","","","1741.8999999761581","true","65","","","","","","","","","","","","","","","","",""
"","","","","","html-keyboard-response","300","1189956","0.0-3.0-7.0-0.38","5bd49bcc25db7b0001794063","C3","batch3","pattern_show_trial_num","null","<p class=block-text>Trial 78 out of 78</p>","null","","","","","","","","","","","","","","","","","","","","","","","","","",""
"","","","","","image-keyboard-response","301","1191691","0.0-3.0-7.0-1.38","5bd49bcc25db7b0001794063","C3","batch3","pattern_response","1730.1999999284744","stim/no_34_1_b.png","j","pattern_16","j","true","","","","1730.1999999284744","true","66","","","","","","","","","","","","","","","","",""
"","","","","","html-button-response","302","1268045","0.0-3.0-8.0","5bd49bcc25db7b0001794063","C3","batch3","","75837.10000002384","<p class = block-text>This concludes the 4-in-a-row detection game.Thank you for your responses!<br>
            You responded correctly on 85% of the trials.<br>
            When you are ready, press ""Continue"" button to continue </p>","0","","","","","","","","","","","","","","","","","","","","","","","","","",""
"true","","","","","fullscreen","303","1269947","0.0-4.0-0.0","5bd49bcc25db7b0001794063","C3","batch3","","","","","","","","","","","","","","","","","","","","","","","","","","","","","",""
"","","","","","instructions","304","1317245","0.0-4.0-1.0-0.0-0.0","5bd49bcc25db7b0001794063","C3","batch3","tol-instructions","47296.5","","","","","","","","[{""page_index"":0,""viewing_time"":11210.099999904633},{""page_index"":1,""viewing_time"":6742.100000023842},{""page_index"":2,""viewing_time"":7904.200000047684},{""page_index"":3,""viewing_time"":7485.699999928474},{""page_index"":4,""viewing_time"":7157.900000095367},{""page_index"":5,""viewing_time"":4982},{""page_index"":6,""viewing_time"":1814.2999999523163}]","","","","","","","","","","","","","","","","","","","",""
"","","","","","html-button-response","305","1318133","0.0-4.0-1.0-1.0-0.0","5bd49bcc25db7b0001794063","C3","batch3","tol_enter_quiz","887.1000000238419","<p class=block-text> Let's answer a few questions <br>","0","","","","","","","","","","","","","","","","","","","","","","","","","",""
"","","","","","html-button-response","306","1322101","0.0-4.0-1.0-1.0-1.0","5bd49bcc25db7b0001794063","C3","batch3","tol_quiz","3967.2000000476837","<p class = block-text>True or False: You can only move the ball on top of a peg. <br></p>","1","","","false","","","","","","","","","","","","","","","","","","","","","","",""
"","","","","","html-button-response","307","1323365","0.0-4.0-1.0-1.0-2.0","5bd49bcc25db7b0001794063","C3","batch3","tol_quiz_feedback","1262.7999999523163","<p class = block-text>Incorrect. Remember, you can only move the ball on top of a peg.</p>","0","","","","","","","","","","","","","","","","","","","","","","","","","",""
"","","","","","html-button-response","308","1325463","0.0-4.0-1.0-1.0-3.0","5bd49bcc25db7b0001794063","C3","batch3","tol_quiz","2097.0999999046326","<p class = block-text>True or False: You should try to match your board with the target board with fewest moves possible. <br></p>","0","","","true","","","","","","","","","","","","","","","","","","","","","","",""
"","","","","","html-button-response","309","1326075","0.0-4.0-1.0-1.0-4.0","5bd49bcc25db7b0001794063","C3","batch3","tol_quiz_feedback","611.0999999046326","<p class = block-text>Correct! </p>","0","","","","","","","","","","","","","","","","","","","","","","","","","",""
"","","","","","html-button-response","310","1326930","0.0-4.0-1.0-2.0-0.0","5bd49bcc25db7b0001794063","C3","batch3","","855.0999999046326","<p class = block-text>You made too many incorrect choices.</p><p class = block-text>You will now repeat the instructions and quiz</p>","0","","","","","","","","","","","","","","","","","","","","","","","","","",""
"","","","","","instructions","311","1332187","0.0-4.0-1.1-0.1-0.1","5bd49bcc25db7b0001794063","C3","batch3","tol-instructions","5255.699999928474","","","","","","","","[{""page_index"":0,""viewing_time"":997.1999999284744},{""page_index"":1,""viewing_time"":425.10000002384186},{""page_index"":2,""viewing_time"":400.89999997615814},{""page_index"":3,""viewing_time"":486.2000000476837},{""page_index"":4,""viewing_time"":542.1999999284744},{""page_index"":5,""viewing_time"":495.60000002384186},{""page_index"":6,""viewing_time"":1908.2000000476837}]","","","","","","","","","","","","","","","","","","","",""
"","","","","","html-button-response","312","1332862","0.0-4.0-1.1-1.1-0.1","5bd49bcc25db7b0001794063","C3","batch3","tol_enter_quiz","674.7999999523163","<p class=block-text> Let's answer a few questions <br>","0","","","","","","","","","","","","","","","","","","","","","","","","","",""
"","","","","","html-button-response","313","1334166","0.0-4.0-1.1-1.1-1.1","5bd49bcc25db7b0001794063","C3","batch3","tol_quiz","1302.9000000953674","<p class = block-text>True or False: You can only move the ball on top of a peg. <br></p>","0","","","true","","","","","","","","","","","","","","","","","","","","","","",""
"","","","","","html-button-response","314","1334796","0.0-4.0-1.1-1.1-2.1","5bd49bcc25db7b0001794063","C3","batch3","tol_quiz_feedback","629.2999999523163","<p class = block-text>Correct! You can only move the ball on top of a peg.</p>","0","","","","","","","","","","","","","","","","","","","","","","","","","",""
"","","","","","html-button-response","315","1336187","0.0-4.0-1.1-1.1-3.1","5bd49bcc25db7b0001794063","C3","batch3","tol_quiz","1389.1000000238419","<p class = block-text>True or False: You should try to match your board with the target board with fewest moves possible. <br></p>","0","","","true","","","","","","","","","","","","","","","","","","","","","","",""
"","","","","","html-button-response","316","1336667","0.0-4.0-1.1-1.1-4.1","5bd49bcc25db7b0001794063","C3","batch3","tol_quiz_feedback","479","<p class = block-text>Correct! </p>","0","","","","","","","","","","","","","","","","","","","","","","","","","",""
"","","","","","html-button-response","317","1337890","0.0-4.0-2.0","5bd49bcc25db7b0001794063","C3","batch3","","1222.6000000238419","<p class=block-text> Now that you've understood the game, let's practice a few easier examples before we start!<br> <br>","0","","","","","","","","","","","","","","","","","","","","","","","","","",""
"","","","","","single-stim-button","318","1340164","0.0-4.0-3.0-0.0","5bd49bcc25db7b0001794063","C3","batch3","tol_practice","2272","","","","","","","","","","","","","","tol_peg_2","2272","2272","0","[[1,2,0],[0,0],[0]]","1","[[1,2,0],[0,0],[3]]","practice","2272","","","","","",""
"","","","","","single-stim-button","319","1341253","0.0-4.0-3.0-1.0","5bd49bcc25db7b0001794063","C3","batch3","tol_practice","1089","","","","","","","","","","","","","","tol_peg_3","1089","1089","0","[[1,2,0],[0,0],[3]]","1","[[1,2,0],[0,0],[3]]","practice","1089","","","","","",""
"","","","","","poldrack-single-stim","320","1342261","0.0-4.0-4.0","5bd49bcc25db7b0001794063","C3","batch3","tol_feedback","-1","","","","","true","","","","","","","","","","1000","1000","500","","","","","","-1","none","true","","0",""
"","","","","","single-stim-button","321","1345685","0.0-4.0-5.0-0.0","5bd49bcc25db7b0001794063","C3","batch3","tol_practice","3422","","","","","","","","","","","","","","tol_peg_1","3422","3422","0","[[1,0,0],[3,0],[0]]","2","[[0,0,0],[3,1],[2]]","practice","3422","","","","","",""
"","","","","","single-stim-button","322","1346390","0.0-4.0-5.0-1.0","5bd49bcc25db7b0001794063","C3","batch3","tol_practice","704","","","","","","","","","","","","","","tol_peg_3","704","704","0","[[1,0,0],[3,0],[2]]","2","[[0,0,0],[3,1],[2]]","practice","704","","","","","",""
"","","","","","single-stim-button","323","1347083","0.0-4.0-5.1-0.1","5bd49bcc25db7b0001794063","C3","batch3","tol_practice","691","","","","","","","","","","","","","","tol_peg_1","691","691","0","[[0,0,0],[3,0],[2]]","3","[[0,0,0],[3,1],[2]]","practice","691","","","","","",""
"","","","","","single-stim-button","324","1347601","0.0-4.0-5.1-1.1","5bd49bcc25db7b0001794063","C3","batch3","tol_practice","517","","","","","","","","","","","","","","tol_peg_2","517","517","0","[[0,0,0],[3,1],[2]]","3","[[0,0,0],[3,1],[2]]","practice","517","","","","","",""
"","","","","","poldrack-single-stim","325","1348605","0.0-4.0-6.0","5bd49bcc25db7b0001794063","C3","batch3","tol_feedback","-1","","","","","true","","","","","","","","","","1000","1000","500","","","","","","-1","none","true","","0",""
"","","","","","single-stim-button","326","1350673","0.0-4.0-7.0-0.0","5bd49bcc25db7b0001794063","C3","batch3","tol_practice","2066","","","","","","","","","","","","","","tol_peg_2","2066","2066","0","[[1,2,0],[0,0],[0]]","4","[[1,0,0],[2,0],[3]]","practice","2066","","","","","",""
"","","","","","single-stim-button","327","1351703","0.0-4.0-7.0-1.0","5bd49bcc25db7b0001794063","C3","batch3","tol_practice","1030","","","","","","","","","","","","","","tol_peg_3","1030","1030","0","[[1,2,0],[0,0],[3]]","4","[[1,0,0],[2,0],[3]]","practice","1030","","","","","",""
"","","","","","single-stim-button","328","1352371","0.0-4.0-7.1-0.1","5bd49bcc25db7b0001794063","C3","batch3","tol_practice","666","","","","","","","","","","","","","","tol_peg_1","666","666","0","[[1,0,0],[0,0],[3]]","5","[[1,0,0],[2,0],[3]]","practice","666","","","","","",""
"","","","","","single-stim-button","329","1352951","0.0-4.0-7.1-1.1","5bd49bcc25db7b0001794063","C3","batch3","tol_practice","579","","","","","","","","","","","","","","tol_peg_2","579","579","0","[[1,0,0],[2,0],[3]]","5","[[1,0,0],[2,0],[3]]","practice","579","","","","","",""
"","","","","","poldrack-single-stim","330","1353954","0.0-4.0-8.0","5bd49bcc25db7b0001794063","C3","batch3","tol_feedback","-1","","","","","true","","","","","","","","","","1000","1000","500","","","","","","-1","none","true","","0",""
"","","","","","html-button-response","331","1356605","0.0-4.0-9.0","5bd49bcc25db7b0001794063","C3","batch3","tol_instruction","2648.9000000953674","<div class = centerbox><p class = center-block-text>Great job! You are done with practice trials<br>You are about to start official trials.<br> <br> Problem <strong>1</strong> out of 25 problems</p></div>","0","","","","","","","","","","","","","","","","","","","","","","","","","",""
"","","","","","single-stim-button","332","1361391","0.0-4.0-10.0-0.0","5bd49bcc25db7b0001794063","C3","batch3","tol_tohand","3775","","","","","","","","","","","","","","tol_peg_2","3775","3775","0","[[1,2,0],[0,0],[0]]","1","[[1,3,0],[2,0],[0]]","0","0","","","","","","3"
"","","","","","single-stim-button","333","1362215","0.0-4.0-10.0-1.0","5bd49bcc25db7b0001794063","C3","batch3","tol_toboard","823","","","","","","","","","","","","","","tol_peg_3","823","823","0","[[1,2,0],[0,0],[3]]","1","[[1,3,0],[2,0],[0]]","0","0","","","","","","3"
"","","","","","single-stim-button","334","1363378","0.0-4.0-10.1-0.1","5bd49bcc25db7b0001794063","C3","batch3","tol_tohand","1163","","","","","","","","","","","","","","tol_peg_1","1163","1163","0","[[1,0,0],[0,0],[3]]","2","[[1,3,0],[2,0],[0]]","0","0","","","","","","3"
"","","","","","single-stim-button","335","1364187","0.0-4.0-10.1-1.1","5bd49bcc25db7b0001794063","C3","batch3","tol_toboard","807","","","","","","","","","","","","","","tol_peg_2","807","807","0","[[1,0,0],[2,0],[3]]","2","[[1,3,0],[2,0],[0]]","0","0","","","","","","3"
"","","","","","single-stim-button","336","1364838","0.0-4.0-10.2-0.2","5bd49bcc25db7b0001794063","C3","batch3","tol_tohand","651","","","","","","","","","","","","","","tol_peg_3","651","651","0","[[1,0,0],[2,0],[0]]","3","[[1,3,0],[2,0],[0]]","0","0","","","","","","3"
"","","","","","single-stim-button","337","1365656","0.0-4.0-10.2-1.2","5bd49bcc25db7b0001794063","C3","batch3","tol_toboard","817","","","","","","","","","","","","","","tol_peg_1","817","817","0","[[1,3,0],[2,0],[0]]","3","[[1,3,0],[2,0],[0]]","0","0","","","","","","3"
"","","","","","poldrack-single-stim","338","1366669","0.0-4.0-11.0","5bd49bcc25db7b0001794063","C3","batch3","tol_feedback","-1","","","","","true","","","","","","","","","","1000","1000","500","","","","","","-1","none","true","3775","5589",""
"","","","","","html-button-response","339","1367755","0.0-4.0-12.0","5bd49bcc25db7b0001794063","C3","batch3","tol_trial_num","1083.3999999761581","<div class = centerbox><p class = center-block-text>problem <strong>2</strong> out of 25 problems</p></div>","0","","","","","","","","","","","","","","","","","","","","","","","","","",""
"","","","","","single-stim-button","340","1371014","0.0-4.0-13.0-0.0","5bd49bcc25db7b0001794063","C3","batch3","tol_tohand","3259","","","","","","","","","","","","","","tol_peg_1","3259","3259","0","[[1,0,0],[3,0],[0]]","1","[[2,1,3],[0,0],[0]]","1","0","","","","","","5"
"","","","","","single-stim-button","341","1372956","0.0-4.0-13.0-1.0","5bd49bcc25db7b0001794063","C3","batch3","tol_toboard","1941","","","","","","","","","","","","","","tol_peg_3","1941","1941","0","[[1,0,0],[3,0],[2]]","1","[[2,1,3],[0,0],[0]]","1","0","","","","","","5"
"","","","","","single-stim-button","342","1373576","0.0-4.0-13.1-0.1","5bd49bcc25db7b0001794063","C3","batch3","tol_tohand","619","","","","","","","","","","","","","","tol_peg_1","619","619","0","[[0,0,0],[3,0],[2]]","2","[[2,1,3],[0,0],[0]]","1","0","","","","","","5"
"","","","","","single-stim-button","343","1374166","0.0-4.0-13.1-1.1","5bd49bcc25db7b0001794063","C3","batch3","tol_toboard","589","","","","","","","","","","","","","","tol_peg_2","589","589","0","[[0,0,0],[3,1],[2]]","2","[[2,1,3],[0,0],[0]]","1","0","","","","","","5"
"","","","","","single-stim-button","344","1374958","0.0-4.0-13.2-0.2","5bd49bcc25db7b0001794063","C3","batch3","tol_tohand","791","","","","","","","","","","","","","","tol_peg_3","791","791","0","[[0,0,0],[3,1],[0]]","3","[[2,1,3],[0,0],[0]]","1","0","","","","","","5"
"","","","","","single-stim-button","345","1375642","0.0-4.0-13.2-1.2","5bd49bcc25db7b0001794063","C3","batch3","tol_toboard","683","","","","","","","","","","","","","","tol_peg_1","683","683","0","[[2,0,0],[3,1],[0]]","3","[[2,1,3],[0,0],[0]]","1","0","","","","","","5"
