"success","timeout","failed_images","failed_audio","failed_video","trial_type","trial_index","time_elapsed","internal_node_id","subject_id","study_id","session_id","view_history","rt","task","stimulus","response","correct","mouse_click","stim_duration","block_duration","timing_post_trial","current_position","tol_num_moves_made","tol_target","tol_problem_id","tol_rt","key_press","possible_responses","tol_correct","preplanning","tol_rt_per_trial","tol_min_moves","answer","item","fiar_detect_rt","fiar_detect_correct","total_correct_fiar_detect","post_trial_gap","choices","spm_correct","spm_rt"
"true","false","[]","[]","[]","preload","0","4750","0.0-0.0","5bda12b600c1c4000155cb87","D2","batch4","","","","","","","","","","","","","","","","","","","","","","","","","","","","","",""
"true","","","","","fullscreen","1","15353","0.0-1.0-0.0","5bda12b600c1c4000155cb87","D2","batch4","","","","","","","","","","","","","","","","","","","","","","","","","","","","","",""
"true","","","","","fullscreen","2","21099","0.0-2.0-0.0","5bda12b600c1c4000155cb87","D2","batch4","","","","","","","","","","","","","","","","","","","","","","","","","","","","","",""
"","","","","","instructions","3","65440","0.0-2.0-1.0-0.0-0.0","5bda12b600c1c4000155cb87","D2","batch4","[{""page_index"":0,""viewing_time"":9517.100000023842},{""page_index"":1,""viewing_time"":3098.399999976158},{""page_index"":2,""viewing_time"":2441.399999976158},{""page_index"":3,""viewing_time"":4872.200000047684},{""page_index"":4,""viewing_time"":4432.599999904633},{""page_index"":5,""viewing_time"":16781.400000095367},{""page_index"":6,""viewing_time"":3198.0999999046326}]","44341.39999997616","tol-instructions","","","","","","","","","","","","","","","","","","","","","","","","","","",""
"","","","","","html-button-response","4","66517","0.0-2.0-1.0-1.0-0.0","5bda12b600c1c4000155cb87","D2","batch4","","1075.6000000238419","tol_enter_quiz","<p class=block-text> Let's answer a few questions <br>","0","","","","","","","","","","","","","","","","","","","","","","","","",""
"","","","","","html-button-response","5","71231","0.0-2.0-1.0-1.0-1.0","5bda12b600c1c4000155cb87","D2","batch4","","4713.600000023842","tol_quiz","<p class = block-text>True or False: You can only move the ball on top of a peg. <br></p>","0","true","","","","","","","","","","","","","","","","","","","","","","","",""
"","","","","","html-button-response","6","72505","0.0-2.0-1.0-1.0-2.0","5bda12b600c1c4000155cb87","D2","batch4","","1273.1999999284744","tol_quiz_feedback","<p class = block-text>Correct! You can only move the ball on top of a peg.</p>","0","","","","","","","","","","","","","","","","","","","","","","","","",""
"","","","","","html-button-response","7","75682","0.0-2.0-1.0-1.0-3.0","5bda12b600c1c4000155cb87","D2","batch4","","3175.8000000715256","tol_quiz","<p class = block-text>True or False: You should try to match your board with the target board with fewest moves possible. <br></p>","0","true","","","","","","","","","","","","","","","","","","","","","","","",""
"","","","","","html-button-response","8","76358","0.0-2.0-1.0-1.0-4.0","5bda12b600c1c4000155cb87","D2","batch4","","675.4000000953674","tol_quiz_feedback","<p class = block-text>Correct! </p>","0","","","","","","","","","","","","","","","","","","","","","","","","",""
"","","","","","html-button-response","9","78126","0.0-2.0-2.0","5bda12b600c1c4000155cb87","D2","batch4","","1767.5","","<p class=block-text> Now that you've understood the game, let's practice a few easier examples before we start!<br> <br>","0","","","","","","","","","","","","","","","","","","","","","","","","",""
"","","","","","single-stim-button","10","81128","0.0-2.0-3.0-0.0","5bda12b600c1c4000155cb87","D2","batch4","","3000","tol_practice","","","","tol_peg_2","3000","3000","0","[[1,2,0],[0,0],[0]]","1","[[1,2,0],[0,0],[3]]","practice","3000","","","","","","","","","","","","","","",""
"","","","","","single-stim-button","11","81769","0.0-2.0-3.0-1.0","5bda12b600c1c4000155cb87","D2","batch4","","640","tol_practice","","","","tol_peg_3","640","640","0","[[1,2,0],[0,0],[3]]","1","[[1,2,0],[0,0],[3]]","practice","640","","","","","","","","","","","","","","",""
"","","","","","poldrack-single-stim","12","82770","0.0-2.0-4.0","5bda12b600c1c4000155cb87","D2","batch4","","-1","tol_feedback","","","true","","1000","1000","500","","","","","","-1","none","true","","0","","","","","","","","","",""
"","","","","","single-stim-button","13","84999","0.0-2.0-5.0-0.0","5bda12b600c1c4000155cb87","D2","batch4","","2228","tol_practice","","","","tol_peg_1","2228","2228","0","[[1,0,0],[3,0],[0]]","2","[[0,0,0],[3,1],[2]]","practice","2228","","","","","","","","","","","","","","",""
"","","","","","single-stim-button","14","85751","0.0-2.0-5.0-1.0","5bda12b600c1c4000155cb87","D2","batch4","","752","tol_practice","","","","tol_peg_3","752","752","0","[[1,0,0],[3,0],[2]]","2","[[0,0,0],[3,1],[2]]","practice","752","","","","","","","","","","","","","","",""
"","","","","","single-stim-button","15","86451","0.0-2.0-5.1-0.1","5bda12b600c1c4000155cb87","D2","batch4","","699","tol_practice","","","","tol_peg_1","699","699","0","[[0,0,0],[3,0],[2]]","3","[[0,0,0],[3,1],[2]]","practice","699","","","","","","","","","","","","","","",""
"","","","","","single-stim-button","16","86901","0.0-2.0-5.1-1.1","5bda12b600c1c4000155cb87","D2","batch4","","449","tol_practice","","","","tol_peg_2","449","449","0","[[0,0,0],[3,1],[2]]","3","[[0,0,0],[3,1],[2]]","practice","449","","","","","","","","","","","","","","",""
"","","","","","poldrack-single-stim","17","87902","0.0-2.0-6.0","5bda12b600c1c4000155cb87","D2","batch4","","-1","tol_feedback","","","true","","1000","1000","500","","","","","","-1","none","true","","0","","","","","","","","","",""
"","","","","","single-stim-button","18","89628","0.0-2.0-7.0-0.0","5bda12b600c1c4000155cb87","D2","batch4","","1726","tol_practice","","","","tol_peg_2","1726","1726","0","[[1,2,0],[0,0],[0]]","4","[[1,0,0],[2,0],[3]]","practice","1726","","","","","","","","","","","","","","",""
"","","","","","single-stim-button","19","90368","0.0-2.0-7.0-1.0","5bda12b600c1c4000155cb87","D2","batch4","","740","tol_practice","","","","tol_peg_3","740","740","0","[[1,2,0],[0,0],[3]]","4","[[1,0,0],[2,0],[3]]","practice","740","","","","","","","","","","","","","","",""
"","","","","","single-stim-button","20","90928","0.0-2.0-7.1-0.1","5bda12b600c1c4000155cb87","D2","batch4","","560","tol_practice","","","","tol_peg_1","560","560","0","[[1,0,0],[0,0],[3]]","5","[[1,0,0],[2,0],[3]]","practice","560","","","","","","","","","","","","","","",""
"","","","","","single-stim-button","21","91616","0.0-2.0-7.1-1.1","5bda12b600c1c4000155cb87","D2","batch4","","687","tol_practice","","","","tol_peg_2","687","687","0","[[1,0,0],[2,0],[3]]","5","[[1,0,0],[2,0],[3]]","practice","687","","","","","","","","","","","","","","",""
"","","","","","poldrack-single-stim","22","92628","0.0-2.0-8.0","5bda12b600c1c4000155cb87","D2","batch4","","-1","tol_feedback","","","true","","1000","1000","500","","","","","","-1","none","true","","0","","","","","","","","","",""
"","","","","","html-button-response","23","94482","0.0-2.0-9.0","5bda12b600c1c4000155cb87","D2","batch4","","1854.2000000476837","tol_instruction","<div class = centerbox><p class = center-block-text>Great job! You are done with practice trials<br>You are about to start official trials.<br> <br> Problem <strong>1</strong> out of 25 problems</p></div>","0","","","","","","","","","","","","","","","","","","","","","","","","",""
"","","","","","single-stim-button","24","97373","0.0-2.0-10.0-0.0","5bda12b600c1c4000155cb87","D2","batch4","","1890","tol_tohand","","","","tol_peg_1","1890","1890","0","[[1,0,0],[3,0],[0]]","1","[[1,3,0],[2,0],[0]]","0","0","","","","","","3","","","","","","","","",""
"","","","","","single-stim-button","25","98381","0.0-2.0-10.0-1.0","5bda12b600c1c4000155cb87","D2","batch4","","1008","tol_toboard","","","","tol_peg_3","1008","1008","0","[[1,0,0],[3,0],[2]]","1","[[1,3,0],[2,0],[0]]","0","0","","","","","","3","","","","","","","","",""
"","","","","","single-stim-button","26","99013","0.0-2.0-10.1-0.1","5bda12b600c1c4000155cb87","D2","batch4","","632","tol_tohand","","","","tol_peg_2","632","632","0","[[1,0,0],[0,0],[2]]","2","[[1,3,0],[2,0],[0]]","0","0","","","","","","3","","","","","","","","",""
"","","","","","single-stim-button","27","99525","0.0-2.0-10.1-1.1","5bda12b600c1c4000155cb87","D2","batch4","","512","tol_toboard","","","","tol_peg_1","512","512","0","[[1,3,0],[0,0],[2]]","2","[[1,3,0],[2,0],[0]]","0","0","","","","","","3","","","","","","","","",""
"","","","","","single-stim-button","28","100203","0.0-2.0-10.2-0.2","5bda12b600c1c4000155cb87","D2","batch4","","678","tol_tohand","","","","tol_peg_3","678","678","0","[[1,3,0],[0,0],[0]]","3","[[1,3,0],[2,0],[0]]","0","0","","","","","","3","","","","","","","","",""
"","","","","","single-stim-button","29","100750","0.0-2.0-10.2-1.2","5bda12b600c1c4000155cb87","D2","batch4","","547","tol_toboard","","","","tol_peg_2","547","547","0","[[1,3,0],[2,0],[0]]","3","[[1,3,0],[2,0],[0]]","0","0","","","","","","3","","","","","","","","",""
"","","","","","poldrack-single-stim","30","101758","0.0-2.0-11.0","5bda12b600c1c4000155cb87","D2","batch4","","-1","tol_feedback","","","true","","1000","1000","500","","","","","","-1","none","true","1890","3200","","","","","","","","","",""
"","","","","","html-button-response","31","102735","0.0-2.0-12.0","5bda12b600c1c4000155cb87","D2","batch4","","976.6999999284744","tol_trial_num","<div class = centerbox><p class = center-block-text>problem <strong>2</strong> out of 25 problems</p></div>","0","","","","","","","","","","","","","","","","","","","","","","","","",""
"","","","","","single-stim-button","32","107331","0.0-2.0-13.0-0.0","5bda12b600c1c4000155cb87","D2","batch4","","4594","tol_tohand","","","","tol_peg_1","4594","4594","0","[[1,0,0],[3,0],[0]]","1","[[2,1,3],[0,0],[0]]","1","0","","","","","","5","","","","","","","","",""
"","","","","","single-stim-button","33","108764","0.0-2.0-13.0-1.0","5bda12b600c1c4000155cb87","D2","batch4","","1433","tol_toboard","","","","tol_peg_3","1433","1433","0","[[1,0,0],[3,0],[2]]","1","[[2,1,3],[0,0],[0]]","1","0","","","","","","5","","","","","","","","",""
"","","","","","single-stim-button","34","109658","0.0-2.0-13.1-0.1","5bda12b600c1c4000155cb87","D2","batch4","","893","tol_tohand","","","","tol_peg_1","893","893","0","[[0,0,0],[3,0],[2]]","2","[[2,1,3],[0,0],[0]]","1","0","","","","","","5","","","","","","","","",""
"","","","","","single-stim-button","35","110520","0.0-2.0-13.1-1.1","5bda12b600c1c4000155cb87","D2","batch4","","862","tol_toboard","","","","tol_peg_2","862","862","0","[[0,0,0],[3,1],[2]]","2","[[2,1,3],[0,0],[0]]","1","0","","","","","","5","","","","","","","","",""
"","","","","","single-stim-button","36","111313","0.0-2.0-13.2-0.2","5bda12b600c1c4000155cb87","D2","batch4","","792","tol_tohand","","","","tol_peg_3","792","792","0","[[0,0,0],[3,1],[0]]","3","[[2,1,3],[0,0],[0]]","1","0","","","","","","5","","","","","","","","",""
"","","","","","single-stim-button","37","111850","0.0-2.0-13.2-1.2","5bda12b600c1c4000155cb87","D2","batch4","","537","tol_toboard","","","","tol_peg_1","537","537","0","[[2,0,0],[3,1],[0]]","3","[[2,1,3],[0,0],[0]]","1","0","","","","","","5","","","","","","","","",""
"","","","","","single-stim-button","38","112332","0.0-2.0-13.3-0.3","5bda12b600c1c4000155cb87","D2","batch4","","481","tol_tohand","","","","tol_peg_2","481","481","0","[[2,0,0],[3,0],[0]]","4","[[2,1,3],[0,0],[0]]","1","0","","","","","","5","","","","","","","","",""
"","","","","","single-stim-button","39","112770","0.0-2.0-13.3-1.3","5bda12b600c1c4000155cb87","D2","batch4","","437","tol_toboard","","","","tol_peg_1","437","437","0","[[2,1,0],[3,0],[0]]","4","[[2,1,3],[0,0],[0]]","1","0","","","","","","5","","","","","","","","",""
"","","","","","single-stim-button","40","113207","0.0-2.0-13.4-0.4","5bda12b600c1c4000155cb87","D2","batch4","","436","tol_tohand","","","","tol_peg_2","436","436","0","[[2,1,0],[0,0],[0]]","5","[[2,1,3],[0,0],[0]]","1","0","","","","","","5","","","","","","","","",""
"","","","","","single-stim-button","41","113559","0.0-2.0-13.4-1.4","5bda12b600c1c4000155cb87","D2","batch4","","351","tol_toboard","","","","tol_peg_1","351","351","0","[[2,1,3],[0,0],[0]]","5","[[2,1,3],[0,0],[0]]","1","0","","","","","","5","","","","","","","","",""
"","","","","","poldrack-single-stim","42","114560","0.0-2.0-14.0","5bda12b600c1c4000155cb87","D2","batch4","","-1","tol_feedback","","","true","","1000","1000","500","","","","","","-1","none","true","4594","7196","","","","","","","","","",""
"","","","","","html-button-response","43","115323","0.0-2.0-15.0","5bda12b600c1c4000155cb87","D2","batch4","","762.7000000476837","tol_trial_num","<div class = centerbox><p class = center-block-text>problem <strong>3</strong> out of 25 problems</p></div>","0","","","","","","","","","","","","","","","","","","","","","","","","",""
"","","","","","single-stim-button","44","118361","0.0-2.0-16.0-0.0","5bda12b600c1c4000155cb87","D2","batch4","","3038","tol_tohand","","","","tol_peg_1","3038","3038","0","[[2,0,0],[0,0],[1]]","1","[[1,2,0],[3,0],[0]]","2","0","","","","","","4","","","","","","","","",""
"","","","","","single-stim-button","45","119303","0.0-2.0-16.0-1.0","5bda12b600c1c4000155cb87","D2","batch4","","942","tol_toboard","","","","tol_peg_2","942","942","0","[[2,0,0],[3,0],[1]]","1","[[1,2,0],[3,0],[0]]","2","0","","","","","","4","","","","","","","","",""
"","","","","","single-stim-button","46","120117","0.0-2.0-16.1-0.1","5bda12b600c1c4000155cb87","D2","batch4","","814","tol_tohand","","","","tol_peg_1","814","814","0","[[0,0,0],[3,0],[1]]","2","[[1,2,0],[3,0],[0]]","2","0","","","","","","4","","","","","","","","",""
"","","","","","single-stim-button","47","120573","0.0-2.0-16.1-1.1","5bda12b600c1c4000155cb87","D2","batch4","","455","tol_toboard","","","","tol_peg_2","455","455","0","[[0,0,0],[3,2],[1]]","2","[[1,2,0],[3,0],[0]]","2","0","","","","","","4","","","","","","","","",""
"","","","","","single-stim-button","48","120969","0.0-2.0-16.2-0.2","5bda12b600c1c4000155cb87","D2","batch4","","395","tol_tohand","","","","tol_peg_3","395","395","0","[[0,0,0],[3,2],[0]]","3","[[1,2,0],[3,0],[0]]","2","0","","","","","","4","","","","","","","","",""
"","","","","","single-stim-button","49","121658","0.0-2.0-16.2-1.2","5bda12b600c1c4000155cb87","D2","batch4","","687","tol_toboard","","","","tol_peg_1","687","687","0","[[1,0,0],[3,2],[0]]","3","[[1,2,0],[3,0],[0]]","2","0","","","","","","4","","","","","","","","",""
"","","","","","single-stim-button","50","122152","0.0-2.0-16.3-0.3","5bda12b600c1c4000155cb87","D2","batch4","","493","tol_tohand","","","","tol_peg_2","493","493","0","[[1,0,0],[3,0],[0]]","4","[[1,2,0],[3,0],[0]]","2","0","","","","","","4","","","","","","","","",""
"","","","","","single-stim-button","51","122634","0.0-2.0-16.3-1.3","5bda12b600c1c4000155cb87","D2","batch4","","481","tol_toboard","","","","tol_peg_1","481","481","0","[[1,2,0],[3,0],[0]]","4","[[1,2,0],[3,0],[0]]","2","0","","","","","","4","","","","","","","","",""
"","","","","","poldrack-single-stim","52","123635","0.0-2.0-17.0","5bda12b600c1c4000155cb87","D2","batch4","","-1","tol_feedback","","","true","","1000","1000","500","","","","","","-1","none","true","3038","4740","","","","","","","","","",""
"","","","","","html-button-response","53","124604","0.0-2.0-18.0","5bda12b600c1c4000155cb87","D2","batch4","","968.2000000476837","tol_trial_num","<div class = centerbox><p class = center-block-text>problem <strong>4</strong> out of 25 problems</p></div>","0","","","","","","","","","","","","","","","","","","","","","","","","",""
"","","","","","single-stim-button","54","126732","0.0-2.0-19.0-0.0","5bda12b600c1c4000155cb87","D2","batch4","","2128","tol_tohand","","","","tol_peg_2","2128","2128","0","[[3,0,0],[2,0],[0]]","1","[[3,0,0],[1,0],[2]]","3","0","","","","","","3","","","","","","","","",""
"","","","","","single-stim-button","55","127122","0.0-2.0-19.0-1.0","5bda12b600c1c4000155cb87","D2","batch4","","389","tol_toboard","","","","tol_peg_1","389","389","0","[[3,1,0],[2,0],[0]]","1","[[3,0,0],[1,0],[2]]","3","0","","","","","","3","","","","","","","","",""
"","","","","","single-stim-button","56","127624","0.0-2.0-19.1-0.1","5bda12b600c1c4000155cb87","D2","batch4","","502","tol_tohand","","","","tol_peg_2","502","502","0","[[3,1,0],[0,0],[0]]","2","[[3,0,0],[1,0],[2]]","3","0","","","","","","3","","","","","","","","",""
"","","","","","single-stim-button","57","128252","0.0-2.0-19.1-1.1","5bda12b600c1c4000155cb87","D2","batch4","","626","tol_toboard","","","","tol_peg_3","626","626","0","[[3,1,0],[0,0],[2]]","2","[[3,0,0],[1,0],[2]]","3","0","","","","","","3","","","","","","","","",""
"","","","","","single-stim-button","58","128824","0.0-2.0-19.2-0.2","5bda12b600c1c4000155cb87","D2","batch4","","572","tol_tohand","","","","tol_peg_1","572","572","0","[[3,0,0],[0,0],[2]]","3","[[3,0,0],[1,0],[2]]","3","0","","","","","","3","","","","","","","","",""
"","","","","","single-stim-button","59","129417","0.0-2.0-19.2-1.2","5bda12b600c1c4000155cb87","D2","batch4","","591","tol_toboard","","","","tol_peg_2","591","591","0","[[3,0,0],[1,0],[2]]","3","[[3,0,0],[1,0],[2]]","3","0","","","","","","3","","","","","","","","",""
"","","","","","poldrack-single-stim","60","130417","0.0-2.0-20.0","5bda12b600c1c4000155cb87","D2","batch4","","-1","tol_feedback","","","true","","1000","1000","500","","","","","","-1","none","true","2128","3202","","","","","","","","","",""
"","","","","","html-button-response","61","131185","0.0-2.0-21.0","5bda12b600c1c4000155cb87","D2","batch4","","766.6999999284744","tol_trial_num","<div class = centerbox><p class = center-block-text>problem <strong>5</strong> out of 25 problems</p></div>","0","","","","","","","","","","","","","","","","","","","","","","","","",""
"","","","","","single-stim-button","62","148318","0.0-2.0-22.0-0.0","5bda12b600c1c4000155cb87","D2","batch4","","17133","tol_tohand","","","","tol_peg_3","17133","17133","0","[[1,0,0],[2,0],[0]]","1","[[0,0,0],[1,2],[3]]","4","0","","","","","","7","","","","","","","","",""
"","","","","","single-stim-button","63","149049","0.0-2.0-22.0-1.0","5bda12b600c1c4000155cb87","D2","batch4","","731","tol_toboard","","","","tol_peg_2","731","731","0","[[1,0,0],[2,3],[0]]","1","[[0,0,0],[1,2],[3]]","4","0","","","","","","7","","","","","","","","",""
"","","","","","single-stim-button","64","149677","0.0-2.0-22.1-0.1","5bda12b600c1c4000155cb87","D2","batch4","","627","tol_tohand","","","","tol_peg_1","627","627","0","[[0,0,0],[2,3],[0]]","2","[[0,0,0],[1,2],[3]]","4","0","","","","","","7","","","","","","","","",""
"","","","","","single-stim-button","65","150750","0.0-2.0-22.1-1.1","5bda12b600c1c4000155cb87","D2","batch4","","1071","tol_toboard","","","","tol_peg_3","1071","1071","0","[[0,0,0],[2,3],[1]]","2","[[0,0,0],[1,2],[3]]","4","0","","","","","","7","","","","","","","","",""
"","","","","","single-stim-button","66","152314","0.0-2.0-22.2-0.2","5bda12b600c1c4000155cb87","D2","batch4","","1563","tol_tohand","","","","tol_peg_2","1563","1563","0","[[0,0,0],[2,0],[1]]","3","[[0,0,0],[1,2],[3]]","4","0","","","","","","7","","","","","","","","",""
"","","","","","single-stim-button","67","153102","0.0-2.0-22.2-1.2","5bda12b600c1c4000155cb87","D2","batch4","","788","tol_toboard","","","","tol_peg_1","788","788","0","[[3,0,0],[2,0],[1]]","3","[[0,0,0],[1,2],[3]]","4","0","","","","","","7","","","","","","","","",""
"","","","","","single-stim-button","68","153719","0.0-2.0-22.3-0.3","5bda12b600c1c4000155cb87","D2","batch4","","616","tol_tohand","","","","tol_peg_2","616","616","0","[[3,0,0],[0,0],[1]]","4","[[0,0,0],[1,2],[3]]","4","0","","","","","","7","","","","","","","","",""
"","","","","","single-stim-button","69","154180","0.0-2.0-22.3-1.3","5bda12b600c1c4000155cb87","D2","batch4","","461","tol_toboard","","","","tol_peg_1","461","461","0","[[3,2,0],[0,0],[1]]","4","[[0,0,0],[1,2],[3]]","4","0","","","","","","7","","","","","","","","",""
"","","","","","single-stim-button","70","154884","0.0-2.0-22.4-0.4","5bda12b600c1c4000155cb87","D2","batch4","","704","tol_tohand","","","","tol_peg_3","704","704","0","[[3,2,0],[0,0],[0]]","5","[[0,0,0],[1,2],[3]]","4","0","","","","","","7","","","","","","","","",""
"","","","","","single-stim-button","71","155368","0.0-2.0-22.4-1.4","5bda12b600c1c4000155cb87","D2","batch4","","484","tol_toboard","","","","tol_peg_2","484","484","0","[[3,2,0],[1,0],[0]]","5","[[0,0,0],[1,2],[3]]","4","0","","","","","","7","","","","","","","","",""
"","","","","","single-stim-button","72","155862","0.0-2.0-22.5-0.5","5bda12b600c1c4000155cb87","D2","batch4","","494","tol_tohand","","","","tol_peg_1","494","494","0","[[3,0,0],[1,0],[0]]","6","[[0,0,0],[1,2],[3]]","4","0","","","","","","7","","","","","","","","",""
"","","","","","single-stim-button","73","156447","0.0-2.0-22.5-1.5","5bda12b600c1c4000155cb87","D2","batch4","","583","tol_toboard","","","","tol_peg_2","583","583","0","[[3,0,0],[1,2],[0]]","6","[[0,0,0],[1,2],[3]]","4","0","","","","","","7","","","","","","","","",""
"","","","","","single-stim-button","74","156918","0.0-2.0-22.6-0.6","5bda12b600c1c4000155cb87","D2","batch4","","471","tol_tohand","","","","tol_peg_1","471","471","0","[[0,0,0],[1,2],[0]]","7","[[0,0,0],[1,2],[3]]","4","0","","","","","","7","","","","","","","","",""
"","","","","","single-stim-button","75","157662","0.0-2.0-22.6-1.6","5bda12b600c1c4000155cb87","D2","batch4","","744","tol_toboard","","","","tol_peg_3","744","744","0","[[0,0,0],[1,2],[3]]","7","[[0,0,0],[1,2],[3]]","4","0","","","","","","7","","","","","","","","",""
"","","","","","poldrack-single-stim","76","158663","0.0-2.0-23.0","5bda12b600c1c4000155cb87","D2","batch4","","-1","tol_feedback","","","true","","1000","1000","500","","","","","","-1","none","true","17133","21608","","","","","","","","","",""
"","","","","","html-button-response","77","159626","0.0-2.0-24.0","5bda12b600c1c4000155cb87","D2","batch4","","962.6999999284744","tol_trial_num","<div class = centerbox><p class = center-block-text>problem <strong>6</strong> out of 25 problems</p></div>","0","","","","","","","","","","","","","","","","","","","","","","","","",""
"","","","","","single-stim-button","78","175143","0.0-2.0-25.0-0.0","5bda12b600c1c4000155cb87","D2","batch4","","15515","tol_tohand","","","","tol_peg_3","15515","15515","0","[[0,0,0],[1,2],[0]]","1","[[1,0,0],[2,3],[0]]","5","0","","","","","","6","","","","","","","","",""
"","","","","","single-stim-button","79","175835","0.0-2.0-25.0-1.0","5bda12b600c1c4000155cb87","D2","batch4","","691","tol_toboard","","","","tol_peg_1","691","691","0","[[3,0,0],[1,2],[0]]","1","[[1,0,0],[2,3],[0]]","5","0","","","","","","6","","","","","","","","",""
"","","","","","single-stim-button","80","176539","0.0-2.0-25.1-0.1","5bda12b600c1c4000155cb87","D2","batch4","","703","tol_tohand","","","","tol_peg_2","703","703","0","[[3,0,0],[1,0],[0]]","2","[[1,0,0],[2,3],[0]]","5","0","","","","","","6","","","","","","","","",""
"","","","","","single-stim-button","81","176967","0.0-2.0-25.1-1.1","5bda12b600c1c4000155cb87","D2","batch4","","427","tol_toboard","","","","tol_peg_1","427","427","0","[[3,2,0],[1,0],[0]]","2","[[1,0,0],[2,3],[0]]","5","0","","","","","","6","","","","","","","","",""
"","","","","","single-stim-button","82","177615","0.0-2.0-25.2-0.2","5bda12b600c1c4000155cb87","D2","batch4","","647","tol_tohand","","","","tol_peg_2","647","647","0","[[3,2,0],[0,0],[0]]","3","[[1,0,0],[2,3],[0]]","5","0","","","","","","6","","","","","","","","",""
"","","","","","single-stim-button","83","178109","0.0-2.0-25.2-1.2","5bda12b600c1c4000155cb87","D2","batch4","","494","tol_toboard","","","","tol_peg_3","494","494","0","[[3,2,0],[0,0],[1]]","3","[[1,0,0],[2,3],[0]]","5","0","","","","","","6","","","","","","","","",""
"","","","","","single-stim-button","84","178947","0.0-2.0-25.3-0.3","5bda12b600c1c4000155cb87","D2","batch4","","838","tol_tohand","","","","tol_peg_1","838","838","0","[[3,0,0],[0,0],[1]]","4","[[1,0,0],[2,3],[0]]","5","0","","","","","","6","","","","","","","","",""
"","","","","","single-stim-button","85","179415","0.0-2.0-25.3-1.3","5bda12b600c1c4000155cb87","D2","batch4","","468","tol_toboard","","","","tol_peg_2","468","468","0","[[3,0,0],[2,0],[1]]","4","[[1,0,0],[2,3],[0]]","5","0","","","","","","6","","","","","","","","",""
"","","","","","single-stim-button","86","179905","0.0-2.0-25.4-0.4","5bda12b600c1c4000155cb87","D2","batch4","","490","tol_tohand","","","","tol_peg_1","490","490","0","[[0,0,0],[2,0],[1]]","5","[[1,0,0],[2,3],[0]]","5","0","","","","","","6","","","","","","","","",""
"","","","","","single-stim-button","87","180265","0.0-2.0-25.4-1.4","5bda12b600c1c4000155cb87","D2","batch4","","360","tol_toboard","","","","tol_peg_2","360","360","0","[[0,0,0],[2,3],[1]]","5","[[1,0,0],[2,3],[0]]","5","0","","","","","","6","","","","","","","","",""
"","","","","","single-stim-button","88","180711","0.0-2.0-25.5-0.5","5bda12b600c1c4000155cb87","D2","batch4","","446","tol_tohand","","","","tol_peg_3","446","446","0","[[0,0,0],[2,3],[0]]","6","[[1,0,0],[2,3],[0]]","5","0","","","","","","6","","","","","","","","",""
"","","","","","single-stim-button","89","181467","0.0-2.0-25.5-1.5","5bda12b600c1c4000155cb87","D2","batch4","","756","tol_toboard","","","","tol_peg_1","756","756","0","[[1,0,0],[2,3],[0]]","6","[[1,0,0],[2,3],[0]]","5","0","","","","","","6","","","","","","","","",""
"","","","","","poldrack-single-stim","90","182468","0.0-2.0-26.0","5bda12b600c1c4000155cb87","D2","batch4","","-1","tol_feedback","","","true","","1000","1000","500","","","","","","-1","none","true","15515","18639","","","","","","","","","",""
"","","","","","html-button-response","91","183591","0.0-2.0-27.0","5bda12b600c1c4000155cb87","D2","batch4","","1122.7000000476837","tol_trial_num","<div class = centerbox><p class = center-block-text>problem <strong>7</strong> out of 25 problems</p></div>","0","","","","","","","","","","","","","","","","","","","","","","","","",""
"","","","","","single-stim-button","92","189688","0.0-2.0-28.0-0.0","5bda12b600c1c4000155cb87","D2","batch4","","6096","tol_tohand","","","","tol_peg_3","6096","6096","0","[[2,1,0],[0,0],[0]]","1","[[1,2,0],[3,0],[0]]","6","0","","","","","","5","","","","","","","","",""
"","","","","","single-stim-button","93","190238","0.0-2.0-28.0-1.0","5bda12b600c1c4000155cb87","D2","batch4","","549","tol_toboard","","","","tol_peg_2","549","549","0","[[2,1,0],[3,0],[0]]","1","[[1,2,0],[3,0],[0]]","6","0","","","","","","5","","","","","","","","",""
"","","","","","single-stim-button","94","190812","0.0-2.0-28.1-0.1","5bda12b600c1c4000155cb87","D2","batch4","","574","tol_tohand","","","","tol_peg_1","574","574","0","[[2,0,0],[3,0],[0]]","2","[[1,2,0],[3,0],[0]]","6","0","","","","","","5","","","","","","","","",""
"","","","","","single-stim-button","95","191429","0.0-2.0-28.1-1.1","5bda12b600c1c4000155cb87","D2","batch4","","615","tol_toboard","","","","tol_peg_2","615","615","0","[[2,0,0],[3,1],[0]]","2","[[1,2,0],[3,0],[0]]","6","0","","","","","","5","","","","","","","","",""
"","","","","","single-stim-button","96","192030","0.0-2.0-28.2-0.2","5bda12b600c1c4000155cb87","D2","batch4","","601","tol_tohand","","","","tol_peg_1","601","601","0","[[0,0,0],[3,1],[0]]","3","[[1,2,0],[3,0],[0]]","6","0","","","","","","5","","","","","","","","",""
"","","","","","single-stim-button","97","192553","0.0-2.0-28.2-1.2","5bda12b600c1c4000155cb87","D2","batch4","","521","tol_toboard","","","","tol_peg_3","521","521","0","[[0,0,0],[3,1],[2]]","3","[[1,2,0],[3,0],[0]]","6","0","","","","","","5","","","","","","","","",""
"","","","","","single-stim-button","98","193047","0.0-2.0-28.3-0.3","5bda12b600c1c4000155cb87","D2","batch4","","493","tol_tohand","","","","tol_peg_2","493","493","0","[[0,0,0],[3,0],[2]]","4","[[1,2,0],[3,0],[0]]","6","0","","","","","","5","","","","","","","","",""
"","","","","","single-stim-button","99","193613","0.0-2.0-28.3-1.3","5bda12b600c1c4000155cb87","D2","batch4","","566","tol_toboard","","","","tol_peg_1","566","566","0","[[1,0,0],[3,0],[2]]","4","[[1,2,0],[3,0],[0]]","6","0","","","","","","5","","","","","","","","",""
"","","","","","single-stim-button","100","194329","0.0-2.0-28.4-0.4","5bda12b600c1c4000155cb87","D2","batch4","","716","tol_tohand","","","","tol_peg_3","716","716","0","[[1,0,0],[3,0],[0]]","5","[[1,2,0],[3,0],[0]]","6","0","","","","","","5","","","","","","","","",""
"","","","","","single-stim-button","101","194827","0.0-2.0-28.4-1.4","5bda12b600c1c4000155cb87","D2","batch4","","498","tol_toboard","","","","tol_peg_1","498","498","0","[[1,2,0],[3,0],[0]]","5","[[1,2,0],[3,0],[0]]","6","0","","","","","","5","","","","","","","","",""
"","","","","","poldrack-single-stim","102","195828","0.0-2.0-29.0","5bda12b600c1c4000155cb87","D2","batch4","","-1","tol_feedback","","","true","","1000","1000","500","","","","","","-1","none","true","6096","8480","","","","","","","","","",""
"","","","","","html-button-response","103","196649","0.0-2.0-30.0","5bda12b600c1c4000155cb87","D2","batch4","","820.6999999284744","tol_trial_num","<div class = centerbox><p class = center-block-text>problem <strong>8</strong> out of 25 problems</p></div>","0","","","","","","","","","","","","","","","","","","","","","","","","",""
"","","","","","single-stim-button","104","199817","0.0-2.0-31.0-0.0","5bda12b600c1c4000155cb87","D2","batch4","","3168","tol_tohand","","","","tol_peg_3","3168","3168","0","[[0,0,0],[2,3],[0]]","1","[[1,2,0],[3,0],[0]]","7","0","","","","","","4","","","","","","","","",""
"","","","","","single-stim-button","105","200444","0.0-2.0-31.0-1.0","5bda12b600c1c4000155cb87","D2","batch4","","626","tol_toboard","","","","tol_peg_1","626","626","0","[[1,0,0],[2,3],[0]]","1","[[1,2,0],[3,0],[0]]","7","0","","","","","","4","","","","","","","","",""
"","","","","","single-stim-button","106","200987","0.0-2.0-31.1-0.1","5bda12b600c1c4000155cb87","D2","batch4","","543","tol_tohand","","","","tol_peg_2","543","543","0","[[1,0,0],[2,0],[0]]","2","[[1,2,0],[3,0],[0]]","7","0","","","","","","4","","","","","","","","",""
"","","","","","single-stim-button","107","201565","0.0-2.0-31.1-1.1","5bda12b600c1c4000155cb87","D2","batch4","","578","tol_toboard","","","","tol_peg_3","578","578","0","[[1,0,0],[2,0],[3]]","2","[[1,2,0],[3,0],[0]]","7","0","","","","","","4","","","","","","","","",""
"","","","","","single-stim-button","108","202071","0.0-2.0-31.2-0.2","5bda12b600c1c4000155cb87","D2","batch4","","505","tol_tohand","","","","tol_peg_2","505","505","0","[[1,0,0],[0,0],[3]]","3","[[1,2,0],[3,0],[0]]","7","0","","","","","","4","","","","","","","","",""
"","","","","","single-stim-button","109","202480","0.0-2.0-31.2-1.2","5bda12b600c1c4000155cb87","D2","batch4","","407","tol_toboard","","","","tol_peg_1","407","407","0","[[1,2,0],[0,0],[3]]","3","[[1,2,0],[3,0],[0]]","7","0","","","","","","4","","","","","","","","",""
"","","","","","single-stim-button","110","203012","0.0-2.0-31.3-0.3","5bda12b600c1c4000155cb87","D2","batch4","","531","tol_tohand","","","","tol_peg_3","531","531","0","[[1,2,0],[0,0],[0]]","4","[[1,2,0],[3,0],[0]]","7","0","","","","","","4","","","","","","","","",""
"","","","","","single-stim-button","111","203622","0.0-2.0-31.3-1.3","5bda12b600c1c4000155cb87","D2","batch4","","610","tol_toboard","","","","tol_peg_2","610","610","0","[[1,2,0],[3,0],[0]]","4","[[1,2,0],[3,0],[0]]","7","0","","","","","","4","","","","","","","","",""
"","","","","","poldrack-single-stim","112","204623","0.0-2.0-32.0","5bda12b600c1c4000155cb87","D2","batch4","","-1","tol_feedback","","","true","","1000","1000","500","","","","","","-1","none","true","3168","4747","","","","","","","","","",""
"","","","","","html-button-response","113","205300","0.0-2.0-33.0","5bda12b600c1c4000155cb87","D2","batch4","","675.7999999523163","tol_trial_num","<div class = centerbox><p class = center-block-text>problem <strong>9</strong> out of 25 problems</p></div>","0","","","","","","","","","","","","","","","","","","","","","","","","",""
"","","","","","single-stim-button","114","217198","0.0-2.0-34.0-0.0","5bda12b600c1c4000155cb87","D2","batch4","","11897","tol_tohand","","","","tol_peg_3","11897","11897","0","[[3,2,0],[0,0],[0]]","1","[[2,1,0],[3,0],[0]]","8","0","","","","","","6","","","","","","","","",""
"","","","","","single-stim-button","115","218139","0.0-2.0-34.0-1.0","5bda12b600c1c4000155cb87","D2","batch4","","941","tol_toboard","","","","tol_peg_2","941","941","0","[[3,2,0],[1,0],[0]]","1","[[2,1,0],[3,0],[0]]","8","0","","","","","","6","","","","","","","","",""
"","","","","","single-stim-button","116","218657","0.0-2.0-34.1-0.1","5bda12b600c1c4000155cb87","D2","batch4","","517","tol_tohand","","","","tol_peg_1","517","517","0","[[3,0,0],[1,0],[0]]","2","[[2,1,0],[3,0],[0]]","8","0","","","","","","6","","","","","","","","",""
"","","","","","single-stim-button","117","219226","0.0-2.0-34.1-1.1","5bda12b600c1c4000155cb87","D2","batch4","","567","tol_toboard","","","","tol_peg_2","567","567","0","[[3,0,0],[1,2],[0]]","2","[[2,1,0],[3,0],[0]]","8","0","","","","","","6","","","","","","","","",""
"","","","","","single-stim-button","118","219756","0.0-2.0-34.2-0.2","5bda12b600c1c4000155cb87","D2","batch4","","529","tol_tohand","","","","tol_peg_1","529","529","0","[[0,0,0],[1,2],[0]]","3","[[2,1,0],[3,0],[0]]","8","0","","","","","","6","","","","","","","","",""
"","","","","","single-stim-button","119","220512","0.0-2.0-34.2-1.2","5bda12b600c1c4000155cb87","D2","batch4","","755","tol_toboard","","","","tol_peg_3","755","755","0","[[0,0,0],[1,2],[3]]","3","[[2,1,0],[3,0],[0]]","8","0","","","","","","6","","","","","","","","",""
"","","","","","single-stim-button","120","221142","0.0-2.0-34.3-0.3","5bda12b600c1c4000155cb87","D2","batch4","","630","tol_tohand","","","","tol_peg_2","630","630","0","[[0,0,0],[1,0],[3]]","4","[[2,1,0],[3,0],[0]]","8","0","","","","","","6","","","","","","","","",""
"","","","","","single-stim-button","121","221718","0.0-2.0-34.3-1.3","5bda12b600c1c4000155cb87","D2","batch4","","575","tol_toboard","","","","tol_peg_1","575","575","0","[[2,0,0],[1,0],[3]]","4","[[2,1,0],[3,0],[0]]","8","0","","","","","","6","","","","","","","","",""
"","","","","","single-stim-button","122","222192","0.0-2.0-34.4-0.4","5bda12b600c1c4000155cb87","D2","batch4","","474","tol_tohand","","","","tol_peg_2","474","474","0","[[2,0,0],[0,0],[3]]","5","[[2,1,0],[3,0],[0]]","8","0","","","","","","6","","","","","","","","",""
"","","","","","single-stim-button","123","222584","0.0-2.0-34.4-1.4","5bda12b600c1c4000155cb87","D2","batch4","","392","tol_toboard","","","","tol_peg_1","392","392","0","[[2,1,0],[0,0],[3]]","5","[[2,1,0],[3,0],[0]]","8","0","","","","","","6","","","","","","","","",""
"","","","","","single-stim-button","124","223134","0.0-2.0-34.5-0.5","5bda12b600c1c4000155cb87","D2","batch4","","550","tol_tohand","","","","tol_peg_3","550","550","0","[[2,1,0],[0,0],[0]]","6","[[2,1,0],[3,0],[0]]","8","0","","","","","","6","","","","","","","","",""
"","","","","","single-stim-button","125","223612","0.0-2.0-34.5-1.5","5bda12b600c1c4000155cb87","D2","batch4","","478","tol_toboard","","","","tol_peg_2","478","478","0","[[2,1,0],[3,0],[0]]","6","[[2,1,0],[3,0],[0]]","8","0","","","","","","6","","","","","","","","",""
"","","","","","poldrack-single-stim","126","224613","0.0-2.0-35.0","5bda12b600c1c4000155cb87","D2","batch4","","-1","tol_feedback","","","true","","1000","1000","500","","","","","","-1","none","true","11897","14597","","","","","","","","","",""
"","","","","","html-button-response","127","225346","0.0-2.0-36.0","5bda12b600c1c4000155cb87","D2","batch4","","732.3999999761581","tol_trial_num","<div class = centerbox><p class = center-block-text>problem <strong>10</strong> out of 25 problems</p></div>","0","","","","","","","","","","","","","","","","","","","","","","","","",""
"","","","","","single-stim-button","128","227479","0.0-2.0-37.0-0.0","5bda12b600c1c4000155cb87","D2","batch4","","2133","tol_tohand","","","","tol_peg_2","2133","2133","0","[[3,0,0],[0,0],[2]]","1","[[3,0,0],[2,1],[0]]","9","0","","","","","","3","","","","","","","","",""
"","","","","","single-stim-button","129","227913","0.0-2.0-37.0-1.0","5bda12b600c1c4000155cb87","D2","batch4","","432","tol_toboard","","","","tol_peg_1","432","432","0","[[3,1,0],[0,0],[2]]","1","[[3,0,0],[2,1],[0]]","9","0","","","","","","3","","","","","","","","",""
"","","","","","single-stim-button","130","228575","0.0-2.0-37.1-0.1","5bda12b600c1c4000155cb87","D2","batch4","","662","tol_tohand","","","","tol_peg_3","662","662","0","[[3,1,0],[0,0],[0]]","2","[[3,0,0],[2,1],[0]]","9","0","","","","","","3","","","","","","","","",""
"","","","","","single-stim-button","131","229085","0.0-2.0-37.1-1.1","5bda12b600c1c4000155cb87","D2","batch4","","509","tol_toboard","","","","tol_peg_2","509","509","0","[[3,1,0],[2,0],[0]]","2","[[3,0,0],[2,1],[0]]","9","0","","","","","","3","","","","","","","","",""
"","","","","","single-stim-button","132","229555","0.0-2.0-37.2-0.2","5bda12b600c1c4000155cb87","D2","batch4","","469","tol_tohand","","","","tol_peg_1","469","469","0","[[3,0,0],[2,0],[0]]","3","[[3,0,0],[2,1],[0]]","9","0","","","","","","3","","","","","","","","",""
"","","","","","single-stim-button","133","230097","0.0-2.0-37.2-1.2","5bda12b600c1c4000155cb87","D2","batch4","","542","tol_toboard","","","","tol_peg_2","542","542","0","[[3,0,0],[2,1],[0]]","3","[[3,0,0],[2,1],[0]]","9","0","","","","","","3","","","","","","","","",""
"","","","","","poldrack-single-stim","134","231098","0.0-2.0-38.0","5bda12b600c1c4000155cb87","D2","batch4","","-1","tol_feedback","","","true","","1000","1000","500","","","","","","-1","none","true","2133","3264","","","","","","","","","",""
"","","","","","html-button-response","135","231821","0.0-2.0-39.0","5bda12b600c1c4000155cb87","D2","batch4","","722.5","tol_trial_num","<div class = centerbox><p class = center-block-text>problem <strong>11</strong> out of 25 problems</p></div>","0","","","","","","","","","","","","","","","","","","","","","","","","",""
"","","","","","single-stim-button","136","248575","0.0-2.0-40.0-0.0","5bda12b600c1c4000155cb87","D2","batch4","","16754","tol_tohand","","","","tol_peg_1","16754","16754","0","[[1,0,0],[3,0],[0]]","1","[[2,0,0],[1,3],[0]]","10","0","","","","","","6","","","","","","","","",""
"","","","","","single-stim-button","137","249101","0.0-2.0-40.0-1.0","5bda12b600c1c4000155cb87","D2","batch4","","526","tol_toboard","","","","tol_peg_2","526","526","0","[[1,0,0],[3,2],[0]]","1","[[2,0,0],[1,3],[0]]","10","0","","","","","","6","","","","","","","","",""
"","","","","","single-stim-button","138","249707","0.0-2.0-40.1-0.1","5bda12b600c1c4000155cb87","D2","batch4","","606","tol_tohand","","","","tol_peg_1","606","606","0","[[0,0,0],[3,2],[0]]","2","[[2,0,0],[1,3],[0]]","10","0","","","","","","6","","","","","","","","",""
"","","","","","single-stim-button","139","250463","0.0-2.0-40.1-1.1","5bda12b600c1c4000155cb87","D2","batch4","","756","tol_toboard","","","","tol_peg_3","756","756","0","[[0,0,0],[3,2],[1]]","2","[[2,0,0],[1,3],[0]]","10","0","","","","","","6","","","","","","","","",""
"","","","","","single-stim-button","140","251333","0.0-2.0-40.2-0.2","5bda12b600c1c4000155cb87","D2","batch4","","869","tol_tohand","","","","tol_peg_2","869","869","0","[[0,0,0],[3,0],[1]]","3","[[2,0,0],[1,3],[0]]","10","0","","","","","","6","","","","","","","","",""
"","","","","","single-stim-button","141","251828","0.0-2.0-40.2-1.2","5bda12b600c1c4000155cb87","D2","batch4","","493","tol_toboard","","","","tol_peg_1","493","493","0","[[2,0,0],[3,0],[1]]","3","[[2,0,0],[1,3],[0]]","10","0","","","","","","6","","","","","","","","",""
"","","","","","single-stim-button","142","252322","0.0-2.0-40.3-0.3","5bda12b600c1c4000155cb87","D2","batch4","","493","tol_tohand","","","","tol_peg_2","493","493","0","[[2,0,0],[0,0],[1]]","4","[[2,0,0],[1,3],[0]]","10","0","","","","","","6","","","","","","","","",""
"","","","","","single-stim-button","143","252734","0.0-2.0-40.3-1.3","5bda12b600c1c4000155cb87","D2","batch4","","411","tol_toboard","","","","tol_peg_1","411","411","0","[[2,3,0],[0,0],[1]]","4","[[2,0,0],[1,3],[0]]","10","0","","","","","","6","","","","","","","","",""
"","","","","","single-stim-button","144","253276","0.0-2.0-40.4-0.4","5bda12b600c1c4000155cb87","D2","batch4","","542","tol_tohand","","","","tol_peg_3","542","542","0","[[2,3,0],[0,0],[0]]","5","[[2,0,0],[1,3],[0]]","10","0","","","","","","6","","","","","","","","",""
"","","","","","single-stim-button","145","253666","0.0-2.0-40.4-1.4","5bda12b600c1c4000155cb87","D2","batch4","","389","tol_toboard","","","","tol_peg_2","389","389","0","[[2,3,0],[1,0],[0]]","5","[[2,0,0],[1,3],[0]]","10","0","","","","","","6","","","","","","","","",""
"","","","","","single-stim-button","146","254184","0.0-2.0-40.5-0.5","5bda12b600c1c4000155cb87","D2","batch4","","518","tol_tohand","","","","tol_peg_1","518","518","0","[[2,0,0],[1,0],[0]]","6","[[2,0,0],[1,3],[0]]","10","0","","","","","","6","","","","","","","","",""
"","","","","","single-stim-button","147","254608","0.0-2.0-40.5-1.5","5bda12b600c1c4000155cb87","D2","batch4","","424","tol_toboard","","","","tol_peg_2","424","424","0","[[2,0,0],[1,3],[0]]","6","[[2,0,0],[1,3],[0]]","10","0","","","","","","6","","","","","","","","",""
"","","","","","poldrack-single-stim","148","255609","0.0-2.0-41.0","5bda12b600c1c4000155cb87","D2","batch4","","-1","tol_feedback","","","true","","1000","1000","500","","","","","","-1","none","true","16754","19782","","","","","","","","","",""
"","","","","","html-button-response","149","256426","0.0-2.0-42.0","5bda12b600c1c4000155cb87","D2","batch4","","816.3999999761581","tol_trial_num","<div class = centerbox><p class = center-block-text>problem <strong>12</strong> out of 25 problems</p></div>","0","","","","","","","","","","","","","","","","","","","","","","","","",""
"","","","","","single-stim-button","150","259867","0.0-2.0-43.0-0.0","5bda12b600c1c4000155cb87","D2","batch4","","3441","tol_tohand","","","","tol_peg_1","3441","3441","0","[[1,0,0],[3,0],[0]]","1","[[2,3,0],[0,0],[1]]","11","0","","","","","","4","","","","","","","","",""
"","","","","","single-stim-button","151","260522","0.0-2.0-43.0-1.0","5bda12b600c1c4000155cb87","D2","batch4","","655","tol_toboard","","","","tol_peg_2","655","655","0","[[1,0,0],[3,2],[0]]","1","[[2,3,0],[0,0],[1]]","11","0","","","","","","4","","","","","","","","",""
"","","","","","single-stim-button","152","261257","0.0-2.0-43.1-0.1","5bda12b600c1c4000155cb87","D2","batch4","","735","tol_tohand","","","","tol_peg_1","735","735","0","[[0,0,0],[3,2],[0]]","2","[[2,3,0],[0,0],[1]]","11","0","","","","","","4","","","","","","","","",""
"","","","","","single-stim-button","153","261873","0.0-2.0-43.1-1.1","5bda12b600c1c4000155cb87","D2","batch4","","616","tol_toboard","","","","tol_peg_3","616","616","0","[[0,0,0],[3,2],[1]]","2","[[2,3,0],[0,0],[1]]","11","0","","","","","","4","","","","","","","","",""
"","","","","","single-stim-button","154","262582","0.0-2.0-43.2-0.2","5bda12b600c1c4000155cb87","D2","batch4","","708","tol_tohand","","","","tol_peg_2","708","708","0","[[0,0,0],[3,0],[1]]","3","[[2,3,0],[0,0],[1]]","11","0","","","","","","4","","","","","","","","",""
"","","","","","single-stim-button","155","263095","0.0-2.0-43.2-1.2","5bda12b600c1c4000155cb87","D2","batch4","","513","tol_toboard","","","","tol_peg_1","513","513","0","[[2,0,0],[3,0],[1]]","3","[[2,3,0],[0,0],[1]]","11","0","","","","","","4","","","","","","","","",""
"","","","","","single-stim-button","156","263507","0.0-2.0-43.3-0.3","5bda12b600c1c4000155cb87","D2","batch4","","411","tol_tohand","","","","tol_peg_2","411","411","0","[[2,0,0],[0,0],[1]]","4","[[2,3,0],[0,0],[1]]","11","0","","","","","","4","","","","","","","","",""
"","","","","","single-stim-button","157","263917","0.0-2.0-43.3-1.3","5bda12b600c1c4000155cb87","D2","batch4","","409","tol_toboard","","","","tol_peg_1","409","409","0","[[2,3,0],[0,0],[1]]","4","[[2,3,0],[0,0],[1]]","11","0","","","","","","4","","","","","","","","",""
"","","","","","poldrack-single-stim","158","264918","0.0-2.0-44.0","5bda12b600c1c4000155cb87","D2","batch4","","-1","tol_feedback","","","true","","1000","1000","500","","","","","","-1","none","true","3441","5295","","","","","","","","","",""
"","","","","","html-button-response","159","265710","0.0-2.0-45.0","5bda12b600c1c4000155cb87","D2","batch4","","790.6000000238419","tol_trial_num","<div class = centerbox><p class = center-block-text>problem <strong>13</strong> out of 25 problems</p></div>","0","","","","","","","","","","","","","","","","","","","","","","","","",""
"","","","","","single-stim-button","160","270278","0.0-2.0-46.0-0.0","5bda12b600c1c4000155cb87","D2","batch4","","4568","tol_tohand","","","","tol_peg_2","4568","4568","0","[[1,2,0],[0,0],[0]]","1","[[0,0,0],[2,3],[1]]","12","0","","","","","","4","","","","","","","","",""
"","","","","","single-stim-button","161","270801","0.0-2.0-46.0-1.0","5bda12b600c1c4000155cb87","D2","batch4","","522","tol_toboard","","","","tol_peg_3","522","522","0","[[1,2,0],[0,0],[3]]","1","[[0,0,0],[2,3],[1]]","12","0","","","","","","4","","","","","","","","",""
"","","","","","single-stim-button","162","271448","0.0-2.0-46.1-0.1","5bda12b600c1c4000155cb87","D2","batch4","","647","tol_tohand","","","","tol_peg_1","647","647","0","[[1,0,0],[0,0],[3]]","2","[[0,0,0],[2,3],[1]]","12","0","","","","","","4","","","","","","","","",""
"","","","","","single-stim-button","163","272190","0.0-2.0-46.1-1.1","5bda12b600c1c4000155cb87","D2","batch4","","742","tol_toboard","","","","tol_peg_2","742","742","0","[[1,0,0],[2,0],[3]]","2","[[0,0,0],[2,3],[1]]","12","0","","","","","","4","","","","","","","","",""
"","","","","","single-stim-button","164","272891","0.0-2.0-46.2-0.2","5bda12b600c1c4000155cb87","D2","batch4","","700","tol_tohand","","","","tol_peg_3","700","700","0","[[1,0,0],[2,0],[0]]","3","[[0,0,0],[2,3],[1]]","12","0","","","","","","4","","","","","","","","",""
"","","","","","single-stim-button","165","273295","0.0-2.0-46.2-1.2","5bda12b600c1c4000155cb87","D2","batch4","","403","tol_toboard","","","","tol_peg_2","403","403","0","[[1,0,0],[2,3],[0]]","3","[[0,0,0],[2,3],[1]]","12","0","","","","","","4","","","","","","","","",""
"","","","","","single-stim-button","166","273861","0.0-2.0-46.3-0.3","5bda12b600c1c4000155cb87","D2","batch4","","566","tol_tohand","","","","tol_peg_1","566","566","0","[[0,0,0],[2,3],[0]]","4","[[0,0,0],[2,3],[1]]","12","0","","","","","","4","","","","","","","","",""
"","","","","","single-stim-button","167","274359","0.0-2.0-46.3-1.3","5bda12b600c1c4000155cb87","D2","batch4","","497","tol_toboard","","","","tol_peg_3","497","497","0","[[0,0,0],[2,3],[1]]","4","[[0,0,0],[2,3],[1]]","12","0","","","","","","4","","","","","","","","",""
"","","","","","poldrack-single-stim","168","275363","0.0-2.0-47.0","5bda12b600c1c4000155cb87","D2","batch4","","-1","tol_feedback","","","true","","1000","1000","500","","","","","","-1","none","true","4568","6481","","","","","","","","","",""
"","","","","","html-button-response","169","281122","0.0-2.0-48.0","5bda12b600c1c4000155cb87","D2","batch4","","5757.700000047684","attention_check","<p class = block-text>How many balls are in your board<br></p>","1","true","","","","","","","","","","","","","","","","","","","","","","","",""
"","","","","","html-button-response","170","282945","0.0-2.0-49.0","5bda12b600c1c4000155cb87","D2","batch4","","1823.3000000715256","tol_trial_num","<div class = centerbox><p class = center-block-text>problem <strong>14</strong> out of 25 problems</p></div>","0","","","","","","","","","","","","","","","","","","","","","","","","",""
"","","","","","single-stim-button","171","289780","0.0-2.0-50.0-0.0","5bda12b600c1c4000155cb87","D2","batch4","","6834","tol_tohand","","","","tol_peg_1","6834","6834","0","[[2,0,0],[3,0],[0]]","1","[[1,2,0],[3,0],[0]]","13","0","","","","","","4","","","","","","","","",""
"","","","","","single-stim-button","172","294259","0.0-2.0-50.0-1.0","5bda12b600c1c4000155cb87","D2","batch4","","4478","tol_toboard","","","","tol_peg_2","4478","4478","0","[[2,0,0],[3,1],[0]]","1","[[1,2,0],[3,0],[0]]","13","0","","","","","","4","","","","","","","","",""
"","","","","","single-stim-button","173","295227","0.0-2.0-50.1-0.1","5bda12b600c1c4000155cb87","D2","batch4","","968","tol_tohand","","","","tol_peg_1","968","968","0","[[0,0,0],[3,1],[0]]","2","[[1,2,0],[3,0],[0]]","13","0","","","","","","4","","","","","","","","",""
"","","","","","single-stim-button","174","296429","0.0-2.0-50.1-1.1","5bda12b600c1c4000155cb87","D2","batch4","","1202","tol_toboard","","","","tol_peg_3","1202","1202","0","[[0,0,0],[3,1],[2]]","2","[[1,2,0],[3,0],[0]]","13","0","","","","","","4","","","","","","","","",""
"","","","","","single-stim-button","175","297559","0.0-2.0-50.2-0.2","5bda12b600c1c4000155cb87","D2","batch4","","1129","tol_tohand","","","","tol_peg_2","1129","1129","0","[[0,0,0],[3,0],[2]]","3","[[1,2,0],[3,0],[0]]","13","0","","","","","","4","","","","","","","","",""
"","","","","","single-stim-button","176","298621","0.0-2.0-50.2-1.2","5bda12b600c1c4000155cb87","D2","batch4","","1061","tol_toboard","","","","tol_peg_1","1061","1061","0","[[1,0,0],[3,0],[2]]","3","[[1,2,0],[3,0],[0]]","13","0","","","","","","4","","","","","","","","",""
"","","","","","single-stim-button","177","299422","0.0-2.0-50.3-0.3","5bda12b600c1c4000155cb87","D2","batch4","","800","tol_tohand","","","","tol_peg_3","800","800","0","[[1,0,0],[3,0],[0]]","4","[[1,2,0],[3,0],[0]]","13","0","","","","","","4","","","","","","","","",""
"","","","","","single-stim-button","178","300258","0.0-2.0-50.3-1.3","5bda12b600c1c4000155cb87","D2","batch4","","836","tol_toboard","","","","tol_peg_1","836","836","0","[[1,2,0],[3,0],[0]]","4","[[1,2,0],[3,0],[0]]","13","0","","","","","","4","","","","","","","","",""
"","","","","","poldrack-single-stim","179","301260","0.0-2.0-51.0","5bda12b600c1c4000155cb87","D2","batch4","","-1","tol_feedback","","","true","","1000","1000","500","","","","","","-1","none","true","6834","9731","","","","","","","","","",""
"","","","","","html-button-response","180","302586","0.0-2.0-52.0","5bda12b600c1c4000155cb87","D2","batch4","","1325.7999999523163","tol_trial_num","<div class = centerbox><p class = center-block-text>problem <strong>15</strong> out of 25 problems</p></div>","0","","","","","","","","","","","","","","","","","","","","","","","","",""
"","","","","","single-stim-button","181","305338","0.0-2.0-53.0-0.0","5bda12b600c1c4000155cb87","D2","batch4","","2752","tol_tohand","","","","tol_peg_1","2752","2752","0","[[1,0,0],[3,0],[0]]","1","[[2,0,0],[3,0],[1]]","14","0","","","","","","3","","","","","","","","",""
"","","","","","single-stim-button","182","306495","0.0-2.0-53.0-1.0","5bda12b600c1c4000155cb87","D2","batch4","","1155","tol_toboard","","","","tol_peg_2","1155","1155","0","[[1,0,0],[3,2],[0]]","1","[[2,0,0],[3,0],[1]]","14","0","","","","","","3","","","","","","","","",""
"","","","","","single-stim-button","183","307687","0.0-2.0-53.1-0.1","5bda12b600c1c4000155cb87","D2","batch4","","1192","tol_tohand","","","","tol_peg_1","1192","1192","0","[[0,0,0],[3,2],[0]]","2","[[2,0,0],[3,0],[1]]","14","0","","","","","","3","","","","","","","","",""
"","","","","","single-stim-button","184","308805","0.0-2.0-53.1-1.1","5bda12b600c1c4000155cb87","D2","batch4","","1118","tol_toboard","","","","tol_peg_3","1118","1118","0","[[0,0,0],[3,2],[1]]","2","[[2,0,0],[3,0],[1]]","14","0","","","","","","3","","","","","","","","",""
"","","","","","single-stim-button","185","309861","0.0-2.0-53.2-0.2","5bda12b600c1c4000155cb87","D2","batch4","","1056","tol_tohand","","","","tol_peg_2","1056","1056","0","[[0,0,0],[3,0],[1]]","3","[[2,0,0],[3,0],[1]]","14","0","","","","","","3","","","","","","","","",""
"","","","","","single-stim-button","186","310637","0.0-2.0-53.2-1.2","5bda12b600c1c4000155cb87","D2","batch4","","776","tol_toboard","","","","tol_peg_1","776","776","0","[[2,0,0],[3,0],[1]]","3","[[2,0,0],[3,0],[1]]","14","0","","","","","","3","","","","","","","","",""
"","","","","","poldrack-single-stim","187","311638","0.0-2.0-54.0","5bda12b600c1c4000155cb87","D2","batch4","","-1","tol_feedback","","","true","","1000","1000","500","","","","","","-1","none","true","2752","5000","","","","","","","","","",""
"","","","","","html-button-response","188","312710","0.0-2.0-55.0","5bda12b600c1c4000155cb87","D2","batch4","","1071","tol_trial_num","<div class = centerbox><p class = center-block-text>problem <strong>16</strong> out of 25 problems</p></div>","0","","","","","","","","","","","","","","","","","","","","","","","","",""
"","","","","","single-stim-button","189","320808","0.0-2.0-56.0-0.0","5bda12b600c1c4000155cb87","D2","batch4","","8098","tol_tohand","","","","tol_peg_2","8098","8098","0","[[0,0,0],[2,0],[1]]","1","[[2,3,0],[1,0],[0]]","15","0","","","","","","7","","","","","","","","",""
"","","","","","single-stim-button","190","321932","0.0-2.0-56.0-1.0","5bda12b600c1c4000155cb87","D2","batch4","","1123","tol_toboard","","","","tol_peg_1","1123","1123","0","[[3,0,0],[2,0],[1]]","1","[[2,3,0],[1,0],[0]]","15","0","","","","","","7","","","","","","","","",""
"","","","","","single-stim-button","191","322612","0.0-2.0-56.1-0.1","5bda12b600c1c4000155cb87","D2","batch4","","680","tol_tohand","","","","tol_peg_2","680","680","0","[[3,0,0],[0,0],[1]]","2","[[2,3,0],[1,0],[0]]","15","0","","","","","","7","","","","","","","","",""
"","","","","","single-stim-button","192","323330","0.0-2.0-56.1-1.1","5bda12b600c1c4000155cb87","D2","batch4","","717","tol_toboard","","","","tol_peg_1","717","717","0","[[3,2,0],[0,0],[1]]","2","[[2,3,0],[1,0],[0]]","15","0","","","","","","7","","","","","","","","",""
"","","","","","single-stim-button","193","324132","0.0-2.0-56.2-0.2","5bda12b600c1c4000155cb87","D2","batch4","","802","tol_tohand","","","","tol_peg_3","802","802","0","[[3,2,0],[0,0],[0]]","3","[[2,3,0],[1,0],[0]]","15","0","","","","","","7","","","","","","","","",""
"","","","","","single-stim-button","194","324787","0.0-2.0-56.2-1.2","5bda12b600c1c4000155cb87","D2","batch4","","655","tol_toboard","","","","tol_peg_2","655","655","0","[[3,2,0],[1,0],[0]]","3","[[2,3,0],[1,0],[0]]","15","0","","","","","","7","","","","","","","","",""
"","","","","","single-stim-button","195","327339","0.0-2.0-56.3-0.3","5bda12b600c1c4000155cb87","D2","batch4","","2552","tol_tohand","","","","tol_peg_1","2552","2552","0","[[3,0,0],[1,0],[0]]","4","[[2,3,0],[1,0],[0]]","15","0","","","","","","7","","","","","","","","",""
"","","","","","single-stim-button","196","327787","0.0-2.0-56.3-1.3","5bda12b600c1c4000155cb87","D2","batch4","","448","tol_toboard","","","","tol_peg_2","448","448","0","[[3,0,0],[1,2],[0]]","4","[[2,3,0],[1,0],[0]]","15","0","","","","","","7","","","","","","","","",""
"","","","","","single-stim-button","197","328361","0.0-2.0-56.4-0.4","5bda12b600c1c4000155cb87","D2","batch4","","573","tol_tohand","","","","tol_peg_1","573","573","0","[[0,0,0],[1,2],[0]]","5","[[2,3,0],[1,0],[0]]","15","0","","","","","","7","","","","","","","","",""
"","","","","","single-stim-button","198","329071","0.0-2.0-56.4-1.4","5bda12b600c1c4000155cb87","D2","batch4","","710","tol_toboard","","","","tol_peg_3","710","710","0","[[0,0,0],[1,2],[3]]","5","[[2,3,0],[1,0],[0]]","15","0","","","","","","7","","","","","","","","",""
"","","","","","single-stim-button","199","329593","0.0-2.0-56.5-0.5","5bda12b600c1c4000155cb87","D2","batch4","","522","tol_tohand","","","","tol_peg_2","522","522","0","[[0,0,0],[1,0],[3]]","6","[[2,3,0],[1,0],[0]]","15","0","","","","","","7","","","","","","","","",""
"","","","","","single-stim-button","200","330115","0.0-2.0-56.5-1.5","5bda12b600c1c4000155cb87","D2","batch4","","522","tol_toboard","","","","tol_peg_1","522","522","0","[[2,0,0],[1,0],[3]]","6","[[2,3,0],[1,0],[0]]","15","0","","","","","","7","","","","","","","","",""
"","","","","","single-stim-button","201","330687","0.0-2.0-56.6-0.6","5bda12b600c1c4000155cb87","D2","batch4","","572","tol_tohand","","","","tol_peg_3","572","572","0","[[2,0,0],[1,0],[0]]","7","[[2,3,0],[1,0],[0]]","15","0","","","","","","7","","","","","","","","",""
"","","","","","single-stim-button","202","331499","0.0-2.0-56.6-1.6","5bda12b600c1c4000155cb87","D2","batch4","","812","tol_toboard","","","","tol_peg_1","812","812","0","[[2,3,0],[1,0],[0]]","7","[[2,3,0],[1,0],[0]]","15","0","","","","","","7","","","","","","","","",""
"","","","","","poldrack-single-stim","203","332508","0.0-2.0-57.0","5bda12b600c1c4000155cb87","D2","batch4","","-1","tol_feedback","","","true","","1000","1000","500","","","","","","-1","none","true","8098","13799","","","","","","","","","",""
"","","","","","html-button-response","204","338324","0.0-2.0-58.0","5bda12b600c1c4000155cb87","D2","batch4","","5815.199999928474","tol_trial_num","<div class = centerbox><p class = center-block-text>problem <strong>17</strong> out of 25 problems</p></div>","0","","","","","","","","","","","","","","","","","","","","","","","","",""
"","","","","","single-stim-button","205","341089","0.0-2.0-59.0-0.0","5bda12b600c1c4000155cb87","D2","batch4","","2764","tol_tohand","","","","tol_peg_2","2764","2764","0","[[1,2,0],[0,0],[0]]","1","[[3,1,0],[2,0],[0]]","16","0","","","","","","5","","","","","","","","",""
"","","","","","single-stim-button","206","342209","0.0-2.0-59.0-1.0","5bda12b600c1c4000155cb87","D2","batch4","","1119","tol_toboard","","","","tol_peg_3","1119","1119","0","[[1,2,0],[0,0],[3]]","1","[[3,1,0],[2,0],[0]]","16","0","","","","","","5","","","","","","","","",""
"","","","","","single-stim-button","207","343387","0.0-2.0-59.1-0.1","5bda12b600c1c4000155cb87","D2","batch4","","1178","tol_tohand","","","","tol_peg_1","1178","1178","0","[[1,0,0],[0,0],[3]]","2","[[3,1,0],[2,0],[0]]","16","0","","","","","","5","","","","","","","","",""
"","","","","","single-stim-button","208","344323","0.0-2.0-59.1-1.1","5bda12b600c1c4000155cb87","D2","batch4","","936","tol_toboard","","","","tol_peg_2","936","936","0","[[1,0,0],[2,0],[3]]","2","[[3,1,0],[2,0],[0]]","16","0","","","","","","5","","","","","","","","",""
"","","","","","single-stim-button","209","344735","0.0-2.0-59.2-0.2","5bda12b600c1c4000155cb87","D2","batch4","","412","tol_tohand","","","","tol_peg_1","412","412","0","[[0,0,0],[2,0],[3]]","3","[[3,1,0],[2,0],[0]]","16","0","","","","","","5","","","","","","","","",""
"","","","","","single-stim-button","210","345083","0.0-2.0-59.2-1.2","5bda12b600c1c4000155cb87","D2","batch4","","348","tol_toboard","","","","tol_peg_2","348","348","0","[[0,0,0],[2,1],[3]]","3","[[3,1,0],[2,0],[0]]","16","0","","","","","","5","","","","","","","","",""
"","","","","","single-stim-button","211","345495","0.0-2.0-59.3-0.3","5bda12b600c1c4000155cb87","D2","batch4","","412","tol_tohand","","","","tol_peg_3","412","412","0","[[0,0,0],[2,1],[0]]","4","[[3,1,0],[2,0],[0]]","16","0","","","","","","5","","","","","","","","",""
"","","","","","single-stim-button","212","345961","0.0-2.0-59.3-1.3","5bda12b600c1c4000155cb87","D2","batch4","","466","tol_toboard","","","","tol_peg_1","466","466","0","[[3,0,0],[2,1],[0]]","4","[[3,1,0],[2,0],[0]]","16","0","","","","","","5","","","","","","","","",""
"","","","","","single-stim-button","213","346479","0.0-2.0-59.4-0.4","5bda12b600c1c4000155cb87","D2","batch4","","518","tol_tohand","","","","tol_peg_2","518","518","0","[[3,0,0],[2,0],[0]]","5","[[3,1,0],[2,0],[0]]","16","0","","","","","","5","","","","","","","","",""
"","","","","","single-stim-button","214","346831","0.0-2.0-59.4-1.4","5bda12b600c1c4000155cb87","D2","batch4","","352","tol_toboard","","","","tol_peg_1","352","352","0","[[3,1,0],[2,0],[0]]","5","[[3,1,0],[2,0],[0]]","16","0","","","","","","5","","","","","","","","",""
"","","","","","poldrack-single-stim","215","347832","0.0-2.0-60.0","5bda12b600c1c4000155cb87","D2","batch4","","-1","tol_feedback","","","true","","1000","1000","500","","","","","","-1","none","true","2764","5284","","","","","","","","","",""
"","","","","","html-button-response","216","348623","0.0-2.0-61.0","5bda12b600c1c4000155cb87","D2","batch4","","790.3999999761581","tol_trial_num","<div class = centerbox><p class = center-block-text>problem <strong>18</strong> out of 25 problems</p></div>","0","","","","","","","","","","","","","","","","","","","","","","","","",""
"","","","","","single-stim-button","217","354287","0.0-2.0-62.0-0.0","5bda12b600c1c4000155cb87","D2","batch4","","5663","tol_tohand","","","","tol_peg_2","5663","5663","0","[[1,2,0],[0,0],[0]]","1","[[3,0,0],[2,0],[1]]","17","0","","","","","","5","","","","","","","","",""
"","","","","","single-stim-button","218","354800","0.0-2.0-62.0-1.0","5bda12b600c1c4000155cb87","D2","batch4","","513","tol_toboard","","","","tol_peg_3","513","513","0","[[1,2,0],[0,0],[3]]","1","[[3,0,0],[2,0],[1]]","17","0","","","","","","5","","","","","","","","",""
"","","","","","single-stim-button","219","355320","0.0-2.0-62.1-0.1","5bda12b600c1c4000155cb87","D2","batch4","","519","tol_tohand","","","","tol_peg_1","519","519","0","[[1,0,0],[0,0],[3]]","2","[[3,0,0],[2,0],[1]]","17","0","","","","","","5","","","","","","","","",""
"","","","","","single-stim-button","220","355812","0.0-2.0-62.1-1.1","5bda12b600c1c4000155cb87","D2","batch4","","491","tol_toboard","","","","tol_peg_2","491","491","0","[[1,0,0],[2,0],[3]]","2","[[3,0,0],[2,0],[1]]","17","0","","","","","","5","","","","","","","","",""
"","","","","","single-stim-button","221","356348","0.0-2.0-62.2-0.2","5bda12b600c1c4000155cb87","D2","batch4","","535","tol_tohand","","","","tol_peg_1","535","535","0","[[0,0,0],[2,0],[3]]","3","[[3,0,0],[2,0],[1]]","17","0","","","","","","5","","","","","","","","",""
"","","","","","single-stim-button","222","356839","0.0-2.0-62.2-1.2","5bda12b600c1c4000155cb87","D2","batch4","","489","tol_toboard","","","","tol_peg_2","489","489","0","[[0,0,0],[2,1],[3]]","3","[[3,0,0],[2,0],[1]]","17","0","","","","","","5","","","","","","","","",""
"","","","","","single-stim-button","223","357234","0.0-2.0-62.3-0.3","5bda12b600c1c4000155cb87","D2","batch4","","395","tol_tohand","","","","tol_peg_3","395","395","0","[[0,0,0],[2,1],[0]]","4","[[3,0,0],[2,0],[1]]","17","0","","","","","","5","","","","","","","","",""
"","","","","","single-stim-button","224","357851","0.0-2.0-62.3-1.3","5bda12b600c1c4000155cb87","D2","batch4","","615","tol_toboard","","","","tol_peg_1","615","615","0","[[3,0,0],[2,1],[0]]","4","[[3,0,0],[2,0],[1]]","17","0","","","","","","5","","","","","","","","",""
"","","","","","single-stim-button","225","358369","0.0-2.0-62.4-0.4","5bda12b600c1c4000155cb87","D2","batch4","","518","tol_tohand","","","","tol_peg_2","518","518","0","[[3,0,0],[2,0],[0]]","5","[[3,0,0],[2,0],[1]]","17","0","","","","","","5","","","","","","","","",""
"","","","","","single-stim-button","226","359029","0.0-2.0-62.4-1.4","5bda12b600c1c4000155cb87","D2","batch4","","659","tol_toboard","","","","tol_peg_3","659","659","0","[[3,0,0],[2,0],[1]]","5","[[3,0,0],[2,0],[1]]","17","0","","","","","","5","","","","","","","","",""
"","","","","","poldrack-single-stim","227","360030","0.0-2.0-63.0","5bda12b600c1c4000155cb87","D2","batch4","","-1","tol_feedback","","","true","","1000","1000","500","","","","","","-1","none","true","5663","7630","","","","","","","","","",""
"","","","","","html-button-response","228","360861","0.0-2.0-64.0","5bda12b600c1c4000155cb87","D2","batch4","","830.6000000238419","tol_trial_num","<div class = centerbox><p class = center-block-text>problem <strong>19</strong> out of 25 problems</p></div>","0","","","","","","","","","","","","","","","","","","","","","","","","",""
"","","","","","single-stim-button","229","362343","0.0-2.0-65.0-0.0","5bda12b600c1c4000155cb87","D2","batch4","","1482","tol_tohand","","","","tol_peg_2","1482","1482","0","[[1,2,0],[0,0],[0]]","1","[[0,0,0],[1,2],[3]]","18","0","","","","","","7","","","","","","","","",""
"","","","","","single-stim-button","230","367694","0.0-2.0-65.0-1.0","5bda12b600c1c4000155cb87","D2","batch4","","5350","tol_toboard","","","","tol_peg_2","5350","5350","0","[[1,2,0],[3,0],[0]]","1","[[0,0,0],[1,2],[3]]","18","0","","","","","","7","","","","","","","","",""
"","","","","","single-stim-button","231","368462","0.0-2.0-65.1-0.1","5bda12b600c1c4000155cb87","D2","batch4","","768","tol_tohand","","","","tol_peg_1","768","768","0","[[1,0,0],[3,0],[0]]","2","[[0,0,0],[1,2],[3]]","18","0","","","","","","7","","","","","","","","",""
"","","","","","single-stim-button","232","375435","0.0-2.0-65.1-1.1","5bda12b600c1c4000155cb87","D2","batch4","","6972","tol_toboard","","","","tol_peg_3","6972","6972","0","[[1,0,0],[3,0],[2]]","2","[[0,0,0],[1,2],[3]]","18","0","","","","","","7","","","","","","","","",""
"","","","","","single-stim-button","233","377769","0.0-2.0-65.2-0.2","5bda12b600c1c4000155cb87","D2","batch4","","2334","tol_tohand","","","","tol_peg_1","2334","2334","0","[[0,0,0],[3,0],[2]]","3","[[0,0,0],[1,2],[3]]","18","0","","","","","","7","","","","","","","","",""
"","","","","","single-stim-button","234","378292","0.0-2.0-65.2-1.2","5bda12b600c1c4000155cb87","D2","batch4","","522","tol_toboard","","","","tol_peg_2","522","522","0","[[0,0,0],[3,1],[2]]","3","[[0,0,0],[1,2],[3]]","18","0","","","","","","7","","","","","","","","",""
"","","","","","single-stim-button","235","378675","0.0-2.0-65.3-0.3","5bda12b600c1c4000155cb87","D2","batch4","","382","tol_tohand","","","","tol_peg_3","382","382","0","[[0,0,0],[3,1],[0]]","4","[[0,0,0],[1,2],[3]]","18","0","","","","","","7","","","","","","","","",""
"","","","","","single-stim-button","236","379233","0.0-2.0-65.3-1.3","5bda12b600c1c4000155cb87","D2","batch4","","558","tol_toboard","","","","tol_peg_1","558","558","0","[[2,0,0],[3,1],[0]]","4","[[0,0,0],[1,2],[3]]","18","0","","","","","","7","","","","","","","","",""
"","","","","","single-stim-button","237","379728","0.0-2.0-65.4-0.4","5bda12b600c1c4000155cb87","D2","batch4","","494","tol_tohand","","","","tol_peg_2","494","494","0","[[2,0,0],[3,0],[0]]","5","[[0,0,0],[1,2],[3]]","18","0","","","","","","7","","","","","","","","",""
"","","","","","single-stim-button","238","380136","0.0-2.0-65.4-1.4","5bda12b600c1c4000155cb87","D2","batch4","","407","tol_toboard","","","","tol_peg_1","407","407","0","[[2,1,0],[3,0],[0]]","5","[[0,0,0],[1,2],[3]]","18","0","","","","","","7","","","","","","","","",""
"","","","","","single-stim-button","239","380534","0.0-2.0-65.5-0.5","5bda12b600c1c4000155cb87","D2","batch4","","397","tol_tohand","","","","tol_peg_2","397","397","0","[[2,1,0],[0,0],[0]]","6","[[0,0,0],[1,2],[3]]","18","0","","","","","","7","","","","","","","","",""
"","","","","","single-stim-button","240","381270","0.0-2.0-65.5-1.5","5bda12b600c1c4000155cb87","D2","batch4","","735","tol_toboard","","","","tol_peg_3","735","735","0","[[2,1,0],[0,0],[3]]","6","[[0,0,0],[1,2],[3]]","18","0","","","","","","7","","","","","","","","",""
"","","","","","single-stim-button","241","381800","0.0-2.0-65.6-0.6","5bda12b600c1c4000155cb87","D2","batch4","","530","tol_tohand","","","","tol_peg_1","530","530","0","[[2,0,0],[0,0],[3]]","7","[[0,0,0],[1,2],[3]]","18","0","","","","","","7","","","","","","","","",""
"","","","","","single-stim-button","242","382504","0.0-2.0-65.6-1.6","5bda12b600c1c4000155cb87","D2","batch4","","703","tol_toboard","","","","tol_peg_2","703","703","0","[[2,0,0],[1,0],[3]]","7","[[0,0,0],[1,2],[3]]","18","0","","","","","","7","","","","","","","","",""
"","","","","","single-stim-button","243","382924","0.0-2.0-65.7-0.7","5bda12b600c1c4000155cb87","D2","batch4","","420","tol_tohand","","","","tol_peg_1","420","420","0","[[0,0,0],[1,0],[3]]","8","[[0,0,0],[1,2],[3]]","18","0","","","","","","7","","","","","","","","",""
"","","","","","single-stim-button","244","383326","0.0-2.0-65.7-1.7","5bda12b600c1c4000155cb87","D2","batch4","","402","tol_toboard","","","","tol_peg_2","402","402","0","[[0,0,0],[1,2],[3]]","8","[[0,0,0],[1,2],[3]]","18","0","","","","","","7","","","","","","","","",""
"","","","","","poldrack-single-stim","245","384328","0.0-2.0-66.0","5bda12b600c1c4000155cb87","D2","batch4","","-1","tol_feedback","","","true","","1000","1000","500","","","","","","-1","none","true","1482","6807","","","","","","","","","",""
"","","","","","html-button-response","246","385852","0.0-2.0-67.0","5bda12b600c1c4000155cb87","D2","batch4","","1523.7000000476837","tol_trial_num","<div class = centerbox><p class = center-block-text>problem <strong>20</strong> out of 25 problems</p></div>","0","","","","","","","","","","","","","","","","","","","","","","","","",""
"","","","","","single-stim-button","247","390117","0.0-2.0-68.0-0.0","5bda12b600c1c4000155cb87","D2","batch4","","4264","tol_tohand","","","","tol_peg_1","4264","4264","0","[[1,0,0],[3,0],[0]]","1","[[2,1,0],[0,0],[3]]","19","0","","","","","","5","","","","","","","","",""
"","","","","","single-stim-button","248","390725","0.0-2.0-68.0-1.0","5bda12b600c1c4000155cb87","D2","batch4","","608","tol_toboard","","","","tol_peg_2","608","608","0","[[1,0,0],[3,2],[0]]","1","[[2,1,0],[0,0],[3]]","19","0","","","","","","5","","","","","","","","",""
"","","","","","single-stim-button","249","391299","0.0-2.0-68.1-0.1","5bda12b600c1c4000155cb87","D2","batch4","","574","tol_tohand","","","","tol_peg_1","574","574","0","[[0,0,0],[3,2],[0]]","2","[[2,1,0],[0,0],[3]]","19","0","","","","","","5","","","","","","","","",""
"","","","","","single-stim-button","250","391789","0.0-2.0-68.1-1.1","5bda12b600c1c4000155cb87","D2","batch4","","490","tol_toboard","","","","tol_peg_3","490","490","0","[[0,0,0],[3,2],[1]]","2","[[2,1,0],[0,0],[3]]","19","0","","","","","","5","","","","","","","","",""
"","","","","","single-stim-button","251","392299","0.0-2.0-68.2-0.2","5bda12b600c1c4000155cb87","D2","batch4","","510","tol_tohand","","","","tol_peg_2","510","510","0","[[0,0,0],[3,0],[1]]","3","[[2,1,0],[0,0],[3]]","19","0","","","","","","5","","","","","","","","",""
"","","","","","single-stim-button","252","392775","0.0-2.0-68.2-1.2","5bda12b600c1c4000155cb87","D2","batch4","","475","tol_toboard","","","","tol_peg_1","475","475","0","[[2,0,0],[3,0],[1]]","3","[[2,1,0],[0,0],[3]]","19","0","","","","","","5","","","","","","","","",""
"","","","","","single-stim-button","253","393747","0.0-2.0-68.3-0.3","5bda12b600c1c4000155cb87","D2","batch4","","972","tol_tohand","","","","tol_peg_3","972","972","0","[[2,0,0],[3,0],[0]]","4","[[2,1,0],[0,0],[3]]","19","0","","","","","","5","","","","","","","","",""
"","","","","","single-stim-button","254","394172","0.0-2.0-68.3-1.3","5bda12b600c1c4000155cb87","D2","batch4","","425","tol_toboard","","","","tol_peg_1","425","425","0","[[2,1,0],[3,0],[0]]","4","[[2,1,0],[0,0],[3]]","19","0","","","","","","5","","","","","","","","",""
"","","","","","single-stim-button","255","394609","0.0-2.0-68.4-0.4","5bda12b600c1c4000155cb87","D2","batch4","","437","tol_tohand","","","","tol_peg_2","437","437","0","[[2,1,0],[0,0],[0]]","5","[[2,1,0],[0,0],[3]]","19","0","","","","","","5","","","","","","","","",""
"","","","","","single-stim-button","256","395144","0.0-2.0-68.4-1.4","5bda12b600c1c4000155cb87","D2","batch4","","534","tol_toboard","","","","tol_peg_3","534","534","0","[[2,1,0],[0,0],[3]]","5","[[2,1,0],[0,0],[3]]","19","0","","","","","","5","","","","","","","","",""
"","","","","","poldrack-single-stim","257","396145","0.0-2.0-69.0","5bda12b600c1c4000155cb87","D2","batch4","","-1","tol_feedback","","","true","","1000","1000","500","","","","","","-1","none","true","4264","6757","","","","","","","","","",""
"","","","","","html-button-response","258","397031","0.0-2.0-70.0","5bda12b600c1c4000155cb87","D2","batch4","","885.5","tol_trial_num","<div class = centerbox><p class = center-block-text>problem <strong>21</strong> out of 25 problems</p></div>","0","","","","","","","","","","","","","","","","","","","","","","","","",""
"","","","","","single-stim-button","259","403204","0.0-2.0-71.0-0.0","5bda12b600c1c4000155cb87","D2","batch4","","6172","tol_tohand","","","","tol_peg_1","6172","6172","0","[[1,0,0],[3,0],[0]]","1","[[3,2,0],[0,0],[1]]","20","0","","","","","","6","","","","","","","","",""
"","","","","","single-stim-button","260","404040","0.0-2.0-71.0-1.0","5bda12b600c1c4000155cb87","D2","batch4","","834","tol_toboard","","","","tol_peg_3","834","834","0","[[1,0,0],[3,0],[2]]","1","[[3,2,0],[0,0],[1]]","20","0","","","","","","6","","","","","","","","",""
"","","","","","single-stim-button","261","405353","0.0-2.0-71.1-0.1","5bda12b600c1c4000155cb87","D2","batch4","","1313","tol_tohand","","","","tol_peg_1","1313","1313","0","[[0,0,0],[3,0],[2]]","2","[[3,2,0],[0,0],[1]]","20","0","","","","","","6","","","","","","","","",""
"","","","","","single-stim-button","262","409373","0.0-2.0-71.1-1.1","5bda12b600c1c4000155cb87","D2","batch4","","4020","tol_toboard","","","","tol_peg_2","4020","4020","0","[[0,0,0],[3,1],[2]]","2","[[3,2,0],[0,0],[1]]","20","0","","","","","","6","","","","","","","","",""
"","","","","","single-stim-button","263","411632","0.0-2.0-71.2-0.2","5bda12b600c1c4000155cb87","D2","batch4","","2258","tol_tohand","","","","tol_peg_3","2258","2258","0","[[0,0,0],[3,1],[0]]","3","[[3,2,0],[0,0],[1]]","20","0","","","","","","6","","","","","","","","",""
"","","","","","single-stim-button","264","412648","0.0-2.0-71.2-1.2","5bda12b600c1c4000155cb87","D2","batch4","","1015","tol_toboard","","","","tol_peg_1","1015","1015","0","[[2,0,0],[3,1],[0]]","3","[[3,2,0],[0,0],[1]]","20","0","","","","","","6","","","","","","","","",""
"","","","","","single-stim-button","265","413276","0.0-2.0-71.3-0.3","5bda12b600c1c4000155cb87","D2","batch4","","628","tol_tohand","","","","tol_peg_2","628","628","0","[[2,0,0],[3,0],[0]]","4","[[3,2,0],[0,0],[1]]","20","0","","","","","","6","","","","","","","","",""
"","","","","","single-stim-button","266","414112","0.0-2.0-71.3-1.3","5bda12b600c1c4000155cb87","D2","batch4","","836","tol_toboard","","","","tol_peg_3","836","836","0","[[2,0,0],[3,0],[1]]","4","[[3,2,0],[0,0],[1]]","20","0","","","","","","6","","","","","","","","",""
"","","","","","single-stim-button","267","417200","0.0-2.0-71.4-0.4","5bda12b600c1c4000155cb87","D2","batch4","","3088","tol_tohand","","","","tol_peg_3","3088","3088","0","[[2,0,0],[3,0],[0]]","5","[[3,2,0],[0,0],[1]]","20","0","","","","","","6","","","","","","","","",""
"","","","","","single-stim-button","268","417754","0.0-2.0-71.4-1.4","5bda12b600c1c4000155cb87","D2","batch4","","554","tol_toboard","","","","tol_peg_1","554","554","0","[[2,1,0],[3,0],[0]]","5","[[3,2,0],[0,0],[1]]","20","0","","","","","","6","","","","","","","","",""
"","","","","","single-stim-button","269","418170","0.0-2.0-71.5-0.5","5bda12b600c1c4000155cb87","D2","batch4","","416","tol_tohand","","","","tol_peg_2","416","416","0","[[2,1,0],[0,0],[0]]","6","[[3,2,0],[0,0],[1]]","20","0","","","","","","6","","","","","","","","",""
"","","","","","single-stim-button","270","418774","0.0-2.0-71.5-1.5","5bda12b600c1c4000155cb87","D2","batch4","","604","tol_toboard","","","","tol_peg_3","604","604","0","[[2,1,0],[0,0],[3]]","6","[[3,2,0],[0,0],[1]]","20","0","","","","","","6","","","","","","","","",""
"","","","","","single-stim-button","271","419328","0.0-2.0-71.6-0.6","5bda12b600c1c4000155cb87","D2","batch4","","553","tol_tohand","","","","tol_peg_1","553","553","0","[[2,0,0],[0,0],[3]]","7","[[3,2,0],[0,0],[1]]","20","0","","","","","","6","","","","","","","","",""
"","","","","","single-stim-button","272","419997","0.0-2.0-71.6-1.6","5bda12b600c1c4000155cb87","D2","batch4","","667","tol_toboard","","","","tol_peg_2","667","667","0","[[2,0,0],[1,0],[3]]","7","[[3,2,0],[0,0],[1]]","20","0","","","","","","6","","","","","","","","",""
"","","","","","single-stim-button","273","420477","0.0-2.0-71.7-0.7","5bda12b600c1c4000155cb87","D2","batch4","","480","tol_tohand","","","","tol_peg_1","480","480","0","[[0,0,0],[1,0],[3]]","8","[[3,2,0],[0,0],[1]]","20","0","","","","","","6","","","","","","","","",""
"","","","","","single-stim-button","274","421076","0.0-2.0-71.7-1.7","5bda12b600c1c4000155cb87","D2","batch4","","599","tol_toboard","","","","tol_peg_2","599","599","0","[[0,0,0],[1,2],[3]]","8","[[3,2,0],[0,0],[1]]","20","0","","","","","","6","","","","","","","","",""
"","","","","","single-stim-button","275","421517","0.0-2.0-71.8-0.8","5bda12b600c1c4000155cb87","D2","batch4","","439","tol_tohand","","","","tol_peg_3","439","439","0","[[0,0,0],[1,2],[0]]","9","[[3,2,0],[0,0],[1]]","20","0","","","","","","6","","","","","","","","",""
"","","","","","single-stim-button","276","422043","0.0-2.0-71.8-1.8","5bda12b600c1c4000155cb87","D2","batch4","","526","tol_toboard","","","","tol_peg_1","526","526","0","[[3,0,0],[1,2],[0]]","9","[[3,2,0],[0,0],[1]]","20","0","","","","","","6","","","","","","","","",""
"","","","","","single-stim-button","277","422497","0.0-2.0-71.9-0.9","5bda12b600c1c4000155cb87","D2","batch4","","454","tol_tohand","","","","tol_peg_2","454","454","0","[[3,0,0],[1,0],[0]]","10","[[3,2,0],[0,0],[1]]","20","0","","","","","","6","","","","","","","","",""
"","","","","","single-stim-button","278","422925","0.0-2.0-71.9-1.9","5bda12b600c1c4000155cb87","D2","batch4","","427","tol_toboard","","","","tol_peg_1","427","427","0","[[3,2,0],[1,0],[0]]","10","[[3,2,0],[0,0],[1]]","20","0","","","","","","6","","","","","","","","",""
"","","","","","single-stim-button","279","423319","0.0-2.0-71.10-0.10","5bda12b600c1c4000155cb87","D2","batch4","","394","tol_tohand","","","","tol_peg_2","394","394","0","[[3,2,0],[0,0],[0]]","11","[[3,2,0],[0,0],[1]]","20","0","","","","","","6","","","","","","","","",""
"","","","","","single-stim-button","280","423849","0.0-2.0-71.10-1.10","5bda12b600c1c4000155cb87","D2","batch4","","530","tol_toboard","","","","tol_peg_3","530","530","0","[[3,2,0],[0,0],[1]]","11","[[3,2,0],[0,0],[1]]","20","0","","","","","","6","","","","","","","","",""
"","","","","","poldrack-single-stim","281","424850","0.0-2.0-72.0","5bda12b600c1c4000155cb87","D2","batch4","","-1","tol_feedback","","","true","","1000","1000","500","","","","","","-1","none","true","6172","16195","","","","","","","","","",""
"","","","","","html-button-response","282","425585","0.0-2.0-73.0","5bda12b600c1c4000155cb87","D2","batch4","","735","tol_trial_num","<div class = centerbox><p class = center-block-text>problem <strong>22</strong> out of 25 problems</p></div>","0","","","","","","","","","","","","","","","","","","","","","","","","",""
"","","","","","single-stim-button","283","430906","0.0-2.0-74.0-0.0","5bda12b600c1c4000155cb87","D2","batch4","","5321","tol_tohand","","","","tol_peg_1","5321","5321","0","[[0,0,0],[2,3],[0]]","1","[[0,0,0],[1,2],[3]]","21","0","","","","","","6","","","","","","","","",""
"","","","","","single-stim-button","284","432840","0.0-2.0-74.0-1.0","5bda12b600c1c4000155cb87","D2","batch4","","1934","tol_toboard","","","","tol_peg_3","1934","1934","0","[[0,0,0],[2,3],[1]]","1","[[0,0,0],[1,2],[3]]","21","0","","","","","","6","","","","","","","","",""
"","","","","","single-stim-button","285","433620","0.0-2.0-74.1-0.1","5bda12b600c1c4000155cb87","D2","batch4","","780","tol_tohand","","","","tol_peg_2","780","780","0","[[0,0,0],[2,0],[1]]","2","[[0,0,0],[1,2],[3]]","21","0","","","","","","6","","","","","","","","",""
"","","","","","single-stim-button","286","434028","0.0-2.0-74.1-1.1","5bda12b600c1c4000155cb87","D2","batch4","","407","tol_toboard","","","","tol_peg_1","407","407","0","[[3,0,0],[2,0],[1]]","2","[[0,0,0],[1,2],[3]]","21","0","","","","","","6","","","","","","","","",""
"","","","","","single-stim-button","287","434570","0.0-2.0-74.2-0.2","5bda12b600c1c4000155cb87","D2","batch4","","542","tol_tohand","","","","tol_peg_2","542","542","0","[[3,0,0],[0,0],[1]]","3","[[0,0,0],[1,2],[3]]","21","0","","","","","","6","","","","","","","","",""
"","","","","","single-stim-button","288","434902","0.0-2.0-74.2-1.2","5bda12b600c1c4000155cb87","D2","batch4","","331","tol_toboard","","","","tol_peg_1","331","331","0","[[3,2,0],[0,0],[1]]","3","[[0,0,0],[1,2],[3]]","21","0","","","","","","6","","","","","","","","",""
"","","","","","single-stim-button","289","435344","0.0-2.0-74.3-0.3","5bda12b600c1c4000155cb87","D2","batch4","","441","tol_tohand","","","","tol_peg_3","441","441","0","[[3,2,0],[0,0],[0]]","4","[[0,0,0],[1,2],[3]]","21","0","","","","","","6","","","","","","","","",""
"","","","","","single-stim-button","290","435796","0.0-2.0-74.3-1.3","5bda12b600c1c4000155cb87","D2","batch4","","451","tol_toboard","","","","tol_peg_2","451","451","0","[[3,2,0],[1,0],[0]]","4","[[0,0,0],[1,2],[3]]","21","0","","","","","","6","","","","","","","","",""
"","","","","","single-stim-button","291","436468","0.0-2.0-74.4-0.4","5bda12b600c1c4000155cb87","D2","batch4","","671","tol_tohand","","","","tol_peg_1","671","671","0","[[3,0,0],[1,0],[0]]","5","[[0,0,0],[1,2],[3]]","21","0","","","","","","6","","","","","","","","",""
"","","","","","single-stim-button","292","436998","0.0-2.0-74.4-1.4","5bda12b600c1c4000155cb87","D2","batch4","","529","tol_toboard","","","","tol_peg_2","529","529","0","[[3,0,0],[1,2],[0]]","5","[[0,0,0],[1,2],[3]]","21","0","","","","","","6","","","","","","","","",""
"","","","","","single-stim-button","293","437492","0.0-2.0-74.5-0.5","5bda12b600c1c4000155cb87","D2","batch4","","493","tol_tohand","","","","tol_peg_1","493","493","0","[[0,0,0],[1,2],[0]]","6","[[0,0,0],[1,2],[3]]","21","0","","","","","","6","","","","","","","","",""
"","","","","","single-stim-button","294","438093","0.0-2.0-74.5-1.5","5bda12b600c1c4000155cb87","D2","batch4","","599","tol_toboard","","","","tol_peg_3","599","599","0","[[0,0,0],[1,2],[3]]","6","[[0,0,0],[1,2],[3]]","21","0","","","","","","6","","","","","","","","",""
"","","","","","poldrack-single-stim","295","439094","0.0-2.0-75.0","5bda12b600c1c4000155cb87","D2","batch4","","-1","tol_feedback","","","true","","1000","1000","500","","","","","","-1","none","true","5321","8248","","","","","","","","","",""
"","","","","","html-button-response","296","439776","0.0-2.0-76.0","5bda12b600c1c4000155cb87","D2","batch4","","682.3999999761581","tol_trial_num","<div class = centerbox><p class = center-block-text>problem <strong>23</strong> out of 25 problems</p></div>","0","","","","","","","","","","","","","","","","","","","","","","","","",""
"","","","","","single-stim-button","297","442656","0.0-2.0-77.0-0.0","5bda12b600c1c4000155cb87","D2","batch4","","2880","tol_tohand","","","","tol_peg_1","2880","2880","0","[[1,0,0],[3,0],[0]]","1","[[1,3,2],[0,0],[0]]","22","0","","","","","","3","","","","","","","","",""
"","","","","","single-stim-button","298","443341","0.0-2.0-77.0-1.0","5bda12b600c1c4000155cb87","D2","batch4","","684","tol_toboard","","","","tol_peg_3","684","684","0","[[1,0,0],[3,0],[2]]","1","[[1,3,2],[0,0],[0]]","22","0","","","","","","3","","","","","","","","",""
"","","","","","single-stim-button","299","443795","0.0-2.0-77.1-0.1","5bda12b600c1c4000155cb87","D2","batch4","","454","tol_tohand","","","","tol_peg_2","454","454","0","[[1,0,0],[0,0],[2]]","2","[[1,3,2],[0,0],[0]]","22","0","","","","","","3","","","","","","","","",""
"","","","","","single-stim-button","300","444135","0.0-2.0-77.1-1.1","5bda12b600c1c4000155cb87","D2","batch4","","339","tol_toboard","","","","tol_peg_1","339","339","0","[[1,3,0],[0,0],[2]]","2","[[1,3,2],[0,0],[0]]","22","0","","","","","","3","","","","","","","","",""
"","","","","","single-stim-button","301","444685","0.0-2.0-77.2-0.2","5bda12b600c1c4000155cb87","D2","batch4","","549","tol_tohand","","","","tol_peg_3","549","549","0","[[1,3,0],[0,0],[0]]","3","[[1,3,2],[0,0],[0]]","22","0","","","","","","3","","","","","","","","",""
"","","","","","single-stim-button","302","445191","0.0-2.0-77.2-1.2","5bda12b600c1c4000155cb87","D2","batch4","","506","tol_toboard","","","","tol_peg_1","506","506","0","[[1,3,2],[0,0],[0]]","3","[[1,3,2],[0,0],[0]]","22","0","","","","","","3","","","","","","","","",""
"","","","","","poldrack-single-stim","303","446193","0.0-2.0-78.0","5bda12b600c1c4000155cb87","D2","batch4","","-1","tol_feedback","","","true","","1000","1000","500","","","","","","-1","none","true","2880","3883","","","","","","","","","",""
"","","","","","html-button-response","304","446979","0.0-2.0-79.0","5bda12b600c1c4000155cb87","D2","batch4","","785.5","tol_trial_num","<div class = centerbox><p class = center-block-text>problem <strong>24</strong> out of 25 problems</p></div>","0","","","","","","","","","","","","","","","","","","","","","","","","",""
"","","","","","single-stim-button","305","458887","0.0-2.0-80.0-0.0","5bda12b600c1c4000155cb87","D2","batch4","","11908","tol_tohand","","","","tol_peg_3","11908","11908","0","[[0,0,0],[2,3],[0]]","1","[[2,0,0],[3,0],[1]]","23","0","","","","","","7","","","","","","","","",""
"","","","","","single-stim-button","306","459455","0.0-2.0-80.0-1.0","5bda12b600c1c4000155cb87","D2","batch4","","566","tol_toboard","","","","tol_peg_1","566","566","0","[[1,0,0],[2,3],[0]]","1","[[2,0,0],[3,0],[1]]","23","0","","","","","","7","","","","","","","","",""
"","","","","","single-stim-button","307","459919","0.0-2.0-80.1-0.1","5bda12b600c1c4000155cb87","D2","batch4","","463","tol_tohand","","","","tol_peg_2","463","463","0","[[1,0,0],[2,0],[0]]","2","[[2,0,0],[3,0],[1]]","23","0","","","","","","7","","","","","","","","",""
"","","","","","single-stim-button","308","460295","0.0-2.0-80.1-1.1","5bda12b600c1c4000155cb87","D2","batch4","","376","tol_toboard","","","","tol_peg_1","376","376","0","[[1,3,0],[2,0],[0]]","2","[[2,0,0],[3,0],[1]]","23","0","","","","","","7","","","","","","","","",""
"","","","","","single-stim-button","309","460769","0.0-2.0-80.2-0.2","5bda12b600c1c4000155cb87","D2","batch4","","472","tol_tohand","","","","tol_peg_2","472","472","0","[[1,3,0],[0,0],[0]]","3","[[2,0,0],[3,0],[1]]","23","0","","","","","","7","","","","","","","","",""
"","","","","","single-stim-button","310","461421","0.0-2.0-80.2-1.2","5bda12b600c1c4000155cb87","D2","batch4","","651","tol_toboard","","","","tol_peg_3","651","651","0","[[1,3,0],[0,0],[2]]","3","[[2,0,0],[3,0],[1]]","23","0","","","","","","7","","","","","","","","",""
"","","","","","single-stim-button","311","462247","0.0-2.0-80.3-0.3","5bda12b600c1c4000155cb87","D2","batch4","","826","tol_tohand","","","","tol_peg_1","826","826","0","[[1,0,0],[0,0],[2]]","4","[[2,0,0],[3,0],[1]]","23","0","","","","","","7","","","","","","","","",""
"","","","","","single-stim-button","312","462619","0.0-2.0-80.3-1.3","5bda12b600c1c4000155cb87","D2","batch4","","372","tol_toboard","","","","tol_peg_2","372","372","0","[[1,0,0],[3,0],[2]]","4","[[2,0,0],[3,0],[1]]","23","0","","","","","","7","","","","","","","","",""
"","","","","","single-stim-button","313","463145","0.0-2.0-80.4-0.4","5bda12b600c1c4000155cb87","D2","batch4","","526","tol_tohand","","","","tol_peg_1","526","526","0","[[0,0,0],[3,0],[2]]","5","[[2,0,0],[3,0],[1]]","23","0","","","","","","7","","","","","","","","",""
"","","","","","single-stim-button","314","463459","0.0-2.0-80.4-1.4","5bda12b600c1c4000155cb87","D2","batch4","","314","tol_toboard","","","","tol_peg_2","314","314","0","[[0,0,0],[3,1],[2]]","5","[[2,0,0],[3,0],[1]]","23","0","","","","","","7","","","","","","","","",""
"","","","","","single-stim-button","315","463937","0.0-2.0-80.5-0.5","5bda12b600c1c4000155cb87","D2","batch4","","478","tol_tohand","","","","tol_peg_3","478","478","0","[[0,0,0],[3,1],[0]]","6","[[2,0,0],[3,0],[1]]","23","0","","","","","","7","","","","","","","","",""
"","","","","","single-stim-button","316","464411","0.0-2.0-80.5-1.5","5bda12b600c1c4000155cb87","D2","batch4","","474","tol_toboard","","","","tol_peg_1","474","474","0","[[2,0,0],[3,1],[0]]","6","[[2,0,0],[3,0],[1]]","23","0","","","","","","7","","","","","","","","",""
"","","","","","single-stim-button","317","464897","0.0-2.0-80.6-0.6","5bda12b600c1c4000155cb87","D2","batch4","","486","tol_tohand","","","","tol_peg_2","486","486","0","[[2,0,0],[3,0],[0]]","7","[[2,0,0],[3,0],[1]]","23","0","","","","","","7","","","","","","","","",""
"","","","","","single-stim-button","318","465543","0.0-2.0-80.6-1.6","5bda12b600c1c4000155cb87","D2","batch4","","646","tol_toboard","","","","tol_peg_3","646","646","0","[[2,0,0],[3,0],[1]]","7","[[2,0,0],[3,0],[1]]","23","0","","","","","","7","","","","","","","","",""
"","","","","","poldrack-single-stim","319","466544","0.0-2.0-81.0","5bda12b600c1c4000155cb87","D2","batch4","","-1","tol_feedback","","","true","","1000","1000","500","","","","","","-1","none","true","11908","15159","","","","","","","","","",""
"","","","","","html-button-response","320","467337","0.0-2.0-82.0","5bda12b600c1c4000155cb87","D2","batch4","","792.5","tol_trial_num","<div class = centerbox><p class = center-block-text>problem <strong>25</strong> out of 25 problems</p></div>","0","","","","","","","","","","","","","","","","","","","","","","","","",""
"","","","","","single-stim-button","321","472120","0.0-2.0-83.0-0.0","5bda12b600c1c4000155cb87","D2","batch4","","4782","tol_tohand","","","","tol_peg_2","4782","4782","0","[[1,2,0],[0,0],[0]]","1","[[3,0,0],[1,0],[2]]","24","0","","","","","","7","","","","","","","","",""
"","","","","","single-stim-button","322","473784","0.0-2.0-83.0-1.0","5bda12b600c1c4000155cb87","D2","batch4","","1664","tol_toboard","","","","tol_peg_3","1664","1664","0","[[1,2,0],[0,0],[3]]","1","[[3,0,0],[1,0],[2]]","24","0","","","","","","7","","","","","","","","",""
"","","","","","single-stim-button","323","474428","0.0-2.0-83.1-0.1","5bda12b600c1c4000155cb87","D2","batch4","","643","tol_tohand","","","","tol_peg_1","643","643","0","[[1,0,0],[0,0],[3]]","2","[[3,0,0],[1,0],[2]]","24","0","","","","","","7","","","","","","","","",""
"","","","","","single-stim-button","324","474982","0.0-2.0-83.1-1.1","5bda12b600c1c4000155cb87","D2","batch4","","553","tol_toboard","","","","tol_peg_2","553","553","0","[[1,0,0],[2,0],[3]]","2","[[3,0,0],[1,0],[2]]","24","0","","","","","","7","","","","","","","","",""
"","","","","","single-stim-button","325","475707","0.0-2.0-83.2-0.2","5bda12b600c1c4000155cb87","D2","batch4","","723","tol_tohand","","","","tol_peg_1","723","723","0","[[0,0,0],[2,0],[3]]","3","[[3,0,0],[1,0],[2]]","24","0","","","","","","7","","","","","","","","",""
"","","","","","single-stim-button","326","476083","0.0-2.0-83.2-1.2","5bda12b600c1c4000155cb87","D2","batch4","","375","tol_toboard","","","","tol_peg_2","375","375","0","[[0,0,0],[2,1],[3]]","3","[[3,0,0],[1,0],[2]]","24","0","","","","","","7","","","","","","","","",""
"","","","","","single-stim-button","327","476569","0.0-2.0-83.3-0.3","5bda12b600c1c4000155cb87","D2","batch4","","486","tol_tohand","","","","tol_peg_3","486","486","0","[[0,0,0],[2,1],[0]]","4","[[3,0,0],[1,0],[2]]","24","0","","","","","","7","","","","","","","","",""
"","","","","","single-stim-button","328","477067","0.0-2.0-83.3-1.3","5bda12b600c1c4000155cb87","D2","batch4","","498","tol_toboard","","","","tol_peg_1","498","498","0","[[3,0,0],[2,1],[0]]","4","[[3,0,0],[1,0],[2]]","24","0","","","","","","7","","","","","","","","",""
"","","","","","single-stim-button","329","478591","0.0-2.0-83.4-0.4","5bda12b600c1c4000155cb87","D2","batch4","","1524","tol_tohand","","","","tol_peg_2","1524","1524","0","[[3,0,0],[2,0],[0]]","5","[[3,0,0],[1,0],[2]]","24","0","","","","","","7","","","","","","","","",""
"","","","","","single-stim-button","330","478991","0.0-2.0-83.4-1.4","5bda12b600c1c4000155cb87","D2","batch4","","400","tol_toboard","","","","tol_peg_1","400","400","0","[[3,1,0],[2,0],[0]]","5","[[3,0,0],[1,0],[2]]","24","0","","","","","","7","","","","","","","","",""
"","","","","","single-stim-button","331","479443","0.0-2.0-83.5-0.5","5bda12b600c1c4000155cb87","D2","batch4","","452","tol_tohand","","","","tol_peg_2","452","452","0","[[3,1,0],[0,0],[0]]","6","[[3,0,0],[1,0],[2]]","24","0","","","","","","7","","","","","","","","",""
"","","","","","single-stim-button","332","479965","0.0-2.0-83.5-1.5","5bda12b600c1c4000155cb87","D2","batch4","","522","tol_toboard","","","","tol_peg_3","522","522","0","[[3,1,0],[0,0],[2]]","6","[[3,0,0],[1,0],[2]]","24","0","","","","","","7","","","","","","","","",""
"","","","","","single-stim-button","333","480507","0.0-2.0-83.6-0.6","5bda12b600c1c4000155cb87","D2","batch4","","542","tol_tohand","","","","tol_peg_1","542","542","0","[[3,0,0],[0,0],[2]]","7","[[3,0,0],[1,0],[2]]","24","0","","","","","","7","","","","","","","","",""
"","","","","","single-stim-button","334","481436","0.0-2.0-83.6-1.6","5bda12b600c1c4000155cb87","D2","batch4","","928","tol_toboard","","","","tol_peg_2","928","928","0","[[3,0,0],[1,0],[2]]","7","[[3,0,0],[1,0],[2]]","24","0","","","","","","7","","","","","","","","",""
"","","","","","poldrack-single-stim","335","482437","0.0-2.0-84.0","5bda12b600c1c4000155cb87","D2","batch4","","-1","tol_feedback","","","true","","1000","1000","500","","","","","","-1","none","true","4782","9152","","","","","","","","","",""
"","","","","","html-button-response","336","483703","0.0-2.0-85.0","5bda12b600c1c4000155cb87","D2","batch4","","1266.2000000476837","tol-goodbye","<p class= block-text>This concludes the Tower of London Task. Thank you for your responses!<br> Click the button below to continue</p>","0","","","","","","","","","","","","","","","","","","","","","","","","",""
"true","","","","","fullscreen","337","487427","0.0-3.0-0.0","5bda12b600c1c4000155cb87","D2","batch4","","","","","","","","","","","","","","","","","","","","","","","","","","","","","",""
"","","","","","instructions","338","501196","0.0-3.0-1.0-0.0","5bda12b600c1c4000155cb87","D2","batch4","[{""page_index"":0,""viewing_time"":9445.600000023842},{""page_index"":1,""viewing_time"":4322.5}]","13768.400000095367","","","","","","","","","","","","","","","","","","","","","","","","","","","",""
"","","","","","html-button-response","339","502594","0.0-3.0-1.0-1.0-0.0","5bda12b600c1c4000155cb87","D2","batch4","","1397.1999999284744","pattern_enter_quiz","<p class=block-text> Let's answer a few questions <br>","0","","","","","","","","","","","","","","","","","","","","","","","","",""
"","","","","","html-button-response","340","504414","0.0-3.0-1.0-1.0-1.0","5bda12b600c1c4000155cb87","D2","batch4","","1819.3999999761581","pattern_quiz","<p class = block-text>True or False: You will have as much time as you want to make each choice. <br></p>","1","true","","","","","","","","","","","","","","","","","","","","","","","",""
"","","","","","html-button-response","341","505228","0.0-3.0-1.0-1.0-2.0","5bda12b600c1c4000155cb87","D2","batch4","","813.5","pattern_quiz_feedback","<p class = block-text>Correct! You should make your choice <strong> as fast as you can</strong>.</p>","0","","","","","","","","","","","","","","","","","","","","","","","","",""
"","","","","","html-button-response","342","508741","0.0-3.0-1.0-1.0-3.0","5bda12b600c1c4000155cb87","D2","batch4","","3511.8000000715256","pattern_quiz","<p class = block-text>True or False: You will look for 4 pieces in black or white color connected in a row either horizontally, vertically or diagonally. <br></p>","0","true","","","","","","","","","","","","","","","","","","","","","","","",""
"","","","","","html-button-response","343","509381","0.0-3.0-1.0-1.0-4.0","5bda12b600c1c4000155cb87","D2","batch4","","639.4000000953674","pattern_quiz_feedback","<p class = block-text>Correct! </p>","0","","","","","","","","","","","","","","","","","","","","","","","","",""
"","","","","","html-button-response","344","515279","0.0-3.0-2.0","5bda12b600c1c4000155cb87","D2","batch4","","5896.399999976158","pattern_enter_practice","<p class=block-text> Now that you've understood the game, let's do a few practice trials before we start!<br> <br>","0","","","","","","","","","","","","","","","","","","","","","","","","",""
"","","","","","image-keyboard-response","345","516122","0.0-3.0-3.0-0.0","5bda12b600c1c4000155cb87","D2","batch4","","841.7999999523163","pattern_practice","stim/prac_no_16_1.png","j","true","","","","","","","","","","","","","","","","j","","","","","","","",""
"","","","","","html-keyboard-response","346","517136","0.0-3.0-3.0-1.0","5bda12b600c1c4000155cb87","D2","batch4","","null","pattern_feedback","<p style=""font-size:30px;color:green;"">Correct!</p>","null","","","","","","","","","","","","","","","","","","","","","","","","",""
"","","","","","image-keyboard-response","347","518026","0.0-3.0-3.0-0.1","5bda12b600c1c4000155cb87","D2","batch4","","889.3999999761581","pattern_practice","stim/prac_yes_20_dia_b1.png","f","true","","","","","","","","","","","","","","","","f","","","","","","","",""
"","","","","","html-keyboard-response","348","519029","0.0-3.0-3.0-1.1","5bda12b600c1c4000155cb87","D2","batch4","","null","pattern_feedback","<p style=""font-size:30px;color:green;"">Correct!</p>","null","","","","","","","","","","","","","","","","","","","","","","","","",""
"","","","","","image-keyboard-response","349","519756","0.0-3.0-3.0-0.2","5bda12b600c1c4000155cb87","D2","batch4","","726.1999999284744","pattern_practice","stim/prac_yes_16_ver_w1.png","f","true","","","","","","","","","","","","","","","","f","","","","","","","",""
"","","","","","html-keyboard-response","350","520769","0.0-3.0-3.0-1.2","5bda12b600c1c4000155cb87","D2","batch4","","null","pattern_feedback","<p style=""font-size:30px;color:green;"">Correct!</p>","null","","","","","","","","","","","","","","","","","","","","","","","","",""
"","","","","","image-keyboard-response","351","521339","0.0-3.0-3.0-0.3","5bda12b600c1c4000155cb87","D2","batch4","","568.6000000238419","pattern_practice","stim/prac_yes_18_hor_w1.png","f","true","","","","","","","","","","","","","","","","f","","","","","","","",""
"","","","","","html-keyboard-response","352","522341","0.0-3.0-3.0-1.3","5bda12b600c1c4000155cb87","D2","batch4","","null","pattern_feedback","<p style=""font-size:30px;color:green;"">Correct!</p>","null","","","","","","","","","","","","","","","","","","","","","","","","",""
"","","","","","image-keyboard-response","353","523019","0.0-3.0-3.0-0.4","5bda12b600c1c4000155cb87","D2","batch4","","677.2999999523163","pattern_practice","stim/prac_no_18_1.png","j","true","","","","","","","","","","","","","","","","j","","","","","","","",""
"","","","","","html-keyboard-response","354","524036","0.0-3.0-3.0-1.4","5bda12b600c1c4000155cb87","D2","batch4","","null","pattern_feedback","<p style=""font-size:30px;color:green;"">Correct!</p>","null","","","","","","","","","","","","","","","","","","","","","","","","",""
"","","","","","html-button-response","355","525787","0.0-3.0-4.0","5bda12b600c1c4000155cb87","D2","batch4","","1750.3000000715256","pattern_enter_official_trials","<p class=block-text> Good job! You are done with practice trials!<br>
