"success","timeout","failed_images","failed_audio","failed_video","trial_type","trial_index","time_elapsed","internal_node_id","subject_id","study_id","session_id","view_history","rt","stimulus","response","task","correct","answer","item","fiar_detect_rt","fiar_detect_correct","total_correct_fiar_detect","post_trial_gap","choices","spm_correct","spm_rt","mouse_click","stim_duration","block_duration","timing_post_trial","current_position","tol_num_moves_made","tol_target","tol_problem_id","tol_rt","key_press","possible_responses","tol_correct","preplanning","tol_rt_per_trial","tol_min_moves"
"true","false","[]","[]","[]","preload","0","3114","0.0-0.0","5bdb5e785e77d9000147e94d","B2","batch2","","","","","","","","","","","","","","","","","","","","","","","","","","","","","",""
"true","","","","","fullscreen","1","37047","0.0-1.0-0.0","5bdb5e785e77d9000147e94d","B2","batch2","","","","","","","","","","","","","","","","","","","","","","","","","","","","","",""
"true","","","","","fullscreen","2","45165","0.0-2.0-0.0","5bdb5e785e77d9000147e94d","B2","batch2","","","","","","","","","","","","","","","","","","","","","","","","","","","","","",""
"","","","","","instructions","3","110437","0.0-2.0-1.0-0.0","5bdb5e785e77d9000147e94d","B2","batch2","[{""page_index"":0,""viewing_time"":43796},{""page_index"":1,""viewing_time"":21473.90000000596}]","65270.30000001192","","","","","","","","","","","","","","","","","","","","","","","","","","","",""
"","","","","","html-button-response","4","113813","0.0-2.0-1.0-1.0-0.0","5bdb5e785e77d9000147e94d","B2","batch2","","3374.4000000059605","<p class=block-text> Let's answer a few questions <br>","0","pattern_enter_quiz","","","","","","","","","","","","","","","","","","","","","","","","",""
"","","","","","html-button-response","5","124798","0.0-2.0-1.0-1.0-1.0","5bdb5e785e77d9000147e94d","B2","batch2","","10984.5","<p class = block-text>True or False: You will have as much time as you want to make each choice. <br></p>","1","pattern_quiz","true","","","","","","","","","","","","","","","","","","","","","","","",""
"","","","","","html-button-response","6","128579","0.0-2.0-1.0-1.0-2.0","5bdb5e785e77d9000147e94d","B2","batch2","","3779","<p class = block-text>Correct! You should make your choice <strong> as fast as you can</strong>.</p>","0","pattern_quiz_feedback","","","","","","","","","","","","","","","","","","","","","","","","",""
"","","","","","html-button-response","7","142799","0.0-2.0-1.0-1.0-3.0","5bdb5e785e77d9000147e94d","B2","batch2","","14219.5","<p class = block-text>True or False: You will look for 4 pieces in black or white color connected in a row either horizontally, vertically or diagonally. <br></p>","0","pattern_quiz","true","","","","","","","","","","","","","","","","","","","","","","","",""
"","","","","","html-button-response","8","144759","0.0-2.0-1.0-1.0-4.0","5bdb5e785e77d9000147e94d","B2","batch2","","1958.9000000059605","<p class = block-text>Correct! </p>","0","pattern_quiz_feedback","","","","","","","","","","","","","","","","","","","","","","","","",""
"","","","","","html-button-response","9","152977","0.0-2.0-2.0","5bdb5e785e77d9000147e94d","B2","batch2","","8216.800000011921","<p class=block-text> Now that you've understood the game, let's do a few practice trials before we start!<br> <br>","0","pattern_enter_practice","","","","","","","","","","","","","","","","","","","","","","","","",""
"","","","","","image-keyboard-response","10","160385","0.0-2.0-3.0-0.0","5bdb5e785e77d9000147e94d","B2","batch2","","7404.0999999940395","stim/prac_yes_18_hor_w1.png","f","pattern_practice","true","f","","","","","","","","","","","","","","","","","","","","","","",""
"","","","","","html-keyboard-response","11","161396","0.0-2.0-3.0-1.0","5bdb5e785e77d9000147e94d","B2","batch2","","null","<p style=""font-size:30px;color:green;"">Correct!</p>","null","pattern_feedback","","","","","","","","","","","","","","","","","","","","","","","","",""
"","","","","","image-keyboard-response","12","162719","0.0-2.0-3.0-0.1","5bdb5e785e77d9000147e94d","B2","batch2","","1321.9000000059605","stim/prac_yes_16_ver_w1.png","f","pattern_practice","true","f","","","","","","","","","","","","","","","","","","","","","","",""
"","","","","","html-keyboard-response","13","163730","0.0-2.0-3.0-1.1","5bdb5e785e77d9000147e94d","B2","batch2","","null","<p style=""font-size:30px;color:green;"">Correct!</p>","null","pattern_feedback","","","","","","","","","","","","","","","","","","","","","","","","",""
"","","","","","image-keyboard-response","14","166108","0.0-2.0-3.0-0.2","5bdb5e785e77d9000147e94d","B2","batch2","","2376.199999988079","stim/prac_no_16_1.png","j","pattern_practice","true","j","","","","","","","","","","","","","","","","","","","","","","",""
"","","","","","html-keyboard-response","15","167130","0.0-2.0-3.0-1.2","5bdb5e785e77d9000147e94d","B2","batch2","","null","<p style=""font-size:30px;color:green;"">Correct!</p>","null","pattern_feedback","","","","","","","","","","","","","","","","","","","","","","","","",""
"","","","","","image-keyboard-response","16","169108","0.0-2.0-3.0-0.3","5bdb5e785e77d9000147e94d","B2","batch2","","1976","stim/prac_no_18_1.png","j","pattern_practice","true","j","","","","","","","","","","","","","","","","","","","","","","",""
"","","","","","html-keyboard-response","17","170115","0.0-2.0-3.0-1.3","5bdb5e785e77d9000147e94d","B2","batch2","","null","<p style=""font-size:30px;color:green;"">Correct!</p>","null","pattern_feedback","","","","","","","","","","","","","","","","","","","","","","","","",""
"","","","","","image-keyboard-response","18","171365","0.0-2.0-3.0-0.4","5bdb5e785e77d9000147e94d","B2","batch2","","1248.9000000059605","stim/prac_yes_20_dia_b1.png","f","pattern_practice","true","f","","","","","","","","","","","","","","","","","","","","","","",""
"","","","","","html-keyboard-response","19","172382","0.0-2.0-3.0-1.4","5bdb5e785e77d9000147e94d","B2","batch2","","null","<p style=""font-size:30px;color:green;"">Correct!</p>","null","pattern_feedback","","","","","","","","","","","","","","","","","","","","","","","","",""
"","","","","","html-button-response","20","181967","0.0-2.0-4.0","5bdb5e785e77d9000147e94d","B2","batch2","","9583.5","<p class=block-text> Good job! You are done with practice trials!<br>
        You responded correctly on 100% of the trials.<br>
        Press the button below to start official trials. Now you won't see any feedback about your response</p>","0","pattern_enter_official_trials","","","","","","","","","","","","","","","","","","","","","","","","",""
"","","","","","html-keyboard-response","21","182780","0.0-2.0-5.0-0.0","5bdb5e785e77d9000147e94d","B2","batch2","","null","<p class=block-text>Trial 1 out of 78</p>","null","pattern_show_trial_num","","","","","","","","","","","","","","","","","","","","","","","","",""
"","","","","","image-keyboard-response","22","184327","0.0-2.0-5.0-1.0","5bdb5e785e77d9000147e94d","B2","batch2","","1545.0999999940395","stim/no_12_1.png","j","pattern_response","true","j","pattern_01","1545.0999999940395","true","1","","","","","","","","","","","","","","","","","","",""
"","","","","","html-keyboard-response","23","185646","0.0-2.0-5.0-0.1","5bdb5e785e77d9000147e94d","B2","batch2","","null","<p class=block-text>Trial 2 out of 78</p>","null","pattern_show_trial_num","","","","","","","","","","","","","","","","","","","","","","","","",""
"","","","","","image-keyboard-response","24","187242","0.0-2.0-5.0-1.1","5bdb5e785e77d9000147e94d","B2","batch2","","1595.0999999940395","stim/yes_33_dia_w1_w.png","f","pattern_response","true","f","pattern_56","1595.0999999940395","true","2","","","","","","","","","","","","","","","","","","",""
"","","","","","html-keyboard-response","25","188565","0.0-2.0-5.0-0.2","5bdb5e785e77d9000147e94d","B2","batch2","","null","<p class=block-text>Trial 3 out of 78</p>","null","pattern_show_trial_num","","","","","","","","","","","","","","","","","","","","","","","","",""
"","","","","","image-keyboard-response","26","192477","0.0-2.0-5.0-1.2","5bdb5e785e77d9000147e94d","B2","batch2","","3910.0999999940395","stim/yes_58_dia_w1_w.png","j","pattern_response","false","f","pattern_76","3910.0999999940395","false","2","","","","","","","","","","","","","","","","","","",""
"","","","","","html-keyboard-response","27","193798","0.0-2.0-5.0-0.3","5bdb5e785e77d9000147e94d","B2","batch2","","null","<p class=block-text>Trial 4 out of 78</p>","null","pattern_show_trial_num","","","","","","","","","","","","","","","","","","","","","","","","",""
"","","","","","image-keyboard-response","28","198617","0.0-2.0-5.0-1.3","5bdb5e785e77d9000147e94d","B2","batch2","","4826","stim/no_39_1_w.png","j","pattern_response","true","j","pattern_21","4826","true","3","","","","","","","","","","","","","","","","","","",""
"","","","","","html-keyboard-response","29","199941","0.0-2.0-5.0-0.4","5bdb5e785e77d9000147e94d","B2","batch2","","null","<p class=block-text>Trial 5 out of 78</p>","null","pattern_show_trial_num","","","","","","","","","","","","","","","","","","","","","","","","",""
"","","","","","image-keyboard-response","30","203598","0.0-2.0-5.0-1.4","5bdb5e785e77d9000147e94d","B2","batch2","","3655","stim/no_18_1_b.png","j","pattern_response","true","j","pattern_05","3655","true","4","","","","","","","","","","","","","","","","","","",""
"","","","","","html-keyboard-response","31","204925","0.0-2.0-5.0-0.5","5bdb5e785e77d9000147e94d","B2","batch2","","null","<p class=block-text>Trial 6 out of 78</p>","null","pattern_show_trial_num","","","","","","","","","","","","","","","","","","","","","","","","",""
"","","","","","image-keyboard-response","32","209877","0.0-2.0-5.0-1.5","5bdb5e785e77d9000147e94d","B2","batch2","","4949.700000017881","stim/no_51_1.png","j","pattern_response","true","j","pattern_31","4949.700000017881","true","5","","","","","","","","","","","","","","","","","","",""
"","","","","","html-keyboard-response","33","211196","0.0-2.0-5.0-0.6","5bdb5e785e77d9000147e94d","B2","batch2","","null","<p class=block-text>Trial 7 out of 78</p>","null","pattern_show_trial_num","","","","","","","","","","","","","","","","","","","","","","","","",""
"","","","","","image-keyboard-response","34","213330","0.0-2.0-5.0-1.6","5bdb5e785e77d9000147e94d","B2","batch2","","2132.100000023842","stim/yes_51_dia_b1.png","f","pattern_response","true","f","pattern_72","2132.100000023842","true","6","","","","","","","","","","","","","","","","","","",""
"","","","","","html-keyboard-response","35","214644","0.0-2.0-5.0-0.7","5bdb5e785e77d9000147e94d","B2","batch2","","null","<p class=block-text>Trial 8 out of 78</p>","null","pattern_show_trial_num","","","","","","","","","","","","","","","","","","","","","","","","",""
"","","","","","image-keyboard-response","36","216574","0.0-2.0-5.0-1.7","5bdb5e785e77d9000147e94d","B2","batch2","","1928.2000000178814","stim/no_15_1_w.png","j","pattern_response","true","j","pattern_03","1928.2000000178814","true","7","","","","","","","","","","","","","","","","","","",""
"","","","","","html-keyboard-response","37","217895","0.0-2.0-5.0-0.8","5bdb5e785e77d9000147e94d","B2","batch2","","null","<p class=block-text>Trial 9 out of 78</p>","null","pattern_show_trial_num","","","","","","","","","","","","","","","","","","","","","","","","",""
"","","","","","image-keyboard-response","38","219169","0.0-2.0-5.0-1.8","5bdb5e785e77d9000147e94d","B2","batch2","","1272.199999988079","stim/yes_26_dia_w2_w.png","f","pattern_response","true","f","pattern_50","1272.199999988079","true","8","","","","","","","","","","","","","","","","","","",""
"","","","","","html-keyboard-response","39","220495","0.0-2.0-5.0-0.9","5bdb5e785e77d9000147e94d","B2","batch2","","null","<p class=block-text>Trial 10 out of 78</p>","null","pattern_show_trial_num","","","","","","","","","","","","","","","","","","","","","","","","",""
"","","","","","image-keyboard-response","40","222555","0.0-2.0-5.0-1.9","5bdb5e785e77d9000147e94d","B2","batch2","","2057.4000000059605","stim/yes_44_ver_w1_w.png","f","pattern_response","true","f","pattern_66","2057.4000000059605","true","9","","","","","","","","","","","","","","","","","","",""
"","","","","","html-keyboard-response","41","223880","0.0-2.0-5.0-0.10","5bdb5e785e77d9000147e94d","B2","batch2","","null","<p class=block-text>Trial 11 out of 78</p>","null","pattern_show_trial_num","","","","","","","","","","","","","","","","","","","","","","","","",""
"","","","","","image-keyboard-response","42","226936","0.0-2.0-5.0-1.10","5bdb5e785e77d9000147e94d","B2","batch2","","3053.4000000059605","stim/no_25_1_b.png","j","pattern_response","true","j","pattern_09","3053.4000000059605","true","10","","","","","","","","","","","","","","","","","","",""
"","","","","","html-keyboard-response","43","228263","0.0-2.0-5.0-0.11","5bdb5e785e77d9000147e94d","B2","batch2","","null","<p class=block-text>Trial 12 out of 78</p>","null","pattern_show_trial_num","","","","","","","","","","","","","","","","","","","","","","","","",""
"","","","","","image-keyboard-response","44","232522","0.0-2.0-5.0-1.11","5bdb5e785e77d9000147e94d","B2","batch2","","4257.199999988079","stim/no_36_1_b.png","j","pattern_response","true","j","pattern_17","4257.199999988079","true","11","","","","","","","","","","","","","","","","","","",""
"","","","","","html-keyboard-response","45","233847","0.0-2.0-5.0-0.12","5bdb5e785e77d9000147e94d","B2","batch2","","null","<p class=block-text>Trial 13 out of 78</p>","null","pattern_show_trial_num","","","","","","","","","","","","","","","","","","","","","","","","",""
"","","","","","image-keyboard-response","46","234805","0.0-2.0-5.0-1.12","5bdb5e785e77d9000147e94d","B2","batch2","","956","stim/yes_39_hor_w1_w.png","f","pattern_response","true","f","pattern_62","956","true","12","","","","","","","","","","","","","","","","","","",""
"","","","","","html-keyboard-response","47","236114","0.0-2.0-5.0-0.13","5bdb5e785e77d9000147e94d","B2","batch2","","null","<p class=block-text>Trial 14 out of 78</p>","null","pattern_show_trial_num","","","","","","","","","","","","","","","","","","","","","","","","",""
"","","","","","image-keyboard-response","48","237018","0.0-2.0-5.0-1.13","5bdb5e785e77d9000147e94d","B2","batch2","","902.5999999940395","stim/yes_36_ver_w1_w.png","f","pattern_response","true","f","pattern_58","902.5999999940395","true","13","","","","","","","","","","","","","","","","","","",""
"","","","","","html-keyboard-response","49","238332","0.0-2.0-5.0-0.14","5bdb5e785e77d9000147e94d","B2","batch2","","null","<p class=block-text>Trial 15 out of 78</p>","null","pattern_show_trial_num","","","","","","","","","","","","","","","","","","","","","","","","",""
"","","","","","image-keyboard-response","50","244583","0.0-2.0-5.0-1.14","5bdb5e785e77d9000147e94d","B2","batch2","","6249.0999999940395","stim/no_58_1_w.png","j","pattern_response","true","j","pattern_35","6249.0999999940395","true","14","","","","","","","","","","","","","","","","","","",""
"","","","","","html-keyboard-response","51","245908","0.0-2.0-5.0-0.15","5bdb5e785e77d9000147e94d","B2","batch2","","null","<p class=block-text>Trial 16 out of 78</p>","null","pattern_show_trial_num","","","","","","","","","","","","","","","","","","","","","","","","",""
"","","","","","image-keyboard-response","52","250542","0.0-2.0-5.0-1.15","5bdb5e785e77d9000147e94d","B2","batch2","","4632.4000000059605","stim/no_53_1_b.png","j","pattern_response","true","j","pattern_33","4632.4000000059605","true","15","","","","","","","","","","","","","","","","","","",""
"","","","","","html-keyboard-response","53","251868","0.0-2.0-5.0-0.16","5bdb5e785e77d9000147e94d","B2","batch2","","null","<p class=block-text>Trial 17 out of 78</p>","null","pattern_show_trial_num","","","","","","","","","","","","","","","","","","","","","","","","",""
"","","","","","image-keyboard-response","54","254503","0.0-2.0-5.0-1.16","5bdb5e785e77d9000147e94d","B2","batch2","","2632.7999999821186","stim/yes_46_ver_b1_b.png","f","pattern_response","true","f","pattern_68","2632.7999999821186","true","16","","","","","","","","","","","","","","","","","","",""
"","","","","","html-keyboard-response","55","255818","0.0-2.0-5.0-0.17","5bdb5e785e77d9000147e94d","B2","batch2","","null","<p class=block-text>Trial 18 out of 78</p>","null","pattern_show_trial_num","","","","","","","","","","","","","","","","","","","","","","","","",""
"","","","","","image-keyboard-response","56","263169","0.0-2.0-5.0-1.17","5bdb5e785e77d9000147e94d","B2","batch2","","7341.9000000059605","stim/yes_63_dia_b1.png","j","pattern_response","false","f","pattern_78","7341.9000000059605","false","16","","","","","","","","","","","","","","","","","","",""
"","","","","","html-keyboard-response","57","264494","0.0-2.0-5.0-0.18","5bdb5e785e77d9000147e94d","B2","batch2","","null","<p class=block-text>Trial 19 out of 78</p>","null","pattern_show_trial_num","","","","","","","","","","","","","","","","","","","","","","","","",""
"","","","","","image-keyboard-response","58","265571","0.0-2.0-5.0-1.18","5bdb5e785e77d9000147e94d","B2","batch2","","1075.199999988079","stim/yes_37_hor_w1_w.png","f","pattern_response","true","f","pattern_60","1075.199999988079","true","17","","","","","","","","","","","","","","","","","","",""
"","","","","","html-keyboard-response","59","266894","0.0-2.0-5.0-0.19","5bdb5e785e77d9000147e94d","B2","batch2","","null","<p class=block-text>Trial 20 out of 78</p>","null","pattern_show_trial_num","","","","","","","","","","","","","","","","","","","","","","","","",""
"","","","","","image-keyboard-response","60","267712","0.0-2.0-5.0-1.19","5bdb5e785e77d9000147e94d","B2","batch2","","815.7000000178814","stim/yes_12_hor_w1_w.png","f","pattern_response","true","f","pattern_42","815.7000000178814","true","18","","","","","","","","","","","","","","","","","","",""
"","","","","","html-keyboard-response","61","269028","0.0-2.0-5.0-0.20","5bdb5e785e77d9000147e94d","B2","batch2","","null","<p class=block-text>Trial 21 out of 78</p>","null","pattern_show_trial_num","","","","","","","","","","","","","","","","","","","","","","","","",""
"","","","","","image-keyboard-response","62","273080","0.0-2.0-5.0-1.20","5bdb5e785e77d9000147e94d","B2","batch2","","4045.199999988079","stim/no_28_2.png","j","pattern_response","true","j","pattern_11","4045.199999988079","true","19","","","","","","","","","","","","","","","","","","",""
"","","","","","html-keyboard-response","63","274396","0.0-2.0-5.0-0.21","5bdb5e785e77d9000147e94d","B2","batch2","","null","<p class=block-text>Trial 22 out of 78</p>","null","pattern_show_trial_num","","","","","","","","","","","","","","","","","","","","","","","","",""
"","","","","","image-keyboard-response","64","276996","0.0-2.0-5.0-1.21","5bdb5e785e77d9000147e94d","B2","batch2","","2599","stim/no_37_2_w.png","j","pattern_response","true","j","pattern_19","2599","true","20","","","","","","","","","","","","","","","","","","",""
"","","","","","html-keyboard-response","65","278313","0.0-2.0-5.0-0.22","5bdb5e785e77d9000147e94d","B2","batch2","","null","<p class=block-text>Trial 23 out of 78</p>","null","pattern_show_trial_num","","","","","","","","","","","","","","","","","","","","","","","","",""
"","","","","","image-keyboard-response","66","280575","0.0-2.0-5.0-1.22","5bdb5e785e77d9000147e94d","B2","batch2","","2259.800000011921","stim/no_30_1_b.png","j","pattern_response","true","j","pattern_13","2259.800000011921","true","21","","","","","","","","","","","","","","","","","","",""
"","","","","","html-keyboard-response","67","281897","0.0-2.0-5.0-0.23","5bdb5e785e77d9000147e94d","B2","batch2","","null","<p class=block-text>Trial 24 out of 78</p>","null","pattern_show_trial_num","","","","","","","","","","","","","","","","","","","","","","","","",""
"","","","","","image-keyboard-response","68","286825","0.0-2.0-5.0-1.23","5bdb5e785e77d9000147e94d","B2","batch2","","4925.899999976158","stim/no_43_2_b.png","j","pattern_response","true","j","pattern_23","4925.899999976158","true","22","","","","","","","","","","","","","","","","","","",""
"","","","","","html-keyboard-response","69","288148","0.0-2.0-5.0-0.24","5bdb5e785e77d9000147e94d","B2","batch2","","null","<p class=block-text>Trial 25 out of 78</p>","null","pattern_show_trial_num","","","","","","","","","","","","","","","","","","","","","","","","",""
"","","","","","image-keyboard-response","70","291112","0.0-2.0-5.0-1.24","5bdb5e785e77d9000147e94d","B2","batch2","","2961.7999999821186","stim/yes_29_hor_b1_b.png","f","pattern_response","true","f","pattern_52","2961.7999999821186","true","23","","","","","","","","","","","","","","","","","","",""
"","","","","","html-keyboard-response","71","292432","0.0-2.0-5.0-0.25","5bdb5e785e77d9000147e94d","B2","batch2","","null","<p class=block-text>Trial 26 out of 78</p>","null","pattern_show_trial_num","","","","","","","","","","","","","","","","","","","","","","","","",""
"","","","","","image-keyboard-response","72","293792","0.0-2.0-5.0-1.25","5bdb5e785e77d9000147e94d","B2","batch2","","1357.5","stim/yes_70_ver_b1.png","f","pattern_response","true","f","pattern_80","1357.5","true","24","","","","","","","","","","","","","","","","","","",""
"","","","","","html-keyboard-response","73","295117","0.0-2.0-5.0-0.26","5bdb5e785e77d9000147e94d","B2","batch2","","null","<p class=block-text>Trial 27 out of 78</p>","null","pattern_show_trial_num","","","","","","","","","","","","","","","","","","","","","","","","",""
"","","","","","image-keyboard-response","74","296245","0.0-2.0-5.0-1.26","5bdb5e785e77d9000147e94d","B2","batch2","","1126.300000011921","stim/yes_23_ver_b1.png","f","pattern_response","true","f","pattern_48","1126.300000011921","true","25","","","","","","","","","","","","","","","","","","",""
"","","","","","html-keyboard-response","75","297567","0.0-2.0-5.0-0.27","5bdb5e785e77d9000147e94d","B2","batch2","","null","<p class=block-text>Trial 28 out of 78</p>","null","pattern_show_trial_num","","","","","","","","","","","","","","","","","","","","","","","","",""
"","","","","","image-keyboard-response","76","302805","0.0-2.0-5.0-1.27","5bdb5e785e77d9000147e94d","B2","batch2","","5236.4000000059605","stim/no_45_1_w.png","j","pattern_response","true","j","pattern_25","5236.4000000059605","true","26","","","","","","","","","","","","","","","","","","",""
"","","","","","html-keyboard-response","77","304118","0.0-2.0-5.0-0.28","5bdb5e785e77d9000147e94d","B2","batch2","","null","<p class=block-text>Trial 29 out of 78</p>","null","pattern_show_trial_num","","","","","","","","","","","","","","","","","","","","","","","","",""
"","","","","","image-keyboard-response","78","307832","0.0-2.0-5.0-1.28","5bdb5e785e77d9000147e94d","B2","batch2","","3711.9000000059605","stim/no_33_1_b.png","j","pattern_response","true","j","pattern_15","3711.9000000059605","true","27","","","","","","","","","","","","","","","","","","",""
"","","","","","html-keyboard-response","79","309152","0.0-2.0-5.0-0.29","5bdb5e785e77d9000147e94d","B2","batch2","","null","<p class=block-text>Trial 30 out of 78</p>","null","pattern_show_trial_num","","","","","","","","","","","","","","","","","","","","","","","","",""
"","","","","","image-keyboard-response","80","310184","0.0-2.0-5.0-1.29","5bdb5e785e77d9000147e94d","B2","batch2","","1030.2000000178814","stim/yes_17_ver_b1_b.png","f","pattern_response","true","f","pattern_46","1030.2000000178814","true","28","","","","","","","","","","","","","","","","","","",""
"","","","","","html-keyboard-response","81","311503","0.0-2.0-5.0-0.30","5bdb5e785e77d9000147e94d","B2","batch2","","null","<p class=block-text>Trial 31 out of 78</p>","null","pattern_show_trial_num","","","","","","","","","","","","","","","","","","","","","","","","",""
"","","","","","image-keyboard-response","82","313353","0.0-2.0-5.0-1.30","5bdb5e785e77d9000147e94d","B2","batch2","","1848.5","stim/yes_53_ver_b1_b.png","f","pattern_response","true","f","pattern_74","1848.5","true","29","","","","","","","","","","","","","","","","","","",""
"","","","","","html-keyboard-response","83","314671","0.0-2.0-5.0-0.31","5bdb5e785e77d9000147e94d","B2","batch2","","null","<p class=block-text>Trial 32 out of 78</p>","null","pattern_show_trial_num","","","","","","","","","","","","","","","","","","","","","","","","",""
"","","","","","image-keyboard-response","84","320035","0.0-2.0-5.0-1.31","5bdb5e785e77d9000147e94d","B2","batch2","","5361.5999999940395","stim/no_49_2_b.png","j","pattern_response","true","j","pattern_29","5361.5999999940395","true","30","","","","","","","","","","","","","","","","","","",""
"","","","","","html-keyboard-response","85","321340","0.0-2.0-5.0-0.32","5bdb5e785e77d9000147e94d","B2","batch2","","null","<p class=block-text>Trial 33 out of 78</p>","null","pattern_show_trial_num","","","","","","","","","","","","","","","","","","","","","","","","",""
"","","","","","image-keyboard-response","86","323297","0.0-2.0-5.0-1.32","5bdb5e785e77d9000147e94d","B2","batch2","","1952.5999999940395","stim/no_22_1_b.png","j","pattern_response","true","j","pattern_07","1952.5999999940395","true","31","","","","","","","","","","","","","","","","","","",""
"","","","","","html-keyboard-response","87","324624","0.0-2.0-5.0-0.33","5bdb5e785e77d9000147e94d","B2","batch2","","null","<p class=block-text>Trial 34 out of 78</p>","null","pattern_show_trial_num","","","","","","","","","","","","","","","","","","","","","","","","",""
"","","","","","image-keyboard-response","88","325821","0.0-2.0-5.0-1.33","5bdb5e785e77d9000147e94d","B2","batch2","","1194.4000000059605","stim/yes_30_ver_b1_b.png","f","pattern_response","true","f","pattern_54","1194.4000000059605","true","32","","","","","","","","","","","","","","","","","","",""
"","","","","","html-keyboard-response","89","327141","0.0-2.0-5.0-0.34","5bdb5e785e77d9000147e94d","B2","batch2","","null","<p class=block-text>Trial 35 out of 78</p>","null","pattern_show_trial_num","","","","","","","","","","","","","","","","","","","","","","","","",""
"","","","","","image-keyboard-response","90","328244","0.0-2.0-5.0-1.34","5bdb5e785e77d9000147e94d","B2","batch2","","1101.5999999940395","stim/yes_15_dia_b1u_b.png","f","pattern_response","true","f","pattern_44","1101.5999999940395","true","33","","","","","","","","","","","","","","","","","","",""
"","","","","","html-keyboard-response","91","329558","0.0-2.0-5.0-0.35","5bdb5e785e77d9000147e94d","B2","batch2","","null","<p class=block-text>Trial 36 out of 78</p>","null","pattern_show_trial_num","","","","","","","","","","","","","","","","","","","","","","","","",""
"","","","","","image-keyboard-response","92","334740","0.0-2.0-5.0-1.35","5bdb5e785e77d9000147e94d","B2","batch2","","5180.5999999940395","stim/yes_42_dia_w1_w.png","j","pattern_response","false","f","pattern_64","5180.5999999940395","false","33","","","","","","","","","","","","","","","","","","",""
"","","","","","html-keyboard-response","93","336046","0.0-2.0-5.0-0.36","5bdb5e785e77d9000147e94d","B2","batch2","","null","<p class=block-text>Trial 37 out of 78</p>","null","pattern_show_trial_num","","","","","","","","","","","","","","","","","","","","","","","","",""
"","","","","","image-keyboard-response","94","342775","0.0-2.0-5.0-1.36","5bdb5e785e77d9000147e94d","B2","batch2","","6726.0999999940395","stim/no_67_1.png","j","pattern_response","true","j","pattern_39","6726.0999999940395","true","34","","","","","","","","","","","","","","","","","","",""
"","","","","","html-keyboard-response","95","344094","0.0-2.0-5.0-0.37","5bdb5e785e77d9000147e94d","B2","batch2","","null","<p class=block-text>Trial 38 out of 78</p>","null","pattern_show_trial_num","","","","","","","","","","","","","","","","","","","","","","","","",""
"","","","","","image-keyboard-response","96","345193","0.0-2.0-5.0-1.37","5bdb5e785e77d9000147e94d","B2","batch2","","1096.9000000059605","stim/yes_49_hor_w1_b.png","f","pattern_response","true","f","pattern_70","1096.9000000059605","true","35","","","","","","","","","","","","","","","","","","",""
"","","","","","html-keyboard-response","97","346512","0.0-2.0-5.0-0.38","5bdb5e785e77d9000147e94d","B2","batch2","","null","<p class=block-text>Trial 39 out of 78</p>","null","pattern_show_trial_num","","","","","","","","","","","","","","","","","","","","","","","","",""
"","","","","","image-keyboard-response","98","353392","0.0-2.0-5.0-1.38","5bdb5e785e77d9000147e94d","B2","batch2","","6878.5","stim/no_47_1_b.png","j","pattern_response","true","j","pattern_27","6878.5","true","36","","","","","","","","","","","","","","","","","","",""
"","","","","","image-keyboard-response","99","355308","0.0-2.0-6.0","5bdb5e785e77d9000147e94d","B2","batch2","","1408","stim/empty_board.png","j","attention_check","true","j","","","","","500","[""f"",""j""]","","","","","","","","","","","","","","","","",""
"","","","","","html-keyboard-response","100","356113","0.0-2.0-7.0-0.0","5bdb5e785e77d9000147e94d","B2","batch2","","null","<p class=block-text>Trial 40 out of 78</p>","null","pattern_show_trial_num","","","","","","","","","","","","","","","","","","","","","","","","",""
"","","","","","image-keyboard-response","101","362081","0.0-2.0-7.0-1.0","5bdb5e785e77d9000147e94d","B2","batch2","","5966.300000011921","stim/no_50_1.png","j","pattern_response","true","j","pattern_30","5966.300000011921","true","37","","","","","","","","","","","","","","","","","","",""
"","","","","","html-keyboard-response","102","363398","0.0-2.0-7.0-0.1","5bdb5e785e77d9000147e94d","B2","batch2","","null","<p class=block-text>Trial 41 out of 78</p>","null","pattern_show_trial_num","","","","","","","","","","","","","","","","","","","","","","","","",""
"","","","","","image-keyboard-response","103","366107","0.0-2.0-7.0-1.1","5bdb5e785e77d9000147e94d","B2","batch2","","2707.600000023842","stim/yes_28_ver_b1.png","f","pattern_response","true","f","pattern_51","2707.600000023842","true","38","","","","","","","","","","","","","","","","","","",""
"","","","","","html-keyboard-response","104","367431","0.0-2.0-7.0-0.2","5bdb5e785e77d9000147e94d","B2","batch2","","null","<p class=block-text>Trial 42 out of 78</p>","null","pattern_show_trial_num","","","","","","","","","","","","","","","","","","","","","","","","",""
"","","","","","image-keyboard-response","105","370769","0.0-2.0-7.0-1.2","5bdb5e785e77d9000147e94d","B2","batch2","","3336","stim/no_32_1_w.png","j","pattern_response","true","j","pattern_14","3336","true","39","","","","","","","","","","","","","","","","","","",""
"","","","","","html-keyboard-response","106","372083","0.0-2.0-7.0-0.3","5bdb5e785e77d9000147e94d","B2","batch2","","null","<p class=block-text>Trial 43 out of 78</p>","null","pattern_show_trial_num","","","","","","","","","","","","","","","","","","","","","","","","",""
"","","","","","image-keyboard-response","107","373191","0.0-2.0-7.0-1.3","5bdb5e785e77d9000147e94d","B2","batch2","","1106.199999988079","stim/yes_17_dia_w1.png","f","pattern_response","true","f","pattern_45","1106.199999988079","true","40","","","","","","","","","","","","","","","","","","",""
"","","","","","html-keyboard-response","108","374517","0.0-2.0-7.0-0.4","5bdb5e785e77d9000147e94d","B2","batch2","","null","<p class=block-text>Trial 44 out of 78</p>","null","pattern_show_trial_num","","","","","","","","","","","","","","","","","","","","","","","","",""
"","","","","","image-keyboard-response","109","377843","0.0-2.0-7.0-1.4","5bdb5e785e77d9000147e94d","B2","batch2","","3319.199999988079","stim/no_34_1_b.png","j","pattern_response","true","j","pattern_16","3319.199999988079","true","41","","","","","","","","","","","","","","","","","","",""
"","","","","","html-keyboard-response","110","379167","0.0-2.0-7.0-0.5","5bdb5e785e77d9000147e94d","B2","batch2","","null","<p class=block-text>Trial 45 out of 78</p>","null","pattern_show_trial_num","","","","","","","","","","","","","","","","","","","","","","","","",""
"","","","","","image-keyboard-response","111","382965","0.0-2.0-7.0-1.5","5bdb5e785e77d9000147e94d","B2","batch2","","3796","stim/no_38_1_b.png","j","pattern_response","true","j","pattern_20","3796","true","42","","","","","","","","","","","","","","","","","","",""
"","","","","","html-keyboard-response","112","384285","0.0-2.0-7.0-0.6","5bdb5e785e77d9000147e94d","B2","batch2","","null","<p class=block-text>Trial 46 out of 78</p>","null","pattern_show_trial_num","","","","","","","","","","","","","","","","","","","","","","","","",""
"","","","","","image-keyboard-response","113","385358","0.0-2.0-7.0-1.6","5bdb5e785e77d9000147e94d","B2","batch2","","1070.4000000059605","stim/yes_22_ver_w1.png","f","pattern_response","true","f","pattern_47","1070.4000000059605","true","43","","","","","","","","","","","","","","","","","","",""
"","","","","","html-keyboard-response","114","386672","0.0-2.0-7.0-0.7","5bdb5e785e77d9000147e94d","B2","batch2","","null","<p class=block-text>Trial 47 out of 78</p>","null","pattern_show_trial_num","","","","","","","","","","","","","","","","","","","","","","","","",""
"","","","","","image-keyboard-response","115","392842","0.0-2.0-7.0-1.7","5bdb5e785e77d9000147e94d","B2","batch2","","6168.4000000059605","stim/no_46_1_b.png","j","pattern_response","true","j","pattern_26","6168.4000000059605","true","44","","","","","","","","","","","","","","","","","","",""
"","","","","","html-keyboard-response","116","394170","0.0-2.0-7.0-0.8","5bdb5e785e77d9000147e94d","B2","batch2","","null","<p class=block-text>Trial 48 out of 78</p>","null","pattern_show_trial_num","","","","","","","","","","","","","","","","","","","","","","","","",""
"","","","","","image-keyboard-response","117","395202","0.0-2.0-7.0-1.8","5bdb5e785e77d9000147e94d","B2","batch2","","1029.4000000059605","stim/yes_29_ver_w1.png","f","pattern_response","true","f","pattern_53","1029.4000000059605","true","45","","","","","","","","","","","","","","","","","","",""
"","","","","","html-keyboard-response","118","396507","0.0-2.0-7.0-0.9","5bdb5e785e77d9000147e94d","B2","batch2","","null","<p class=block-text>Trial 49 out of 78</p>","null","pattern_show_trial_num","","","","","","","","","","","","","","","","","","","","","","","","",""
"","","","","","image-keyboard-response","119","397736","0.0-2.0-7.0-1.9","5bdb5e785e77d9000147e94d","B2","batch2","","1226.800000011921","stim/yes_38_hor_b1_b.png","f","pattern_response","true","f","pattern_61","1226.800000011921","true","46","","","","","","","","","","","","","","","","","","",""
"","","","","","html-keyboard-response","120","399056","0.0-2.0-7.0-0.10","5bdb5e785e77d9000147e94d","B2","batch2","","null","<p class=block-text>Trial 50 out of 78</p>","null","pattern_show_trial_num","","","","","","","","","","","","","","","","","","","","","","","","",""
"","","","","","image-keyboard-response","121","401892","0.0-2.0-7.0-1.10","5bdb5e785e77d9000147e94d","B2","batch2","","2835","stim/yes_35_dia_b1.png","f","pattern_response","true","f","pattern_57","2835","true","47","","","","","","","","","","","","","","","","","","",""
"","","","","","html-keyboard-response","122","403206","0.0-2.0-7.0-0.11","5bdb5e785e77d9000147e94d","B2","batch2","","null","<p class=block-text>Trial 51 out of 78</p>","null","pattern_show_trial_num","","","","","","","","","","","","","","","","","","","","","","","","",""
"","","","","","image-keyboard-response","123","405647","0.0-2.0-7.0-1.11","5bdb5e785e77d9000147e94d","B2","batch2","","2440.0999999940395","stim/yes_45_hor_b2_b.png","f","pattern_response","true","f","pattern_67","2440.0999999940395","true","48","","","","","","","","","","","","","","","","","","",""
"","","","","","html-keyboard-response","124","406973","0.0-2.0-7.0-0.12","5bdb5e785e77d9000147e94d","B2","batch2","","null","<p class=block-text>Trial 52 out of 78</p>","null","pattern_show_trial_num","","","","","","","","","","","","","","","","","","","","","","","","",""
"","","","","","image-keyboard-response","125","408756","0.0-2.0-7.0-1.12","5bdb5e785e77d9000147e94d","B2","batch2","","1780.2999999821186","stim/yes_55_hor_w1_w.png","f","pattern_response","true","f","pattern_75","1780.2999999821186","true","49","","","","","","","","","","","","","","","","","","",""
"","","","","","html-keyboard-response","126","410075","0.0-2.0-7.0-0.13","5bdb5e785e77d9000147e94d","B2","batch2","","null","<p class=block-text>Trial 53 out of 78</p>","null","pattern_show_trial_num","","","","","","","","","","","","","","","","","","","","","","","","",""
"","","","","","image-keyboard-response","127","415406","0.0-2.0-7.0-1.13","5bdb5e785e77d9000147e94d","B2","batch2","","5329.899999976158","stim/yes_37_dia_w1.png","j","pattern_response","false","f","pattern_59","5329.899999976158","false","49","","","","","","","","","","","","","","","","","","",""
"","","","","","html-keyboard-response","128","416724","0.0-2.0-7.0-0.14","5bdb5e785e77d9000147e94d","B2","batch2","","null","<p class=block-text>Trial 54 out of 78</p>","null","pattern_show_trial_num","","","","","","","","","","","","","","","","","","","","","","","","",""
"","","","","","image-keyboard-response","129","417803","0.0-2.0-7.0-1.14","5bdb5e785e77d9000147e94d","B2","batch2","","1076.2000000178814","stim/yes_25_hor_b1_b.png","f","pattern_response","true","f","pattern_49","1076.2000000178814","true","50","","","","","","","","","","","","","","","","","","",""
"","","","","","html-keyboard-response","130","419125","0.0-2.0-7.0-0.15","5bdb5e785e77d9000147e94d","B2","batch2","","null","<p class=block-text>Trial 55 out of 78</p>","null","pattern_show_trial_num","","","","","","","","","","","","","","","","","","","","","","","","",""
"","","","","","image-keyboard-response","131","421351","0.0-2.0-7.0-1.15","5bdb5e785e77d9000147e94d","B2","batch2","","2224.2000000178814","stim/yes_48_dia_w1_w.png","f","pattern_response","true","f","pattern_69","2224.2000000178814","true","51","","","","","","","","","","","","","","","","","","",""
"","","","","","html-keyboard-response","132","422676","0.0-2.0-7.0-0.16","5bdb5e785e77d9000147e94d","B2","batch2","","null","<p class=block-text>Trial 56 out of 78</p>","null","pattern_show_trial_num","","","","","","","","","","","","","","","","","","","","","","","","",""
"","","","","","image-keyboard-response","133","426026","0.0-2.0-7.0-1.16","5bdb5e785e77d9000147e94d","B2","batch2","","3347.7000000178814","stim/no_26_1_w.png","j","pattern_response","true","j","pattern_10","3347.7000000178814","true","52","","","","","","","","","","","","","","","","","","",""
"","","","","","html-keyboard-response","134","427344","0.0-2.0-7.0-0.17","5bdb5e785e77d9000147e94d","B2","batch2","","null","<p class=block-text>Trial 57 out of 78</p>","null","pattern_show_trial_num","","","","","","","","","","","","","","","","","","","","","","","","",""
"","","","","","image-keyboard-response","135","428434","0.0-2.0-7.0-1.17","5bdb5e785e77d9000147e94d","B2","batch2","","1087.699999988079","stim/yes_43_ver_w1_w.png","f","pattern_response","true","f","pattern_65","1087.699999988079","true","53","","","","","","","","","","","","","","","","","","",""
"","","","","","html-keyboard-response","136","429762","0.0-2.0-7.0-0.18","5bdb5e785e77d9000147e94d","B2","batch2","","null","<p class=block-text>Trial 58 out of 78</p>","null","pattern_show_trial_num","","","","","","","","","","","","","","","","","","","","","","","","",""
"","","","","","image-keyboard-response","137","438757","0.0-2.0-7.0-1.18","5bdb5e785e77d9000147e94d","B2","batch2","","8993","stim/no_62_1_w.png","j","pattern_response","true","j","pattern_36","8993","true","54","","","","","","","","","","","","","","","","","","",""
"","","","","","html-keyboard-response","138","440079","0.0-2.0-7.0-0.19","5bdb5e785e77d9000147e94d","B2","batch2","","null","<p class=block-text>Trial 59 out of 78</p>","null","pattern_show_trial_num","","","","","","","","","","","","","","","","","","","","","","","","",""
"","","","","","image-keyboard-response","139","444226","0.0-2.0-7.0-1.19","5bdb5e785e77d9000147e94d","B2","batch2","","4149.399999976158","stim/yes_40_dia_b1_b.png","j","pattern_response","false","f","pattern_63","4149.399999976158","false","54","","","","","","","","","","","","","","","","","","",""
"","","","","","html-keyboard-response","140","445534","0.0-2.0-7.0-0.20","5bdb5e785e77d9000147e94d","B2","batch2","","null","<p class=block-text>Trial 60 out of 78</p>","null","pattern_show_trial_num","","","","","","","","","","","","","","","","","","","","","","","","",""
"","","","","","image-keyboard-response","141","446859","0.0-2.0-7.0-1.20","5bdb5e785e77d9000147e94d","B2","batch2","","1323.0999999940395","stim/yes_60_ver_b1_b.png","f","pattern_response","true","f","pattern_77","1323.0999999940395","true","55","","","","","","","","","","","","","","","","","","",""
"","","","","","html-keyboard-response","142","448176","0.0-2.0-7.0-0.21","5bdb5e785e77d9000147e94d","B2","batch2","","null","<p class=block-text>Trial 61 out of 78</p>","null","pattern_show_trial_num","","","","","","","","","","","","","","","","","","","","","","","","",""
"","","","","","image-keyboard-response","143","449369","0.0-2.0-7.0-1.21","5bdb5e785e77d9000147e94d","B2","batch2","","1191.2000000178814","stim/no_13_2_b.png","j","pattern_response","true","j","pattern_02","1191.2000000178814","true","56","","","","","","","","","","","","","","","","","","",""
"","","","","","html-keyboard-response","144","450691","0.0-2.0-7.0-0.22","5bdb5e785e77d9000147e94d","B2","batch2","","null","<p class=block-text>Trial 62 out of 78</p>","null","pattern_show_trial_num","","","","","","","","","","","","","","","","","","","","","","","","",""
"","","","","","image-keyboard-response","145","453960","0.0-2.0-7.0-1.22","5bdb5e785e77d9000147e94d","B2","batch2","","3266.7999999821186","stim/no_44_1.png","j","pattern_response","true","j","pattern_24","3266.7999999821186","true","57","","","","","","","","","","","","","","","","","","",""
"","","","","","html-keyboard-response","146","455284","0.0-2.0-7.0-0.23","5bdb5e785e77d9000147e94d","B2","batch2","","null","<p class=block-text>Trial 63 out of 78</p>","null","pattern_show_trial_num","","","","","","","","","","","","","","","","","","","","","","","","",""
"","","","","","image-keyboard-response","147","460504","0.0-2.0-7.0-1.23","5bdb5e785e77d9000147e94d","B2","batch2","","5218.0999999940395","stim/no_55_1_w.png","j","pattern_response","true","j","pattern_34","5218.0999999940395","true","58","","","","","","","","","","","","","","","","","","",""
"","","","","","html-keyboard-response","148","461829","0.0-2.0-7.0-0.24","5bdb5e785e77d9000147e94d","B2","batch2","","null","<p class=block-text>Trial 64 out of 78</p>","null","pattern_show_trial_num","","","","","","","","","","","","","","","","","","","","","","","","",""
"","","","","","image-keyboard-response","149","466194","0.0-2.0-7.0-1.24","5bdb5e785e77d9000147e94d","B2","batch2","","4362.0999999940395","stim/no_42_1_w.png","j","pattern_response","true","j","pattern_22","4362.0999999940395","true","59","","","","","","","","","","","","","","","","","","",""
"","","","","","html-keyboard-response","150","467513","0.0-2.0-7.0-0.25","5bdb5e785e77d9000147e94d","B2","batch2","","null","<p class=block-text>Trial 65 out of 78</p>","null","pattern_show_trial_num","","","","","","","","","","","","","","","","","","","","","","","","",""
"","","","","","image-keyboard-response","151","472027","0.0-2.0-7.0-1.25","5bdb5e785e77d9000147e94d","B2","batch2","","4512","stim/no_52_1.png","j","pattern_response","true","j","pattern_32","4512","true","60","","","","","","","","","","","","","","","","","","",""
"","","","","","html-keyboard-response","152","473348","0.0-2.0-7.0-0.26","5bdb5e785e77d9000147e94d","B2","batch2","","null","<p class=block-text>Trial 66 out of 78</p>","null","pattern_show_trial_num","","","","","","","","","","","","","","","","","","","","","","","","",""
"","","","","","image-keyboard-response","153","475905","0.0-2.0-7.0-1.26","5bdb5e785e77d9000147e94d","B2","batch2","","2555.600000023842","stim/no_20_1_w.png","j","pattern_response","true","j","pattern_06","2555.600000023842","true","61","","","","","","","","","","","","","","","","","","",""
"","","","","","html-keyboard-response","154","477232","0.0-2.0-7.0-0.27","5bdb5e785e77d9000147e94d","B2","batch2","","null","<p class=block-text>Trial 67 out of 78</p>","null","pattern_show_trial_num","","","","","","","","","","","","","","","","","","","","","","","","",""
"","","","","","image-keyboard-response","155","483582","0.0-2.0-7.0-1.27","5bdb5e785e77d9000147e94d","B2","batch2","","6347.800000011921","stim/no_70_2.png","j","pattern_response","true","j","pattern_40","6347.800000011921","true","62","","","","","","","","","","","","","","","","","","",""
"","","","","","html-keyboard-response","156","484899","0.0-2.0-7.0-0.28","5bdb5e785e77d9000147e94d","B2","batch2","","null","<p class=block-text>Trial 68 out of 78</p>","null","pattern_show_trial_num","","","","","","","","","","","","","","","","","","","","","","","","",""
"","","","","","image-keyboard-response","157","489083","0.0-2.0-7.0-1.28","5bdb5e785e77d9000147e94d","B2","batch2","","4182.700000017881","stim/yes_31_hor_b1.png","f","pattern_response","true","f","pattern_55","4182.700000017881","true","63","","","","","","","","","","","","","","","","","","",""
"","","","","","html-keyboard-response","158","490392","0.0-2.0-7.0-0.29","5bdb5e785e77d9000147e94d","B2","batch2","","null","<p class=block-text>Trial 69 out of 78</p>","null","pattern_show_trial_num","","","","","","","","","","","","","","","","","","","","","","","","",""
"","","","","","image-keyboard-response","159","499395","0.0-2.0-7.0-1.29","5bdb5e785e77d9000147e94d","B2","batch2","","9000.5","stim/no_65_1_b.png","j","pattern_response","true","j","pattern_38","9000.5","true","64","","","","","","","","","","","","","","","","","","",""
"","","","","","html-keyboard-response","160","500720","0.0-2.0-7.0-0.30","5bdb5e785e77d9000147e94d","B2","batch2","","null","<p class=block-text>Trial 70 out of 78</p>","null","pattern_show_trial_num","","","","","","","","","","","","","","","","","","","","","","","","",""
"","","","","","image-keyboard-response","161","501965","0.0-2.0-7.0-1.30","5bdb5e785e77d9000147e94d","B2","batch2","","1242.800000011921","stim/yes_67_hor_b1.png","f","pattern_response","true","f","pattern_79","1242.800000011921","true","65","","","","","","","","","","","","","","","","","","",""
"","","","","","html-keyboard-response","162","503287","0.0-2.0-7.0-0.31","5bdb5e785e77d9000147e94d","B2","batch2","","null","<p class=block-text>Trial 71 out of 78</p>","null","pattern_show_trial_num","","","","","","","","","","","","","","","","","","","","","","","","",""
"","","","","","image-keyboard-response","163","507256","0.0-2.0-7.0-1.31","5bdb5e785e77d9000147e94d","B2","batch2","","3975.0999999940395","stim/no_29_1_b.png","j","pattern_response","true","j","pattern_12","3975.0999999940395","true","66","","","","","","","","","","","","","","","","","","",""
"","","","","","html-keyboard-response","164","508580","0.0-2.0-7.0-0.32","5bdb5e785e77d9000147e94d","B2","batch2","","null","<p class=block-text>Trial 72 out of 78</p>","null","pattern_show_trial_num","","","","","","","","","","","","","","","","","","","","","","","","",""
"","","","","","image-keyboard-response","165","512913","0.0-2.0-7.0-1.32","5bdb5e785e77d9000147e94d","B2","batch2","","4330.799999982119","stim/no_48_1_w.png","j","pattern_response","true","j","pattern_28","4330.799999982119","true","67","","","","","","","","","","","","","","","","","","",""
"","","","","","html-keyboard-response","166","514231","0.0-2.0-7.0-0.33","5bdb5e785e77d9000147e94d","B2","batch2","","null","<p class=block-text>Trial 73 out of 78</p>","null","pattern_show_trial_num","","","","","","","","","","","","","","","","","","","","","","","","",""
"","","","","","image-keyboard-response","167","520593","0.0-2.0-7.0-1.33","5bdb5e785e77d9000147e94d","B2","batch2","","6359.300000011921","stim/no_36_2_w.png","j","pattern_response","true","j","pattern_18","6359.300000011921","true","68","","","","","","","","","","","","","","","","","","",""
"","","","","","html-keyboard-response","168","521916","0.0-2.0-7.0-0.34","5bdb5e785e77d9000147e94d","B2","batch2","","null","<p class=block-text>Trial 74 out of 78</p>","null","pattern_show_trial_num","","","","","","","","","","","","","","","","","","","","","","","","",""
"","","","","","image-keyboard-response","169","522745","0.0-2.0-7.0-1.34","5bdb5e785e77d9000147e94d","B2","batch2","","827.0999999940395","stim/yes_14_hor_b1_w.png","f","pattern_response","true","f","pattern_43","827.0999999940395","true","69","","","","","","","","","","","","","","","","","","",""
"","","","","","html-keyboard-response","170","524067","0.0-2.0-7.0-0.35","5bdb5e785e77d9000147e94d","B2","batch2","","null","<p class=block-text>Trial 75 out of 78</p>","null","pattern_show_trial_num","","","","","","","","","","","","","","","","","","","","","","","","",""
"","","","","","image-keyboard-response","171","526121","0.0-2.0-7.0-1.35","5bdb5e785e77d9000147e94d","B2","batch2","","2052.199999988079","stim/no_17_1_w.png","j","pattern_response","true","j","pattern_04","2052.199999988079","true","70","","","","","","","","","","","","","","","","","","",""
"","","","","","html-keyboard-response","172","527451","0.0-2.0-7.0-0.36","5bdb5e785e77d9000147e94d","B2","batch2","","null","<p class=block-text>Trial 76 out of 78</p>","null","pattern_show_trial_num","","","","","","","","","","","","","","","","","","","","","","","","",""
"","","","","","image-keyboard-response","173","529611","0.0-2.0-7.0-1.36","5bdb5e785e77d9000147e94d","B2","batch2","","2158.0999999940395","stim/no_23_1.png","f","pattern_response","false","j","pattern_08","2158.0999999940395","false","70","","","","","","","","","","","","","","","","","","",""
"","","","","","html-keyboard-response","174","530927","0.0-2.0-7.0-0.37","5bdb5e785e77d9000147e94d","B2","batch2","","null","<p class=block-text>Trial 77 out of 78</p>","null","pattern_show_trial_num","","","","","","","","","","","","","","","","","","","","","","","","",""
"","","","","","image-keyboard-response","175","532698","0.0-2.0-7.0-1.37","5bdb5e785e77d9000147e94d","B2","batch2","","1769.1000000238419","stim/yes_52_ver_w1.png","f","pattern_response","true","f","pattern_73","1769.1000000238419","true","71","","","","","","","","","","","","","","","","","","",""
"","","","","","html-keyboard-response","176","534018","0.0-2.0-7.0-0.38","5bdb5e785e77d9000147e94d","B2","batch2","","null","<p class=block-text>Trial 78 out of 78</p>","null","pattern_show_trial_num","","","","","","","","","","","","","","","","","","","","","","","","",""
"","","","","","image-keyboard-response","177","537645","0.0-2.0-7.0-1.38","5bdb5e785e77d9000147e94d","B2","batch2","","3624","stim/yes_50_dia_w1.png","f","pattern_response","true","f","pattern_71","3624","true","72","","","","","","","","","","","","","","","","","","",""
"","","","","","html-button-response","178","574147","0.0-2.0-8.0","5bdb5e785e77d9000147e94d","B2","batch2","","35977.40000000596","<p class = block-text>This concludes the 4-in-a-row detection game.Thank you for your responses!<br>
            You responded correctly on 92% of the trials.<br>
            When you are ready, press ""Continue"" button to continue </p>","0","","","","","","","","","","","","","","","","","","","","","","","","","",""
"true","","","","","fullscreen","179","580646","0.0-3.0-0.0","5bdb5e785e77d9000147e94d","B2","batch2","","","","","spm_fullscreen","","","","","","","","","","","","","","","","","","","","","","","","",""
"","","","","","html-button-response","180","612131","0.0-3.0-1.0","5bdb5e785e77d9000147e94d","B2","batch2","","31482.69999998808","<p class = block-text><b>Instructions</b> <br>This is a widely used intelligence test in research. <br>In this test, a figure with a missing piece will be presented.<br>Below the figure are alternative pieces to complete the figure, only one of which is correct.<br> Different figures might involve different principles for obtaining the missing piece<br>Your job is to select the most logical piece to complete the figure.</p>","0","","","","","","","","","","","","","","","","","","","","","","","","","",""
"","","","","","html-keyboard-response","181","612932","0.0-3.0-2.0-0.0","5bdb5e785e77d9000147e94d","B2","batch2","","null","<p class=block-text>Trial 1 out of 60</p>","null","spm_show_trial_num","","","","","","","","","","","","","","","","","","","","","","","","",""
"","","","","","image-button-response","182","621178","0.0-3.0-2.0-1.0","5bdb5e785e77d9000147e94d","B2","batch2","","8242.799999982119","img/question_1_1.jpeg","3","spm_respsonse","1","4","mat_01","","","","","","1","8242.799999982119","","","","","","","","","","","","","","",""
"","","","","","html-keyboard-response","183","622249","0.0-3.0-2.0-0.1","5bdb5e785e77d9000147e94d","B2","batch2","","null","<p class=block-text>Trial 2 out of 60</p>","null","spm_show_trial_num","","","","","","","","","","","","","","","","","","","","","","","","",""
"","","","","","image-button-response","184","626240","0.0-3.0-2.0-1.1","5bdb5e785e77d9000147e94d","B2","batch2","","3988.300000011921","img/question_1_2.jpeg","4","spm_respsonse","1","5","mat_02","","","","","","1","3988.300000011921","","","","","","","","","","","","","","",""
"","","","","","html-keyboard-response","185","627316","0.0-3.0-2.0-0.2","5bdb5e785e77d9000147e94d","B2","batch2","","null","<p class=block-text>Trial 3 out of 60</p>","null","spm_show_trial_num","","","","","","","","","","","","","","","","","","","","","","","","",""
"","","","","","image-button-response","186","632162","0.0-3.0-2.0-1.2","5bdb5e785e77d9000147e94d","B2","batch2","","4842.899999976158","img/question_1_3.jpeg","0","spm_respsonse","1","1","mat_03","","","","","","1","4842.899999976158","","","","","","","","","","","","","","",""
"","","","","","html-keyboard-response","187","633226","0.0-3.0-2.0-0.3","5bdb5e785e77d9000147e94d","B2","batch2","","null","<p class=block-text>Trial 4 out of 60</p>","null","spm_show_trial_num","","","","","","","","","","","","","","","","","","","","","","","","",""
"","","","","","image-button-response","188","637279","0.0-3.0-2.0-1.3","5bdb5e785e77d9000147e94d","B2","batch2","","4050.800000011921","img/question_1_4.jpeg","1","spm_respsonse","1","2","mat_04","","","","","","1","4050.800000011921","","","","","","","","","","","","","","",""
"","","","","","html-keyboard-response","189","638352","0.0-3.0-2.0-0.4","5bdb5e785e77d9000147e94d","B2","batch2","","null","<p class=block-text>Trial 5 out of 60</p>","null","spm_show_trial_num","","","","","","","","","","","","","","","","","","","","","","","","",""
"","","","","","image-button-response","190","642506","0.0-3.0-2.0-1.4","5bdb5e785e77d9000147e94d","B2","batch2","","4150.699999988079","img/question_1_5.jpeg","5","spm_respsonse","1","6","mat_05","","","","","","1","4150.699999988079","","","","","","","","","","","","","","",""
"","","","","","html-keyboard-response","191","643571","0.0-3.0-2.0-0.5","5bdb5e785e77d9000147e94d","B2","batch2","","null","<p class=block-text>Trial 6 out of 60</p>","null","spm_show_trial_num","","","","","","","","","","","","","","","","","","","","","","","","",""
"","","","","","image-button-response","192","647482","0.0-3.0-2.0-1.5","5bdb5e785e77d9000147e94d","B2","batch2","","3908.5","img/question_1_6.jpeg","2","spm_respsonse","1","3","mat_06","","","","","","1","3908.5","","","","","","","","","","","","","","",""
"","","","","","html-keyboard-response","193","648554","0.0-3.0-2.0-0.6","5bdb5e785e77d9000147e94d","B2","batch2","","null","<p class=block-text>Trial 7 out of 60</p>","null","spm_show_trial_num","","","","","","","","","","","","","","","","","","","","","","","","",""
"","","","","","image-button-response","194","656428","0.0-3.0-2.0-1.6","5bdb5e785e77d9000147e94d","B2","batch2","","7871.600000023842","img/question_1_7.jpeg","5","spm_respsonse","1","6","mat_07","","","","","","1","7871.600000023842","","","","","","","","","","","","","","",""
"","","","","","html-keyboard-response","195","657489","0.0-3.0-2.0-0.7","5bdb5e785e77d9000147e94d","B2","batch2","","null","<p class=block-text>Trial 8 out of 60</p>","null","spm_show_trial_num","","","","","","","","","","","","","","","","","","","","","","","","",""
"","","","","","image-button-response","196","663460","0.0-3.0-2.0-1.7","5bdb5e785e77d9000147e94d","B2","batch2","","5968.699999988079","img/question_1_8.jpeg","2","spm_respsonse","0","2","mat_08","","","","","","0","5968.699999988079","","","","","","","","","","","","","","",""
"","","","","","html-keyboard-response","197","664541","0.0-3.0-2.0-0.8","5bdb5e785e77d9000147e94d","B2","batch2","","null","<p class=block-text>Trial 9 out of 60</p>","null","spm_show_trial_num","","","","","","","","","","","","","","","","","","","","","","","","",""
"","","","","","image-button-response","198","670593","0.0-3.0-2.0-1.8","5bdb5e785e77d9000147e94d","B2","batch2","","6049","img/question_1_9.jpeg","0","spm_respsonse","1","1","mat_09","","","","","","1","6049","","","","","","","","","","","","","","",""
"","","","","","html-keyboard-response","199","671658","0.0-3.0-2.0-0.9","5bdb5e785e77d9000147e94d","B2","batch2","","null","<p class=block-text>Trial 10 out of 60</p>","null","spm_show_trial_num","","","","","","","","","","","","","","","","","","","","","","","","",""
"","","","","","image-button-response","200","705016","0.0-3.0-2.0-1.9","5bdb5e785e77d9000147e94d","B2","batch2","","33355.19999998808","img/question_1_10.jpeg","2","spm_respsonse","1","3","mat_10","","","","","","1","33355.19999998808","","","","","","","","","","","","","","",""
"","","","","","html-keyboard-response","201","706082","0.0-3.0-2.0-0.10","5bdb5e785e77d9000147e94d","B2","batch2","","null","<p class=block-text>Trial 11 out of 60</p>","null","spm_show_trial_num","","","","","","","","","","","","","","","","","","","","","","","","",""
"","","","","","image-button-response","202","723148","0.0-3.0-2.0-1.10","5bdb5e785e77d9000147e94d","B2","batch2","","17063.5","img/question_1_11.jpeg","3","spm_respsonse","1","4","mat_11","","","","","","1","17063.5","","","","","","","","","","","","","","",""
"","","","","","html-keyboard-response","203","724218","0.0-3.0-2.0-0.11","5bdb5e785e77d9000147e94d","B2","batch2","","null","<p class=block-text>Trial 12 out of 60</p>","null","spm_show_trial_num","","","","","","","","","","","","","","","","","","","","","","","","",""
"","","","","","image-button-response","204","742124","0.0-3.0-2.0-1.11","5bdb5e785e77d9000147e94d","B2","batch2","","17904.100000023842","img/question_1_12.jpeg","3","spm_respsonse","0","5","mat_12","","","","","","0","17904.100000023842","","","","","","","","","","","","","","",""
"","","","","","html-keyboard-response","205","743189","0.0-3.0-2.0-0.12","5bdb5e785e77d9000147e94d","B2","batch2","","null","<p class=block-text>Trial 13 out of 60</p>","null","spm_show_trial_num","","","","","","","","","","","","","","","","","","","","","","","","",""
"","","","","","image-button-response","206","747920","0.0-3.0-2.0-1.12","5bdb5e785e77d9000147e94d","B2","batch2","","4728","img/question_2_1.jpeg","2","spm_respsonse","0","2","mat_13","","","","","","0","4728","","","","","","","","","","","","","","",""
"","","","","","html-keyboard-response","207","748990","0.0-3.0-2.0-0.13","5bdb5e785e77d9000147e94d","B2","batch2","","null","<p class=block-text>Trial 14 out of 60</p>","null","spm_show_trial_num","","","","","","","","","","","","","","","","","","","","","","","","",""
"","","","","","image-button-response","208","760178","0.0-3.0-2.0-1.13","5bdb5e785e77d9000147e94d","B2","batch2","","11185.300000011921","img/question_2_2.jpeg","5","spm_respsonse","1","6","mat_14","","","","","","1","11185.300000011921","","","","","","","","","","","","","","",""
"","","","","","html-keyboard-response","209","761243","0.0-3.0-2.0-0.14","5bdb5e785e77d9000147e94d","B2","batch2","","null","<p class=block-text>Trial 15 out of 60</p>","null","spm_show_trial_num","","","","","","","","","","","","","","","","","","","","","","","","",""
"","","","","","image-button-response","210","766732","0.0-3.0-2.0-1.14","5bdb5e785e77d9000147e94d","B2","batch2","","5487.4000000059605","img/question_2_3.jpeg","0","spm_respsonse","1","1","mat_15","","","","","","1","5487.4000000059605","","","","","","","","","","","","","","",""
"","","","","","html-keyboard-response","211","767810","0.0-3.0-2.0-0.15","5bdb5e785e77d9000147e94d","B2","batch2","","null","<p class=block-text>Trial 16 out of 60</p>","null","spm_show_trial_num","","","","","","","","","","","","","","","","","","","","","","","","",""
"","","","","","image-button-response","212","772732","0.0-3.0-2.0-1.15","5bdb5e785e77d9000147e94d","B2","batch2","","4919","img/question_2_4.jpeg","1","spm_respsonse","1","2","mat_16","","","","","","1","4919","","","","","","","","","","","","","","",""
"","","","","","html-keyboard-response","213","773795","0.0-3.0-2.0-0.16","5bdb5e785e77d9000147e94d","B2","batch2","","null","<p class=block-text>Trial 17 out of 60</p>","null","spm_show_trial_num","","","","","","","","","","","","","","","","","","","","","","","","",""
"","","","","","image-button-response","214","779880","0.0-3.0-2.0-1.16","5bdb5e785e77d9000147e94d","B2","batch2","","6081.800000011921","img/question_2_5.jpeg","4","spm_respsonse","0","1","mat_17","","","","","","0","6081.800000011921","","","","","","","","","","","","","","",""
"","","","","","html-keyboard-response","215","780946","0.0-3.0-2.0-0.17","5bdb5e785e77d9000147e94d","B2","batch2","","null","<p class=block-text>Trial 18 out of 60</p>","null","spm_show_trial_num","","","","","","","","","","","","","","","","","","","","","","","","",""
"","","","","","image-button-response","216","794644","0.0-3.0-2.0-1.17","5bdb5e785e77d9000147e94d","B2","batch2","","13695","img/question_2_6.jpeg","2","spm_respsonse","1","3","mat_18","","","","","","1","13695","","","","","","","","","","","","","","",""
"","","","","","html-keyboard-response","217","795717","0.0-3.0-2.0-0.18","5bdb5e785e77d9000147e94d","B2","batch2","","null","<p class=block-text>Trial 19 out of 60</p>","null","spm_show_trial_num","","","","","","","","","","","","","","","","","","","","","","","","",""
"","","","","","image-button-response","218","810088","0.0-3.0-2.0-1.18","5bdb5e785e77d9000147e94d","B2","batch2","","14368.199999988079","img/question_2_7.jpeg","0","spm_respsonse","0","5","mat_19","","","","","","0","14368.199999988079","","","","","","","","","","","","","","",""
"","","","","","html-keyboard-response","219","811151","0.0-3.0-2.0-0.19","5bdb5e785e77d9000147e94d","B2","batch2","","null","<p class=block-text>Trial 20 out of 60</p>","null","spm_show_trial_num","","","","","","","","","","","","","","","","","","","","","","","","",""
"","","","","","image-button-response","220","831282","0.0-3.0-2.0-1.19","5bdb5e785e77d9000147e94d","B2","batch2","","20128.79999998212","img/question_2_8.jpeg","5","spm_respsonse","1","6","mat_20","","","","","","1","20128.79999998212","","","","","","","","","","","","","","",""
"","","","","","html-keyboard-response","221","832357","0.0-3.0-2.0-0.20","5bdb5e785e77d9000147e94d","B2","batch2","","null","<p class=block-text>Trial 21 out of 60</p>","null","spm_show_trial_num","","","","","","","","","","","","","","","","","","","","","","","","",""
"","","","","","image-button-response","222","853866","0.0-3.0-2.0-1.20","5bdb5e785e77d9000147e94d","B2","batch2","","21506.09999999404","img/question_2_9.jpeg","5","spm_respsonse","0","4","mat_21","","","","","","0","21506.09999999404","","","","","","","","","","","","","","",""
"","","","","","html-keyboard-response","223","854944","0.0-3.0-2.0-0.21","5bdb5e785e77d9000147e94d","B2","batch2","","null","<p class=block-text>Trial 22 out of 60</p>","null","spm_show_trial_num","","","","","","","","","","","","","","","","","","","","","","","","",""
"","","","","","image-button-response","224","872578","0.0-3.0-2.0-1.21","5bdb5e785e77d9000147e94d","B2","batch2","","17631.19999998808","img/question_2_10.jpeg","2","spm_respsonse","1","3","mat_22","","","","","","1","17631.19999998808","","","","","","","","","","","","","","",""
"","","","","","html-keyboard-response","225","873648","0.0-3.0-2.0-0.22","5bdb5e785e77d9000147e94d","B2","batch2","","null","<p class=block-text>Trial 23 out of 60</p>","null","spm_show_trial_num","","","","","","","","","","","","","","","","","","","","","","","","",""
"","","","","","image-button-response","226","895867","0.0-3.0-2.0-1.22","5bdb5e785e77d9000147e94d","B2","batch2","","22216.5","img/question_2_11.jpeg","5","spm_respsonse","0","4","mat_23","","","","","","0","22216.5","","","","","","","","","","","","","","",""
"","","","","","html-keyboard-response","227","896937","0.0-3.0-2.0-0.23","5bdb5e785e77d9000147e94d","B2","batch2","","null","<p class=block-text>Trial 24 out of 60</p>","null","spm_show_trial_num","","","","","","","","","","","","","","","","","","","","","","","","",""
"","","","","","image-button-response","228","944418","0.0-3.0-2.0-1.23","5bdb5e785e77d9000147e94d","B2","batch2","","47478.5","img/question_2_12.jpeg","5","spm_respsonse","0","5","mat_24","","","","","","0","47478.5","","","","","","","","","","","","","","",""
"","","","","","html-button-response","229","947495","0.0-3.0-3.0","5bdb5e785e77d9000147e94d","B2","batch2","","2811.5","<p class = block-text>Attention check: Please choose 1<br></p>","0","attention_check","true","","","","","","","","","","","","","","","","","","","","","","","",""
"","","","","","html-keyboard-response","230","948306","0.0-3.0-4.0-0.0","5bdb5e785e77d9000147e94d","B2","batch2","","null","<p class=block-text>Trial 25 out of 60</p>","null","spm_show_trial_num","","","","","","","","","","","","","","","","","","","","","","","","",""
"","","","","","image-button-response","231","962452","0.0-3.0-4.0-1.0","5bdb5e785e77d9000147e94d","B2","batch2","","14142.700000017881","img/question_3_1.jpeg","7","spm_respsonse","1","8","mat_25","","","","","","1","14142.700000017881","","","","","","","","","","","","","","",""
"","","","","","html-keyboard-response","232","963515","0.0-3.0-4.0-0.1","5bdb5e785e77d9000147e94d","B2","batch2","","null","<p class=block-text>Trial 26 out of 60</p>","null","spm_show_trial_num","","","","","","","","","","","","","","","","","","","","","","","","",""
"","","","","","image-button-response","233","974151","0.0-3.0-4.0-1.1","5bdb5e785e77d9000147e94d","B2","batch2","","10633.399999976158","img/question_3_2.jpeg","1","spm_respsonse","1","2","mat_26","","","","","","1","10633.399999976158","","","","","","","","","","","","","","",""
"","","","","","html-keyboard-response","234","975218","0.0-3.0-4.0-0.2","5bdb5e785e77d9000147e94d","B2","batch2","","null","<p class=block-text>Trial 27 out of 60</p>","null","spm_show_trial_num","","","","","","","","","","","","","","","","","","","","","","","","",""
"","","","","","image-button-response","235","996622","0.0-3.0-4.0-1.2","5bdb5e785e77d9000147e94d","B2","batch2","","21402","img/question_3_3.jpeg","2","spm_respsonse","1","3","mat_27","","","","","","1","21402","","","","","","","","","","","","","","",""
"","","","","","html-keyboard-response","236","997690","0.0-3.0-4.0-0.3","5bdb5e785e77d9000147e94d","B2","batch2","","null","<p class=block-text>Trial 28 out of 60</p>","null","spm_show_trial_num","","","","","","","","","","","","","","","","","","","","","","","","",""
"","","","","","image-button-response","237","1017654","0.0-3.0-4.0-1.3","5bdb5e785e77d9000147e94d","B2","batch2","","19961.5","img/question_3_4.jpeg","7","spm_respsonse","1","8","mat_28","","","","","","1","19961.5","","","","","","","","","","","","","","",""
"","","","","","html-keyboard-response","238","1018727","0.0-3.0-4.0-0.4","5bdb5e785e77d9000147e94d","B2","batch2","","null","<p class=block-text>Trial 29 out of 60</p>","null","spm_show_trial_num","","","","","","","","","","","","","","","","","","","","","","","","",""
"","","","","","image-button-response","239","1038218","0.0-3.0-4.0-1.4","5bdb5e785e77d9000147e94d","B2","batch2","","19489","img/question_3_5.jpeg","6","spm_respsonse","1","7","mat_29","","","","","","1","19489","","","","","","","","","","","","","","",""
"","","","","","html-keyboard-response","240","1039297","0.0-3.0-4.0-0.5","5bdb5e785e77d9000147e94d","B2","batch2","","null","<p class=block-text>Trial 30 out of 60</p>","null","spm_show_trial_num","","","","","","","","","","","","","","","","","","","","","","","","",""
"","","","","","image-button-response","241","1061305","0.0-3.0-4.0-1.5","5bdb5e785e77d9000147e94d","B2","batch2","","22006.19999998808","img/question_3_6.jpeg","3","spm_respsonse","1","4","mat_30","","","","","","1","22006.19999998808","","","","","","","","","","","","","","",""
"","","","","","html-keyboard-response","242","1062368","0.0-3.0-4.0-0.6","5bdb5e785e77d9000147e94d","B2","batch2","","null","<p class=block-text>Trial 31 out of 60</p>","null","spm_show_trial_num","","","","","","","","","","","","","","","","","","","","","","","","",""
"","","","","","image-button-response","243","1082713","0.0-3.0-4.0-1.6","5bdb5e785e77d9000147e94d","B2","batch2","","20342.5","img/question_3_7.jpeg","4","spm_respsonse","1","5","mat_31","","","","","","1","20342.5","","","","","","","","","","","","","","",""
"","","","","","html-keyboard-response","244","1083789","0.0-3.0-4.0-0.7","5bdb5e785e77d9000147e94d","B2","batch2","","null","<p class=block-text>Trial 32 out of 60</p>","null","spm_show_trial_num","","","","","","","","","","","","","","","","","","","","","","","","",""
"","","","","","image-button-response","245","1115802","0.0-3.0-4.0-1.7","5bdb5e785e77d9000147e94d","B2","batch2","","32011.29999998212","img/question_3_8.jpeg","6","spm_respsonse","0","1","mat_32","","","","","","0","32011.29999998212","","","","","","","","","","","","","","",""
"","","","","","html-keyboard-response","246","1116879","0.0-3.0-4.0-0.8","5bdb5e785e77d9000147e94d","B2","batch2","","null","<p class=block-text>Trial 33 out of 60</p>","null","spm_show_trial_num","","","","","","","","","","","","","","","","","","","","","","","","",""
"","","","","","image-button-response","247","1136560","0.0-3.0-4.0-1.8","5bdb5e785e77d9000147e94d","B2","batch2","","19677.40000000596","img/question_3_9.jpeg","6","spm_respsonse","1","7","mat_33","","","","","","1","19677.40000000596","","","","","","","","","","","","","","",""
"","","","","","html-keyboard-response","248","1137632","0.0-3.0-4.0-0.9","5bdb5e785e77d9000147e94d","B2","batch2","","null","<p class=block-text>Trial 34 out of 60</p>","null","spm_show_trial_num","","","","","","","","","","","","","","","","","","","","","","","","",""
"","","","","","image-button-response","249","1166703","0.0-3.0-4.0-1.9","5bdb5e785e77d9000147e94d","B2","batch2","","29067.5","img/question_3_10.jpeg","5","spm_respsonse","1","6","mat_34","","","","","","1","29067.5","","","","","","","","","","","","","","",""
"","","","","","html-keyboard-response","250","1167760","0.0-3.0-4.0-0.10","5bdb5e785e77d9000147e94d","B2","batch2","","null","<p class=block-text>Trial 35 out of 60</p>","null","spm_show_trial_num","","","","","","","","","","","","","","","","","","","","","","","","",""
"","","","","","image-button-response","251","1195377","0.0-3.0-4.0-1.10","5bdb5e785e77d9000147e94d","B2","batch2","","27615.40000000596","img/question_3_11.jpeg","1","spm_respsonse","0","1","mat_35","","","","","","0","27615.40000000596","","","","","","","","","","","","","","",""
"","","","","","html-keyboard-response","252","1196457","0.0-3.0-4.0-0.11","5bdb5e785e77d9000147e94d","B2","batch2","","null","<p class=block-text>Trial 36 out of 60</p>","null","spm_show_trial_num","","","","","","","","","","","","","","","","","","","","","","","","",""
"","","","","","image-button-response","253","1232194","0.0-3.0-4.0-1.11","5bdb5e785e77d9000147e94d","B2","batch2","","35735.10000002384","img/question_3_12.jpeg","1","spm_respsonse","1","2","mat_36","","","","","","1","35735.10000002384","","","","","","","","","","","","","","",""
"","","","","","html-keyboard-response","254","1233264","0.0-3.0-4.0-0.12","5bdb5e785e77d9000147e94d","B2","batch2","","null","<p class=block-text>Trial 37 out of 60</p>","null","spm_show_trial_num","","","","","","","","","","","","","","","","","","","","","","","","",""
"","","","","","image-button-response","255","1237324","0.0-3.0-4.0-1.12","5bdb5e785e77d9000147e94d","B2","batch2","","4057.5","img/question_4_1.jpeg","2","spm_respsonse","1","3","mat_37","","","","","","1","4057.5","","","","","","","","","","","","","","",""
"","","","","","html-keyboard-response","256","1238386","0.0-3.0-4.0-0.13","5bdb5e785e77d9000147e94d","B2","batch2","","null","<p class=block-text>Trial 38 out of 60</p>","null","spm_show_trial_num","","","","","","","","","","","","","","","","","","","","","","","","",""
"","","","","","image-button-response","257","1248591","0.0-3.0-4.0-1.13","5bdb5e785e77d9000147e94d","B2","batch2","","10202","img/question_4_2.jpeg","3","spm_respsonse","1","4","mat_38","","","","","","1","10202","","","","","","","","","","","","","","",""
"","","","","","html-keyboard-response","258","1249652","0.0-3.0-4.0-0.14","5bdb5e785e77d9000147e94d","B2","batch2","","null","<p class=block-text>Trial 39 out of 60</p>","null","spm_show_trial_num","","","","","","","","","","","","","","","","","","","","","","","","",""
"","","","","","image-button-response","259","1261786","0.0-3.0-4.0-1.14","5bdb5e785e77d9000147e94d","B2","batch2","","12131.699999988079","img/question_4_3.jpeg","2","spm_respsonse","1","3","mat_39","","","","","","1","12131.699999988079","","","","","","","","","","","","","","",""
"","","","","","html-keyboard-response","260","1262860","0.0-3.0-4.0-0.15","5bdb5e785e77d9000147e94d","B2","batch2","","null","<p class=block-text>Trial 40 out of 60</p>","null","spm_show_trial_num","","","","","","","","","","","","","","","","","","","","","","","","",""
"","","","","","image-button-response","261","1294551","0.0-3.0-4.0-1.15","5bdb5e785e77d9000147e94d","B2","batch2","","31689.20000001788","img/question_4_4.jpeg","6","spm_respsonse","1","7","mat_40","","","","","","1","31689.20000001788","","","","","","","","","","","","","","",""
"","","","","","html-keyboard-response","262","1295608","0.0-3.0-4.0-0.16","5bdb5e785e77d9000147e94d","B2","batch2","","null","<p class=block-text>Trial 41 out of 60</p>","null","spm_show_trial_num","","","","","","","","","","","","","","","","","","","","","","","","",""
"","","","","","image-button-response","263","1343276","0.0-3.0-4.0-1.16","5bdb5e785e77d9000147e94d","B2","batch2","","47665.09999999404","img/question_4_5.jpeg","7","spm_respsonse","1","8","mat_41","","","","","","1","47665.09999999404","","","","","","","","","","","","","","",""
"","","","","","html-keyboard-response","264","1344340","0.0-3.0-4.0-0.17","5bdb5e785e77d9000147e94d","B2","batch2","","null","<p class=block-text>Trial 42 out of 60</p>","null","spm_show_trial_num","","","","","","","","","","","","","","","","","","","","","","","","",""
"","","","","","image-button-response","265","1359383","0.0-3.0-4.0-1.17","5bdb5e785e77d9000147e94d","B2","batch2","","15040.800000011921","img/question_4_6.jpeg","5","spm_respsonse","1","6","mat_42","","","","","","1","15040.800000011921","","","","","","","","","","","","","","",""
"","","","","","html-keyboard-response","266","1360458","0.0-3.0-4.0-0.18","5bdb5e785e77d9000147e94d","B2","batch2","","null","<p class=block-text>Trial 43 out of 60</p>","null","spm_show_trial_num","","","","","","","","","","","","","","","","","","","","","","","","",""
"","","","","","image-button-response","267","1388537","0.0-3.0-4.0-1.18","5bdb5e785e77d9000147e94d","B2","batch2","","28077.09999999404","img/question_4_7.jpeg","7","spm_respsonse","0","5","mat_43","","","","","","0","28077.09999999404","","","","","","","","","","","","","","",""
"","","","","","html-keyboard-response","268","1389603","0.0-3.0-4.0-0.19","5bdb5e785e77d9000147e94d","B2","batch2","","null","<p class=block-text>Trial 44 out of 60</p>","null","spm_show_trial_num","","","","","","","","","","","","","","","","","","","","","","","","",""
"","","","","","image-button-response","269","1408470","0.0-3.0-4.0-1.19","5bdb5e785e77d9000147e94d","B2","batch2","","18864.29999998212","img/question_4_8.jpeg","3","spm_respsonse","1","4","mat_44","","","","","","1","18864.29999998212","","","","","","","","","","","","","","",""
"","","","","","html-keyboard-response","270","1409541","0.0-3.0-4.0-0.20","5bdb5e785e77d9000147e94d","B2","batch2","","null","<p class=block-text>Trial 45 out of 60</p>","null","spm_show_trial_num","","","","","","","","","","","","","","","","","","","","","","","","",""
"","","","","","image-button-response","271","1454160","0.0-3.0-4.0-1.20","5bdb5e785e77d9000147e94d","B2","batch2","","44617.09999999404","img/question_4_9.jpeg","0","spm_respsonse","1","1","mat_45","","","","","","1","44617.09999999404","","","","","","","","","","","","","","",""
"","","","","","html-keyboard-response","272","1455226","0.0-3.0-4.0-0.21","5bdb5e785e77d9000147e94d","B2","batch2","","null","<p class=block-text>Trial 46 out of 60</p>","null","spm_show_trial_num","","","","","","","","","","","","","","","","","","","","","","","","",""
"","","","","","image-button-response","273","1491035","0.0-3.0-4.0-1.21","5bdb5e785e77d9000147e94d","B2","batch2","","35806.59999999404","img/question_4_10.jpeg","4","spm_respsonse","0","2","mat_46","","","","","","0","35806.59999999404","","","","","","","","","","","","","","",""
"","","","","","html-keyboard-response","274","1492115","0.0-3.0-4.0-0.22","5bdb5e785e77d9000147e94d","B2","batch2","","null","<p class=block-text>Trial 47 out of 60</p>","null","spm_show_trial_num","","","","","","","","","","","","","","","","","","","","","","","","",""
"","","","","","image-button-response","275","1529648","0.0-3.0-4.0-1.22","5bdb5e785e77d9000147e94d","B2","batch2","","37530.80000001192","img/question_4_11.jpeg","6","spm_respsonse","0","5","mat_47","","","","","","0","37530.80000001192","","","","","","","","","","","","","","",""
"","","","","","html-keyboard-response","276","1530720","0.0-3.0-4.0-0.23","5bdb5e785e77d9000147e94d","B2","batch2","","null","<p class=block-text>Trial 48 out of 60</p>","null","spm_show_trial_num","","","","","","","","","","","","","","","","","","","","","","","","",""
"","","","","","image-button-response","277","1547042","0.0-3.0-4.0-1.23","5bdb5e785e77d9000147e94d","B2","batch2","","16319.200000017881","img/question_4_12.jpeg","0","spm_respsonse","0","6","mat_48","","","","","","0","16319.200000017881","","","","","","","","","","","","","","",""
"","","","","","html-keyboard-response","278","1548108","0.0-3.0-4.0-0.24","5bdb5e785e77d9000147e94d","B2","batch2","","null","<p class=block-text>Trial 49 out of 60</p>","null","spm_show_trial_num","","","","","","","","","","","","","","","","","","","","","","","","",""
"","","","","","image-button-response","279","1554980","0.0-3.0-4.0-1.24","5bdb5e785e77d9000147e94d","B2","batch2","","6869.9000000059605","img/question_5_1.jpeg","0","spm_respsonse","0","7","mat_49","","","","","","0","6869.9000000059605","","","","","","","","","","","","","","",""
"","","","","","html-keyboard-response","280","1556040","0.0-3.0-4.0-0.25","5bdb5e785e77d9000147e94d","B2","batch2","","null","<p class=block-text>Trial 50 out of 60</p>","null","spm_show_trial_num","","","","","","","","","","","","","","","","","","","","","","","","",""
"","","","","","image-button-response","281","1586657","0.0-3.0-4.0-1.25","5bdb5e785e77d9000147e94d","B2","batch2","","30615.69999998808","img/question_5_2.jpeg","5","spm_respsonse","1","6","mat_50","","","","","","1","30615.69999998808","","","","","","","","","","","","","","",""
"","","","","","html-keyboard-response","282","1587729","0.0-3.0-4.0-0.26","5bdb5e785e77d9000147e94d","B2","batch2","","null","<p class=block-text>Trial 51 out of 60</p>","null","spm_show_trial_num","","","","","","","","","","","","","","","","","","","","","","","","",""
"","","","","","image-button-response","283","1608557","0.0-3.0-4.0-1.26","5bdb5e785e77d9000147e94d","B2","batch2","","20826.19999998808","img/question_5_3.jpeg","7","spm_respsonse","1","8","mat_51","","","","","","1","20826.19999998808","","","","","","","","","","","","","","",""
"","","","","","html-keyboard-response","284","1609621","0.0-3.0-4.0-0.27","5bdb5e785e77d9000147e94d","B2","batch2","","null","<p class=block-text>Trial 52 out of 60</p>","null","spm_show_trial_num","","","","","","","","","","","","","","","","","","","","","","","","",""
"","","","","","image-button-response","285","1641402","0.0-3.0-4.0-1.27","5bdb5e785e77d9000147e94d","B2","batch2","","31779","img/question_5_4.jpeg","2","spm_respsonse","0","2","mat_52","","","","","","0","31779","","","","","","","","","","","","","","",""
"","","","","","html-keyboard-response","286","1642479","0.0-3.0-4.0-0.28","5bdb5e785e77d9000147e94d","B2","batch2","","null","<p class=block-text>Trial 53 out of 60</p>","null","spm_show_trial_num","","","","","","","","","","","","","","","","","","","","","","","","",""
"","","","","","image-button-response","287","1650777","0.0-3.0-4.0-1.28","5bdb5e785e77d9000147e94d","B2","batch2","","8295.5","img/question_5_5.jpeg","6","spm_respsonse","0","1","mat_53","","","","","","0","8295.5","","","","","","","","","","","","","","",""
"","","","","","html-keyboard-response","288","1651852","0.0-3.0-4.0-0.29","5bdb5e785e77d9000147e94d","B2","batch2","","null","<p class=block-text>Trial 54 out of 60</p>","null","spm_show_trial_num","","","","","","","","","","","","","","","","","","","","","","","","",""
"","","","","","image-button-response","289","1666767","0.0-3.0-4.0-1.29","5bdb5e785e77d9000147e94d","B2","batch2","","14912","img/question_5_6.jpeg","7","spm_respsonse","0","5","mat_54","","","","","","0","14912","","","","","","","","","","","","","","",""
"","","","","","html-keyboard-response","290","1667839","0.0-3.0-4.0-0.30","5bdb5e785e77d9000147e94d","B2","batch2","","null","<p class=block-text>Trial 55 out of 60</p>","null","spm_show_trial_num","","","","","","","","","","","","","","","","","","","","","","","","",""
"","","","","","image-button-response","291","1692067","0.0-3.0-4.0-1.30","5bdb5e785e77d9000147e94d","B2","batch2","","24225.90000000596","img/question_5_7.jpeg","0","spm_respsonse","1","1","mat_55","","","","","","1","24225.90000000596","","","","","","","","","","","","","","",""
"","","","","","html-keyboard-response","292","1693139","0.0-3.0-4.0-0.31","5bdb5e785e77d9000147e94d","B2","batch2","","null","<p class=block-text>Trial 56 out of 60</p>","null","spm_show_trial_num","","","","","","","","","","","","","","","","","","","","","","","","",""
"","","","","","image-button-response","293","1719852","0.0-3.0-4.0-1.31","5bdb5e785e77d9000147e94d","B2","batch2","","26710.80000001192","img/question_5_8.jpeg","0","spm_respsonse","0","6","mat_56","","","","","","0","26710.80000001192","","","","","","","","","","","","","","",""
"","","","","","html-keyboard-response","294","1720919","0.0-3.0-4.0-0.32","5bdb5e785e77d9000147e94d","B2","batch2","","null","<p class=block-text>Trial 57 out of 60</p>","null","spm_show_trial_num","","","","","","","","","","","","","","","","","","","","","","","","",""
"","","","","","image-button-response","295","1738069","0.0-3.0-4.0-1.32","5bdb5e785e77d9000147e94d","B2","batch2","","17146.80000001192","img/question_5_9.jpeg","7","spm_respsonse","0","3","mat_57","","","","","","0","17146.80000001192","","","","","","","","","","","","","","",""
"","","","","","html-keyboard-response","296","1739140","0.0-3.0-4.0-0.33","5bdb5e785e77d9000147e94d","B2","batch2","","null","<p class=block-text>Trial 58 out of 60</p>","null","spm_show_trial_num","","","","","","","","","","","","","","","","","","","","","","","","",""
"","","","","","image-button-response","297","1753020","0.0-3.0-4.0-1.33","5bdb5e785e77d9000147e94d","B2","batch2","","13878.300000011921","img/question_5_10.jpeg","0","spm_respsonse","0","2","mat_58","","","","","","0","13878.300000011921","","","","","","","","","","","","","","",""
"","","","","","html-keyboard-response","298","1754096","0.0-3.0-4.0-0.34","5bdb5e785e77d9000147e94d","B2","batch2","","null","<p class=block-text>Trial 59 out of 60</p>","null","spm_show_trial_num","","","","","","","","","","","","","","","","","","","","","","","","",""
"","","","","","image-button-response","299","1788545","0.0-3.0-4.0-1.34","5bdb5e785e77d9000147e94d","B2","batch2","","34447.30000001192","img/question_5_11.jpeg","6","spm_respsonse","0","4","mat_59","","","","","","0","34447.30000001192","","","","","","","","","","","","","","",""
"","","","","","html-keyboard-response","300","1789611","0.0-3.0-4.0-0.35","5bdb5e785e77d9000147e94d","B2","batch2","","null","<p class=block-text>Trial 60 out of 60</p>","null","spm_show_trial_num","","","","","","","","","","","","","","","","","","","","","","","","",""
"","","","","","image-button-response","301","1815637","0.0-3.0-4.0-1.35","5bdb5e785e77d9000147e94d","B2","batch2","","26024.09999999404","img/question_5_12.jpeg","1","spm_respsonse","0","5","mat_60","","","","","","0","26024.09999999404","","","","","","","","","","","","","","",""
"","","","","","html-button-response","302","1825076","0.0-3.0-5.0","5bdb5e785e77d9000147e94d","B2","batch2","","9185.799999982119","<p class= block-text>This concludes the Standard Progressive Matrix game. Thank you for your responses!<br> When you are ready, click the button continue</p>","0","spm_goodbye","","","","","","","","","","","","","","","","","","","","","","","","",""
"true","","","","","fullscreen","303","1828931","0.0-4.0-0.0","5bdb5e785e77d9000147e94d","B2","batch2","","","","","","","","","","","","","","","","","","","","","","","","","","","","","",""
"","","","","","instructions","304","1945863","0.0-4.0-1.0-0.0-0.0","5bdb5e785e77d9000147e94d","B2","batch2","[{""page_index"":0,""viewing_time"":22865.30000001192},{""page_index"":1,""viewing_time"":17517.69999998808},{""page_index"":2,""viewing_time"":10542.90000000596},{""page_index"":3,""viewing_time"":18913.09999999404},{""page_index"":4,""viewing_time"":16845},{""page_index"":5,""viewing_time"":24983.80000001192},{""page_index"":6,""viewing_time"":5262.0999999940395}]","116930.20000001788","","","tol-instructions","","","","","","","","","","","","","","","","","","","","","","","","",""
"","","","","","html-button-response","305","1947853","0.0-4.0-1.0-1.0-0.0","5bdb5e785e77d9000147e94d","B2","batch2","","1988.9000000059605","<p class=block-text> Let's answer a few questions <br>","0","tol_enter_quiz","","","","","","","","","","","","","","","","","","","","","","","","",""
"","","","","","html-button-response","306","1957970","0.0-4.0-1.0-1.0-1.0","5bdb5e785e77d9000147e94d","B2","batch2","","10116.699999988079","<p class = block-text>True or False: You can only move the ball on top of a peg. <br></p>","0","tol_quiz","true","","","","","","","","","","","","","","","","","","","","","","","",""
"","","","","","html-button-response","307","1960148","0.0-4.0-1.0-1.0-2.0","5bdb5e785e77d9000147e94d","B2","batch2","","2176.300000011921","<p class = block-text>Correct! You can only move the ball on top of a peg.</p>","0","tol_quiz_feedback","","","","","","","","","","","","","","","","","","","","","","","","",""
"","","","","","html-button-response","308","1965232","0.0-4.0-1.0-1.0-3.0","5bdb5e785e77d9000147e94d","B2","batch2","","5082.300000011921","<p class = block-text>True or False: You should try to match your board with the target board with fewest moves possible. <br></p>","0","tol_quiz","true","","","","","","","","","","","","","","","","","","","","","","","",""
"","","","","","html-button-response","309","1966301","0.0-4.0-1.0-1.0-4.0","5bdb5e785e77d9000147e94d","B2","batch2","","1067.5999999940395","<p class = block-text>Correct! </p>","0","tol_quiz_feedback","","","","","","","","","","","","","","","","","","","","","","","","",""
"","","","","","html-button-response","310","1969189","0.0-4.0-2.0","5bdb5e785e77d9000147e94d","B2","batch2","","2886.9000000059605","<p class=block-text> Now that you've understood the game, let's practice a few easier examples before we start!<br> <br>","0","","","","","","","","","","","","","","","","","","","","","","","","","",""
"","","","","","single-stim-button","311","1973260","0.0-4.0-3.0-0.0","5bdb5e785e77d9000147e94d","B2","batch2","","4069","","","tol_practice","","","","","","","","","","","tol_peg_2","4069","4069","0","[[1,2,0],[0,0],[0]]","1","[[1,2,0],[0,0],[3]]","practice","4069","","","","","",""
"","","","","","single-stim-button","312","1977060","0.0-4.0-3.0-1.0","5bdb5e785e77d9000147e94d","B2","batch2","","3799","","","tol_practice","","","","","","","","","","","tol_peg_3","3799","3799","0","[[1,2,0],[0,0],[3]]","1","[[1,2,0],[0,0],[3]]","practice","3799","","","","","",""
"","","","","","poldrack-single-stim","313","1978075","0.0-4.0-4.0","5bdb5e785e77d9000147e94d","B2","batch2","","-1","","","tol_feedback","true","","","","","","","","","","","1000","1000","500","","","","","","-1","none","true","","0",""
"","","","","","single-stim-button","314","1984046","0.0-4.0-5.0-0.0","5bdb5e785e77d9000147e94d","B2","batch2","","5971","","","tol_practice","","","","","","","","","","","tol_peg_1","5971","5971","0","[[1,0,0],[3,0],[0]]","2","[[0,0,0],[3,1],[2]]","practice","5971","","","","","",""
"","","","","","single-stim-button","315","1988682","0.0-4.0-5.0-1.0","5bdb5e785e77d9000147e94d","B2","batch2","","4636","","","tol_practice","","","","","","","","","","","tol_peg_3","4636","4636","0","[[1,0,0],[3,0],[2]]","2","[[0,0,0],[3,1],[2]]","practice","4636","","","","","",""
"","","","","","single-stim-button","316","1990524","0.0-4.0-5.1-0.1","5bdb5e785e77d9000147e94d","B2","batch2","","1841","","","tol_practice","","","","","","","","","","","tol_peg_1","1841","1841","0","[[0,0,0],[3,0],[2]]","3","[[0,0,0],[3,1],[2]]","practice","1841","","","","","",""
"","","","","","single-stim-button","317","1994068","0.0-4.0-5.1-1.1","5bdb5e785e77d9000147e94d","B2","batch2","","3544","","","tol_practice","","","","","","","","","","","tol_peg_2","3544","3544","0","[[0,0,0],[3,1],[2]]","3","[[0,0,0],[3,1],[2]]","practice","3544","","","","","",""
"","","","","","poldrack-single-stim","318","1995070","0.0-4.0-6.0","5bdb5e785e77d9000147e94d","B2","batch2","","-1","","","tol_feedback","true","","","","","","","","","","","1000","1000","500","","","","","","-1","none","true","","0",""
"","","","","","single-stim-button","319","1998206","0.0-4.0-7.0-0.0","5bdb5e785e77d9000147e94d","B2","batch2","","3135","","","tol_practice","","","","","","","","","","","tol_peg_2","3135","3135","0","[[1,2,0],[0,0],[0]]","4","[[1,0,0],[2,0],[3]]","practice","3135","","","","","",""
"","","","","","single-stim-button","320","1999602","0.0-4.0-7.0-1.0","5bdb5e785e77d9000147e94d","B2","batch2","","1396","","","tol_practice","","","","","","","","","","","tol_peg_3","1396","1396","0","[[1,2,0],[0,0],[3]]","4","[[1,0,0],[2,0],[3]]","practice","1396","","","","","",""
"","","","","","single-stim-button","321","2001562","0.0-4.0-7.1-0.1","5bdb5e785e77d9000147e94d","B2","batch2","","1960","","","tol_practice","","","","","","","","","","","tol_peg_1","1960","1960","0","[[1,0,0],[0,0],[3]]","5","[[1,0,0],[2,0],[3]]","practice","1960","","","","","",""
"","","","","","single-stim-button","322","2002553","0.0-4.0-7.1-1.1","5bdb5e785e77d9000147e94d","B2","batch2","","990","","","tol_practice","","","","","","","","","","","tol_peg_2","990","990","0","[[1,0,0],[2,0],[3]]","5","[[1,0,0],[2,0],[3]]","practice","990","","","","","",""
"","","","","","poldrack-single-stim","323","2003558","0.0-4.0-8.0","5bdb5e785e77d9000147e94d","B2","batch2","","-1","","","tol_feedback","true","","","","","","","","","","","1000","1000","500","","","","","","-1","none","true","","0",""
"","","","","","html-button-response","324","2013746","0.0-4.0-9.0","5bdb5e785e77d9000147e94d","B2","batch2","","10187.699999988079","<div class = centerbox><p class = center-block-text>Great job! You are done with practice trials<br>You are about to start official trials.<br> <br> Problem <strong>1</strong> out of 25 problems</p></div>","0","tol_instruction","","","","","","","","","","","","","","","","","","","","","","","","",""
"","","","","","single-stim-button","325","2020585","0.0-4.0-10.0-0.0","5bdb5e785e77d9000147e94d","B2","batch2","","5835","","","tol_tohand","","","","","","","","","","","tol_peg_2","5835","5835","0","[[1,2,0],[0,0],[0]]","1","[[1,3,0],[2,0],[0]]","0","0","","","","","","3"
"","","","","","single-stim-button","326","2028343","0.0-4.0-10.0-1.0","5bdb5e785e77d9000147e94d","B2","batch2","","7757","","","tol_toboard","","","","","","","","","","","tol_peg_3","7757","7757","0","[[1,2,0],[0,0],[3]]","1","[[1,3,0],[2,0],[0]]","0","0","","","","","","3"
"","","","","","single-stim-button","327","2029670","0.0-4.0-10.1-0.1","5bdb5e785e77d9000147e94d","B2","batch2","","1326","","","tol_tohand","","","","","","","","","","","tol_peg_1","1326","1326","0","[[1,0,0],[0,0],[3]]","2","[[1,3,0],[2,0],[0]]","0","0","","","","","","3"
"","","","","","single-stim-button","328","2030873","0.0-4.0-10.1-1.1","5bdb5e785e77d9000147e94d","B2","batch2","","1201","","","tol_toboard","","","","","","","","","","","tol_peg_2","1201","1201","0","[[1,0,0],[2,0],[3]]","2","[[1,3,0],[2,0],[0]]","0","0","","","","","","3"
"","","","","","single-stim-button","329","2032443","0.0-4.0-10.2-0.2","5bdb5e785e77d9000147e94d","B2","batch2","","1570","","","tol_tohand","","","","","","","","","","","tol_peg_3","1570","1570","0","[[1,0,0],[2,0],[0]]","3","[[1,3,0],[2,0],[0]]","0","0","","","","","","3"
"","","","","","single-stim-button","330","2033658","0.0-4.0-10.2-1.2","5bdb5e785e77d9000147e94d","B2","batch2","","1215","","","tol_toboard","","","","","","","","","","","tol_peg_1","1215","1215","0","[[1,3,0],[2,0],[0]]","3","[[1,3,0],[2,0],[0]]","0","0","","","","","","3"
"","","","","","poldrack-single-stim","331","2034667","0.0-4.0-11.0","5bdb5e785e77d9000147e94d","B2","batch2","","-1","","","tol_feedback","true","","","","","","","","","","","1000","1000","500","","","","","","-1","none","true","5835","8731",""
"","","","","","html-button-response","332","2036094","0.0-4.0-12.0","5bdb5e785e77d9000147e94d","B2","batch2","","1426.199999988079","<div class = centerbox><p class = center-block-text>problem <strong>2</strong> out of 25 problems</p></div>","0","tol_trial_num","","","","","","","","","","","","","","","","","","","","","","","","",""
"","","","","","single-stim-button","333","2039997","0.0-4.0-13.0-0.0","5bdb5e785e77d9000147e94d","B2","batch2","","3901","","","tol_tohand","","","","","","","","","","","tol_peg_1","3901","3901","0","[[1,0,0],[3,0],[0]]","1","[[2,1,3],[0,0],[0]]","1","0","","","","","","5"
"","","","","","single-stim-button","334","2045992","0.0-4.0-13.0-1.0","5bdb5e785e77d9000147e94d","B2","batch2","","5995","","","tol_toboard","","","","","","","","","","","tol_peg_3","5995","5995","0","[[1,0,0],[3,0],[2]]","1","[[2,1,3],[0,0],[0]]","1","0","","","","","","5"
"","","","","","single-stim-button","335","2050831","0.0-4.0-13.1-0.1","5bdb5e785e77d9000147e94d","B2","batch2","","4838","","","tol_tohand","","","","","","","","","","","tol_peg_2","4838","4838","0","[[1,0,0],[0,0],[2]]","2","[[2,1,3],[0,0],[0]]","1","0","","","","","","5"
"","","","","","single-stim-button","336","2060403","0.0-4.0-13.1-1.1","5bdb5e785e77d9000147e94d","B2","batch2","","9570","","","tol_toboard","","","","","","","","","","","tol_peg_1","9570","9570","0","[[1,3,0],[0,0],[2]]","2","[[2,1,3],[0,0],[0]]","1","0","","","","","","5"
"","","","","","single-stim-button","337","2066226","0.0-4.0-13.2-0.2","5bdb5e785e77d9000147e94d","B2","batch2","","5823","","","tol_tohand","","","","","","","","","","","tol_peg_1","5823","5823","0","[[1,0,0],[0,0],[2]]","3","[[2,1,3],[0,0],[0]]","1","0","","","","","","5"
"","","","","","single-stim-button","338","2067046","0.0-4.0-13.2-1.2","5bdb5e785e77d9000147e94d","B2","batch2","","818","","","tol_toboard","","","","","","","","","","","tol_peg_2","818","818","0","[[1,0,0],[3,0],[2]]","3","[[2,1,3],[0,0],[0]]","1","0","","","","","","5"
"","","","","","single-stim-button","339","2068365","0.0-4.0-13.3-0.3","5bdb5e785e77d9000147e94d","B2","batch2","","1318","","","tol_tohand","","","","","","","","","","","tol_peg_1","1318","1318","0","[[0,0,0],[3,0],[2]]","4","[[2,1,3],[0,0],[0]]","1","0","","","","","","5"
"","","","","","single-stim-button","340","2075203","0.0-4.0-13.3-1.3","5bdb5e785e77d9000147e94d","B2","batch2","","6837","","","tol_toboard","","","","","","","","","","","tol_peg_1","6837","6837","0","[[1,0,0],[3,0],[2]]","4","[[2,1,3],[0,0],[0]]","1","0","","","","","","5"
"","","","","","single-stim-button","341","2076585","0.0-4.0-13.4-0.4","5bdb5e785e77d9000147e94d","B2","batch2","","1381","","","tol_tohand","","","","","","","","","","","tol_peg_3","1381","1381","0","[[1,0,0],[3,0],[0]]","5","[[2,1,3],[0,0],[0]]","1","0","","","","","","5"
"","","","","","single-stim-button","342","2077949","0.0-4.0-13.4-1.4","5bdb5e785e77d9000147e94d","B2","batch2","","1363","","","tol_toboard","","","","","","","","","","","tol_peg_2","1363","1363","0","[[1,0,0],[3,2],[0]]","5","[[2,1,3],[0,0],[0]]","1","0","","","","","","5"
"","","","","","single-stim-button","343","2079113","0.0-4.0-13.5-0.5","5bdb5e785e77d9000147e94d","B2","batch2","","1164","","","tol_tohand","","","","","","","","","","","tol_peg_1","1164","1164","0","[[0,0,0],[3,2],[0]]","6","[[2,1,3],[0,0],[0]]","1","0","","","","","","5"
"","","","","","single-stim-button","344","2080339","0.0-4.0-13.5-1.5","5bdb5e785e77d9000147e94d","B2","batch2","","1225","","","tol_toboard","","","","","","","","","","","tol_peg_3","1225","1225","0","[[0,0,0],[3,2],[1]]","6","[[2,1,3],[0,0],[0]]","1","0","","","","","","5"
"","","","","","single-stim-button","345","2082868","0.0-4.0-13.6-0.6","5bdb5e785e77d9000147e94d","B2","batch2","","2529","","","tol_tohand","","","","","","","","","","","tol_peg_2","2529","2529","0","[[0,0,0],[3,0],[1]]","7","[[2,1,3],[0,0],[0]]","1","0","","","","","","5"
"","","","","","single-stim-button","346","2092798","0.0-4.0-13.6-1.6","5bdb5e785e77d9000147e94d","B2","batch2","","9928","","","tol_toboard","","","","","","","","","","","tol_peg_2","9928","9928","0","[[0,0,0],[3,2],[1]]","7","[[2,1,3],[0,0],[0]]","1","0","","","","","","5"
"","","","","","single-stim-button","347","2101510","0.0-4.0-13.7-0.7","5bdb5e785e77d9000147e94d","B2","batch2","","8711","","","tol_tohand","","","","","","","","","","","tol_peg_2","8711","8711","0","[[0,0,0],[3,0],[1]]","8","[[2,1,3],[0,0],[0]]","1","0","","","","","","5"
