"success","timeout","failed_images","failed_audio","failed_video","trial_type","trial_index","time_elapsed","internal_node_id","subject_id","study_id","session_id","task","rt","stimulus","response","item","answer","correct","spm_correct","spm_rt","view_history","fiar_detect_rt","fiar_detect_correct","total_correct_fiar_detect","post_trial_gap","choices","mouse_click","stim_duration","block_duration","timing_post_trial","current_position","tol_num_moves_made","tol_target","tol_problem_id","tol_rt","key_press","possible_responses","tol_correct","preplanning","tol_rt_per_trial","tol_min_moves"
"true","false","[]","[]","[]","preload","0","39776","0.0-0.0","5bde3039ab7ca90001d9c1d8","B2","batch2","","","","","","","","","","","","","","","","","","","","","","","","","","","","","",""
"true","","","","","fullscreen","1","47938","0.0-1.0-0.0","5bde3039ab7ca90001d9c1d8","B2","batch2","","","","","","","","","","","","","","","","","","","","","","","","","","","","","",""
"true","","","","","fullscreen","2","51046","0.0-2.0-0.0","5bde3039ab7ca90001d9c1d8","B2","batch2","spm_fullscreen","","","","","","","","","","","","","","","","","","","","","","","","","","","","",""
"","","","","","html-button-response","3","53118","0.0-2.0-1.0","5bde3039ab7ca90001d9c1d8","B2","batch2","","2067.900000035763","<p class = block-text><b>Instructions</b> <br>This is a widely used intelligence test in research. <br>In this test, a figure with a missing piece will be presented.<br>Below the figure are alternative pieces to complete the figure, only one of which is correct.<br> Different figures might involve different principles for obtaining the missing piece<br>Your job is to select the most logical piece to complete the figure.</p>","0","","","","","","","","","","","","","","","","","","","","","","","","","",""
"","","","","","html-keyboard-response","4","53920","0.0-2.0-2.0-0.0","5bde3039ab7ca90001d9c1d8","B2","batch2","spm_show_trial_num","null","<p class=block-text>Trial 1 out of 60</p>","null","","","","","","","","","","","","","","","","","","","","","","","","","",""
"","","","","","image-button-response","5","61188","0.0-2.0-2.0-1.0","5bde3039ab7ca90001d9c1d8","B2","batch2","spm_respsonse","7258.5","img/question_1_1.jpeg","3","mat_01","4","1","1","7258.5","","","","","","","","","","","","","","","","","","","","",""
"","","","","","html-keyboard-response","6","62256","0.0-2.0-2.0-0.1","5bde3039ab7ca90001d9c1d8","B2","batch2","spm_show_trial_num","null","<p class=block-text>Trial 2 out of 60</p>","null","","","","","","","","","","","","","","","","","","","","","","","","","",""
"","","","","","image-button-response","7","65109","0.0-2.0-2.0-1.1","5bde3039ab7ca90001d9c1d8","B2","batch2","spm_respsonse","2850.400000035763","img/question_1_2.jpeg","4","mat_02","5","1","1","2850.400000035763","","","","","","","","","","","","","","","","","","","","",""
"","","","","","html-keyboard-response","8","66164","0.0-2.0-2.0-0.2","5bde3039ab7ca90001d9c1d8","B2","batch2","spm_show_trial_num","null","<p class=block-text>Trial 3 out of 60</p>","null","","","","","","","","","","","","","","","","","","","","","","","","","",""
"","","","","","image-button-response","9","68501","0.0-2.0-2.0-1.2","5bde3039ab7ca90001d9c1d8","B2","batch2","spm_respsonse","2325.5","img/question_1_3.jpeg","0","mat_03","1","1","1","2325.5","","","","","","","","","","","","","","","","","","","","",""
"","","","","","html-keyboard-response","10","69555","0.0-2.0-2.0-0.3","5bde3039ab7ca90001d9c1d8","B2","batch2","spm_show_trial_num","null","<p class=block-text>Trial 4 out of 60</p>","null","","","","","","","","","","","","","","","","","","","","","","","","","",""
"","","","","","image-button-response","11","72367","0.0-2.0-2.0-1.3","5bde3039ab7ca90001d9c1d8","B2","batch2","spm_respsonse","2805.599999964237","img/question_1_4.jpeg","1","mat_04","2","1","1","2805.599999964237","","","","","","","","","","","","","","","","","","","","",""
"","","","","","html-keyboard-response","12","73429","0.0-2.0-2.0-0.4","5bde3039ab7ca90001d9c1d8","B2","batch2","spm_show_trial_num","null","<p class=block-text>Trial 5 out of 60</p>","null","","","","","","","","","","","","","","","","","","","","","","","","","",""
"","","","","","image-button-response","13","77786","0.0-2.0-2.0-1.4","5bde3039ab7ca90001d9c1d8","B2","batch2","spm_respsonse","4354.300000011921","img/question_1_5.jpeg","5","mat_05","6","1","1","4354.300000011921","","","","","","","","","","","","","","","","","","","","",""
"","","","","","html-keyboard-response","14","78863","0.0-2.0-2.0-0.5","5bde3039ab7ca90001d9c1d8","B2","batch2","spm_show_trial_num","null","<p class=block-text>Trial 6 out of 60</p>","null","","","","","","","","","","","","","","","","","","","","","","","","","",""
"","","","","","image-button-response","15","82031","0.0-2.0-2.0-1.5","5bde3039ab7ca90001d9c1d8","B2","batch2","spm_respsonse","3164.800000011921","img/question_1_6.jpeg","2","mat_06","3","1","1","3164.800000011921","","","","","","","","","","","","","","","","","","","","",""
"","","","","","html-keyboard-response","16","83108","0.0-2.0-2.0-0.6","5bde3039ab7ca90001d9c1d8","B2","batch2","spm_show_trial_num","null","<p class=block-text>Trial 7 out of 60</p>","null","","","","","","","","","","","","","","","","","","","","","","","","","",""
"","","","","","image-button-response","17","87828","0.0-2.0-2.0-1.6","5bde3039ab7ca90001d9c1d8","B2","batch2","spm_respsonse","4715.900000035763","img/question_1_7.jpeg","5","mat_07","6","1","1","4715.900000035763","","","","","","","","","","","","","","","","","","","","",""
"","","","","","html-keyboard-response","18","88892","0.0-2.0-2.0-0.7","5bde3039ab7ca90001d9c1d8","B2","batch2","spm_show_trial_num","null","<p class=block-text>Trial 8 out of 60</p>","null","","","","","","","","","","","","","","","","","","","","","","","","","",""
"","","","","","image-button-response","19","93455","0.0-2.0-2.0-1.7","5bde3039ab7ca90001d9c1d8","B2","batch2","spm_respsonse","4557.900000035763","img/question_1_8.jpeg","1","mat_08","2","1","1","4557.900000035763","","","","","","","","","","","","","","","","","","","","",""
"","","","","","html-keyboard-response","20","94531","0.0-2.0-2.0-0.8","5bde3039ab7ca90001d9c1d8","B2","batch2","spm_show_trial_num","null","<p class=block-text>Trial 9 out of 60</p>","null","","","","","","","","","","","","","","","","","","","","","","","","","",""
"","","","","","image-button-response","21","97449","0.0-2.0-2.0-1.8","5bde3039ab7ca90001d9c1d8","B2","batch2","spm_respsonse","2909.399999976158","img/question_1_9.jpeg","0","mat_09","1","1","1","2909.399999976158","","","","","","","","","","","","","","","","","","","","",""
"","","","","","html-keyboard-response","22","98522","0.0-2.0-2.0-0.9","5bde3039ab7ca90001d9c1d8","B2","batch2","spm_show_trial_num","null","<p class=block-text>Trial 10 out of 60</p>","null","","","","","","","","","","","","","","","","","","","","","","","","","",""
"","","","","","image-button-response","23","102940","0.0-2.0-2.0-1.9","5bde3039ab7ca90001d9c1d8","B2","batch2","spm_respsonse","4416","img/question_1_10.jpeg","2","mat_10","3","1","1","4416","","","","","","","","","","","","","","","","","","","","",""
"","","","","","html-keyboard-response","24","104018","0.0-2.0-2.0-0.10","5bde3039ab7ca90001d9c1d8","B2","batch2","spm_show_trial_num","null","<p class=block-text>Trial 11 out of 60</p>","null","","","","","","","","","","","","","","","","","","","","","","","","","",""
"","","","","","image-button-response","25","109292","0.0-2.0-2.0-1.10","5bde3039ab7ca90001d9c1d8","B2","batch2","spm_respsonse","5270.699999988079","img/question_1_11.jpeg","3","mat_11","4","1","1","5270.699999988079","","","","","","","","","","","","","","","","","","","","",""
"","","","","","html-keyboard-response","26","110368","0.0-2.0-2.0-0.11","5bde3039ab7ca90001d9c1d8","B2","batch2","spm_show_trial_num","null","<p class=block-text>Trial 12 out of 60</p>","null","","","","","","","","","","","","","","","","","","","","","","","","","",""
"","","","","","image-button-response","27","122795","0.0-2.0-2.0-1.11","5bde3039ab7ca90001d9c1d8","B2","batch2","spm_respsonse","12418.200000047684","img/question_1_12.jpeg","4","mat_12","5","1","1","12418.200000047684","","","","","","","","","","","","","","","","","","","","",""
"","","","","","html-keyboard-response","28","123862","0.0-2.0-2.0-0.12","5bde3039ab7ca90001d9c1d8","B2","batch2","spm_show_trial_num","null","<p class=block-text>Trial 13 out of 60</p>","null","","","","","","","","","","","","","","","","","","","","","","","","","",""
"","","","","","image-button-response","29","127332","0.0-2.0-2.0-1.12","5bde3039ab7ca90001d9c1d8","B2","batch2","spm_respsonse","3466.099999964237","img/question_2_1.jpeg","1","mat_13","2","1","1","3466.099999964237","","","","","","","","","","","","","","","","","","","","",""
"","","","","","html-keyboard-response","30","128392","0.0-2.0-2.0-0.13","5bde3039ab7ca90001d9c1d8","B2","batch2","spm_show_trial_num","null","<p class=block-text>Trial 14 out of 60</p>","null","","","","","","","","","","","","","","","","","","","","","","","","","",""
"","","","","","image-button-response","31","134090","0.0-2.0-2.0-1.13","5bde3039ab7ca90001d9c1d8","B2","batch2","spm_respsonse","5687","img/question_2_2.jpeg","4","mat_14","6","0","0","5687","","","","","","","","","","","","","","","","","","","","",""
"","","","","","html-keyboard-response","32","135147","0.0-2.0-2.0-0.14","5bde3039ab7ca90001d9c1d8","B2","batch2","spm_show_trial_num","null","<p class=block-text>Trial 15 out of 60</p>","null","","","","","","","","","","","","","","","","","","","","","","","","","",""
"","","","","","image-button-response","33","137728","0.0-2.0-2.0-1.14","5bde3039ab7ca90001d9c1d8","B2","batch2","spm_respsonse","2578","img/question_2_3.jpeg","0","mat_15","1","1","1","2578","","","","","","","","","","","","","","","","","","","","",""
"","","","","","html-keyboard-response","34","138795","0.0-2.0-2.0-0.15","5bde3039ab7ca90001d9c1d8","B2","batch2","spm_show_trial_num","null","<p class=block-text>Trial 16 out of 60</p>","null","","","","","","","","","","","","","","","","","","","","","","","","","",""
"","","","","","image-button-response","35","141168","0.0-2.0-2.0-1.15","5bde3039ab7ca90001d9c1d8","B2","batch2","spm_respsonse","2370.199999988079","img/question_2_4.jpeg","1","mat_16","2","1","1","2370.199999988079","","","","","","","","","","","","","","","","","","","","",""
"","","","","","html-keyboard-response","36","142241","0.0-2.0-2.0-0.16","5bde3039ab7ca90001d9c1d8","B2","batch2","spm_show_trial_num","null","<p class=block-text>Trial 17 out of 60</p>","null","","","","","","","","","","","","","","","","","","","","","","","","","",""
"","","","","","image-button-response","37","145045","0.0-2.0-2.0-1.16","5bde3039ab7ca90001d9c1d8","B2","batch2","spm_respsonse","2800.699999988079","img/question_2_5.jpeg","0","mat_17","1","1","1","2800.699999988079","","","","","","","","","","","","","","","","","","","","",""
"","","","","","html-keyboard-response","38","146113","0.0-2.0-2.0-0.17","5bde3039ab7ca90001d9c1d8","B2","batch2","spm_show_trial_num","null","<p class=block-text>Trial 18 out of 60</p>","null","","","","","","","","","","","","","","","","","","","","","","","","","",""
"","","","","","image-button-response","39","150249","0.0-2.0-2.0-1.17","5bde3039ab7ca90001d9c1d8","B2","batch2","spm_respsonse","4131.700000047684","img/question_2_6.jpeg","2","mat_18","3","1","1","4131.700000047684","","","","","","","","","","","","","","","","","","","","",""
"","","","","","html-keyboard-response","40","151325","0.0-2.0-2.0-0.18","5bde3039ab7ca90001d9c1d8","B2","batch2","spm_show_trial_num","null","<p class=block-text>Trial 19 out of 60</p>","null","","","","","","","","","","","","","","","","","","","","","","","","","",""
"","","","","","image-button-response","41","156148","0.0-2.0-2.0-1.18","5bde3039ab7ca90001d9c1d8","B2","batch2","spm_respsonse","4815.600000023842","img/question_2_7.jpeg","4","mat_19","5","1","1","4815.600000023842","","","","","","","","","","","","","","","","","","","","",""
"","","","","","html-keyboard-response","42","157210","0.0-2.0-2.0-0.19","5bde3039ab7ca90001d9c1d8","B2","batch2","spm_show_trial_num","null","<p class=block-text>Trial 20 out of 60</p>","null","","","","","","","","","","","","","","","","","","","","","","","","","",""
"","","","","","image-button-response","43","166204","0.0-2.0-2.0-1.19","5bde3039ab7ca90001d9c1d8","B2","batch2","spm_respsonse","8991.600000023842","img/question_2_8.jpeg","4","mat_20","6","0","0","8991.600000023842","","","","","","","","","","","","","","","","","","","","",""
"","","","","","html-keyboard-response","44","167266","0.0-2.0-2.0-0.20","5bde3039ab7ca90001d9c1d8","B2","batch2","spm_show_trial_num","null","<p class=block-text>Trial 21 out of 60</p>","null","","","","","","","","","","","","","","","","","","","","","","","","","",""
"","","","","","image-button-response","45","172068","0.0-2.0-2.0-1.20","5bde3039ab7ca90001d9c1d8","B2","batch2","spm_respsonse","4798.5","img/question_2_9.jpeg","3","mat_21","4","1","1","4798.5","","","","","","","","","","","","","","","","","","","","",""
"","","","","","html-keyboard-response","46","173124","0.0-2.0-2.0-0.21","5bde3039ab7ca90001d9c1d8","B2","batch2","spm_show_trial_num","null","<p class=block-text>Trial 22 out of 60</p>","null","","","","","","","","","","","","","","","","","","","","","","","","","",""
"","","","","","image-button-response","47","178195","0.0-2.0-2.0-1.21","5bde3039ab7ca90001d9c1d8","B2","batch2","spm_respsonse","5066.800000011921","img/question_2_10.jpeg","2","mat_22","3","1","1","5066.800000011921","","","","","","","","","","","","","","","","","","","","",""
"","","","","","html-keyboard-response","48","179268","0.0-2.0-2.0-0.22","5bde3039ab7ca90001d9c1d8","B2","batch2","spm_show_trial_num","null","<p class=block-text>Trial 23 out of 60</p>","null","","","","","","","","","","","","","","","","","","","","","","","","","",""
"","","","","","image-button-response","49","185825","0.0-2.0-2.0-1.22","5bde3039ab7ca90001d9c1d8","B2","batch2","spm_respsonse","6552.899999976158","img/question_2_11.jpeg","2","mat_23","4","0","0","6552.899999976158","","","","","","","","","","","","","","","","","","","","",""
"","","","","","html-keyboard-response","50","186911","0.0-2.0-2.0-0.23","5bde3039ab7ca90001d9c1d8","B2","batch2","spm_show_trial_num","null","<p class=block-text>Trial 24 out of 60</p>","null","","","","","","","","","","","","","","","","","","","","","","","","","",""
"","","","","","image-button-response","51","192660","0.0-2.0-2.0-1.23","5bde3039ab7ca90001d9c1d8","B2","batch2","spm_respsonse","5745.399999976158","img/question_2_12.jpeg","1","mat_24","5","0","0","5745.399999976158","","","","","","","","","","","","","","","","","","","","",""
"","","","","","html-button-response","52","195305","0.0-2.0-3.0","5bde3039ab7ca90001d9c1d8","B2","batch2","attention_check","2375.100000023842","<p class = block-text>Attention check: Please choose 1<br></p>","0","","","true","","","","","","","","","","","","","","","","","","","","","","",""
"","","","","","html-keyboard-response","53","196111","0.0-2.0-4.0-0.0","5bde3039ab7ca90001d9c1d8","B2","batch2","spm_show_trial_num","null","<p class=block-text>Trial 25 out of 60</p>","null","","","","","","","","","","","","","","","","","","","","","","","","","",""
"","","","","","image-button-response","54","199596","0.0-2.0-4.0-1.0","5bde3039ab7ca90001d9c1d8","B2","batch2","spm_respsonse","3479.399999976158","img/question_3_1.jpeg","7","mat_25","8","1","1","3479.399999976158","","","","","","","","","","","","","","","","","","","","",""
"","","","","","html-keyboard-response","55","200668","0.0-2.0-4.0-0.1","5bde3039ab7ca90001d9c1d8","B2","batch2","spm_show_trial_num","null","<p class=block-text>Trial 26 out of 60</p>","null","","","","","","","","","","","","","","","","","","","","","","","","","",""
"","","","","","image-button-response","56","205052","0.0-2.0-4.0-1.1","5bde3039ab7ca90001d9c1d8","B2","batch2","spm_respsonse","4381.299999952316","img/question_3_2.jpeg","1","mat_26","2","1","1","4381.299999952316","","","","","","","","","","","","","","","","","","","","",""
"","","","","","html-keyboard-response","57","206116","0.0-2.0-4.0-0.2","5bde3039ab7ca90001d9c1d8","B2","batch2","spm_show_trial_num","null","<p class=block-text>Trial 27 out of 60</p>","null","","","","","","","","","","","","","","","","","","","","","","","","","",""
"","","","","","image-button-response","58","220067","0.0-2.0-4.0-1.2","5bde3039ab7ca90001d9c1d8","B2","batch2","spm_respsonse","13949","img/question_3_3.jpeg","2","mat_27","3","1","1","13949","","","","","","","","","","","","","","","","","","","","",""
"","","","","","html-keyboard-response","59","221146","0.0-2.0-4.0-0.3","5bde3039ab7ca90001d9c1d8","B2","batch2","spm_show_trial_num","null","<p class=block-text>Trial 28 out of 60</p>","null","","","","","","","","","","","","","","","","","","","","","","","","","",""
"","","","","","image-button-response","60","236369","0.0-2.0-4.0-1.3","5bde3039ab7ca90001d9c1d8","B2","batch2","spm_respsonse","15218.599999964237","img/question_3_4.jpeg","7","mat_28","8","1","1","15218.599999964237","","","","","","","","","","","","","","","","","","","","",""
"","","","","","html-keyboard-response","61","237437","0.0-2.0-4.0-0.4","5bde3039ab7ca90001d9c1d8","B2","batch2","spm_show_trial_num","null","<p class=block-text>Trial 29 out of 60</p>","null","","","","","","","","","","","","","","","","","","","","","","","","","",""
"","","","","","image-button-response","62","240783","0.0-2.0-4.0-1.4","5bde3039ab7ca90001d9c1d8","B2","batch2","spm_respsonse","3342.800000011921","img/question_3_5.jpeg","6","mat_29","7","1","1","3342.800000011921","","","","","","","","","","","","","","","","","","","","",""
"","","","","","html-keyboard-response","63","241839","0.0-2.0-4.0-0.5","5bde3039ab7ca90001d9c1d8","B2","batch2","spm_show_trial_num","null","<p class=block-text>Trial 30 out of 60</p>","null","","","","","","","","","","","","","","","","","","","","","","","","","",""
"","","","","","image-button-response","64","247464","0.0-2.0-4.0-1.5","5bde3039ab7ca90001d9c1d8","B2","batch2","spm_respsonse","5622.199999988079","img/question_3_6.jpeg","1","mat_30","4","0","0","5622.199999988079","","","","","","","","","","","","","","","","","","","","",""
"","","","","","html-keyboard-response","65","248535","0.0-2.0-4.0-0.6","5bde3039ab7ca90001d9c1d8","B2","batch2","spm_show_trial_num","null","<p class=block-text>Trial 31 out of 60</p>","null","","","","","","","","","","","","","","","","","","","","","","","","","",""
"","","","","","image-button-response","66","253812","0.0-2.0-4.0-1.6","5bde3039ab7ca90001d9c1d8","B2","batch2","spm_respsonse","5267","img/question_3_7.jpeg","4","mat_31","5","1","1","5267","","","","","","","","","","","","","","","","","","","","",""
"","","","","","html-keyboard-response","67","254886","0.0-2.0-4.0-0.7","5bde3039ab7ca90001d9c1d8","B2","batch2","spm_show_trial_num","null","<p class=block-text>Trial 32 out of 60</p>","null","","","","","","","","","","","","","","","","","","","","","","","","","",""
"","","","","","image-button-response","68","259243","0.0-2.0-4.0-1.7","5bde3039ab7ca90001d9c1d8","B2","batch2","spm_respsonse","4352.899999976158","img/question_3_8.jpeg","0","mat_32","1","1","1","4352.899999976158","","","","","","","","","","","","","","","","","","","","",""
"","","","","","html-keyboard-response","69","260328","0.0-2.0-4.0-0.8","5bde3039ab7ca90001d9c1d8","B2","batch2","spm_show_trial_num","null","<p class=block-text>Trial 33 out of 60</p>","null","","","","","","","","","","","","","","","","","","","","","","","","","",""
"","","","","","image-button-response","70","271990","0.0-2.0-4.0-1.8","5bde3039ab7ca90001d9c1d8","B2","batch2","spm_respsonse","11657.800000011921","img/question_3_9.jpeg","6","mat_33","7","1","1","11657.800000011921","","","","","","","","","","","","","","","","","","","","",""
"","","","","","html-keyboard-response","71","273059","0.0-2.0-4.0-0.9","5bde3039ab7ca90001d9c1d8","B2","batch2","spm_show_trial_num","null","<p class=block-text>Trial 34 out of 60</p>","null","","","","","","","","","","","","","","","","","","","","","","","","","",""
"","","","","","image-button-response","72","276132","0.0-2.0-4.0-1.9","5bde3039ab7ca90001d9c1d8","B2","batch2","spm_respsonse","3070.100000023842","img/question_3_10.jpeg","7","mat_34","6","0","0","3070.100000023842","","","","","","","","","","","","","","","","","","","","",""
"","","","","","html-keyboard-response","73","277193","0.0-2.0-4.0-0.10","5bde3039ab7ca90001d9c1d8","B2","batch2","spm_show_trial_num","null","<p class=block-text>Trial 35 out of 60</p>","null","","","","","","","","","","","","","","","","","","","","","","","","","",""
"","","","","","image-button-response","74","285265","0.0-2.0-4.0-1.10","5bde3039ab7ca90001d9c1d8","B2","batch2","spm_respsonse","8074.600000023842","img/question_3_11.jpeg","3","mat_35","1","0","0","8074.600000023842","","","","","","","","","","","","","","","","","","","","",""
"","","","","","html-keyboard-response","75","286338","0.0-2.0-4.0-0.11","5bde3039ab7ca90001d9c1d8","B2","batch2","spm_show_trial_num","null","<p class=block-text>Trial 36 out of 60</p>","null","","","","","","","","","","","","","","","","","","","","","","","","","",""
"","","","","","image-button-response","76","290573","0.0-2.0-4.0-1.11","5bde3039ab7ca90001d9c1d8","B2","batch2","spm_respsonse","4232.100000023842","img/question_3_12.jpeg","7","mat_36","2","0","0","4232.100000023842","","","","","","","","","","","","","","","","","","","","",""
"","","","","","html-keyboard-response","77","291633","0.0-2.0-4.0-0.12","5bde3039ab7ca90001d9c1d8","B2","batch2","spm_show_trial_num","null","<p class=block-text>Trial 37 out of 60</p>","null","","","","","","","","","","","","","","","","","","","","","","","","","",""
"","","","","","image-button-response","78","298852","0.0-2.0-4.0-1.12","5bde3039ab7ca90001d9c1d8","B2","batch2","spm_respsonse","7215.800000011921","img/question_4_1.jpeg","2","mat_37","3","1","1","7215.800000011921","","","","","","","","","","","","","","","","","","","","",""
"","","","","","html-keyboard-response","79","299946","0.0-2.0-4.0-0.13","5bde3039ab7ca90001d9c1d8","B2","batch2","spm_show_trial_num","null","<p class=block-text>Trial 38 out of 60</p>","null","","","","","","","","","","","","","","","","","","","","","","","","","",""
"","","","","","image-button-response","80","305376","0.0-2.0-4.0-1.13","5bde3039ab7ca90001d9c1d8","B2","batch2","spm_respsonse","5426","img/question_4_2.jpeg","3","mat_38","4","1","1","5426","","","","","","","","","","","","","","","","","","","","",""
"","","","","","html-keyboard-response","81","306449","0.0-2.0-4.0-0.14","5bde3039ab7ca90001d9c1d8","B2","batch2","spm_show_trial_num","null","<p class=block-text>Trial 39 out of 60</p>","null","","","","","","","","","","","","","","","","","","","","","","","","","",""
"","","","","","image-button-response","82","311655","0.0-2.0-4.0-1.14","5bde3039ab7ca90001d9c1d8","B2","batch2","spm_respsonse","5200.5","img/question_4_3.jpeg","2","mat_39","3","1","1","5200.5","","","","","","","","","","","","","","","","","","","","",""
"","","","","","html-keyboard-response","83","312723","0.0-2.0-4.0-0.15","5bde3039ab7ca90001d9c1d8","B2","batch2","spm_show_trial_num","null","<p class=block-text>Trial 40 out of 60</p>","null","","","","","","","","","","","","","","","","","","","","","","","","","",""
"","","","","","image-button-response","84","321024","0.0-2.0-4.0-1.15","5bde3039ab7ca90001d9c1d8","B2","batch2","spm_respsonse","8294.400000035763","img/question_4_4.jpeg","6","mat_40","7","1","1","8294.400000035763","","","","","","","","","","","","","","","","","","","","",""
"","","","","","html-keyboard-response","85","322088","0.0-2.0-4.0-0.16","5bde3039ab7ca90001d9c1d8","B2","batch2","spm_show_trial_num","null","<p class=block-text>Trial 41 out of 60</p>","null","","","","","","","","","","","","","","","","","","","","","","","","","",""
"","","","","","image-button-response","86","328629","0.0-2.0-4.0-1.16","5bde3039ab7ca90001d9c1d8","B2","batch2","spm_respsonse","6537.900000035763","img/question_4_5.jpeg","7","mat_41","8","1","1","6537.900000035763","","","","","","","","","","","","","","","","","","","","",""
"","","","","","html-keyboard-response","87","329704","0.0-2.0-4.0-0.17","5bde3039ab7ca90001d9c1d8","B2","batch2","spm_show_trial_num","null","<p class=block-text>Trial 42 out of 60</p>","null","","","","","","","","","","","","","","","","","","","","","","","","","",""
"","","","","","image-button-response","88","337035","0.0-2.0-4.0-1.17","5bde3039ab7ca90001d9c1d8","B2","batch2","spm_respsonse","7327.5","img/question_4_6.jpeg","5","mat_42","6","1","1","7327.5","","","","","","","","","","","","","","","","","","","","",""
"","","","","","html-keyboard-response","89","338110","0.0-2.0-4.0-0.18","5bde3039ab7ca90001d9c1d8","B2","batch2","spm_show_trial_num","null","<p class=block-text>Trial 43 out of 60</p>","null","","","","","","","","","","","","","","","","","","","","","","","","","",""
"","","","","","image-button-response","90","350902","0.0-2.0-4.0-1.18","5bde3039ab7ca90001d9c1d8","B2","batch2","spm_respsonse","12782.199999988079","img/question_4_7.jpeg","7","mat_43","5","0","0","12782.199999988079","","","","","","","","","","","","","","","","","","","","",""
"","","","","","html-keyboard-response","91","351964","0.0-2.0-4.0-0.19","5bde3039ab7ca90001d9c1d8","B2","batch2","spm_show_trial_num","null","<p class=block-text>Trial 44 out of 60</p>","null","","","","","","","","","","","","","","","","","","","","","","","","","",""
"","","","","","image-button-response","92","364200","0.0-2.0-4.0-1.19","5bde3039ab7ca90001d9c1d8","B2","batch2","spm_respsonse","12232.5","img/question_4_8.jpeg","3","mat_44","4","1","1","12232.5","","","","","","","","","","","","","","","","","","","","",""
"","","","","","html-keyboard-response","93","365263","0.0-2.0-4.0-0.20","5bde3039ab7ca90001d9c1d8","B2","batch2","spm_show_trial_num","null","<p class=block-text>Trial 45 out of 60</p>","null","","","","","","","","","","","","","","","","","","","","","","","","","",""
"","","","","","image-button-response","94","405229","0.0-2.0-4.0-1.20","5bde3039ab7ca90001d9c1d8","B2","batch2","spm_respsonse","39963.80000001192","img/question_4_9.jpeg","0","mat_45","1","1","1","39963.80000001192","","","","","","","","","","","","","","","","","","","","",""
"","","","","","html-keyboard-response","95","406343","0.0-2.0-4.0-0.21","5bde3039ab7ca90001d9c1d8","B2","batch2","spm_show_trial_num","null","<p class=block-text>Trial 46 out of 60</p>","null","","","","","","","","","","","","","","","","","","","","","","","","","",""
"","","","","","image-button-response","96","429297","0.0-2.0-4.0-1.21","5bde3039ab7ca90001d9c1d8","B2","batch2","spm_respsonse","22949.700000047684","img/question_4_10.jpeg","1","mat_46","2","1","1","22949.700000047684","","","","","","","","","","","","","","","","","","","","",""
"","","","","","html-keyboard-response","97","430354","0.0-2.0-4.0-0.22","5bde3039ab7ca90001d9c1d8","B2","batch2","spm_show_trial_num","null","<p class=block-text>Trial 47 out of 60</p>","null","","","","","","","","","","","","","","","","","","","","","","","","","",""
"","","","","","image-button-response","98","442304","0.0-2.0-4.0-1.22","5bde3039ab7ca90001d9c1d8","B2","batch2","spm_respsonse","11947.799999952316","img/question_4_11.jpeg","3","mat_47","5","0","0","11947.799999952316","","","","","","","","","","","","","","","","","","","","",""
"","","","","","html-keyboard-response","99","443370","0.0-2.0-4.0-0.23","5bde3039ab7ca90001d9c1d8","B2","batch2","spm_show_trial_num","null","<p class=block-text>Trial 48 out of 60</p>","null","","","","","","","","","","","","","","","","","","","","","","","","","",""
"","","","","","image-button-response","100","453298","0.0-2.0-4.0-1.23","5bde3039ab7ca90001d9c1d8","B2","batch2","spm_respsonse","9913","img/question_4_12.jpeg","6","mat_48","6","0","0","9913","","","","","","","","","","","","","","","","","","","","",""
"","","","","","html-keyboard-response","101","454370","0.0-2.0-4.0-0.24","5bde3039ab7ca90001d9c1d8","B2","batch2","spm_show_trial_num","null","<p class=block-text>Trial 49 out of 60</p>","null","","","","","","","","","","","","","","","","","","","","","","","","","",""
"","","","","","image-button-response","102","462984","0.0-2.0-4.0-1.24","5bde3039ab7ca90001d9c1d8","B2","batch2","spm_respsonse","8609.899999976158","img/question_5_1.jpeg","6","mat_49","7","1","1","8609.899999976158","","","","","","","","","","","","","","","","","","","","",""
"","","","","","html-keyboard-response","103","464043","0.0-2.0-4.0-0.25","5bde3039ab7ca90001d9c1d8","B2","batch2","spm_show_trial_num","null","<p class=block-text>Trial 50 out of 60</p>","null","","","","","","","","","","","","","","","","","","","","","","","","","",""
"","","","","","image-button-response","104","475355","0.0-2.0-4.0-1.25","5bde3039ab7ca90001d9c1d8","B2","batch2","spm_respsonse","11304.599999964237","img/question_5_2.jpeg","2","mat_50","6","0","0","11304.599999964237","","","","","","","","","","","","","","","","","","","","",""
"","","","","","html-keyboard-response","105","476413","0.0-2.0-4.0-0.26","5bde3039ab7ca90001d9c1d8","B2","batch2","spm_show_trial_num","null","<p class=block-text>Trial 51 out of 60</p>","null","","","","","","","","","","","","","","","","","","","","","","","","","",""
"","","","","","image-button-response","106","482721","0.0-2.0-4.0-1.26","5bde3039ab7ca90001d9c1d8","B2","batch2","spm_respsonse","6304.100000023842","img/question_5_3.jpeg","1","mat_51","8","0","0","6304.100000023842","","","","","","","","","","","","","","","","","","","","",""
"","","","","","html-keyboard-response","107","483816","0.0-2.0-4.0-0.27","5bde3039ab7ca90001d9c1d8","B2","batch2","spm_show_trial_num","null","<p class=block-text>Trial 52 out of 60</p>","null","","","","","","","","","","","","","","","","","","","","","","","","","",""
"","","","","","image-button-response","108","492015","0.0-2.0-4.0-1.27","5bde3039ab7ca90001d9c1d8","B2","batch2","spm_respsonse","8194.600000023842","img/question_5_4.jpeg","7","mat_52","2","0","0","8194.600000023842","","","","","","","","","","","","","","","","","","","","",""
"","","","","","html-keyboard-response","109","493114","0.0-2.0-4.0-0.28","5bde3039ab7ca90001d9c1d8","B2","batch2","spm_show_trial_num","null","<p class=block-text>Trial 53 out of 60</p>","null","","","","","","","","","","","","","","","","","","","","","","","","","",""
"","","","","","image-button-response","110","496617","0.0-2.0-4.0-1.28","5bde3039ab7ca90001d9c1d8","B2","batch2","spm_respsonse","3499","img/question_5_5.jpeg","4","mat_53","1","0","0","3499","","","","","","","","","","","","","","","","","","","","",""
"","","","","","html-keyboard-response","111","497690","0.0-2.0-4.0-0.29","5bde3039ab7ca90001d9c1d8","B2","batch2","spm_show_trial_num","null","<p class=block-text>Trial 54 out of 60</p>","null","","","","","","","","","","","","","","","","","","","","","","","","","",""
"","","","","","image-button-response","112","507070","0.0-2.0-4.0-1.29","5bde3039ab7ca90001d9c1d8","B2","batch2","spm_respsonse","9375.399999976158","img/question_5_6.jpeg","1","mat_54","5","0","0","9375.399999976158","","","","","","","","","","","","","","","","","","","","",""
"","","","","","html-keyboard-response","113","508203","0.0-2.0-4.0-0.30","5bde3039ab7ca90001d9c1d8","B2","batch2","spm_show_trial_num","null","<p class=block-text>Trial 55 out of 60</p>","null","","","","","","","","","","","","","","","","","","","","","","","","","",""
"","","","","","image-button-response","114","517642","0.0-2.0-4.0-1.30","5bde3039ab7ca90001d9c1d8","B2","batch2","spm_respsonse","9434.300000011921","img/question_5_7.jpeg","5","mat_55","1","0","0","9434.300000011921","","","","","","","","","","","","","","","","","","","","",""
"","","","","","html-keyboard-response","115","518724","0.0-2.0-4.0-0.31","5bde3039ab7ca90001d9c1d8","B2","batch2","spm_show_trial_num","null","<p class=block-text>Trial 56 out of 60</p>","null","","","","","","","","","","","","","","","","","","","","","","","","","",""
"","","","","","image-button-response","116","523455","0.0-2.0-4.0-1.31","5bde3039ab7ca90001d9c1d8","B2","batch2","spm_respsonse","4725.900000035763","img/question_5_8.jpeg","6","mat_56","6","0","0","4725.900000035763","","","","","","","","","","","","","","","","","","","","",""
"","","","","","html-keyboard-response","117","524518","0.0-2.0-4.0-0.32","5bde3039ab7ca90001d9c1d8","B2","batch2","spm_show_trial_num","null","<p class=block-text>Trial 57 out of 60</p>","null","","","","","","","","","","","","","","","","","","","","","","","","","",""
"","","","","","image-button-response","118","530217","0.0-2.0-4.0-1.32","5bde3039ab7ca90001d9c1d8","B2","batch2","spm_respsonse","5693.099999964237","img/question_5_9.jpeg","7","mat_57","3","0","0","5693.099999964237","","","","","","","","","","","","","","","","","","","","",""
"","","","","","html-keyboard-response","119","531280","0.0-2.0-4.0-0.33","5bde3039ab7ca90001d9c1d8","B2","batch2","spm_show_trial_num","null","<p class=block-text>Trial 58 out of 60</p>","null","","","","","","","","","","","","","","","","","","","","","","","","","",""
"","","","","","image-button-response","120","536829","0.0-2.0-4.0-1.33","5bde3039ab7ca90001d9c1d8","B2","batch2","spm_respsonse","5542.5","img/question_5_10.jpeg","5","mat_58","2","0","0","5542.5","","","","","","","","","","","","","","","","","","","","",""
"","","","","","html-keyboard-response","121","537890","0.0-2.0-4.0-0.34","5bde3039ab7ca90001d9c1d8","B2","batch2","spm_show_trial_num","null","<p class=block-text>Trial 59 out of 60</p>","null","","","","","","","","","","","","","","","","","","","","","","","","","",""
"","","","","","image-button-response","122","550889","0.0-2.0-4.0-1.34","5bde3039ab7ca90001d9c1d8","B2","batch2","spm_respsonse","12994.600000023842","img/question_5_11.jpeg","6","mat_59","4","0","0","12994.600000023842","","","","","","","","","","","","","","","","","","","","",""
"","","","","","html-keyboard-response","123","551961","0.0-2.0-4.0-0.35","5bde3039ab7ca90001d9c1d8","B2","batch2","spm_show_trial_num","null","<p class=block-text>Trial 60 out of 60</p>","null","","","","","","","","","","","","","","","","","","","","","","","","","",""
"","","","","","image-button-response","124","562790","0.0-2.0-4.0-1.35","5bde3039ab7ca90001d9c1d8","B2","batch2","spm_respsonse","10825.699999988079","img/question_5_12.jpeg","0","mat_60","5","0","0","10825.699999988079","","","","","","","","","","","","","","","","","","","","",""
"","","","","","html-button-response","125","564976","0.0-2.0-5.0","5bde3039ab7ca90001d9c1d8","B2","batch2","spm_goodbye","1930.5","<p class= block-text>This concludes the Standard Progressive Matrix game. Thank you for your responses!<br> When you are ready, click the button continue</p>","0","","","","","","","","","","","","","","","","","","","","","","","","","",""
"true","","","","","fullscreen","126","791330","0.0-3.0-0.0","5bde3039ab7ca90001d9c1d8","B2","batch2","","","","","","","","","","","","","","","","","","","","","","","","","","","","","",""
"","","","","","instructions","127","942427","0.0-3.0-1.0-0.0","5bde3039ab7ca90001d9c1d8","B2","batch2","","151095","","","","","","","","[{""page_index"":0,""viewing_time"":145098.10000002384},{""page_index"":1,""viewing_time"":5995.899999976158}]","","","","","","","","","","","","","","","","","","","",""
"","","","","","html-button-response","128","949858","0.0-3.0-1.0-1.0-0.0","5bde3039ab7ca90001d9c1d8","B2","batch2","pattern_enter_quiz","7423.5","<p class=block-text> Let's answer a few questions <br>","0","","","","","","","","","","","","","","","","","","","","","","","","","",""
"","","","","","html-button-response","129","955756","0.0-3.0-1.0-1.0-1.0","5bde3039ab7ca90001d9c1d8","B2","batch2","pattern_quiz","5893.800000011921","<p class = block-text>True or False: You will have as much time as you want to make each choice. <br></p>","1","","","true","","","","","","","","","","","","","","","","","","","","","","",""
"","","","","","html-button-response","130","957119","0.0-3.0-1.0-1.0-2.0","5bde3039ab7ca90001d9c1d8","B2","batch2","pattern_quiz_feedback","1359.3999999761581","<p class = block-text>Correct! You should make your choice <strong> as fast as you can</strong>.</p>","0","","","","","","","","","","","","","","","","","","","","","","","","","",""
"","","","","","html-button-response","131","962851","0.0-3.0-1.0-1.0-3.0","5bde3039ab7ca90001d9c1d8","B2","batch2","pattern_quiz","5729.799999952316","<p class = block-text>True or False: You will look for 4 pieces in black or white color connected in a row either horizontally, vertically or diagonally. <br></p>","0","","","true","","","","","","","","","","","","","","","","","","","","","","",""
"","","","","","html-button-response","132","963872","0.0-3.0-1.0-1.0-4.0","5bde3039ab7ca90001d9c1d8","B2","batch2","pattern_quiz_feedback","1017.9000000357628","<p class = block-text>Correct! </p>","0","","","","","","","","","","","","","","","","","","","","","","","","","",""
"","","","","","html-button-response","133","966047","0.0-3.0-2.0","5bde3039ab7ca90001d9c1d8","B2","batch2","pattern_enter_practice","2168.400000035763","<p class=block-text> Now that you've understood the game, let's do a few practice trials before we start!<br> <br>","0","","","","","","","","","","","","","","","","","","","","","","","","","",""
"","","","","","image-keyboard-response","134","967595","0.0-3.0-3.0-0.0","5bde3039ab7ca90001d9c1d8","B2","batch2","pattern_practice","1544","stim/prac_no_16_1.png","j","","j","true","","","","","","","","","","","","","","","","","","","","","","",""
"","","","","","html-keyboard-response","135","968632","0.0-3.0-3.0-1.0","5bde3039ab7ca90001d9c1d8","B2","batch2","pattern_feedback","null","<p style=""font-size:30px;color:green;"">Correct!</p>","null","","","","","","","","","","","","","","","","","","","","","","","","","",""
"","","","","","image-keyboard-response","136","969769","0.0-3.0-3.0-0.1","5bde3039ab7ca90001d9c1d8","B2","batch2","pattern_practice","1134","stim/prac_yes_18_hor_w1.png","f","","f","true","","","","","","","","","","","","","","","","","","","","","","",""
"","","","","","html-keyboard-response","137","970899","0.0-3.0-3.0-1.1","5bde3039ab7ca90001d9c1d8","B2","batch2","pattern_feedback","null","<p style=""font-size:30px;color:green;"">Correct!</p>","null","","","","","","","","","","","","","","","","","","","","","","","","","",""
"","","","","","image-keyboard-response","138","971759","0.0-3.0-3.0-0.2","5bde3039ab7ca90001d9c1d8","B2","batch2","pattern_practice","857.2000000476837","stim/prac_yes_16_ver_w1.png","f","","f","true","","","","","","","","","","","","","","","","","","","","","","",""
"","","","","","html-keyboard-response","139","972799","0.0-3.0-3.0-1.2","5bde3039ab7ca90001d9c1d8","B2","batch2","pattern_feedback","null","<p style=""font-size:30px;color:green;"">Correct!</p>","null","","","","","","","","","","","","","","","","","","","","","","","","","",""
"","","","","","image-keyboard-response","140","973820","0.0-3.0-3.0-0.3","5bde3039ab7ca90001d9c1d8","B2","batch2","pattern_practice","1017.4000000357628","stim/prac_no_18_1.png","j","","j","true","","","","","","","","","","","","","","","","","","","","","","",""
"","","","","","html-keyboard-response","141","974846","0.0-3.0-3.0-1.3","5bde3039ab7ca90001d9c1d8","B2","batch2","pattern_feedback","null","<p style=""font-size:30px;color:green;"">Correct!</p>","null","","","","","","","","","","","","","","","","","","","","","","","","","",""
"","","","","","image-keyboard-response","142","975749","0.0-3.0-3.0-0.4","5bde3039ab7ca90001d9c1d8","B2","batch2","pattern_practice","900.8000000119209","stim/prac_yes_20_dia_b1.png","j","","f","false","","","","","","","","","","","","","","","","","","","","","","",""
"","","","","","html-keyboard-response","143","976772","0.0-3.0-3.0-1.4","5bde3039ab7ca90001d9c1d8","B2","batch2","pattern_feedback","null","<p style=""font-size:30px;color:red;"">Wrong.</p>","null","","","","","","","","","","","","","","","","","","","","","","","","","",""
"","","","","","html-button-response","144","979600","0.0-3.0-4.0","5bde3039ab7ca90001d9c1d8","B2","batch2","pattern_enter_official_trials","2823.800000011921","<p class=block-text> Good job! You are done with practice trials!<br>
        You responded correctly on 80% of the trials.<br>
        Press the button below to start official trials. Now you won't see any feedback about your response</p>","0","","","","","","","","","","","","","","","","","","","","","","","","","",""
"","","","","","html-keyboard-response","145","980427","0.0-3.0-5.0-0.0","5bde3039ab7ca90001d9c1d8","B2","batch2","pattern_show_trial_num","null","<p class=block-text>Trial 1 out of 78</p>","null","","","","","","","","","","","","","","","","","","","","","","","","","",""
"","","","","","image-keyboard-response","146","981839","0.0-3.0-5.0-1.0","5bde3039ab7ca90001d9c1d8","B2","batch2","pattern_response","1409.699999988079","stim/yes_33_dia_w1_w.png","j","pattern_56","f","false","","","","1409.699999988079","false","0","","","","","","","","","","","","","","","","",""
"","","","","","html-keyboard-response","147","983154","0.0-3.0-5.0-0.1","5bde3039ab7ca90001d9c1d8","B2","batch2","pattern_show_trial_num","null","<p class=block-text>Trial 2 out of 78</p>","null","","","","","","","","","","","","","","","","","","","","","","","","","",""
"","","","","","image-keyboard-response","148","985097","0.0-3.0-5.0-1.1","5bde3039ab7ca90001d9c1d8","B2","batch2","pattern_response","1940.7000000476837","stim/no_36_1_b.png","j","pattern_17","j","true","","","","1940.7000000476837","true","1","","","","","","","","","","","","","","","","",""
"","","","","","html-keyboard-response","149","986474","0.0-3.0-5.0-0.2","5bde3039ab7ca90001d9c1d8","B2","batch2","pattern_show_trial_num","null","<p class=block-text>Trial 3 out of 78</p>","null","","","","","","","","","","","","","","","","","","","","","","","","","",""
"","","","","","image-keyboard-response","150","987863","0.0-3.0-5.0-1.2","5bde3039ab7ca90001d9c1d8","B2","batch2","pattern_response","1385.699999988079","stim/no_30_1_b.png","j","pattern_13","j","true","","","","1385.699999988079","true","2","","","","","","","","","","","","","","","","",""
"","","","","","html-keyboard-response","151","989169","0.0-3.0-5.0-0.3","5bde3039ab7ca90001d9c1d8","B2","batch2","pattern_show_trial_num","null","<p class=block-text>Trial 4 out of 78</p>","null","","","","","","","","","","","","","","","","","","","","","","","","","",""
"","","","","","image-keyboard-response","152","990565","0.0-3.0-5.0-1.3","5bde3039ab7ca90001d9c1d8","B2","batch2","pattern_response","1393.699999988079","stim/no_43_2_b.png","j","pattern_23","j","true","","","","1393.699999988079","true","3","","","","","","","","","","","","","","","","",""
"","","","","","html-keyboard-response","153","991884","0.0-3.0-5.0-0.4","5bde3039ab7ca90001d9c1d8","B2","batch2","pattern_show_trial_num","null","<p class=block-text>Trial 5 out of 78</p>","null","","","","","","","","","","","","","","","","","","","","","","","","","",""
"","","","","","image-keyboard-response","154","993442","0.0-3.0-5.0-1.4","5bde3039ab7ca90001d9c1d8","B2","batch2","pattern_response","1555","stim/no_33_1_b.png","j","pattern_15","j","true","","","","1555","true","4","","","","","","","","","","","","","","","","",""
"","","","","","html-keyboard-response","155","994751","0.0-3.0-5.0-0.5","5bde3039ab7ca90001d9c1d8","B2","batch2","pattern_show_trial_num","null","<p class=block-text>Trial 6 out of 78</p>","null","","","","","","","","","","","","","","","","","","","","","","","","","",""
"","","","","","image-keyboard-response","156","997609","0.0-3.0-5.0-1.5","5bde3039ab7ca90001d9c1d8","B2","batch2","pattern_response","2854.300000011921","stim/no_45_1_w.png","j","pattern_25","j","true","","","","2854.300000011921","true","5","","","","","","","","","","","","","","","","",""
"","","","","","html-keyboard-response","157","998930","0.0-3.0-5.0-0.6","5bde3039ab7ca90001d9c1d8","B2","batch2","pattern_show_trial_num","null","<p class=block-text>Trial 7 out of 78</p>","null","","","","","","","","","","","","","","","","","","","","","","","","","",""
"","","","","","image-keyboard-response","158","999922","0.0-3.0-5.0-1.6","5bde3039ab7ca90001d9c1d8","B2","batch2","pattern_response","988.6000000238419","stim/no_12_1.png","j","pattern_01","j","true","","","","988.6000000238419","true","6","","","","","","","","","","","","","","","","",""
"","","","","","html-keyboard-response","159","1001228","0.0-3.0-5.0-0.7","5bde3039ab7ca90001d9c1d8","B2","batch2","pattern_show_trial_num","null","<p class=block-text>Trial 8 out of 78</p>","null","","","","","","","","","","","","","","","","","","","","","","","","","",""
"","","","","","image-keyboard-response","160","1001998","0.0-3.0-5.0-1.7","5bde3039ab7ca90001d9c1d8","B2","batch2","pattern_response","767.8000000119209","stim/yes_70_ver_b1.png","f","pattern_80","f","true","","","","767.8000000119209","true","7","","","","","","","","","","","","","","","","",""
"","","","","","html-keyboard-response","161","1003304","0.0-3.0-5.0-0.8","5bde3039ab7ca90001d9c1d8","B2","batch2","pattern_show_trial_num","null","<p class=block-text>Trial 9 out of 78</p>","null","","","","","","","","","","","","","","","","","","","","","","","","","",""
"","","","","","image-keyboard-response","162","1004428","0.0-3.0-5.0-1.8","5bde3039ab7ca90001d9c1d8","B2","batch2","pattern_response","1121.9000000357628","stim/yes_26_dia_w2_w.png","f","pattern_50","f","true","","","","1121.9000000357628","true","8","","","","","","","","","","","","","","","","",""
"","","","","","html-keyboard-response","163","1005752","0.0-3.0-5.0-0.9","5bde3039ab7ca90001d9c1d8","B2","batch2","pattern_show_trial_num","null","<p class=block-text>Trial 10 out of 78</p>","null","","","","","","","","","","","","","","","","","","","","","","","","","",""
"","","","","","image-keyboard-response","164","1008869","0.0-3.0-5.0-1.9","5bde3039ab7ca90001d9c1d8","B2","batch2","pattern_response","3114.400000035763","stim/yes_53_ver_b1_b.png","f","pattern_74","f","true","","","","3114.400000035763","true","9","","","","","","","","","","","","","","","","",""
"","","","","","html-keyboard-response","165","1010190","0.0-3.0-5.0-0.10","5bde3039ab7ca90001d9c1d8","B2","batch2","pattern_show_trial_num","null","<p class=block-text>Trial 11 out of 78</p>","null","","","","","","","","","","","","","","","","","","","","","","","","","",""
"","","","","","image-keyboard-response","166","1010932","0.0-3.0-5.0-1.10","5bde3039ab7ca90001d9c1d8","B2","batch2","pattern_response","737.0999999642372","stim/yes_29_hor_b1_b.png","f","pattern_52","f","true","","","","737.0999999642372","true","10","","","","","","","","","","","","","","","","",""
"","","","","","html-keyboard-response","167","1012242","0.0-3.0-5.0-0.11","5bde3039ab7ca90001d9c1d8","B2","batch2","pattern_show_trial_num","null","<p class=block-text>Trial 12 out of 78</p>","null","","","","","","","","","","","","","","","","","","","","","","","","","",""
"","","","","","image-keyboard-response","168","1014638","0.0-3.0-5.0-1.11","5bde3039ab7ca90001d9c1d8","B2","batch2","pattern_response","2393.199999988079","stim/no_47_1_b.png","j","pattern_27","j","true","","","","2393.199999988079","true","11","","","","","","","","","","","","","","","","",""
"","","","","","html-keyboard-response","169","1015955","0.0-3.0-5.0-0.12","5bde3039ab7ca90001d9c1d8","B2","batch2","pattern_show_trial_num","null","<p class=block-text>Trial 13 out of 78</p>","null","","","","","","","","","","","","","","","","","","","","","","","","","",""
"","","","","","image-keyboard-response","170","1018530","0.0-3.0-5.0-1.12","5bde3039ab7ca90001d9c1d8","B2","batch2","pattern_response","2573.199999988079","stim/no_37_2_w.png","j","pattern_19","j","true","","","","2573.199999988079","true","12","","","","","","","","","","","","","","","","",""
"","","","","","html-keyboard-response","171","1019858","0.0-3.0-5.0-0.13","5bde3039ab7ca90001d9c1d8","B2","batch2","pattern_show_trial_num","null","<p class=block-text>Trial 14 out of 78</p>","null","","","","","","","","","","","","","","","","","","","","","","","","","",""
"","","","","","image-keyboard-response","172","1020907","0.0-3.0-5.0-1.13","5bde3039ab7ca90001d9c1d8","B2","batch2","pattern_response","1046.1000000238419","stim/yes_63_dia_b1.png","f","pattern_78","f","true","","","","1046.1000000238419","true","13","","","","","","","","","","","","","","","","",""
"","","","","","html-keyboard-response","173","1022274","0.0-3.0-5.0-0.14","5bde3039ab7ca90001d9c1d8","B2","batch2","pattern_show_trial_num","null","<p class=block-text>Trial 15 out of 78</p>","null","","","","","","","","","","","","","","","","","","","","","","","","","",""
"","","","","","image-keyboard-response","174","1026965","0.0-3.0-5.0-1.14","5bde3039ab7ca90001d9c1d8","B2","batch2","pattern_response","4688.899999976158","stim/no_67_1.png","j","pattern_39","j","true","","","","4688.899999976158","true","14","","","","","","","","","","","","","","","","",""
"","","","","","html-keyboard-response","175","1028276","0.0-3.0-5.0-0.15","5bde3039ab7ca90001d9c1d8","B2","batch2","pattern_show_trial_num","null","<p class=block-text>Trial 16 out of 78</p>","null","","","","","","","","","","","","","","","","","","","","","","","","","",""
"","","","","","image-keyboard-response","176","1030635","0.0-3.0-5.0-1.15","5bde3039ab7ca90001d9c1d8","B2","batch2","pattern_response","2357.100000023842","stim/yes_42_dia_w1_w.png","j","pattern_64","f","false","","","","2357.100000023842","false","14","","","","","","","","","","","","","","","","",""
"","","","","","html-keyboard-response","177","1031962","0.0-3.0-5.0-0.16","5bde3039ab7ca90001d9c1d8","B2","batch2","pattern_show_trial_num","null","<p class=block-text>Trial 17 out of 78</p>","null","","","","","","","","","","","","","","","","","","","","","","","","","",""
"","","","","","image-keyboard-response","178","1037586","0.0-3.0-5.0-1.16","5bde3039ab7ca90001d9c1d8","B2","batch2","pattern_response","5620.699999988079","stim/yes_58_dia_w1_w.png","j","pattern_76","f","false","","","","5620.699999988079","false","14","","","","","","","","","","","","","","","","",""
"","","","","","html-keyboard-response","179","1038903","0.0-3.0-5.0-0.17","5bde3039ab7ca90001d9c1d8","B2","batch2","pattern_show_trial_num","null","<p class=block-text>Trial 18 out of 78</p>","null","","","","","","","","","","","","","","","","","","","","","","","","","",""
"","","","","","image-keyboard-response","180","1039675","0.0-3.0-5.0-1.17","5bde3039ab7ca90001d9c1d8","B2","batch2","pattern_response","767.5999999642372","stim/yes_12_hor_w1_w.png","f","pattern_42","f","true","","","","767.5999999642372","true","15","","","","","","","","","","","","","","","","",""
"","","","","","html-keyboard-response","181","1041002","0.0-3.0-5.0-0.18","5bde3039ab7ca90001d9c1d8","B2","batch2","pattern_show_trial_num","null","<p class=block-text>Trial 19 out of 78</p>","null","","","","","","","","","","","","","","","","","","","","","","","","","",""
"","","","","","image-keyboard-response","182","1043464","0.0-3.0-5.0-1.18","5bde3039ab7ca90001d9c1d8","B2","batch2","pattern_response","2459.800000011921","stim/yes_46_ver_b1_b.png","f","pattern_68","f","true","","","","2459.800000011921","true","16","","","","","","","","","","","","","","","","",""
"","","","","","html-keyboard-response","183","1044781","0.0-3.0-5.0-0.19","5bde3039ab7ca90001d9c1d8","B2","batch2","pattern_show_trial_num","null","<p class=block-text>Trial 20 out of 78</p>","null","","","","","","","","","","","","","","","","","","","","","","","","","",""
"","","","","","image-keyboard-response","184","1045596","0.0-3.0-5.0-1.19","5bde3039ab7ca90001d9c1d8","B2","batch2","pattern_response","810.1000000238419","stim/yes_15_dia_b1u_b.png","f","pattern_44","f","true","","","","810.1000000238419","true","17","","","","","","","","","","","","","","","","",""
"","","","","","html-keyboard-response","185","1046922","0.0-3.0-5.0-0.20","5bde3039ab7ca90001d9c1d8","B2","batch2","pattern_show_trial_num","null","<p class=block-text>Trial 21 out of 78</p>","null","","","","","","","","","","","","","","","","","","","","","","","","","",""
"","","","","","image-keyboard-response","186","1049677","0.0-3.0-5.0-1.20","5bde3039ab7ca90001d9c1d8","B2","batch2","pattern_response","2750.899999976158","stim/no_22_1_b.png","j","pattern_07","j","true","","","","2750.899999976158","true","18","","","","","","","","","","","","","","","","",""
"","","","","","html-keyboard-response","187","1051018","0.0-3.0-5.0-0.21","5bde3039ab7ca90001d9c1d8","B2","batch2","pattern_show_trial_num","null","<p class=block-text>Trial 22 out of 78</p>","null","","","","","","","","","","","","","","","","","","","","","","","","","",""
"","","","","","image-keyboard-response","188","1055646","0.0-3.0-5.0-1.21","5bde3039ab7ca90001d9c1d8","B2","batch2","pattern_response","4624.899999976158","stim/no_51_1.png","j","pattern_31","j","true","","","","4624.899999976158","true","19","","","","","","","","","","","","","","","","",""
"","","","","","html-keyboard-response","189","1056963","0.0-3.0-5.0-0.22","5bde3039ab7ca90001d9c1d8","B2","batch2","pattern_show_trial_num","null","<p class=block-text>Trial 23 out of 78</p>","null","","","","","","","","","","","","","","","","","","","","","","","","","",""
"","","","","","image-keyboard-response","190","1057842","0.0-3.0-5.0-1.22","5bde3039ab7ca90001d9c1d8","B2","batch2","pattern_response","873.6000000238419","stim/no_15_1_w.png","j","pattern_03","j","true","","","","873.6000000238419","true","20","","","","","","","","","","","","","","","","",""
"","","","","","html-keyboard-response","191","1059170","0.0-3.0-5.0-0.23","5bde3039ab7ca90001d9c1d8","B2","batch2","pattern_show_trial_num","null","<p class=block-text>Trial 24 out of 78</p>","null","","","","","","","","","","","","","","","","","","","","","","","","","",""
"","","","","","image-keyboard-response","192","1060253","0.0-3.0-5.0-1.23","5bde3039ab7ca90001d9c1d8","B2","batch2","pattern_response","1081.6000000238419","stim/yes_30_ver_b1_b.png","f","pattern_54","f","true","","","","1081.6000000238419","true","21","","","","","","","","","","","","","","","","",""
"","","","","","html-keyboard-response","193","1061562","0.0-3.0-5.0-0.24","5bde3039ab7ca90001d9c1d8","B2","batch2","pattern_show_trial_num","null","<p class=block-text>Trial 25 out of 78</p>","null","","","","","","","","","","","","","","","","","","","","","","","","","",""
"","","","","","image-keyboard-response","194","1064904","0.0-3.0-5.0-1.24","5bde3039ab7ca90001d9c1d8","B2","batch2","pattern_response","3336.5","stim/no_39_1_w.png","j","pattern_21","j","true","","","","3336.5","true","22","","","","","","","","","","","","","","","","",""
"","","","","","html-keyboard-response","195","1066232","0.0-3.0-5.0-0.25","5bde3039ab7ca90001d9c1d8","B2","batch2","pattern_show_trial_num","null","<p class=block-text>Trial 26 out of 78</p>","null","","","","","","","","","","","","","","","","","","","","","","","","","",""
"","","","","","image-keyboard-response","196","1066965","0.0-3.0-5.0-1.25","5bde3039ab7ca90001d9c1d8","B2","batch2","pattern_response","722.3000000119209","stim/yes_39_hor_w1_w.png","f","pattern_62","f","true","","","","722.3000000119209","true","23","","","","","","","","","","","","","","","","",""
"","","","","","html-keyboard-response","197","1068284","0.0-3.0-5.0-0.26","5bde3039ab7ca90001d9c1d8","B2","batch2","pattern_show_trial_num","null","<p class=block-text>Trial 27 out of 78</p>","null","","","","","","","","","","","","","","","","","","","","","","","","","",""
"","","","","","image-keyboard-response","198","1070134","0.0-3.0-5.0-1.26","5bde3039ab7ca90001d9c1d8","B2","batch2","pattern_response","1848","stim/no_28_2.png","j","pattern_11","j","true","","","","1848","true","24","","","","","","","","","","","","","","","","",""
"","","","","","html-keyboard-response","199","1071466","0.0-3.0-5.0-0.27","5bde3039ab7ca90001d9c1d8","B2","batch2","pattern_show_trial_num","null","<p class=block-text>Trial 28 out of 78</p>","null","","","","","","","","","","","","","","","","","","","","","","","","","",""
"","","","","","image-keyboard-response","200","1073971","0.0-3.0-5.0-1.27","5bde3039ab7ca90001d9c1d8","B2","batch2","pattern_response","2501.399999976158","stim/no_25_1_b.png","j","pattern_09","j","true","","","","2501.399999976158","true","25","","","","","","","","","","","","","","","","",""
"","","","","","html-keyboard-response","201","1075284","0.0-3.0-5.0-0.28","5bde3039ab7ca90001d9c1d8","B2","batch2","pattern_show_trial_num","null","<p class=block-text>Trial 29 out of 78</p>","null","","","","","","","","","","","","","","","","","","","","","","","","","",""
"","","","","","image-keyboard-response","202","1076028","0.0-3.0-5.0-1.28","5bde3039ab7ca90001d9c1d8","B2","batch2","pattern_response","740.5","stim/yes_17_ver_b1_b.png","f","pattern_46","f","true","","","","740.5","true","26","","","","","","","","","","","","","","","","",""
"","","","","","html-keyboard-response","203","1077341","0.0-3.0-5.0-0.29","5bde3039ab7ca90001d9c1d8","B2","batch2","pattern_show_trial_num","null","<p class=block-text>Trial 30 out of 78</p>","null","","","","","","","","","","","","","","","","","","","","","","","","","",""
"","","","","","image-keyboard-response","204","1078645","0.0-3.0-5.0-1.29","5bde3039ab7ca90001d9c1d8","B2","batch2","pattern_response","1300.6000000238419","stim/no_18_1_b.png","j","pattern_05","j","true","","","","1300.6000000238419","true","27","","","","","","","","","","","","","","","","",""
"","","","","","html-keyboard-response","205","1079961","0.0-3.0-5.0-0.30","5bde3039ab7ca90001d9c1d8","B2","batch2","pattern_show_trial_num","null","<p class=block-text>Trial 31 out of 78</p>","null","","","","","","","","","","","","","","","","","","","","","","","","","",""
"","","","","","image-keyboard-response","206","1084145","0.0-3.0-5.0-1.30","5bde3039ab7ca90001d9c1d8","B2","batch2","pattern_response","4181.699999988079","stim/no_49_2_b.png","j","pattern_29","j","true","","","","4181.699999988079","true","28","","","","","","","","","","","","","","","","",""
"","","","","","html-keyboard-response","207","1085457","0.0-3.0-5.0-0.31","5bde3039ab7ca90001d9c1d8","B2","batch2","pattern_show_trial_num","null","<p class=block-text>Trial 32 out of 78</p>","null","","","","","","","","","","","","","","","","","","","","","","","","","",""
"","","","","","image-keyboard-response","208","1086220","0.0-3.0-5.0-1.31","5bde3039ab7ca90001d9c1d8","B2","batch2","pattern_response","759.5","stim/yes_36_ver_w1_w.png","f","pattern_58","f","true","","","","759.5","true","29","","","","","","","","","","","","","","","","",""
"","","","","","html-keyboard-response","209","1087553","0.0-3.0-5.0-0.32","5bde3039ab7ca90001d9c1d8","B2","batch2","pattern_show_trial_num","null","<p class=block-text>Trial 33 out of 78</p>","null","","","","","","","","","","","","","","","","","","","","","","","","","",""
"","","","","","image-keyboard-response","210","1089707","0.0-3.0-5.0-1.32","5bde3039ab7ca90001d9c1d8","B2","batch2","pattern_response","2151","stim/yes_51_dia_b1.png","f","pattern_72","f","true","","","","2151","true","30","","","","","","","","","","","","","","","","",""
"","","","","","html-keyboard-response","211","1091023","0.0-3.0-5.0-0.33","5bde3039ab7ca90001d9c1d8","B2","batch2","pattern_show_trial_num","null","<p class=block-text>Trial 34 out of 78</p>","null","","","","","","","","","","","","","","","","","","","","","","","","","",""
"","","","","","image-keyboard-response","212","1091974","0.0-3.0-5.0-1.33","5bde3039ab7ca90001d9c1d8","B2","batch2","pattern_response","947","stim/yes_49_hor_w1_b.png","f","pattern_70","f","true","","","","947","true","31","","","","","","","","","","","","","","","","",""
"","","","","","html-keyboard-response","213","1093282","0.0-3.0-5.0-0.34","5bde3039ab7ca90001d9c1d8","B2","batch2","pattern_show_trial_num","null","<p class=block-text>Trial 35 out of 78</p>","null","","","","","","","","","","","","","","","","","","","","","","","","","",""
"","","","","","image-keyboard-response","214","1100017","0.0-3.0-5.0-1.34","5bde3039ab7ca90001d9c1d8","B2","batch2","pattern_response","6732.5","stim/no_58_1_w.png","j","pattern_35","j","true","","","","6732.5","true","32","","","","","","","","","","","","","","","","",""
"","","","","","html-keyboard-response","215","1101330","0.0-3.0-5.0-0.35","5bde3039ab7ca90001d9c1d8","B2","batch2","pattern_show_trial_num","null","<p class=block-text>Trial 36 out of 78</p>","null","","","","","","","","","","","","","","","","","","","","","","","","","",""
"","","","","","image-keyboard-response","216","1102473","0.0-3.0-5.0-1.35","5bde3039ab7ca90001d9c1d8","B2","batch2","pattern_response","1139.8999999761581","stim/yes_23_ver_b1.png","f","pattern_48","f","true","","","","1139.8999999761581","true","33","","","","","","","","","","","","","","","","",""
"","","","","","html-keyboard-response","217","1103792","0.0-3.0-5.0-0.36","5bde3039ab7ca90001d9c1d8","B2","batch2","pattern_show_trial_num","null","<p class=block-text>Trial 37 out of 78</p>","null","","","","","","","","","","","","","","","","","","","","","","","","","",""
"","","","","","image-keyboard-response","218","1104628","0.0-3.0-5.0-1.36","5bde3039ab7ca90001d9c1d8","B2","batch2","pattern_response","833.6999999880791","stim/yes_37_hor_w1_w.png","f","pattern_60","f","true","","","","833.6999999880791","true","34","","","","","","","","","","","","","","","","",""
"","","","","","html-keyboard-response","219","1105953","0.0-3.0-5.0-0.37","5bde3039ab7ca90001d9c1d8","B2","batch2","pattern_show_trial_num","null","<p class=block-text>Trial 38 out of 78</p>","null","","","","","","","","","","","","","","","","","","","","","","","","","",""
"","","","","","image-keyboard-response","220","1111158","0.0-3.0-5.0-1.37","5bde3039ab7ca90001d9c1d8","B2","batch2","pattern_response","5203","stim/yes_44_ver_w1_w.png","f","pattern_66","f","true","","","","5203","true","35","","","","","","","","","","","","","","","","",""
"","","","","","html-keyboard-response","221","1112482","0.0-3.0-5.0-0.38","5bde3039ab7ca90001d9c1d8","B2","batch2","pattern_show_trial_num","null","<p class=block-text>Trial 39 out of 78</p>","null","","","","","","","","","","","","","","","","","","","","","","","","","",""
"","","","","","image-keyboard-response","222","1119477","0.0-3.0-5.0-1.38","5bde3039ab7ca90001d9c1d8","B2","batch2","pattern_response","6990.5","stim/no_53_1_b.png","j","pattern_33","j","true","","","","6990.5","true","36","","","","","","","","","","","","","","","","",""
"","","","","","image-keyboard-response","223","1122195","0.0-3.0-6.0","5bde3039ab7ca90001d9c1d8","B2","batch2","attention_check","2199.199999988079","stim/empty_board.png","j","","j","true","","","","","","","500","[""f"",""j""]","","","","","","","","","","","","","","",""
"","","","","","html-keyboard-response","224","1123002","0.0-3.0-7.0-0.0","5bde3039ab7ca90001d9c1d8","B2","batch2","pattern_show_trial_num","null","<p class=block-text>Trial 40 out of 78</p>","null","","","","","","","","","","","","","","","","","","","","","","","","","",""
"","","","","","image-keyboard-response","225","1124393","0.0-3.0-7.0-1.0","5bde3039ab7ca90001d9c1d8","B2","batch2","pattern_response","1374.3999999761581","stim/no_20_1_w.png","j","pattern_06","j","true","","","","1374.3999999761581","true","37","","","","","","","","","","","","","","","","",""
"","","","","","html-keyboard-response","226","1125708","0.0-3.0-7.0-0.1","5bde3039ab7ca90001d9c1d8","B2","batch2","pattern_show_trial_num","null","<p class=block-text>Trial 41 out of 78</p>","null","","","","","","","","","","","","","","","","","","","","","","","","","",""
"","","","","","image-keyboard-response","227","1127014","0.0-3.0-7.0-1.1","5bde3039ab7ca90001d9c1d8","B2","batch2","pattern_response","1303.3999999761581","stim/yes_17_dia_w1.png","f","pattern_45","f","true","","","","1303.3999999761581","true","38","","","","","","","","","","","","","","","","",""
"","","","","","html-keyboard-response","228","1128405","0.0-3.0-7.0-0.2","5bde3039ab7ca90001d9c1d8","B2","batch2","pattern_show_trial_num","null","<p class=block-text>Trial 42 out of 78</p>","null","","","","","","","","","","","","","","","","","","","","","","","","","",""
"","","","","","image-keyboard-response","229","1129751","0.0-3.0-7.0-1.2","5bde3039ab7ca90001d9c1d8","B2","batch2","pattern_response","1342.6000000238419","stim/no_17_1_w.png","j","pattern_04","j","true","","","","1342.6000000238419","true","39","","","","","","","","","","","","","","","","",""
"","","","","","html-keyboard-response","230","1131093","0.0-3.0-7.0-0.3","5bde3039ab7ca90001d9c1d8","B2","batch2","pattern_show_trial_num","null","<p class=block-text>Trial 43 out of 78</p>","null","","","","","","","","","","","","","","","","","","","","","","","","","",""
"","","","","","image-keyboard-response","231","1138434","0.0-3.0-7.0-1.3","5bde3039ab7ca90001d9c1d8","B2","batch2","pattern_response","7338.099999964237","stim/no_42_1_w.png","j","pattern_22","j","true","","","","7338.099999964237","true","40","","","","","","","","","","","","","","","","",""
"","","","","","html-keyboard-response","232","1139759","0.0-3.0-7.0-0.4","5bde3039ab7ca90001d9c1d8","B2","batch2","pattern_show_trial_num","null","<p class=block-text>Trial 44 out of 78</p>","null","","","","","","","","","","","","","","","","","","","","","","","","","",""
"","","","","","image-keyboard-response","233","1141826","0.0-3.0-7.0-1.4","5bde3039ab7ca90001d9c1d8","B2","batch2","pattern_response","2062.900000035763","stim/yes_31_hor_b1.png","f","pattern_55","f","true","","","","2062.900000035763","true","41","","","","","","","","","","","","","","","","",""
"","","","","","html-keyboard-response","234","1143218","0.0-3.0-7.0-0.5","5bde3039ab7ca90001d9c1d8","B2","batch2","pattern_show_trial_num","null","<p class=block-text>Trial 45 out of 78</p>","null","","","","","","","","","","","","","","","","","","","","","","","","","",""
"","","","","","image-keyboard-response","235","1145981","0.0-3.0-7.0-1.5","5bde3039ab7ca90001d9c1d8","B2","batch2","pattern_response","2759","stim/no_29_1_b.png","j","pattern_12","j","true","","","","2759","true","42","","","","","","","","","","","","","","","","",""
"","","","","","html-keyboard-response","236","1147292","0.0-3.0-7.0-0.6","5bde3039ab7ca90001d9c1d8","B2","batch2","pattern_show_trial_num","null","<p class=block-text>Trial 46 out of 78</p>","null","","","","","","","","","","","","","","","","","","","","","","","","","",""
"","","","","","image-keyboard-response","237","1152985","0.0-3.0-7.0-1.6","5bde3039ab7ca90001d9c1d8","B2","batch2","pattern_response","5682.699999988079","stim/no_55_1_w.png","j","pattern_34","j","true","","","","5682.699999988079","true","43","","","","","","","","","","","","","","","","",""
"","","","","","html-keyboard-response","238","1154293","0.0-3.0-7.0-0.7","5bde3039ab7ca90001d9c1d8","B2","batch2","pattern_show_trial_num","null","<p class=block-text>Trial 47 out of 78</p>","null","","","","","","","","","","","","","","","","","","","","","","","","","",""
"","","","","","image-keyboard-response","239","1155328","0.0-3.0-7.0-1.7","5bde3039ab7ca90001d9c1d8","B2","batch2","pattern_response","1031.6000000238419","stim/no_13_2_b.png","j","pattern_02","j","true","","","","1031.6000000238419","true","44","","","","","","","","","","","","","","","","",""
"","","","","","html-keyboard-response","240","1156651","0.0-3.0-7.0-0.8","5bde3039ab7ca90001d9c1d8","B2","batch2","pattern_show_trial_num","null","<p class=block-text>Trial 48 out of 78</p>","null","","","","","","","","","","","","","","","","","","","","","","","","","",""
"","","","","","image-keyboard-response","241","1162180","0.0-3.0-7.0-1.8","5bde3039ab7ca90001d9c1d8","B2","batch2","pattern_response","5526.800000011921","stim/yes_50_dia_w1.png","f","pattern_71","f","true","","","","5526.800000011921","true","45","","","","","","","","","","","","","","","","",""
"","","","","","html-keyboard-response","242","1163504","0.0-3.0-7.0-0.9","5bde3039ab7ca90001d9c1d8","B2","batch2","pattern_show_trial_num","null","<p class=block-text>Trial 49 out of 78</p>","null","","","","","","","","","","","","","","","","","","","","","","","","","",""
"","","","","","image-keyboard-response","243","1169088","0.0-3.0-7.0-1.9","5bde3039ab7ca90001d9c1d8","B2","batch2","pattern_response","5580","stim/no_44_1.png","j","pattern_24","j","true","","","","5580","true","46","","","","","","","","","","","","","","","","",""
"","","","","","html-keyboard-response","244","1170411","0.0-3.0-7.0-0.10","5bde3039ab7ca90001d9c1d8","B2","batch2","pattern_show_trial_num","null","<p class=block-text>Trial 50 out of 78</p>","null","","","","","","","","","","","","","","","","","","","","","","","","","",""
"","","","","","image-keyboard-response","245","1175969","0.0-3.0-7.0-1.10","5bde3039ab7ca90001d9c1d8","B2","batch2","pattern_response","5555.300000011921","stim/yes_40_dia_b1_b.png","f","pattern_63","f","true","","","","5555.300000011921","true","47","","","","","","","","","","","","","","","","",""
"","","","","","html-keyboard-response","246","1177290","0.0-3.0-7.0-0.11","5bde3039ab7ca90001d9c1d8","B2","batch2","pattern_show_trial_num","null","<p class=block-text>Trial 51 out of 78</p>","null","","","","","","","","","","","","","","","","","","","","","","","","","",""
"","","","","","image-keyboard-response","247","1179735","0.0-3.0-7.0-1.11","5bde3039ab7ca90001d9c1d8","B2","batch2","pattern_response","2436.199999988079","stim/yes_29_ver_w1.png","f","pattern_53","f","true","","","","2436.199999988079","true","48","","","","","","","","","","","","","","","","",""
"","","","","","html-keyboard-response","248","1181058","0.0-3.0-7.0-0.12","5bde3039ab7ca90001d9c1d8","B2","batch2","pattern_show_trial_num","null","<p class=block-text>Trial 52 out of 78</p>","null","","","","","","","","","","","","","","","","","","","","","","","","","",""
"","","","","","image-keyboard-response","249","1181859","0.0-3.0-7.0-1.12","5bde3039ab7ca90001d9c1d8","B2","batch2","pattern_response","804.1999999880791","stim/yes_25_hor_b1_b.png","f","pattern_49","f","true","","","","804.1999999880791","true","49","","","","","","","","","","","","","","","","",""
"","","","","","html-keyboard-response","250","1183190","0.0-3.0-7.0-0.13","5bde3039ab7ca90001d9c1d8","B2","batch2","pattern_show_trial_num","null","<p class=block-text>Trial 53 out of 78</p>","null","","","","","","","","","","","","","","","","","","","","","","","","","",""
"","","","","","image-keyboard-response","251","1183913","0.0-3.0-7.0-1.13","5bde3039ab7ca90001d9c1d8","B2","batch2","pattern_response","718.2000000476837","stim/yes_35_dia_b1.png","f","pattern_57","f","true","","","","718.2000000476837","true","50","","","","","","","","","","","","","","","","",""
"","","","","","html-keyboard-response","252","1185242","0.0-3.0-7.0-0.14","5bde3039ab7ca90001d9c1d8","B2","batch2","pattern_show_trial_num","null","<p class=block-text>Trial 54 out of 78</p>","null","","","","","","","","","","","","","","","","","","","","","","","","","",""
"","","","","","image-keyboard-response","253","1187346","0.0-3.0-7.0-1.14","5bde3039ab7ca90001d9c1d8","B2","batch2","pattern_response","2102.099999964237","stim/yes_52_ver_w1.png","f","pattern_73","f","true","","","","2102.099999964237","true","51","","","","","","","","","","","","","","","","",""
"","","","","","html-keyboard-response","254","1188669","0.0-3.0-7.0-0.15","5bde3039ab7ca90001d9c1d8","B2","batch2","pattern_show_trial_num","null","<p class=block-text>Trial 55 out of 78</p>","null","","","","","","","","","","","","","","","","","","","","","","","","","",""
"","","","","","image-keyboard-response","255","1191013","0.0-3.0-7.0-1.15","5bde3039ab7ca90001d9c1d8","B2","batch2","pattern_response","2342.5","stim/yes_55_hor_w1_w.png","f","pattern_75","f","true","","","","2342.5","true","52","","","","","","","","","","","","","","","","",""
"","","","","","html-keyboard-response","256","1192335","0.0-3.0-7.0-0.16","5bde3039ab7ca90001d9c1d8","B2","batch2","pattern_show_trial_num","null","<p class=block-text>Trial 56 out of 78</p>","null","","","","","","","","","","","","","","","","","","","","","","","","","",""
"","","","","","image-keyboard-response","257","1193154","0.0-3.0-7.0-1.16","5bde3039ab7ca90001d9c1d8","B2","batch2","pattern_response","810.3999999761581","stim/yes_28_ver_b1.png","f","pattern_51","f","true","","","","810.3999999761581","true","53","","","","","","","","","","","","","","","","",""
"","","","","","html-keyboard-response","258","1194481","0.0-3.0-7.0-0.17","5bde3039ab7ca90001d9c1d8","B2","batch2","pattern_show_trial_num","null","<p class=block-text>Trial 57 out of 78</p>","null","","","","","","","","","","","","","","","","","","","","","","","","","",""
"","","","","","image-keyboard-response","259","1198303","0.0-3.0-7.0-1.17","5bde3039ab7ca90001d9c1d8","B2","batch2","pattern_response","3816.5","stim/no_52_1.png","j","pattern_32","j","true","","","","3816.5","true","54","","","","","","","","","","","","","","","","",""
"","","","","","html-keyboard-response","260","1199631","0.0-3.0-7.0-0.18","5bde3039ab7ca90001d9c1d8","B2","batch2","pattern_show_trial_num","null","<p class=block-text>Trial 58 out of 78</p>","null","","","","","","","","","","","","","","","","","","","","","","","","","",""
"","","","","","image-keyboard-response","261","1201657","0.0-3.0-7.0-1.18","5bde3039ab7ca90001d9c1d8","B2","batch2","pattern_response","2021.0999999642372","stim/no_26_1_w.png","j","pattern_10","j","true","","","","2021.0999999642372","true","55","","","","","","","","","","","","","","","","",""
"","","","","","html-keyboard-response","262","1202973","0.0-3.0-7.0-0.19","5bde3039ab7ca90001d9c1d8","B2","batch2","pattern_show_trial_num","null","<p class=block-text>Trial 59 out of 78</p>","null","","","","","","","","","","","","","","","","","","","","","","","","","",""
"","","","","","image-keyboard-response","263","1205858","0.0-3.0-7.0-1.19","5bde3039ab7ca90001d9c1d8","B2","batch2","pattern_response","2880.800000011921","stim/yes_60_ver_b1_b.png","f","pattern_77","f","true","","","","2880.800000011921","true","56","","","","","","","","","","","","","","","","",""
"","","","","","html-keyboard-response","264","1207184","0.0-3.0-7.0-0.20","5bde3039ab7ca90001d9c1d8","B2","batch2","pattern_show_trial_num","null","<p class=block-text>Trial 60 out of 78</p>","null","","","","","","","","","","","","","","","","","","","","","","","","","",""
"","","","","","image-keyboard-response","265","1208604","0.0-3.0-7.0-1.20","5bde3039ab7ca90001d9c1d8","B2","batch2","pattern_response","1412.5","stim/yes_38_hor_b1_b.png","f","pattern_61","f","true","","","","1412.5","true","57","","","","","","","","","","","","","","","","",""
"","","","","","html-keyboard-response","266","1209923","0.0-3.0-7.0-0.21","5bde3039ab7ca90001d9c1d8","B2","batch2","pattern_show_trial_num","null","<p class=block-text>Trial 61 out of 78</p>","null","","","","","","","","","","","","","","","","","","","","","","","","","",""
"","","","","","image-keyboard-response","267","1211404","0.0-3.0-7.0-1.21","5bde3039ab7ca90001d9c1d8","B2","batch2","pattern_response","1479","stim/no_23_1.png","j","pattern_08","j","true","","","","1479","true","58","","","","","","","","","","","","","","","","",""
"","","","","","html-keyboard-response","268","1212730","0.0-3.0-7.0-0.22","5bde3039ab7ca90001d9c1d8","B2","batch2","pattern_show_trial_num","null","<p class=block-text>Trial 62 out of 78</p>","null","","","","","","","","","","","","","","","","","","","","","","","","","",""
"","","","","","image-keyboard-response","269","1219659","0.0-3.0-7.0-1.22","5bde3039ab7ca90001d9c1d8","B2","batch2","pattern_response","6926.100000023842","stim/no_70_2.png","j","pattern_40","j","true","","","","6926.100000023842","true","59","","","","","","","","","","","","","","","","",""
"","","","","","html-keyboard-response","270","1220983","0.0-3.0-7.0-0.23","5bde3039ab7ca90001d9c1d8","B2","batch2","pattern_show_trial_num","null","<p class=block-text>Trial 63 out of 78</p>","null","","","","","","","","","","","","","","","","","","","","","","","","","",""
"","","","","","image-keyboard-response","271","1224617","0.0-3.0-7.0-1.23","5bde3039ab7ca90001d9c1d8","B2","batch2","pattern_response","3630.7999999523163","stim/no_48_1_w.png","j","pattern_28","j","true","","","","3630.7999999523163","true","60","","","","","","","","","","","","","","","","",""
"","","","","","html-keyboard-response","272","1225934","0.0-3.0-7.0-0.24","5bde3039ab7ca90001d9c1d8","B2","batch2","pattern_show_trial_num","null","<p class=block-text>Trial 64 out of 78</p>","null","","","","","","","","","","","","","","","","","","","","","","","","","",""
"","","","","","image-keyboard-response","273","1228810","0.0-3.0-7.0-1.24","5bde3039ab7ca90001d9c1d8","B2","batch2","pattern_response","2873.899999976158","stim/yes_37_dia_w1.png","f","pattern_59","f","true","","","","2873.899999976158","true","61","","","","","","","","","","","","","","","","",""
"","","","","","html-keyboard-response","274","1230129","0.0-3.0-7.0-0.25","5bde3039ab7ca90001d9c1d8","B2","batch2","pattern_show_trial_num","null","<p class=block-text>Trial 65 out of 78</p>","null","","","","","","","","","","","","","","","","","","","","","","","","","",""
"","","","","","image-keyboard-response","275","1234722","0.0-3.0-7.0-1.25","5bde3039ab7ca90001d9c1d8","B2","batch2","pattern_response","4590.199999988079","stim/no_38_1_b.png","j","pattern_20","j","true","","","","4590.199999988079","true","62","","","","","","","","","","","","","","","","",""
"","","","","","html-keyboard-response","276","1236079","0.0-3.0-7.0-0.26","5bde3039ab7ca90001d9c1d8","B2","batch2","pattern_show_trial_num","null","<p class=block-text>Trial 66 out of 78</p>","null","","","","","","","","","","","","","","","","","","","","","","","","","",""
"","","","","","image-keyboard-response","277","1237142","0.0-3.0-7.0-1.26","5bde3039ab7ca90001d9c1d8","B2","batch2","pattern_response","1059.3999999761581","stim/no_36_2_w.png","f","pattern_18","j","false","","","","1059.3999999761581","false","62","","","","","","","","","","","","","","","","",""
"","","","","","html-keyboard-response","278","1238456","0.0-3.0-7.0-0.27","5bde3039ab7ca90001d9c1d8","B2","batch2","pattern_show_trial_num","null","<p class=block-text>Trial 67 out of 78</p>","null","","","","","","","","","","","","","","","","","","","","","","","","","",""
"","","","","","image-keyboard-response","279","1242548","0.0-3.0-7.0-1.27","5bde3039ab7ca90001d9c1d8","B2","batch2","pattern_response","4079.800000011921","stim/no_34_1_b.png","j","pattern_16","j","true","","","","4079.800000011921","true","63","","","","","","","","","","","","","","","","",""
"","","","","","html-keyboard-response","280","1243866","0.0-3.0-7.0-0.28","5bde3039ab7ca90001d9c1d8","B2","batch2","pattern_show_trial_num","null","<p class=block-text>Trial 68 out of 78</p>","null","","","","","","","","","","","","","","","","","","","","","","","","","",""
"","","","","","image-keyboard-response","281","1245304","0.0-3.0-7.0-1.28","5bde3039ab7ca90001d9c1d8","B2","batch2","pattern_response","1433.699999988079","stim/yes_43_ver_w1_w.png","f","pattern_65","f","true","","","","1433.699999988079","true","64","","","","","","","","","","","","","","","","",""
"","","","","","html-keyboard-response","282","1246630","0.0-3.0-7.0-0.29","5bde3039ab7ca90001d9c1d8","B2","batch2","pattern_show_trial_num","null","<p class=block-text>Trial 69 out of 78</p>","null","","","","","","","","","","","","","","","","","","","","","","","","","",""
"","","","","","image-keyboard-response","283","1247311","0.0-3.0-7.0-1.29","5bde3039ab7ca90001d9c1d8","B2","batch2","pattern_response","679.1999999880791","stim/yes_22_ver_w1.png","f","pattern_47","f","true","","","","679.1999999880791","true","65","","","","","","","","","","","","","","","","",""
"","","","","","html-keyboard-response","284","1248629","0.0-3.0-7.0-0.30","5bde3039ab7ca90001d9c1d8","B2","batch2","pattern_show_trial_num","null","<p class=block-text>Trial 70 out of 78</p>","null","","","","","","","","","","","","","","","","","","","","","","","","","",""
"","","","","","image-keyboard-response","285","1255637","0.0-3.0-7.0-1.30","5bde3039ab7ca90001d9c1d8","B2","batch2","pattern_response","7006.199999988079","stim/no_46_1_b.png","j","pattern_26","j","true","","","","7006.199999988079","true","66","","","","","","","","","","","","","","","","",""
"","","","","","html-keyboard-response","286","1256984","0.0-3.0-7.0-0.31","5bde3039ab7ca90001d9c1d8","B2","batch2","pattern_show_trial_num","null","<p class=block-text>Trial 71 out of 78</p>","null","","","","","","","","","","","","","","","","","","","","","","","","","",""
"","","","","","image-keyboard-response","287","1261102","0.0-3.0-7.0-1.31","5bde3039ab7ca90001d9c1d8","B2","batch2","pattern_response","4115","stim/no_32_1_w.png","j","pattern_14","j","true","","","","4115","true","67","","","","","","","","","","","","","","","","",""
"","","","","","html-keyboard-response","288","1262415","0.0-3.0-7.0-0.32","5bde3039ab7ca90001d9c1d8","B2","batch2","pattern_show_trial_num","null","<p class=block-text>Trial 72 out of 78</p>","null","","","","","","","","","","","","","","","","","","","","","","","","","",""
"","","","","","image-keyboard-response","289","1263391","0.0-3.0-7.0-1.32","5bde3039ab7ca90001d9c1d8","B2","batch2","pattern_response","973.6999999880791","stim/yes_14_hor_b1_w.png","f","pattern_43","f","true","","","","973.6999999880791","true","68","","","","","","","","","","","","","","","","",""
"","","","","","html-keyboard-response","290","1264719","0.0-3.0-7.0-0.33","5bde3039ab7ca90001d9c1d8","B2","batch2","pattern_show_trial_num","null","<p class=block-text>Trial 73 out of 78</p>","null","","","","","","","","","","","","","","","","","","","","","","","","","",""
"","","","","","image-keyboard-response","291","1272017","0.0-3.0-7.0-1.33","5bde3039ab7ca90001d9c1d8","B2","batch2","pattern_response","7272.399999976158","stim/no_65_1_b.png","j","pattern_38","j","true","","","","7272.399999976158","true","69","","","","","","","","","","","","","","","","",""
"","","","","","html-keyboard-response","292","1273336","0.0-3.0-7.0-0.34","5bde3039ab7ca90001d9c1d8","B2","batch2","pattern_show_trial_num","null","<p class=block-text>Trial 74 out of 78</p>","null","","","","","","","","","","","","","","","","","","","","","","","","","",""
"","","","","","image-keyboard-response","293","1274258","0.0-3.0-7.0-1.34","5bde3039ab7ca90001d9c1d8","B2","batch2","pattern_response","919.2999999523163","stim/yes_67_hor_b1.png","f","pattern_79","f","true","","","","919.2999999523163","true","70","","","","","","","","","","","","","","","","",""
"","","","","","html-keyboard-response","294","1275563","0.0-3.0-7.0-0.35","5bde3039ab7ca90001d9c1d8","B2","batch2","pattern_show_trial_num","null","<p class=block-text>Trial 75 out of 78</p>","null","","","","","","","","","","","","","","","","","","","","","","","","","",""
"","","","","","image-keyboard-response","295","1281350","0.0-3.0-7.0-1.35","5bde3039ab7ca90001d9c1d8","B2","batch2","pattern_response","5785.099999964237","stim/no_62_1_w.png","j","pattern_36","j","true","","","","5785.099999964237","true","71","","","","","","","","","","","","","","","","",""
"","","","","","html-keyboard-response","296","1282671","0.0-3.0-7.0-0.36","5bde3039ab7ca90001d9c1d8","B2","batch2","pattern_show_trial_num","null","<p class=block-text>Trial 76 out of 78</p>","null","","","","","","","","","","","","","","","","","","","","","","","","","",""
"","","","","","image-keyboard-response","297","1286572","0.0-3.0-7.0-1.36","5bde3039ab7ca90001d9c1d8","B2","batch2","pattern_response","3893","stim/no_50_1.png","j","pattern_30","j","true","","","","3893","true","72","","","","","","","","","","","","","","","","",""
"","","","","","html-keyboard-response","298","1287903","0.0-3.0-7.0-0.37","5bde3039ab7ca90001d9c1d8","B2","batch2","pattern_show_trial_num","null","<p class=block-text>Trial 77 out of 78</p>","null","","","","","","","","","","","","","","","","","","","","","","","","","",""
"","","","","","image-keyboard-response","299","1289060","0.0-3.0-7.0-1.37","5bde3039ab7ca90001d9c1d8","B2","batch2","pattern_response","1153.5","stim/yes_45_hor_b2_b.png","f","pattern_67","f","true","","","","1153.5","true","73","","","","","","","","","","","","","","","","",""
"","","","","","html-keyboard-response","300","1290377","0.0-3.0-7.0-0.38","5bde3039ab7ca90001d9c1d8","B2","batch2","pattern_show_trial_num","null","<p class=block-text>Trial 78 out of 78</p>","null","","","","","","","","","","","","","","","","","","","","","","","","","",""
"","","","","","image-keyboard-response","301","1292116","0.0-3.0-7.0-1.38","5bde3039ab7ca90001d9c1d8","B2","batch2","pattern_response","1736.699999988079","stim/yes_48_dia_w1_w.png","f","pattern_69","f","true","","","","1736.699999988079","true","74","","","","","","","","","","","","","","","","",""
"","","","","","html-button-response","302","1296951","0.0-3.0-8.0","5bde3039ab7ca90001d9c1d8","B2","batch2","","4325.399999976158","<p class = block-text>This concludes the 4-in-a-row detection game.Thank you for your responses!<br>
            You responded correctly on 95% of the trials.<br>
            When you are ready, press ""Continue"" button to continue </p>","0","","","","","","","","","","","","","","","","","","","","","","","","","",""
"true","","","","","fullscreen","303","1299738","0.0-4.0-0.0","5bde3039ab7ca90001d9c1d8","B2","batch2","","","","","","","","","","","","","","","","","","","","","","","","","","","","","",""
"","","","","","instructions","304","1330351","0.0-4.0-1.0-0.0-0.0","5bde3039ab7ca90001d9c1d8","B2","batch2","tol-instructions","30610.30000001192","","","","","","","","[{""page_index"":0,""viewing_time"":6625.199999988079},{""page_index"":1,""viewing_time"":4297.700000047684},{""page_index"":2,""viewing_time"":3381.2999999523163},{""page_index"":3,""viewing_time"":5969.600000023842},{""page_index"":4,""viewing_time"":2495.199999988079},{""page_index"":5,""viewing_time"":6228},{""page_index"":6,""viewing_time"":1612.800000011921}]","","","","","","","","","","","","","","","","","","","",""
"","","","","","html-button-response","305","1331371","0.0-4.0-1.0-1.0-0.0","5bde3039ab7ca90001d9c1d8","B2","batch2","tol_enter_quiz","1018.4000000357628","<p class=block-text> Let's answer a few questions <br>","0","","","","","","","","","","","","","","","","","","","","","","","","","",""
"","","","","","html-button-response","306","1336624","0.0-4.0-1.0-1.0-1.0","5bde3039ab7ca90001d9c1d8","B2","batch2","tol_quiz","5249.099999964237","<p class = block-text>True or False: You can only move the ball on top of a peg. <br></p>","0","","","true","","","","","","","","","","","","","","","","","","","","","","",""
"","","","","","html-button-response","307","1337706","0.0-4.0-1.0-1.0-2.0","5bde3039ab7ca90001d9c1d8","B2","batch2","tol_quiz_feedback","1078","<p class = block-text>Correct! You can only move the ball on top of a peg.</p>","0","","","","","","","","","","","","","","","","","","","","","","","","","",""
"","","","","","html-button-response","308","1340698","0.0-4.0-1.0-1.0-3.0","5bde3039ab7ca90001d9c1d8","B2","batch2","tol_quiz","2988.899999976158","<p class = block-text>True or False: You should try to match your board with the target board with fewest moves possible. <br></p>","0","","","true","","","","","","","","","","","","","","","","","","","","","","",""
"","","","","","html-button-response","309","1341371","0.0-4.0-1.0-1.0-4.0","5bde3039ab7ca90001d9c1d8","B2","batch2","tol_quiz_feedback","669.1999999880791","<p class = block-text>Correct! </p>","0","","","","","","","","","","","","","","","","","","","","","","","","","",""
"","","","","","html-button-response","310","1342708","0.0-4.0-2.0","5bde3039ab7ca90001d9c1d8","B2","batch2","","1333.300000011921","<p class=block-text> Now that you've understood the game, let's practice a few easier examples before we start!<br> <br>","0","","","","","","","","","","","","","","","","","","","","","","","","","",""
"","","","","","single-stim-button","311","1345954","0.0-4.0-3.0-0.0","5bde3039ab7ca90001d9c1d8","B2","batch2","tol_practice","3243","","","","","","","","","","","","","","tol_peg_2","3243","3243","0","[[1,2,0],[0,0],[0]]","1","[[1,2,0],[0,0],[3]]","practice","3243","","","","","",""
"","","","","","single-stim-button","312","1347100","0.0-4.0-3.0-1.0","5bde3039ab7ca90001d9c1d8","B2","batch2","tol_practice","1144","","","","","","","","","","","","","","tol_peg_3","1144","1144","0","[[1,2,0],[0,0],[3]]","1","[[1,2,0],[0,0],[3]]","practice","1144","","","","","",""
"","","","","","poldrack-single-stim","313","1348104","0.0-4.0-4.0","5bde3039ab7ca90001d9c1d8","B2","batch2","tol_feedback","-1","","","","","true","","","","","","","","","","1000","1000","500","","","","","","-1","none","true","","0",""
"","","","","","single-stim-button","314","1350355","0.0-4.0-5.0-0.0","5bde3039ab7ca90001d9c1d8","B2","batch2","tol_practice","2249","","","","","","","","","","","","","","tol_peg_1","2249","2249","0","[[1,0,0],[3,0],[0]]","2","[[0,0,0],[3,1],[2]]","practice","2249","","","","","",""
"","","","","","single-stim-button","315","1351331","0.0-4.0-5.0-1.0","5bde3039ab7ca90001d9c1d8","B2","batch2","tol_practice","975","","","","","","","","","","","","","","tol_peg_3","975","975","0","[[1,0,0],[3,0],[2]]","2","[[0,0,0],[3,1],[2]]","practice","975","","","","","",""
"","","","","","single-stim-button","316","1357332","0.0-4.0-5.1-0.1","5bde3039ab7ca90001d9c1d8","B2","batch2","tol_practice","5999","","","","","","","","","","","","","","tol_peg_3","5999","5999","0","[[1,0,0],[3,0],[0]]","3","[[0,0,0],[3,1],[2]]","practice","5999","","","","","",""
"","","","","","single-stim-button","317","1358421","0.0-4.0-5.1-1.1","5bde3039ab7ca90001d9c1d8","B2","batch2","tol_practice","1088","","","","","","","","","","","","","","tol_peg_1","1088","1088","0","[[1,2,0],[3,0],[0]]","3","[[0,0,0],[3,1],[2]]","practice","1088","","","","","",""
"","","","","","single-stim-button","318","1359020","0.0-4.0-5.2-0.2","5bde3039ab7ca90001d9c1d8","B2","batch2","tol_practice","597","","","","","","","","","","","","","","tol_peg_2","597","597","0","[[1,2,0],[0,0],[0]]","4","[[0,0,0],[3,1],[2]]","practice","597","","","","","",""
"","","","","","single-stim-button","319","1360107","0.0-4.0-5.2-1.2","5bde3039ab7ca90001d9c1d8","B2","batch2","tol_practice","1085","","","","","","","","","","","","","","tol_peg_3","1085","1085","0","[[1,2,0],[0,0],[3]]","4","[[0,0,0],[3,1],[2]]","practice","1085","","","","","",""
"","","","","","single-stim-button","320","1360845","0.0-4.0-5.3-0.3","5bde3039ab7ca90001d9c1d8","B2","batch2","tol_practice","735","","","","","","","","","","","","","","tol_peg_1","735","735","0","[[1,0,0],[0,0],[3]]","5","[[0,0,0],[3,1],[2]]","practice","735","","","","","",""
"","","","","","single-stim-button","321","1362410","0.0-4.0-5.3-1.3","5bde3039ab7ca90001d9c1d8","B2","batch2","tol_practice","1565","","","","","","","","","","","","","","tol_peg_2","1565","1565","0","[[1,0,0],[2,0],[3]]","5","[[0,0,0],[3,1],[2]]","practice","1565","","","","","",""
"","","","","","single-stim-button","322","1363293","0.0-4.0-5.4-0.4","5bde3039ab7ca90001d9c1d8","B2","batch2","tol_practice","882","","","","","","","","","","","","","","tol_peg_1","882","882","0","[[0,0,0],[2,0],[3]]","6","[[0,0,0],[3,1],[2]]","practice","882","","","","","",""
"","","","","","single-stim-button","323","1364079","0.0-4.0-5.4-1.4","5bde3039ab7ca90001d9c1d8","B2","batch2","tol_practice","784","","","","","","","","","","","","","","tol_peg_2","784","784","0","[[0,0,0],[2,1],[3]]","6","[[0,0,0],[3,1],[2]]","practice","784","","","","","",""
"","","","","","single-stim-button","324","1364556","0.0-4.0-5.5-0.5","5bde3039ab7ca90001d9c1d8","B2","batch2","tol_practice","474","","","","","","","","","","","","","","tol_peg_3","474","474","0","[[0,0,0],[2,1],[0]]","7","[[0,0,0],[3,1],[2]]","practice","474","","","","","",""
"","","","","","single-stim-button","325","1365549","0.0-4.0-5.5-1.5","5bde3039ab7ca90001d9c1d8","B2","batch2","tol_practice","993","","","","","","","","","","","","","","tol_peg_1","993","993","0","[[3,0,0],[2,1],[0]]","7","[[0,0,0],[3,1],[2]]","practice","993","","","","","",""
"","","","","","single-stim-button","326","1366462","0.0-4.0-5.6-0.6","5bde3039ab7ca90001d9c1d8","B2","batch2","tol_practice","911","","","","","","","","","","","","","","tol_peg_2","911","911","0","[[3,0,0],[2,0],[0]]","8","[[0,0,0],[3,1],[2]]","practice","911","","","","","",""
"","","","","","single-stim-button","327","1367399","0.0-4.0-5.6-1.6","5bde3039ab7ca90001d9c1d8","B2","batch2","tol_practice","935","","","","","","","","","","","","","","tol_peg_1","935","935","0","[[3,1,0],[2,0],[0]]","8","[[0,0,0],[3,1],[2]]","practice","935","","","","","",""
"","","","","","single-stim-button","328","1367907","0.0-4.0-5.7-0.7","5bde3039ab7ca90001d9c1d8","B2","batch2","tol_practice","504","","","","","","","","","","","","","","tol_peg_2","504","504","0","[[3,1,0],[0,0],[0]]","9","[[0,0,0],[3,1],[2]]","practice","504","","","","","",""
"","","","","","single-stim-button","329","1368558","0.0-4.0-5.7-1.7","5bde3039ab7ca90001d9c1d8","B2","batch2","tol_practice","651","","","","","","","","","","","","","","tol_peg_3","651","651","0","[[3,1,0],[0,0],[2]]","9","[[0,0,0],[3,1],[2]]","practice","651","","","","","",""
"","","","","","single-stim-button","330","1377454","0.0-4.0-5.8-0.8","5bde3039ab7ca90001d9c1d8","B2","batch2","tol_practice","8896","","","","","","","","","","","","","","tol_peg_1","8896","8896","0","[[3,0,0],[0,0],[2]]","10","[[0,0,0],[3,1],[2]]","practice","8896","","","","","",""
"","","","","","single-stim-button","331","1382831","0.0-4.0-5.8-1.8","5bde3039ab7ca90001d9c1d8","B2","batch2","tol_practice","5376","","","","","","","","","","","","","","tol_peg_2","5376","5376","0","[[3,0,0],[1,0],[2]]","10","[[0,0,0],[3,1],[2]]","practice","5376","","","","","",""
"","","","","","single-stim-button","332","1383596","0.0-4.0-5.9-0.9","5bde3039ab7ca90001d9c1d8","B2","batch2","tol_practice","763","","","","","","","","","","","","","","tol_peg_3","763","763","0","[[3,0,0],[1,0],[0]]","11","[[0,0,0],[3,1],[2]]","practice","763","","","","","",""
"","","","","","single-stim-button","333","1385832","0.0-4.0-5.9-1.9","5bde3039ab7ca90001d9c1d8","B2","batch2","tol_practice","2236","","","","","","","","","","","","","","tol_peg_2","2236","2236","0","[[3,0,0],[1,2],[0]]","11","[[0,0,0],[3,1],[2]]","practice","2236","","","","","",""
"","","","","","single-stim-button","334","1390087","0.0-4.0-5.10-0.10","5bde3039ab7ca90001d9c1d8","B2","batch2","tol_practice","4253","","","","","","","","","","","","","","tol_peg_1","4253","4253","0","[[0,0,0],[1,2],[0]]","12","[[0,0,0],[3,1],[2]]","practice","4253","","","","","",""
"","","","","","single-stim-button","335","1390718","0.0-4.0-5.10-1.10","5bde3039ab7ca90001d9c1d8","B2","batch2","tol_practice","629","","","","","","","","","","","","","","tol_peg_3","629","629","0","[[0,0,0],[1,2],[3]]","12","[[0,0,0],[3,1],[2]]","practice","629","","","","","",""
"","","","","","single-stim-button","336","1394233","0.0-4.0-5.11-0.11","5bde3039ab7ca90001d9c1d8","B2","batch2","tol_practice","3514","","","","","","","","","","","","","","tol_peg_2","3514","3514","0","[[0,0,0],[1,0],[3]]","13","[[0,0,0],[3,1],[2]]","practice","3514","","","","","",""
"","","","","","single-stim-button","337","1395824","0.0-4.0-5.11-1.11","5bde3039ab7ca90001d9c1d8","B2","batch2","tol_practice","1590","","","","","","","","","","","","","","tol_peg_2","1590","1590","0","[[0,0,0],[1,2],[3]]","13","[[0,0,0],[3,1],[2]]","practice","1590","","","","","",""
"","","","","","single-stim-button","338","1396891","0.0-4.0-5.12-0.12","5bde3039ab7ca90001d9c1d8","B2","batch2","tol_practice","1065","","","","","","","","","","","","","","tol_peg_2","1065","1065","0","[[0,0,0],[1,0],[3]]","14","[[0,0,0],[3,1],[2]]","practice","1065","","","","","",""
"","","","","","single-stim-button","339","1398881","0.0-4.0-5.12-1.12","5bde3039ab7ca90001d9c1d8","B2","batch2","tol_practice","1989","","","","","","","","","","","","","","tol_peg_1","1989","1989","0","[[2,0,0],[1,0],[3]]","14","[[0,0,0],[3,1],[2]]","practice","1989","","","","","",""
"","","","","","single-stim-button","340","1399679","0.0-4.0-5.13-0.13","5bde3039ab7ca90001d9c1d8","B2","batch2","tol_practice","795","","","","","","","","","","","","","","tol_peg_3","795","795","0","[[2,0,0],[1,0],[0]]","15","[[0,0,0],[3,1],[2]]","practice","795","","","","","",""
"","","","","","single-stim-button","341","1400368","0.0-4.0-5.13-1.13","5bde3039ab7ca90001d9c1d8","B2","batch2","tol_practice","689","","","","","","","","","","","","","","tol_peg_2","689","689","0","[[2,0,0],[1,3],[0]]","15","[[0,0,0],[3,1],[2]]","practice","689","","","","","",""
"","","","","","single-stim-button","342","1400957","0.0-4.0-5.14-0.14","5bde3039ab7ca90001d9c1d8","B2","batch2","tol_practice","588","","","","","","","","","","","","","","tol_peg_1","588","588","0","[[0,0,0],[1,3],[0]]","16","[[0,0,0],[3,1],[2]]","practice","588","","","","","",""
"","","","","","single-stim-button","343","1401677","0.0-4.0-5.14-1.14","5bde3039ab7ca90001d9c1d8","B2","batch2","tol_practice","718","","","","","","","","","","","","","","tol_peg_3","718","718","0","[[0,0,0],[1,3],[2]]","16","[[0,0,0],[3,1],[2]]","practice","718","","","","","",""
"","","","","","single-stim-button","344","1402595","0.0-4.0-5.15-0.15","5bde3039ab7ca90001d9c1d8","B2","batch2","tol_practice","916","","","","","","","","","","","","","","tol_peg_2","916","916","0","[[0,0,0],[1,0],[2]]","17","[[0,0,0],[3,1],[2]]","practice","916","","","","","",""
"","","","","","single-stim-button","345","1403309","0.0-4.0-5.15-1.15","5bde3039ab7ca90001d9c1d8","B2","batch2","tol_practice","713","","","","","","","","","","","","","","tol_peg_1","713","713","0","[[3,0,0],[1,0],[2]]","17","[[0,0,0],[3,1],[2]]","practice","713","","","","","",""
"","","","","","single-stim-button","346","1404536","0.0-4.0-5.16-0.16","5bde3039ab7ca90001d9c1d8","B2","batch2","tol_practice","1227","","","","","","","","","","","","","","tol_peg_2","1227","1227","0","[[3,0,0],[0,0],[2]]","18","[[0,0,0],[3,1],[2]]","practice","1227","","","","","",""
"","","","","","single-stim-button","347","1405226","0.0-4.0-5.16-1.16","5bde3039ab7ca90001d9c1d8","B2","batch2","tol_practice","689","","","","","","","","","","","","","","tol_peg_1","689","689","0","[[3,1,0],[0,0],[2]]","18","[[0,0,0],[3,1],[2]]","practice","689","","","","","",""
