"success","timeout","failed_images","failed_audio","failed_video","trial_type","trial_index","time_elapsed","internal_node_id","subject_id","study_id","session_id","view_history","rt","stimulus","response","task","correct","answer","item","fiar_detect_rt","fiar_detect_correct","total_correct_fiar_detect","post_trial_gap","choices","mouse_click","stim_duration","block_duration","timing_post_trial","current_position","tol_num_moves_made","tol_target","tol_problem_id","tol_rt","key_press","possible_responses","tol_correct","preplanning","tol_rt_per_trial","tol_min_moves","spm_correct","spm_rt"
"true","false","[]","[]","[]","preload","0","1951","0.0-0.0","5be1030c2b1e7d000178d718","F1","batch6","","","","","","","","","","","","","","","","","","","","","","","","","","","","","",""
"true","","","","","fullscreen","1","5383","0.0-1.0-0.0","5be1030c2b1e7d000178d718","F1","batch6","","","","","","","","","","","","","","","","","","","","","","","","","","","","","",""
"true","","","","","fullscreen","2","8047","0.0-2.0-0.0","5be1030c2b1e7d000178d718","F1","batch6","","","","","","","","","","","","","","","","","","","","","","","","","","","","","",""
"","","","","","instructions","3","17157","0.0-2.0-1.0-0.0","5be1030c2b1e7d000178d718","F1","batch6","[{""page_index"":0,""viewing_time"":7708.5},{""page_index"":1,""viewing_time"":1399.7999999970198}]","9108.5","","","","","","","","","","","","","","","","","","","","","","","","","","","",""
"","","","","","html-button-response","4","17973","0.0-2.0-1.0-1.0-0.0","5be1030c2b1e7d000178d718","F1","batch6","","814.8000000044703","<p class=block-text> Let's answer a few questions <br>","0","pattern_enter_quiz","","","","","","","","","","","","","","","","","","","","","","","","",""
"","","","","","html-button-response","5","20853","0.0-2.0-1.0-1.0-1.0","5be1030c2b1e7d000178d718","F1","batch6","","2879.4000000059605","<p class = block-text>True or False: You will have as much time as you want to make each choice. <br></p>","0","pattern_quiz","false","","","","","","","","","","","","","","","","","","","","","","","",""
"","","","","","html-button-response","6","21037","0.0-2.0-1.0-1.0-2.0","5be1030c2b1e7d000178d718","F1","batch6","","182.70000000298023","<p class = block-text>Incorrect. Remember, You should make your choice as fast as you can.</p>","0","pattern_quiz_feedback","","","","","","","","","","","","","","","","","","","","","","","","",""
"","","","","","html-button-response","7","23637","0.0-2.0-1.0-1.0-3.0","5be1030c2b1e7d000178d718","F1","batch6","","2599.5","<p class = block-text>True or False: You will look for 4 pieces in black or white color connected in a row either horizontally, vertically or diagonally. <br></p>","0","pattern_quiz","true","","","","","","","","","","","","","","","","","","","","","","","",""
"","","","","","html-button-response","8","24261","0.0-2.0-1.0-1.0-4.0","5be1030c2b1e7d000178d718","F1","batch6","","623.1999999955297","<p class = block-text>Correct! </p>","0","pattern_quiz_feedback","","","","","","","","","","","","","","","","","","","","","","","","",""
"","","","","","html-button-response","9","25189","0.0-2.0-1.0-2.0-0.0","5be1030c2b1e7d000178d718","F1","batch6","","926.8000000044703","<p class = block-text>You made too many incorrect choices.</p><p class = block-text>You will now repeat the instruction and quiz</p>","0","","","","","","","","","","","","","","","","","","","","","","","","","",""
"","","","","","instructions","10","33901","0.0-2.0-1.1-0.1","5be1030c2b1e7d000178d718","F1","batch6","[{""page_index"":0,""viewing_time"":5415},{""page_index"":1,""viewing_time"":3295.8000000044703}]","8711.10000000149","","","","","","","","","","","","","","","","","","","","","","","","","","","",""
"","","","","","html-button-response","11","34645","0.0-2.0-1.1-1.1-0.1","5be1030c2b1e7d000178d718","F1","batch6","","743.5","<p class=block-text> Let's answer a few questions <br>","0","pattern_enter_quiz","","","","","","","","","","","","","","","","","","","","","","","","",""
"","","","","","html-button-response","12","36269","0.0-2.0-1.1-1.1-1.1","5be1030c2b1e7d000178d718","F1","batch6","","1623.1999999955297","<p class = block-text>True or False: You will have as much time as you want to make each choice. <br></p>","0","pattern_quiz","false","","","","","","","","","","","","","","","","","","","","","","","",""
"","","","","","html-button-response","13","38573","0.0-2.0-1.1-1.1-2.1","5be1030c2b1e7d000178d718","F1","batch6","","2302.7000000029802","<p class = block-text>Incorrect. Remember, You should make your choice as fast as you can.</p>","0","pattern_quiz_feedback","","","","","","","","","","","","","","","","","","","","","","","","",""
"","","","","","html-button-response","14","41709","0.0-2.0-1.1-1.1-3.1","5be1030c2b1e7d000178d718","F1","batch6","","3135.5","<p class = block-text>True or False: You will look for 4 pieces in black or white color connected in a row either horizontally, vertically or diagonally. <br></p>","0","pattern_quiz","true","","","","","","","","","","","","","","","","","","","","","","","",""
"","","","","","html-button-response","15","42205","0.0-2.0-1.1-1.1-4.1","5be1030c2b1e7d000178d718","F1","batch6","","495.20000000298023","<p class = block-text>Correct! </p>","0","pattern_quiz_feedback","","","","","","","","","","","","","","","","","","","","","","","","",""
"","","","","","html-button-response","16","42909","0.0-2.0-1.1-2.1-0.1","5be1030c2b1e7d000178d718","F1","batch6","","703.3999999985099","<p class = block-text>You made too many incorrect choices.</p><p class = block-text>You will now repeat the instruction and quiz</p>","0","","","","","","","","","","","","","","","","","","","","","","","","","",""
"","","","","","instructions","17","44285","0.0-2.0-1.2-0.2","5be1030c2b1e7d000178d718","F1","batch6","[{""page_index"":0,""viewing_time"":735.3999999985099},{""page_index"":1,""viewing_time"":640}]","1375.6000000014901","","","","","","","","","","","","","","","","","","","","","","","","","","","",""
"","","","","","html-button-response","18","44901","0.0-2.0-1.2-1.2-0.2","5be1030c2b1e7d000178d718","F1","batch6","","615.1000000014901","<p class=block-text> Let's answer a few questions <br>","0","pattern_enter_quiz","","","","","","","","","","","","","","","","","","","","","","","","",""
"","","","","","html-button-response","19","45493","0.0-2.0-1.2-1.2-1.2","5be1030c2b1e7d000178d718","F1","batch6","","591.5","<p class = block-text>True or False: You will have as much time as you want to make each choice. <br></p>","1","pattern_quiz","true","","","","","","","","","","","","","","","","","","","","","","","",""
"","","","","","html-button-response","20","46069","0.0-2.0-1.2-1.2-2.2","5be1030c2b1e7d000178d718","F1","batch6","","574.8999999985099","<p class = block-text>Correct! You should make your choice <strong> as fast as you can</strong>.</p>","0","pattern_quiz_feedback","","","","","","","","","","","","","","","","","","","","","","","","",""
"","","","","","html-button-response","21","46565","0.0-2.0-1.2-1.2-3.2","5be1030c2b1e7d000178d718","F1","batch6","","495.5","<p class = block-text>True or False: You will look for 4 pieces in black or white color connected in a row either horizontally, vertically or diagonally. <br></p>","0","pattern_quiz","true","","","","","","","","","","","","","","","","","","","","","","","",""
"","","","","","html-button-response","22","47077","0.0-2.0-1.2-1.2-4.2","5be1030c2b1e7d000178d718","F1","batch6","","511.19999999552965","<p class = block-text>Correct! </p>","0","pattern_quiz_feedback","","","","","","","","","","","","","","","","","","","","","","","","",""
"","","","","","html-button-response","23","47797","0.0-2.0-2.0","5be1030c2b1e7d000178d718","F1","batch6","","719.0999999940395","<p class=block-text> Now that you've understood the game, let's do a few practice trials before we start!<br> <br>","0","pattern_enter_practice","","","","","","","","","","","","","","","","","","","","","","","","",""
"","","","","","image-keyboard-response","24","55224","0.0-2.0-3.0-0.0","5be1030c2b1e7d000178d718","F1","batch6","","7423.10000000149","stim/prac_no_16_1.png","j","pattern_practice","true","j","","","","","","","","","","","","","","","","","","","","","","",""
"","","","","","html-keyboard-response","25","56228","0.0-2.0-3.0-1.0","5be1030c2b1e7d000178d718","F1","batch6","","null","<p style=""font-size:30px;color:green;"">Correct!</p>","null","pattern_feedback","","","","","","","","","","","","","","","","","","","","","","","","",""
"","","","","","image-keyboard-response","26","57244","0.0-2.0-3.0-0.1","5be1030c2b1e7d000178d718","F1","batch6","","1015.5","stim/prac_no_18_1.png","j","pattern_practice","true","j","","","","","","","","","","","","","","","","","","","","","","",""
"","","","","","html-keyboard-response","27","58261","0.0-2.0-3.0-1.1","5be1030c2b1e7d000178d718","F1","batch6","","null","<p style=""font-size:30px;color:green;"">Correct!</p>","null","pattern_feedback","","","","","","","","","","","","","","","","","","","","","","","","",""
"","","","","","image-keyboard-response","28","59765","0.0-2.0-3.0-0.2","5be1030c2b1e7d000178d718","F1","batch6","","1501.4000000059605","stim/prac_yes_16_ver_w1.png","f","pattern_practice","true","f","","","","","","","","","","","","","","","","","","","","","","",""
"","","","","","html-keyboard-response","29","60791","0.0-2.0-3.0-1.2","5be1030c2b1e7d000178d718","F1","batch6","","null","<p style=""font-size:30px;color:green;"">Correct!</p>","null","pattern_feedback","","","","","","","","","","","","","","","","","","","","","","","","",""
"","","","","","image-keyboard-response","30","62149","0.0-2.0-3.0-0.3","5be1030c2b1e7d000178d718","F1","batch6","","1355.1999999955297","stim/prac_yes_20_dia_b1.png","f","pattern_practice","true","f","","","","","","","","","","","","","","","","","","","","","","",""
"","","","","","html-keyboard-response","31","63170","0.0-2.0-3.0-1.3","5be1030c2b1e7d000178d718","F1","batch6","","null","<p style=""font-size:30px;color:green;"">Correct!</p>","null","pattern_feedback","","","","","","","","","","","","","","","","","","","","","","","","",""
"","","","","","image-keyboard-response","32","65125","0.0-2.0-3.0-0.4","5be1030c2b1e7d000178d718","F1","batch6","","1952.6000000014901","stim/prac_yes_18_hor_w1.png","j","pattern_practice","false","f","","","","","","","","","","","","","","","","","","","","","","",""
"","","","","","html-keyboard-response","33","66133","0.0-2.0-3.0-1.4","5be1030c2b1e7d000178d718","F1","batch6","","null","<p style=""font-size:30px;color:red;"">Wrong.</p>","null","pattern_feedback","","","","","","","","","","","","","","","","","","","","","","","","",""
"","","","","","html-button-response","34","67557","0.0-2.0-4.0","5be1030c2b1e7d000178d718","F1","batch6","","1422","<p class=block-text> Good job! You are done with practice trials!<br>
        You responded correctly on 80% of the trials.<br>
        Press the button below to start official trials. Now you won't see any feedback about your response</p>","0","pattern_enter_official_trials","","","","","","","","","","","","","","","","","","","","","","","","",""
"","","","","","html-keyboard-response","35","68359","0.0-2.0-5.0-0.0","5be1030c2b1e7d000178d718","F1","batch6","","null","<p class=block-text>Trial 1 out of 78</p>","null","pattern_show_trial_num","","","","","","","","","","","","","","","","","","","","","","","","",""
"","","","","","image-keyboard-response","36","71668","0.0-2.0-5.0-1.0","5be1030c2b1e7d000178d718","F1","batch6","","3307.60000000149","stim/no_37_2_w.png","j","pattern_response","true","j","pattern_19","3307.60000000149","true","1","","","","","","","","","","","","","","","","","","",""
"","","","","","html-keyboard-response","37","72981","0.0-2.0-5.0-0.1","5be1030c2b1e7d000178d718","F1","batch6","","null","<p class=block-text>Trial 2 out of 78</p>","null","pattern_show_trial_num","","","","","","","","","","","","","","","","","","","","","","","","",""
"","","","","","image-keyboard-response","38","73732","0.0-2.0-5.0-1.1","5be1030c2b1e7d000178d718","F1","batch6","","749.3000000044703","stim/yes_12_hor_w1_w.png","f","pattern_response","true","f","pattern_42","749.3000000044703","true","2","","","","","","","","","","","","","","","","","","",""
"","","","","","html-keyboard-response","39","75043","0.0-2.0-5.0-0.2","5be1030c2b1e7d000178d718","F1","batch6","","null","<p class=block-text>Trial 3 out of 78</p>","null","pattern_show_trial_num","","","","","","","","","","","","","","","","","","","","","","","","",""
"","","","","","image-keyboard-response","40","76157","0.0-2.0-5.0-1.2","5be1030c2b1e7d000178d718","F1","batch6","","1111.7999999970198","stim/yes_37_hor_w1_w.png","f","pattern_response","true","f","pattern_60","1111.7999999970198","true","3","","","","","","","","","","","","","","","","","","",""
"","","","","","html-keyboard-response","41","77485","0.0-2.0-5.0-0.3","5be1030c2b1e7d000178d718","F1","batch6","","null","<p class=block-text>Trial 4 out of 78</p>","null","pattern_show_trial_num","","","","","","","","","","","","","","","","","","","","","","","","",""
"","","","","","image-keyboard-response","42","78654","0.0-2.0-5.0-1.3","5be1030c2b1e7d000178d718","F1","batch6","","1165.3999999985099","stim/yes_53_ver_b1_b.png","f","pattern_response","true","f","pattern_74","1165.3999999985099","true","4","","","","","","","","","","","","","","","","","","",""
"","","","","","html-keyboard-response","43","79971","0.0-2.0-5.0-0.4","5be1030c2b1e7d000178d718","F1","batch6","","null","<p class=block-text>Trial 5 out of 78</p>","null","pattern_show_trial_num","","","","","","","","","","","","","","","","","","","","","","","","",""
"","","","","","image-keyboard-response","44","81323","0.0-2.0-5.0-1.4","5be1030c2b1e7d000178d718","F1","batch6","","1350.3000000044703","stim/no_39_1_w.png","j","pattern_response","true","j","pattern_21","1350.3000000044703","true","5","","","","","","","","","","","","","","","","","","",""
"","","","","","html-keyboard-response","45","82642","0.0-2.0-5.0-0.5","5be1030c2b1e7d000178d718","F1","batch6","","null","<p class=block-text>Trial 6 out of 78</p>","null","pattern_show_trial_num","","","","","","","","","","","","","","","","","","","","","","","","",""
"","","","","","image-keyboard-response","46","86165","0.0-2.0-5.0-1.5","5be1030c2b1e7d000178d718","F1","batch6","","3520.6999999955297","stim/no_58_1_w.png","j","pattern_response","true","j","pattern_35","3520.6999999955297","true","6","","","","","","","","","","","","","","","","","","",""
"","","","","","html-keyboard-response","47","87485","0.0-2.0-5.0-0.6","5be1030c2b1e7d000178d718","F1","batch6","","null","<p class=block-text>Trial 7 out of 78</p>","null","pattern_show_trial_num","","","","","","","","","","","","","","","","","","","","","","","","",""
"","","","","","image-keyboard-response","48","89222","0.0-2.0-5.0-1.6","5be1030c2b1e7d000178d718","F1","batch6","","1733.5","stim/yes_42_dia_w1_w.png","j","pattern_response","false","f","pattern_64","1733.5","false","6","","","","","","","","","","","","","","","","","","",""
"","","","","","html-keyboard-response","49","90550","0.0-2.0-5.0-0.7","5be1030c2b1e7d000178d718","F1","batch6","","null","<p class=block-text>Trial 8 out of 78</p>","null","pattern_show_trial_num","","","","","","","","","","","","","","","","","","","","","","","","",""
"","","","","","image-keyboard-response","50","93501","0.0-2.0-5.0-1.7","5be1030c2b1e7d000178d718","F1","batch6","","2948.9000000059605","stim/no_51_1.png","j","pattern_response","true","j","pattern_31","2948.9000000059605","true","7","","","","","","","","","","","","","","","","","","",""
"","","","","","html-keyboard-response","51","94829","0.0-2.0-5.0-0.8","5be1030c2b1e7d000178d718","F1","batch6","","null","<p class=block-text>Trial 9 out of 78</p>","null","pattern_show_trial_num","","","","","","","","","","","","","","","","","","","","","","","","",""
"","","","","","image-keyboard-response","52","97148","0.0-2.0-5.0-1.8","5be1030c2b1e7d000178d718","F1","batch6","","2316.5","stim/no_30_1_b.png","j","pattern_response","true","j","pattern_13","2316.5","true","8","","","","","","","","","","","","","","","","","","",""
"","","","","","html-keyboard-response","53","98467","0.0-2.0-5.0-0.9","5be1030c2b1e7d000178d718","F1","batch6","","null","<p class=block-text>Trial 10 out of 78</p>","null","pattern_show_trial_num","","","","","","","","","","","","","","","","","","","","","","","","",""
"","","","","","image-keyboard-response","54","99173","0.0-2.0-5.0-1.9","5be1030c2b1e7d000178d718","F1","batch6","","702.4000000059605","stim/yes_36_ver_w1_w.png","f","pattern_response","true","f","pattern_58","702.4000000059605","true","9","","","","","","","","","","","","","","","","","","",""
"","","","","","html-keyboard-response","55","100497","0.0-2.0-5.0-0.10","5be1030c2b1e7d000178d718","F1","batch6","","null","<p class=block-text>Trial 11 out of 78</p>","null","pattern_show_trial_num","","","","","","","","","","","","","","","","","","","","","","","","",""
"","","","","","image-keyboard-response","56","101502","0.0-2.0-5.0-1.10","5be1030c2b1e7d000178d718","F1","batch6","","1002.5","stim/yes_26_dia_w2_w.png","f","pattern_response","true","f","pattern_50","1002.5","true","10","","","","","","","","","","","","","","","","","","",""
"","","","","","html-keyboard-response","57","102827","0.0-2.0-5.0-0.11","5be1030c2b1e7d000178d718","F1","batch6","","null","<p class=block-text>Trial 12 out of 78</p>","null","pattern_show_trial_num","","","","","","","","","","","","","","","","","","","","","","","","",""
"","","","","","image-keyboard-response","58","104788","0.0-2.0-5.0-1.11","5be1030c2b1e7d000178d718","F1","batch6","","1958.3999999985099","stim/no_12_1.png","j","pattern_response","true","j","pattern_01","1958.3999999985099","true","11","","","","","","","","","","","","","","","","","","",""
"","","","","","html-keyboard-response","59","106108","0.0-2.0-5.0-0.12","5be1030c2b1e7d000178d718","F1","batch6","","null","<p class=block-text>Trial 13 out of 78</p>","null","pattern_show_trial_num","","","","","","","","","","","","","","","","","","","","","","","","",""
"","","","","","image-keyboard-response","60","107508","0.0-2.0-5.0-1.12","5be1030c2b1e7d000178d718","F1","batch6","","1397.3999999985099","stim/yes_44_ver_w1_w.png","f","pattern_response","true","f","pattern_66","1397.3999999985099","true","12","","","","","","","","","","","","","","","","","","",""
"","","","","","html-keyboard-response","61","108822","0.0-2.0-5.0-0.13","5be1030c2b1e7d000178d718","F1","batch6","","null","<p class=block-text>Trial 14 out of 78</p>","null","pattern_show_trial_num","","","","","","","","","","","","","","","","","","","","","","","","",""
"","","","","","image-keyboard-response","62","109445","0.0-2.0-5.0-1.13","5be1030c2b1e7d000178d718","F1","batch6","","620.8000000044703","stim/yes_29_hor_b1_b.png","j","pattern_response","false","f","pattern_52","620.8000000044703","false","12","","","","","","","","","","","","","","","","","","",""
"","","","","","html-keyboard-response","63","110770","0.0-2.0-5.0-0.14","5be1030c2b1e7d000178d718","F1","batch6","","null","<p class=block-text>Trial 15 out of 78</p>","null","pattern_show_trial_num","","","","","","","","","","","","","","","","","","","","","","","","",""
"","","","","","image-keyboard-response","64","116878","0.0-2.0-5.0-1.14","5be1030c2b1e7d000178d718","F1","batch6","","6105.70000000298","stim/yes_63_dia_b1.png","j","pattern_response","false","f","pattern_78","6105.70000000298","false","12","","","","","","","","","","","","","","","","","","",""
"","","","","","html-keyboard-response","65","118190","0.0-2.0-5.0-0.15","5be1030c2b1e7d000178d718","F1","batch6","","null","<p class=block-text>Trial 16 out of 78</p>","null","pattern_show_trial_num","","","","","","","","","","","","","","","","","","","","","","","","",""
"","","","","","image-keyboard-response","66","119658","0.0-2.0-5.0-1.15","5be1030c2b1e7d000178d718","F1","batch6","","1466.3999999985099","stim/yes_17_ver_b1_b.png","f","pattern_response","true","f","pattern_46","1466.3999999985099","true","13","","","","","","","","","","","","","","","","","","",""
"","","","","","html-keyboard-response","67","120982","0.0-2.0-5.0-0.16","5be1030c2b1e7d000178d718","F1","batch6","","null","<p class=block-text>Trial 17 out of 78</p>","null","pattern_show_trial_num","","","","","","","","","","","","","","","","","","","","","","","","",""
"","","","","","image-keyboard-response","68","123259","0.0-2.0-5.0-1.16","5be1030c2b1e7d000178d718","F1","batch6","","2274.5","stim/yes_33_dia_w1_w.png","f","pattern_response","true","f","pattern_56","2274.5","true","14","","","","","","","","","","","","","","","","","","",""
"","","","","","html-keyboard-response","69","124579","0.0-2.0-5.0-0.17","5be1030c2b1e7d000178d718","F1","batch6","","null","<p class=block-text>Trial 18 out of 78</p>","null","pattern_show_trial_num","","","","","","","","","","","","","","","","","","","","","","","","",""
"","","","","","image-keyboard-response","70","125699","0.0-2.0-5.0-1.17","5be1030c2b1e7d000178d718","F1","batch6","","1118.8000000044703","stim/no_15_1_w.png","j","pattern_response","true","j","pattern_03","1118.8000000044703","true","15","","","","","","","","","","","","","","","","","","",""
"","","","","","html-keyboard-response","71","127010","0.0-2.0-5.0-0.18","5be1030c2b1e7d000178d718","F1","batch6","","null","<p class=block-text>Trial 19 out of 78</p>","null","pattern_show_trial_num","","","","","","","","","","","","","","","","","","","","","","","","",""
"","","","","","image-keyboard-response","72","128189","0.0-2.0-5.0-1.18","5be1030c2b1e7d000178d718","F1","batch6","","1177","stim/yes_70_ver_b1.png","f","pattern_response","true","f","pattern_80","1177","true","16","","","","","","","","","","","","","","","","","","",""
"","","","","","html-keyboard-response","73","129511","0.0-2.0-5.0-0.19","5be1030c2b1e7d000178d718","F1","batch6","","null","<p class=block-text>Trial 20 out of 78</p>","null","pattern_show_trial_num","","","","","","","","","","","","","","","","","","","","","","","","",""
"","","","","","image-keyboard-response","74","134099","0.0-2.0-5.0-1.19","5be1030c2b1e7d000178d718","F1","batch6","","4587.4000000059605","stim/no_25_1_b.png","j","pattern_response","true","j","pattern_09","4587.4000000059605","true","17","","","","","","","","","","","","","","","","","","",""
"","","","","","html-keyboard-response","75","135418","0.0-2.0-5.0-0.20","5be1030c2b1e7d000178d718","F1","batch6","","null","<p class=block-text>Trial 21 out of 78</p>","null","pattern_show_trial_num","","","","","","","","","","","","","","","","","","","","","","","","",""
"","","","","","image-keyboard-response","76","136427","0.0-2.0-5.0-1.20","5be1030c2b1e7d000178d718","F1","batch6","","1007.8000000044703","stim/yes_30_ver_b1_b.png","j","pattern_response","false","f","pattern_54","1007.8000000044703","false","17","","","","","","","","","","","","","","","","","","",""
"","","","","","html-keyboard-response","77","137747","0.0-2.0-5.0-0.21","5be1030c2b1e7d000178d718","F1","batch6","","null","<p class=block-text>Trial 22 out of 78</p>","null","pattern_show_trial_num","","","","","","","","","","","","","","","","","","","","","","","","",""
"","","","","","image-keyboard-response","78","138955","0.0-2.0-5.0-1.21","5be1030c2b1e7d000178d718","F1","batch6","","1206.6000000014901","stim/no_18_1_b.png","j","pattern_response","true","j","pattern_05","1206.6000000014901","true","18","","","","","","","","","","","","","","","","","","",""
"","","","","","html-keyboard-response","79","140277","0.0-2.0-5.0-0.22","5be1030c2b1e7d000178d718","F1","batch6","","null","<p class=block-text>Trial 23 out of 78</p>","null","pattern_show_trial_num","","","","","","","","","","","","","","","","","","","","","","","","",""
"","","","","","image-keyboard-response","80","144236","0.0-2.0-5.0-1.22","5be1030c2b1e7d000178d718","F1","batch6","","3956.7000000029802","stim/no_45_1_w.png","j","pattern_response","true","j","pattern_25","3956.7000000029802","true","19","","","","","","","","","","","","","","","","","","",""
"","","","","","html-keyboard-response","81","145549","0.0-2.0-5.0-0.23","5be1030c2b1e7d000178d718","F1","batch6","","null","<p class=block-text>Trial 24 out of 78</p>","null","pattern_show_trial_num","","","","","","","","","","","","","","","","","","","","","","","","",""
"","","","","","image-keyboard-response","82","147811","0.0-2.0-5.0-1.23","5be1030c2b1e7d000178d718","F1","batch6","","2260.89999999851","stim/no_43_2_b.png","j","pattern_response","true","j","pattern_23","2260.89999999851","true","20","","","","","","","","","","","","","","","","","","",""
"","","","","","html-keyboard-response","83","149126","0.0-2.0-5.0-0.24","5be1030c2b1e7d000178d718","F1","batch6","","null","<p class=block-text>Trial 25 out of 78</p>","null","pattern_show_trial_num","","","","","","","","","","","","","","","","","","","","","","","","",""
"","","","","","image-keyboard-response","84","151060","0.0-2.0-5.0-1.24","5be1030c2b1e7d000178d718","F1","batch6","","1933","stim/no_33_1_b.png","j","pattern_response","true","j","pattern_15","1933","true","21","","","","","","","","","","","","","","","","","","",""
"","","","","","html-keyboard-response","85","152376","0.0-2.0-5.0-0.25","5be1030c2b1e7d000178d718","F1","batch6","","null","<p class=block-text>Trial 26 out of 78</p>","null","pattern_show_trial_num","","","","","","","","","","","","","","","","","","","","","","","","",""
"","","","","","image-keyboard-response","86","153339","0.0-2.0-5.0-1.25","5be1030c2b1e7d000178d718","F1","batch6","","960.1000000014901","stim/yes_23_ver_b1.png","f","pattern_response","true","f","pattern_48","960.1000000014901","true","22","","","","","","","","","","","","","","","","","","",""
"","","","","","html-keyboard-response","87","154658","0.0-2.0-5.0-0.26","5be1030c2b1e7d000178d718","F1","batch6","","null","<p class=block-text>Trial 27 out of 78</p>","null","pattern_show_trial_num","","","","","","","","","","","","","","","","","","","","","","","","",""
"","","","","","image-keyboard-response","88","158956","0.0-2.0-5.0-1.26","5be1030c2b1e7d000178d718","F1","batch6","","4296.10000000149","stim/no_53_1_b.png","j","pattern_response","true","j","pattern_33","4296.10000000149","true","23","","","","","","","","","","","","","","","","","","",""
"","","","","","html-keyboard-response","89","160286","0.0-2.0-5.0-0.27","5be1030c2b1e7d000178d718","F1","batch6","","null","<p class=block-text>Trial 28 out of 78</p>","null","pattern_show_trial_num","","","","","","","","","","","","","","","","","","","","","","","","",""
"","","","","","image-keyboard-response","90","161069","0.0-2.0-5.0-1.27","5be1030c2b1e7d000178d718","F1","batch6","","779.3999999985099","stim/yes_39_hor_w1_w.png","f","pattern_response","true","f","pattern_62","779.3999999985099","true","24","","","","","","","","","","","","","","","","","","",""
"","","","","","html-keyboard-response","91","162380","0.0-2.0-5.0-0.28","5be1030c2b1e7d000178d718","F1","batch6","","null","<p class=block-text>Trial 29 out of 78</p>","null","pattern_show_trial_num","","","","","","","","","","","","","","","","","","","","","","","","",""
"","","","","","image-keyboard-response","92","164563","0.0-2.0-5.0-1.28","5be1030c2b1e7d000178d718","F1","batch6","","2181.1999999955297","stim/yes_51_dia_b1.png","j","pattern_response","false","f","pattern_72","2181.1999999955297","false","24","","","","","","","","","","","","","","","","","","",""
"","","","","","html-keyboard-response","93","165890","0.0-2.0-5.0-0.29","5be1030c2b1e7d000178d718","F1","batch6","","null","<p class=block-text>Trial 30 out of 78</p>","null","pattern_show_trial_num","","","","","","","","","","","","","","","","","","","","","","","","",""
"","","","","","image-keyboard-response","94","167980","0.0-2.0-5.0-1.29","5be1030c2b1e7d000178d718","F1","batch6","","2086.6999999955297","stim/no_36_1_b.png","j","pattern_response","true","j","pattern_17","2086.6999999955297","true","25","","","","","","","","","","","","","","","","","","",""
"","","","","","html-keyboard-response","95","169296","0.0-2.0-5.0-0.30","5be1030c2b1e7d000178d718","F1","batch6","","null","<p class=block-text>Trial 31 out of 78</p>","null","pattern_show_trial_num","","","","","","","","","","","","","","","","","","","","","","","","",""
"","","","","","image-keyboard-response","96","174173","0.0-2.0-5.0-1.30","5be1030c2b1e7d000178d718","F1","batch6","","4874.79999999702","stim/no_67_1.png","j","pattern_response","true","j","pattern_39","4874.79999999702","true","26","","","","","","","","","","","","","","","","","","",""
"","","","","","html-keyboard-response","97","175485","0.0-2.0-5.0-0.31","5be1030c2b1e7d000178d718","F1","batch6","","null","<p class=block-text>Trial 32 out of 78</p>","null","pattern_show_trial_num","","","","","","","","","","","","","","","","","","","","","","","","",""
"","","","","","image-keyboard-response","98","176722","0.0-2.0-5.0-1.31","5be1030c2b1e7d000178d718","F1","batch6","","1235.1999999955297","stim/yes_15_dia_b1u_b.png","f","pattern_response","true","f","pattern_44","1235.1999999955297","true","27","","","","","","","","","","","","","","","","","","",""
"","","","","","html-keyboard-response","99","178042","0.0-2.0-5.0-0.32","5be1030c2b1e7d000178d718","F1","batch6","","null","<p class=block-text>Trial 33 out of 78</p>","null","pattern_show_trial_num","","","","","","","","","","","","","","","","","","","","","","","","",""
"","","","","","image-keyboard-response","100","178826","0.0-2.0-5.0-1.32","5be1030c2b1e7d000178d718","F1","batch6","","783.2000000029802","stim/yes_49_hor_w1_b.png","f","pattern_response","true","f","pattern_70","783.2000000029802","true","28","","","","","","","","","","","","","","","","","","",""
"","","","","","html-keyboard-response","101","180142","0.0-2.0-5.0-0.33","5be1030c2b1e7d000178d718","F1","batch6","","null","<p class=block-text>Trial 34 out of 78</p>","null","pattern_show_trial_num","","","","","","","","","","","","","","","","","","","","","","","","",""
"","","","","","image-keyboard-response","102","181363","0.0-2.0-5.0-1.33","5be1030c2b1e7d000178d718","F1","batch6","","1220.5","stim/no_22_1_b.png","j","pattern_response","true","j","pattern_07","1220.5","true","29","","","","","","","","","","","","","","","","","","",""
"","","","","","html-keyboard-response","103","182686","0.0-2.0-5.0-0.34","5be1030c2b1e7d000178d718","F1","batch6","","null","<p class=block-text>Trial 35 out of 78</p>","null","pattern_show_trial_num","","","","","","","","","","","","","","","","","","","","","","","","",""
"","","","","","image-keyboard-response","104","185181","0.0-2.0-5.0-1.34","5be1030c2b1e7d000178d718","F1","batch6","","2494.4000000059605","stim/no_47_1_b.png","j","pattern_response","true","j","pattern_27","2494.4000000059605","true","30","","","","","","","","","","","","","","","","","","",""
"","","","","","html-keyboard-response","105","186501","0.0-2.0-5.0-0.35","5be1030c2b1e7d000178d718","F1","batch6","","null","<p class=block-text>Trial 36 out of 78</p>","null","pattern_show_trial_num","","","","","","","","","","","","","","","","","","","","","","","","",""
"","","","","","image-keyboard-response","106","189123","0.0-2.0-5.0-1.35","5be1030c2b1e7d000178d718","F1","batch6","","2620.9000000059605","stim/yes_58_dia_w1_w.png","j","pattern_response","false","f","pattern_76","2620.9000000059605","false","30","","","","","","","","","","","","","","","","","","",""
"","","","","","html-keyboard-response","107","190439","0.0-2.0-5.0-0.36","5be1030c2b1e7d000178d718","F1","batch6","","null","<p class=block-text>Trial 37 out of 78</p>","null","pattern_show_trial_num","","","","","","","","","","","","","","","","","","","","","","","","",""
"","","","","","image-keyboard-response","108","192490","0.0-2.0-5.0-1.36","5be1030c2b1e7d000178d718","F1","batch6","","2048.8000000044703","stim/no_28_2.png","j","pattern_response","true","j","pattern_11","2048.8000000044703","true","31","","","","","","","","","","","","","","","","","","",""
"","","","","","html-keyboard-response","109","193811","0.0-2.0-5.0-0.37","5be1030c2b1e7d000178d718","F1","batch6","","null","<p class=block-text>Trial 38 out of 78</p>","null","pattern_show_trial_num","","","","","","","","","","","","","","","","","","","","","","","","",""
"","","","","","image-keyboard-response","110","197021","0.0-2.0-5.0-1.37","5be1030c2b1e7d000178d718","F1","batch6","","3206.3000000044703","stim/no_49_2_b.png","j","pattern_response","true","j","pattern_29","3206.3000000044703","true","32","","","","","","","","","","","","","","","","","","",""
"","","","","","html-keyboard-response","111","198345","0.0-2.0-5.0-0.38","5be1030c2b1e7d000178d718","F1","batch6","","null","<p class=block-text>Trial 39 out of 78</p>","null","pattern_show_trial_num","","","","","","","","","","","","","","","","","","","","","","","","",""
"","","","","","image-keyboard-response","112","201115","0.0-2.0-5.0-1.38","5be1030c2b1e7d000178d718","F1","batch6","","2767.2999999970198","stim/yes_46_ver_b1_b.png","j","pattern_response","false","f","pattern_68","2767.2999999970198","false","32","","","","","","","","","","","","","","","","","","",""
"","","","","","image-keyboard-response","113","204323","0.0-2.0-6.0","5be1030c2b1e7d000178d718","F1","batch6","","2695.6999999955297","stim/empty_board.png","j","attention_check","true","j","","","","","500","[""f"",""j""]","","","","","","","","","","","","","","","","",""
"","","","","","html-keyboard-response","114","205126","0.0-2.0-7.0-0.0","5be1030c2b1e7d000178d718","F1","batch6","","null","<p class=block-text>Trial 40 out of 78</p>","null","pattern_show_trial_num","","","","","","","","","","","","","","","","","","","","","","","","",""
"","","","","","image-keyboard-response","115","207429","0.0-2.0-7.0-1.0","5be1030c2b1e7d000178d718","F1","batch6","","2301.2999999970198","stim/no_32_1_w.png","j","pattern_response","true","j","pattern_14","2301.2999999970198","true","33","","","","","","","","","","","","","","","","","","",""
"","","","","","html-keyboard-response","116","208750","0.0-2.0-7.0-0.1","5be1030c2b1e7d000178d718","F1","batch6","","null","<p class=block-text>Trial 41 out of 78</p>","null","pattern_show_trial_num","","","","","","","","","","","","","","","","","","","","","","","","",""
"","","","","","image-keyboard-response","117","210875","0.0-2.0-7.0-1.1","5be1030c2b1e7d000178d718","F1","batch6","","2122.7000000029802","stim/no_20_1_w.png","j","pattern_response","true","j","pattern_06","2122.7000000029802","true","34","","","","","","","","","","","","","","","","","","",""
"","","","","","html-keyboard-response","118","212187","0.0-2.0-7.0-0.2","5be1030c2b1e7d000178d718","F1","batch6","","null","<p class=block-text>Trial 42 out of 78</p>","null","pattern_show_trial_num","","","","","","","","","","","","","","","","","","","","","","","","",""
"","","","","","image-keyboard-response","119","213027","0.0-2.0-7.0-1.2","5be1030c2b1e7d000178d718","F1","batch6","","837.3000000044703","stim/yes_67_hor_b1.png","f","pattern_response","true","f","pattern_79","837.3000000044703","true","35","","","","","","","","","","","","","","","","","","",""
"","","","","","html-keyboard-response","120","214343","0.0-2.0-7.0-0.3","5be1030c2b1e7d000178d718","F1","batch6","","null","<p class=block-text>Trial 43 out of 78</p>","null","pattern_show_trial_num","","","","","","","","","","","","","","","","","","","","","","","","",""
"","","","","","image-keyboard-response","121","215628","0.0-2.0-7.0-1.3","5be1030c2b1e7d000178d718","F1","batch6","","1282.7000000029802","stim/yes_35_dia_b1.png","j","pattern_response","false","f","pattern_57","1282.7000000029802","false","35","","","","","","","","","","","","","","","","","","",""
"","","","","","html-keyboard-response","122","216955","0.0-2.0-7.0-0.4","5be1030c2b1e7d000178d718","F1","batch6","","null","<p class=block-text>Trial 44 out of 78</p>","null","pattern_show_trial_num","","","","","","","","","","","","","","","","","","","","","","","","",""
"","","","","","image-keyboard-response","123","218036","0.0-2.0-7.0-1.4","5be1030c2b1e7d000178d718","F1","batch6","","1078.9000000059605","stim/yes_17_dia_w1.png","f","pattern_response","true","f","pattern_45","1078.9000000059605","true","36","","","","","","","","","","","","","","","","","","",""
"","","","","","html-keyboard-response","124","219360","0.0-2.0-7.0-0.5","5be1030c2b1e7d000178d718","F1","batch6","","null","<p class=block-text>Trial 45 out of 78</p>","null","pattern_show_trial_num","","","","","","","","","","","","","","","","","","","","","","","","",""
"","","","","","image-keyboard-response","125","220155","0.0-2.0-7.0-1.5","5be1030c2b1e7d000178d718","F1","batch6","","793.8999999985099","stim/no_17_1_w.png","j","pattern_response","true","j","pattern_04","793.8999999985099","true","37","","","","","","","","","","","","","","","","","","",""
"","","","","","html-keyboard-response","126","221470","0.0-2.0-7.0-0.6","5be1030c2b1e7d000178d718","F1","batch6","","null","<p class=block-text>Trial 46 out of 78</p>","null","pattern_show_trial_num","","","","","","","","","","","","","","","","","","","","","","","","",""
"","","","","","image-keyboard-response","127","224283","0.0-2.0-7.0-1.6","5be1030c2b1e7d000178d718","F1","batch6","","2811.60000000149","stim/no_46_1_b.png","j","pattern_response","true","j","pattern_26","2811.60000000149","true","38","","","","","","","","","","","","","","","","","","",""
"","","","","","html-keyboard-response","128","225609","0.0-2.0-7.0-0.7","5be1030c2b1e7d000178d718","F1","batch6","","null","<p class=block-text>Trial 47 out of 78</p>","null","pattern_show_trial_num","","","","","","","","","","","","","","","","","","","","","","","","",""
"","","","","","image-keyboard-response","129","226723","0.0-2.0-7.0-1.7","5be1030c2b1e7d000178d718","F1","batch6","","1110.3000000044703","stim/yes_45_hor_b2_b.png","f","pattern_response","true","f","pattern_67","1110.3000000044703","true","39","","","","","","","","","","","","","","","","","","",""
"","","","","","html-keyboard-response","130","228047","0.0-2.0-7.0-0.8","5be1030c2b1e7d000178d718","F1","batch6","","null","<p class=block-text>Trial 48 out of 78</p>","null","pattern_show_trial_num","","","","","","","","","","","","","","","","","","","","","","","","",""
"","","","","","image-keyboard-response","131","229586","0.0-2.0-7.0-1.8","5be1030c2b1e7d000178d718","F1","batch6","","1536.5","stim/yes_60_ver_b1_b.png","f","pattern_response","true","f","pattern_77","1536.5","true","40","","","","","","","","","","","","","","","","","","",""
"","","","","","html-keyboard-response","132","230897","0.0-2.0-7.0-0.9","5be1030c2b1e7d000178d718","F1","batch6","","null","<p class=block-text>Trial 49 out of 78</p>","null","pattern_show_trial_num","","","","","","","","","","","","","","","","","","","","","","","","",""
"","","","","","image-keyboard-response","133","231787","0.0-2.0-7.0-1.9","5be1030c2b1e7d000178d718","F1","batch6","","889.1999999955297","stim/yes_55_hor_w1_w.png","f","pattern_response","true","f","pattern_75","889.1999999955297","true","41","","","","","","","","","","","","","","","","","","",""
"","","","","","html-keyboard-response","134","233112","0.0-2.0-7.0-0.10","5be1030c2b1e7d000178d718","F1","batch6","","null","<p class=block-text>Trial 50 out of 78</p>","null","pattern_show_trial_num","","","","","","","","","","","","","","","","","","","","","","","","",""
"","","","","","image-keyboard-response","135","234075","0.0-2.0-7.0-1.10","5be1030c2b1e7d000178d718","F1","batch6","","961.7000000029802","stim/yes_29_ver_w1.png","f","pattern_response","true","f","pattern_53","961.7000000029802","true","42","","","","","","","","","","","","","","","","","","",""
"","","","","","html-keyboard-response","136","235379","0.0-2.0-7.0-0.11","5be1030c2b1e7d000178d718","F1","batch6","","null","<p class=block-text>Trial 51 out of 78</p>","null","pattern_show_trial_num","","","","","","","","","","","","","","","","","","","","","","","","",""
"","","","","","image-keyboard-response","137","236922","0.0-2.0-7.0-1.11","5be1030c2b1e7d000178d718","F1","batch6","","1540.8999999985099","stim/no_42_1_w.png","j","pattern_response","true","j","pattern_22","1540.8999999985099","true","43","","","","","","","","","","","","","","","","","","",""
"","","","","","html-keyboard-response","138","238242","0.0-2.0-7.0-0.12","5be1030c2b1e7d000178d718","F1","batch6","","null","<p class=block-text>Trial 52 out of 78</p>","null","pattern_show_trial_num","","","","","","","","","","","","","","","","","","","","","","","","",""
"","","","","","image-keyboard-response","139","242466","0.0-2.0-7.0-1.12","5be1030c2b1e7d000178d718","F1","batch6","","4221.70000000298","stim/no_62_1_w.png","j","pattern_response","true","j","pattern_36","4221.70000000298","true","44","","","","","","","","","","","","","","","","","","",""
"","","","","","html-keyboard-response","140","243786","0.0-2.0-7.0-0.13","5be1030c2b1e7d000178d718","F1","batch6","","null","<p class=block-text>Trial 53 out of 78</p>","null","pattern_show_trial_num","","","","","","","","","","","","","","","","","","","","","","","","",""
"","","","","","image-keyboard-response","141","244779","0.0-2.0-7.0-1.13","5be1030c2b1e7d000178d718","F1","batch6","","989.5","stim/no_23_1.png","j","pattern_response","true","j","pattern_08","989.5","true","45","","","","","","","","","","","","","","","","","","",""
"","","","","","html-keyboard-response","142","246094","0.0-2.0-7.0-0.14","5be1030c2b1e7d000178d718","F1","batch6","","null","<p class=block-text>Trial 54 out of 78</p>","null","pattern_show_trial_num","","","","","","","","","","","","","","","","","","","","","","","","",""
"","","","","","image-keyboard-response","143","248658","0.0-2.0-7.0-1.14","5be1030c2b1e7d000178d718","F1","batch6","","2561.10000000149","stim/no_52_1.png","j","pattern_response","true","j","pattern_32","2561.10000000149","true","46","","","","","","","","","","","","","","","","","","",""
"","","","","","html-keyboard-response","144","249983","0.0-2.0-7.0-0.15","5be1030c2b1e7d000178d718","F1","batch6","","null","<p class=block-text>Trial 55 out of 78</p>","null","pattern_show_trial_num","","","","","","","","","","","","","","","","","","","","","","","","",""
"","","","","","image-keyboard-response","145","250747","0.0-2.0-7.0-1.15","5be1030c2b1e7d000178d718","F1","batch6","","762.4000000059605","stim/yes_25_hor_b1_b.png","f","pattern_response","true","f","pattern_49","762.4000000059605","true","47","","","","","","","","","","","","","","","","","","",""
"","","","","","html-keyboard-response","146","252063","0.0-2.0-7.0-0.16","5be1030c2b1e7d000178d718","F1","batch6","","null","<p class=block-text>Trial 56 out of 78</p>","null","pattern_show_trial_num","","","","","","","","","","","","","","","","","","","","","","","","",""
"","","","","","image-keyboard-response","147","253092","0.0-2.0-7.0-1.16","5be1030c2b1e7d000178d718","F1","batch6","","1026.7000000029802","stim/no_29_1_b.png","j","pattern_response","true","j","pattern_12","1026.7000000029802","true","48","","","","","","","","","","","","","","","","","","",""
"","","","","","html-keyboard-response","148","254406","0.0-2.0-7.0-0.17","5be1030c2b1e7d000178d718","F1","batch6","","null","<p class=block-text>Trial 57 out of 78</p>","null","pattern_show_trial_num","","","","","","","","","","","","","","","","","","","","","","","","",""
"","","","","","image-keyboard-response","149","255290","0.0-2.0-7.0-1.17","5be1030c2b1e7d000178d718","F1","batch6","","881.2999999970198","stim/no_34_1_b.png","j","pattern_response","true","j","pattern_16","881.2999999970198","true","49","","","","","","","","","","","","","","","","","","",""
"","","","","","html-keyboard-response","150","256610","0.0-2.0-7.0-0.18","5be1030c2b1e7d000178d718","F1","batch6","","null","<p class=block-text>Trial 58 out of 78</p>","null","pattern_show_trial_num","","","","","","","","","","","","","","","","","","","","","","","","",""
"","","","","","image-keyboard-response","151","257778","0.0-2.0-7.0-1.18","5be1030c2b1e7d000178d718","F1","batch6","","1167.5","stim/yes_52_ver_w1.png","f","pattern_response","true","f","pattern_73","1167.5","true","50","","","","","","","","","","","","","","","","","","",""
"","","","","","html-keyboard-response","152","259083","0.0-2.0-7.0-0.19","5be1030c2b1e7d000178d718","F1","batch6","","null","<p class=block-text>Trial 59 out of 78</p>","null","pattern_show_trial_num","","","","","","","","","","","","","","","","","","","","","","","","",""
"","","","","","image-keyboard-response","153","259889","0.0-2.0-7.0-1.19","5be1030c2b1e7d000178d718","F1","batch6","","804.8000000044703","stim/yes_38_hor_b1_b.png","j","pattern_response","false","f","pattern_61","804.8000000044703","false","50","","","","","","","","","","","","","","","","","","",""
"","","","","","html-keyboard-response","154","261204","0.0-2.0-7.0-0.20","5be1030c2b1e7d000178d718","F1","batch6","","null","<p class=block-text>Trial 60 out of 78</p>","null","pattern_show_trial_num","","","","","","","","","","","","","","","","","","","","","","","","",""
"","","","","","image-keyboard-response","155","262162","0.0-2.0-7.0-1.20","5be1030c2b1e7d000178d718","F1","batch6","","956.6000000014901","stim/no_36_2_w.png","j","pattern_response","true","j","pattern_18","956.6000000014901","true","51","","","","","","","","","","","","","","","","","","",""
"","","","","","html-keyboard-response","156","263484","0.0-2.0-7.0-0.21","5be1030c2b1e7d000178d718","F1","batch6","","null","<p class=block-text>Trial 61 out of 78</p>","null","pattern_show_trial_num","","","","","","","","","","","","","","","","","","","","","","","","",""
"","","","","","image-keyboard-response","157","265316","0.0-2.0-7.0-1.21","5be1030c2b1e7d000178d718","F1","batch6","","1830","stim/no_48_1_w.png","j","pattern_response","true","j","pattern_28","1830","true","52","","","","","","","","","","","","","","","","","","",""
"","","","","","html-keyboard-response","158","266636","0.0-2.0-7.0-0.22","5be1030c2b1e7d000178d718","F1","batch6","","null","<p class=block-text>Trial 62 out of 78</p>","null","pattern_show_trial_num","","","","","","","","","","","","","","","","","","","","","","","","",""
"","","","","","image-keyboard-response","159","272130","0.0-2.0-7.0-1.22","5be1030c2b1e7d000178d718","F1","batch6","","5491.5","stim/no_70_2.png","j","pattern_response","true","j","pattern_40","5491.5","true","53","","","","","","","","","","","","","","","","","","",""
"","","","","","html-keyboard-response","160","273452","0.0-2.0-7.0-0.23","5be1030c2b1e7d000178d718","F1","batch6","","null","<p class=block-text>Trial 63 out of 78</p>","null","pattern_show_trial_num","","","","","","","","","","","","","","","","","","","","","","","","",""
"","","","","","image-keyboard-response","161","274978","0.0-2.0-7.0-1.23","5be1030c2b1e7d000178d718","F1","batch6","","1521.8999999985099","stim/no_44_1.png","j","pattern_response","true","j","pattern_24","1521.8999999985099","true","54","","","","","","","","","","","","","","","","","","",""
"","","","","","html-keyboard-response","162","276293","0.0-2.0-7.0-0.24","5be1030c2b1e7d000178d718","F1","batch6","","null","<p class=block-text>Trial 64 out of 78</p>","null","pattern_show_trial_num","","","","","","","","","","","","","","","","","","","","","","","","",""
"","","","","","image-keyboard-response","163","277996","0.0-2.0-7.0-1.24","5be1030c2b1e7d000178d718","F1","batch6","","1699.7000000029802","stim/yes_37_dia_w1.png","f","pattern_response","true","f","pattern_59","1699.7000000029802","true","55","","","","","","","","","","","","","","","","","","",""
"","","","","","html-keyboard-response","164","279305","0.0-2.0-7.0-0.25","5be1030c2b1e7d000178d718","F1","batch6","","null","<p class=block-text>Trial 65 out of 78</p>","null","pattern_show_trial_num","","","","","","","","","","","","","","","","","","","","","","","","",""
"","","","","","image-keyboard-response","165","280555","0.0-2.0-7.0-1.25","5be1030c2b1e7d000178d718","F1","batch6","","1247.6999999955297","stim/yes_28_ver_b1.png","f","pattern_response","true","f","pattern_51","1247.6999999955297","true","56","","","","","","","","","","","","","","","","","","",""
"","","","","","html-keyboard-response","166","281872","0.0-2.0-7.0-0.26","5be1030c2b1e7d000178d718","F1","batch6","","null","<p class=block-text>Trial 66 out of 78</p>","null","pattern_show_trial_num","","","","","","","","","","","","","","","","","","","","","","","","",""
"","","","","","image-keyboard-response","167","284162","0.0-2.0-7.0-1.26","5be1030c2b1e7d000178d718","F1","batch6","","2289","stim/no_50_1.png","j","pattern_response","true","j","pattern_30","2289","true","57","","","","","","","","","","","","","","","","","","",""
"","","","","","html-keyboard-response","168","285485","0.0-2.0-7.0-0.27","5be1030c2b1e7d000178d718","F1","batch6","","null","<p class=block-text>Trial 67 out of 78</p>","null","pattern_show_trial_num","","","","","","","","","","","","","","","","","","","","","","","","",""
"","","","","","image-keyboard-response","169","287266","0.0-2.0-7.0-1.27","5be1030c2b1e7d000178d718","F1","batch6","","1777.6000000014901","stim/no_55_1_w.png","j","pattern_response","true","j","pattern_34","1777.6000000014901","true","58","","","","","","","","","","","","","","","","","","",""
"","","","","","html-keyboard-response","170","288590","0.0-2.0-7.0-0.28","5be1030c2b1e7d000178d718","F1","batch6","","null","<p class=block-text>Trial 68 out of 78</p>","null","pattern_show_trial_num","","","","","","","","","","","","","","","","","","","","","","","","",""
"","","","","","image-keyboard-response","171","289524","0.0-2.0-7.0-1.28","5be1030c2b1e7d000178d718","F1","batch6","","931.3000000044703","stim/yes_40_dia_b1_b.png","j","pattern_response","false","f","pattern_63","931.3000000044703","false","58","","","","","","","","","","","","","","","","","","",""
"","","","","","html-keyboard-response","172","290839","0.0-2.0-7.0-0.29","5be1030c2b1e7d000178d718","F1","batch6","","null","<p class=block-text>Trial 69 out of 78</p>","null","pattern_show_trial_num","","","","","","","","","","","","","","","","","","","","","","","","",""
"","","","","","image-keyboard-response","173","293571","0.0-2.0-7.0-1.29","5be1030c2b1e7d000178d718","F1","batch6","","2730","stim/no_38_1_b.png","j","pattern_response","true","j","pattern_20","2730","true","59","","","","","","","","","","","","","","","","","","",""
"","","","","","html-keyboard-response","174","294889","0.0-2.0-7.0-0.30","5be1030c2b1e7d000178d718","F1","batch6","","null","<p class=block-text>Trial 70 out of 78</p>","null","pattern_show_trial_num","","","","","","","","","","","","","","","","","","","","","","","","",""
"","","","","","image-keyboard-response","175","296027","0.0-2.0-7.0-1.30","5be1030c2b1e7d000178d718","F1","batch6","","1135.8999999985099","stim/yes_31_hor_b1.png","f","pattern_response","true","f","pattern_55","1135.8999999985099","true","60","","","","","","","","","","","","","","","","","","",""
"","","","","","html-keyboard-response","176","297342","0.0-2.0-7.0-0.31","5be1030c2b1e7d000178d718","F1","batch6","","null","<p class=block-text>Trial 71 out of 78</p>","null","pattern_show_trial_num","","","","","","","","","","","","","","","","","","","","","","","","",""
"","","","","","image-keyboard-response","177","298530","0.0-2.0-7.0-1.31","5be1030c2b1e7d000178d718","F1","batch6","","1186.7999999970198","stim/yes_43_ver_w1_w.png","f","pattern_response","true","f","pattern_65","1186.7999999970198","true","61","","","","","","","","","","","","","","","","","","",""
"","","","","","html-keyboard-response","178","299847","0.0-2.0-7.0-0.32","5be1030c2b1e7d000178d718","F1","batch6","","null","<p class=block-text>Trial 72 out of 78</p>","null","pattern_show_trial_num","","","","","","","","","","","","","","","","","","","","","","","","",""
"","","","","","image-keyboard-response","179","302420","0.0-2.0-7.0-1.32","5be1030c2b1e7d000178d718","F1","batch6","","2571.2999999970198","stim/yes_48_dia_w1_w.png","j","pattern_response","false","f","pattern_69","2571.2999999970198","false","61","","","","","","","","","","","","","","","","","","",""
"","","","","","html-keyboard-response","180","303733","0.0-2.0-7.0-0.33","5be1030c2b1e7d000178d718","F1","batch6","","null","<p class=block-text>Trial 73 out of 78</p>","null","pattern_show_trial_num","","","","","","","","","","","","","","","","","","","","","","","","",""
"","","","","","image-keyboard-response","181","304417","0.0-2.0-7.0-1.33","5be1030c2b1e7d000178d718","F1","batch6","","680.6000000014901","stim/yes_22_ver_w1.png","f","pattern_response","true","f","pattern_47","680.6000000014901","true","62","","","","","","","","","","","","","","","","","","",""
"","","","","","html-keyboard-response","182","305737","0.0-2.0-7.0-0.34","5be1030c2b1e7d000178d718","F1","batch6","","null","<p class=block-text>Trial 74 out of 78</p>","null","pattern_show_trial_num","","","","","","","","","","","","","","","","","","","","","","","","",""
"","","","","","image-keyboard-response","183","309433","0.0-2.0-7.0-1.34","5be1030c2b1e7d000178d718","F1","batch6","","3694.2999999970198","stim/yes_50_dia_w1.png","j","pattern_response","false","f","pattern_71","3694.2999999970198","false","62","","","","","","","","","","","","","","","","","","",""
"","","","","","html-keyboard-response","184","310749","0.0-2.0-7.0-0.35","5be1030c2b1e7d000178d718","F1","batch6","","null","<p class=block-text>Trial 75 out of 78</p>","null","pattern_show_trial_num","","","","","","","","","","","","","","","","","","","","","","","","",""
"","","","","","image-keyboard-response","185","311569","0.0-2.0-7.0-1.35","5be1030c2b1e7d000178d718","F1","batch6","","816.8999999985099","stim/yes_14_hor_b1_w.png","f","pattern_response","true","f","pattern_43","816.8999999985099","true","63","","","","","","","","","","","","","","","","","","",""
"","","","","","html-keyboard-response","186","312888","0.0-2.0-7.0-0.36","5be1030c2b1e7d000178d718","F1","batch6","","null","<p class=block-text>Trial 76 out of 78</p>","null","pattern_show_trial_num","","","","","","","","","","","","","","","","","","","","","","","","",""
"","","","","","image-keyboard-response","187","314091","0.0-2.0-7.0-1.36","5be1030c2b1e7d000178d718","F1","batch6","","1200.8999999985099","stim/no_13_2_b.png","j","pattern_response","true","j","pattern_02","1200.8999999985099","true","64","","","","","","","","","","","","","","","","","","",""
"","","","","","html-keyboard-response","188","315405","0.0-2.0-7.0-0.37","5be1030c2b1e7d000178d718","F1","batch6","","null","<p class=block-text>Trial 77 out of 78</p>","null","pattern_show_trial_num","","","","","","","","","","","","","","","","","","","","","","","","",""
"","","","","","image-keyboard-response","189","316321","0.0-2.0-7.0-1.37","5be1030c2b1e7d000178d718","F1","batch6","","914.6999999955297","stim/no_26_1_w.png","j","pattern_response","true","j","pattern_10","914.6999999955297","true","65","","","","","","","","","","","","","","","","","","",""
"","","","","","html-keyboard-response","190","317640","0.0-2.0-7.0-0.38","5be1030c2b1e7d000178d718","F1","batch6","","null","<p class=block-text>Trial 78 out of 78</p>","null","pattern_show_trial_num","","","","","","","","","","","","","","","","","","","","","","","","",""
"","","","","","image-keyboard-response","191","321113","0.0-2.0-7.0-1.38","5be1030c2b1e7d000178d718","F1","batch6","","3472.7000000029802","stim/no_65_1_b.png","j","pattern_response","true","j","pattern_38","3472.7000000029802","true","66","","","","","","","","","","","","","","","","","","",""
"","","","","","html-button-response","192","324705","0.0-2.0-8.0","5be1030c2b1e7d000178d718","F1","batch6","","3077.9000000059605","<p class = block-text>This concludes the 4-in-a-row detection game.Thank you for your responses!<br>
            You responded correctly on 85% of the trials.<br>
            When you are ready, press ""Continue"" button to continue </p>","0","","","","","","","","","","","","","","","","","","","","","","","","","",""
"true","","","","","fullscreen","193","326950","0.0-3.0-0.0","5be1030c2b1e7d000178d718","F1","batch6","","","","","","","","","","","","","","","","","","","","","","","","","","","","","",""
"","","","","","instructions","194","353129","0.0-3.0-1.0-0.0-0.0","5be1030c2b1e7d000178d718","F1","batch6","[{""page_index"":0,""viewing_time"":6857.79999999702},{""page_index"":1,""viewing_time"":6759.5},{""page_index"":2,""viewing_time"":4080.5},{""page_index"":3,""viewing_time"":967.5},{""page_index"":4,""viewing_time"":2720.2000000029802},{""page_index"":5,""viewing_time"":2000.8999999985099},{""page_index"":6,""viewing_time"":2790.89999999851}]","26177.60000000149","","","tol-instructions","","","","","","","","","","","","","","","","","","","","","","","","",""
"","","","","","html-button-response","195","353841","0.0-3.0-1.0-1.0-0.0","5be1030c2b1e7d000178d718","F1","batch6","","711.3999999985099","<p class=block-text> Let's answer a few questions <br>","0","tol_enter_quiz","","","","","","","","","","","","","","","","","","","","","","","","",""
"","","","","","html-button-response","196","358001","0.0-3.0-1.0-1.0-1.0","5be1030c2b1e7d000178d718","F1","batch6","","4158.79999999702","<p class = block-text>True or False: You can only move the ball on top of a peg. <br></p>","0","tol_quiz","true","","","","","","","","","","","","","","","","","","","","","","","",""
"","","","","","html-button-response","197","359153","0.0-3.0-1.0-1.0-2.0","5be1030c2b1e7d000178d718","F1","batch6","","1151.5","<p class = block-text>Correct! You can only move the ball on top of a peg.</p>","0","tol_quiz_feedback","","","","","","","","","","","","","","","","","","","","","","","","",""
"","","","","","html-button-response","198","361217","0.0-3.0-1.0-1.0-3.0","5be1030c2b1e7d000178d718","F1","batch6","","2063.2999999970198","<p class = block-text>True or False: You should try to match your board with the target board with fewest moves possible. <br></p>","0","tol_quiz","true","","","","","","","","","","","","","","","","","","","","","","","",""
"","","","","","html-button-response","199","361681","0.0-3.0-1.0-1.0-4.0","5be1030c2b1e7d000178d718","F1","batch6","","462.80000000447035","<p class = block-text>Correct! </p>","0","tol_quiz_feedback","","","","","","","","","","","","","","","","","","","","","","","","",""
"","","","","","html-button-response","200","362897","0.0-3.0-2.0","5be1030c2b1e7d000178d718","F1","batch6","","1215.6999999955297","<p class=block-text> Now that you've understood the game, let's practice a few easier examples before we start!<br> <br>","0","","","","","","","","","","","","","","","","","","","","","","","","","",""
"","","","","","single-stim-button","201","368522","0.0-3.0-3.0-0.0","5be1030c2b1e7d000178d718","F1","batch6","","5623","","","tol_practice","","","","","","","","","tol_peg_2","5623","5623","0","[[1,2,0],[0,0],[0]]","1","[[1,2,0],[0,0],[3]]","practice","5623","","","","","","","",""
"","","","","","single-stim-button","202","369161","0.0-3.0-3.0-1.0","5be1030c2b1e7d000178d718","F1","batch6","","639","","","tol_practice","","","","","","","","","tol_peg_3","639","639","0","[[1,2,0],[0,0],[3]]","1","[[1,2,0],[0,0],[3]]","practice","639","","","","","","","",""
"","","","","","poldrack-single-stim","203","370163","0.0-3.0-4.0","5be1030c2b1e7d000178d718","F1","batch6","","-1","","","tol_feedback","true","","","","","","","","","1000","1000","500","","","","","","-1","none","true","","0","","",""
"","","","","","single-stim-button","204","373449","0.0-3.0-5.0-0.0","5be1030c2b1e7d000178d718","F1","batch6","","3285","","","tol_practice","","","","","","","","","tol_peg_1","3285","3285","0","[[1,0,0],[3,0],[0]]","2","[[0,0,0],[3,1],[2]]","practice","3285","","","","","","","",""
"","","","","","single-stim-button","205","374248","0.0-3.0-5.0-1.0","5be1030c2b1e7d000178d718","F1","batch6","","799","","","tol_practice","","","","","","","","","tol_peg_3","799","799","0","[[1,0,0],[3,0],[2]]","2","[[0,0,0],[3,1],[2]]","practice","799","","","","","","","",""
"","","","","","single-stim-button","206","374769","0.0-3.0-5.1-0.1","5be1030c2b1e7d000178d718","F1","batch6","","520","","","tol_practice","","","","","","","","","tol_peg_1","520","520","0","[[0,0,0],[3,0],[2]]","3","[[0,0,0],[3,1],[2]]","practice","520","","","","","","","",""
"","","","","","single-stim-button","207","375472","0.0-3.0-5.1-1.1","5be1030c2b1e7d000178d718","F1","batch6","","703","","","tol_practice","","","","","","","","","tol_peg_2","703","703","0","[[0,0,0],[3,1],[2]]","3","[[0,0,0],[3,1],[2]]","practice","703","","","","","","","",""
"","","","","","poldrack-single-stim","208","376474","0.0-3.0-6.0","5be1030c2b1e7d000178d718","F1","batch6","","-1","","","tol_feedback","true","","","","","","","","","1000","1000","500","","","","","","-1","none","true","","0","","",""
"","","","","","single-stim-button","209","380153","0.0-3.0-7.0-0.0","5be1030c2b1e7d000178d718","F1","batch6","","3677","","","tol_practice","","","","","","","","","tol_peg_2","3677","3677","0","[[1,2,0],[0,0],[0]]","4","[[1,0,0],[2,0],[3]]","practice","3677","","","","","","","",""
"","","","","","single-stim-button","210","380553","0.0-3.0-7.0-1.0","5be1030c2b1e7d000178d718","F1","batch6","","399","","","tol_practice","","","","","","","","","tol_peg_3","399","399","0","[[1,2,0],[0,0],[3]]","4","[[1,0,0],[2,0],[3]]","practice","399","","","","","","","",""
"","","","","","single-stim-button","211","381000","0.0-3.0-7.1-0.1","5be1030c2b1e7d000178d718","F1","batch6","","447","","","tol_practice","","","","","","","","","tol_peg_1","447","447","0","[[1,0,0],[0,0],[3]]","5","[[1,0,0],[2,0],[3]]","practice","447","","","","","","","",""
"","","","","","single-stim-button","212","381536","0.0-3.0-7.1-1.1","5be1030c2b1e7d000178d718","F1","batch6","","535","","","tol_practice","","","","","","","","","tol_peg_2","535","535","0","[[1,0,0],[2,0],[3]]","5","[[1,0,0],[2,0],[3]]","practice","535","","","","","","","",""
"","","","","","poldrack-single-stim","213","382538","0.0-3.0-8.0","5be1030c2b1e7d000178d718","F1","batch6","","-1","","","tol_feedback","true","","","","","","","","","1000","1000","500","","","","","","-1","none","true","","0","","",""
"","","","","","html-button-response","214","387080","0.0-3.0-9.0","5be1030c2b1e7d000178d718","F1","batch6","","4541.10000000149","<div class = centerbox><p class = center-block-text>Great job! You are done with practice trials<br>You are about to start official trials.<br> <br> Problem <strong>1</strong> out of 25 problems</p></div>","0","tol_instruction","","","","","","","","","","","","","","","","","","","","","","","","",""
"","","","","","single-stim-button","215","392649","0.0-3.0-10.0-0.0","5be1030c2b1e7d000178d718","F1","batch6","","4567","","","tol_tohand","","","","","","","","","tol_peg_1","4567","4567","0","[[1,0,0],[3,0],[0]]","1","[[1,3,0],[2,0],[0]]","0","0","","","","","","3","",""
"","","","","","single-stim-button","216","395217","0.0-3.0-10.0-1.0","5be1030c2b1e7d000178d718","F1","batch6","","2568","","","tol_toboard","","","","","","","","","tol_peg_3","2568","2568","0","[[1,0,0],[3,0],[2]]","1","[[1,3,0],[2,0],[0]]","0","0","","","","","","3","",""
"","","","","","single-stim-button","217","395936","0.0-3.0-10.1-0.1","5be1030c2b1e7d000178d718","F1","batch6","","719","","","tol_tohand","","","","","","","","","tol_peg_2","719","719","0","[[1,0,0],[0,0],[2]]","2","[[1,3,0],[2,0],[0]]","0","0","","","","","","3","",""
"","","","","","single-stim-button","218","396313","0.0-3.0-10.1-1.1","5be1030c2b1e7d000178d718","F1","batch6","","376","","","tol_toboard","","","","","","","","","tol_peg_1","376","376","0","[[1,3,0],[0,0],[2]]","2","[[1,3,0],[2,0],[0]]","0","0","","","","","","3","",""
"","","","","","single-stim-button","219","396888","0.0-3.0-10.2-0.2","5be1030c2b1e7d000178d718","F1","batch6","","575","","","tol_tohand","","","","","","","","","tol_peg_3","575","575","0","[[1,3,0],[0,0],[0]]","3","[[1,3,0],[2,0],[0]]","0","0","","","","","","3","",""
"","","","","","single-stim-button","220","397233","0.0-3.0-10.2-1.2","5be1030c2b1e7d000178d718","F1","batch6","","344","","","tol_toboard","","","","","","","","","tol_peg_2","344","344","0","[[1,3,0],[2,0],[0]]","3","[[1,3,0],[2,0],[0]]","0","0","","","","","","3","",""
"","","","","","poldrack-single-stim","221","398240","0.0-3.0-11.0","5be1030c2b1e7d000178d718","F1","batch6","","-1","","","tol_feedback","true","","","","","","","","","1000","1000","500","","","","","","-1","none","true","4567","5861","","",""
"","","","","","html-button-response","222","399032","0.0-3.0-12.0","5be1030c2b1e7d000178d718","F1","batch6","","791.4000000059605","<div class = centerbox><p class = center-block-text>problem <strong>2</strong> out of 25 problems</p></div>","0","tol_trial_num","","","","","","","","","","","","","","","","","","","","","","","","",""
"","","","","","single-stim-button","223","402177","0.0-3.0-13.0-0.0","5be1030c2b1e7d000178d718","F1","batch6","","3144","","","tol_tohand","","","","","","","","","tol_peg_1","3144","3144","0","[[1,0,0],[3,0],[0]]","1","[[2,1,3],[0,0],[0]]","1","0","","","","","","5","",""
"","","","","","single-stim-button","224","406193","0.0-3.0-13.0-1.0","5be1030c2b1e7d000178d718","F1","batch6","","4015","","","tol_toboard","","","","","","","","","tol_peg_3","4015","4015","0","[[1,0,0],[3,0],[2]]","1","[[2,1,3],[0,0],[0]]","1","0","","","","","","5","",""
"","","","","","single-stim-button","225","410888","0.0-3.0-13.1-0.1","5be1030c2b1e7d000178d718","F1","batch6","","4695","","","tol_tohand","","","","","","","","","tol_peg_1","4695","4695","0","[[0,0,0],[3,0],[2]]","2","[[2,1,3],[0,0],[0]]","1","0","","","","","","5","",""
"","","","","","single-stim-button","226","411672","0.0-3.0-13.1-1.1","5be1030c2b1e7d000178d718","F1","batch6","","783","","","tol_toboard","","","","","","","","","tol_peg_2","783","783","0","[[0,0,0],[3,1],[2]]","2","[[2,1,3],[0,0],[0]]","1","0","","","","","","5","",""
"","","","","","single-stim-button","227","412289","0.0-3.0-13.2-0.2","5be1030c2b1e7d000178d718","F1","batch6","","616","","","tol_tohand","","","","","","","","","tol_peg_3","616","616","0","[[0,0,0],[3,1],[0]]","3","[[2,1,3],[0,0],[0]]","1","0","","","","","","5","",""
"","","","","","single-stim-button","228","412937","0.0-3.0-13.2-1.2","5be1030c2b1e7d000178d718","F1","batch6","","647","","","tol_toboard","","","","","","","","","tol_peg_1","647","647","0","[[2,0,0],[3,1],[0]]","3","[[2,1,3],[0,0],[0]]","1","0","","","","","","5","",""
"","","","","","single-stim-button","229","413633","0.0-3.0-13.3-0.3","5be1030c2b1e7d000178d718","F1","batch6","","696","","","tol_tohand","","","","","","","","","tol_peg_2","696","696","0","[[2,0,0],[3,0],[0]]","4","[[2,1,3],[0,0],[0]]","1","0","","","","","","5","",""
"","","","","","single-stim-button","230","414008","0.0-3.0-13.3-1.3","5be1030c2b1e7d000178d718","F1","batch6","","375","","","tol_toboard","","","","","","","","","tol_peg_1","375","375","0","[[2,1,0],[3,0],[0]]","4","[[2,1,3],[0,0],[0]]","1","0","","","","","","5","",""
"","","","","","single-stim-button","231","414449","0.0-3.0-13.4-0.4","5be1030c2b1e7d000178d718","F1","batch6","","439","","","tol_tohand","","","","","","","","","tol_peg_2","439","439","0","[[2,1,0],[0,0],[0]]","5","[[2,1,3],[0,0],[0]]","1","0","","","","","","5","",""
"","","","","","single-stim-button","232","414905","0.0-3.0-13.4-1.4","5be1030c2b1e7d000178d718","F1","batch6","","456","","","tol_toboard","","","","","","","","","tol_peg_1","456","456","0","[[2,1,3],[0,0],[0]]","5","[[2,1,3],[0,0],[0]]","1","0","","","","","","5","",""
"","","","","","poldrack-single-stim","233","415912","0.0-3.0-14.0","5be1030c2b1e7d000178d718","F1","batch6","","-1","","","tol_feedback","true","","","","","","","","","1000","1000","500","","","","","","-1","none","true","3144","9590","","",""
"","","","","","html-button-response","234","416720","0.0-3.0-15.0","5be1030c2b1e7d000178d718","F1","batch6","","806.6999999955297","<div class = centerbox><p class = center-block-text>problem <strong>3</strong> out of 25 problems</p></div>","0","tol_trial_num","","","","","","","","","","","","","","","","","","","","","","","","",""
"","","","","","single-stim-button","235","420745","0.0-3.0-16.0-0.0","5be1030c2b1e7d000178d718","F1","batch6","","4025","","","tol_tohand","","","","","","","","","tol_peg_1","4025","4025","0","[[2,0,0],[0,0],[1]]","1","[[1,2,0],[3,0],[0]]","2","0","","","","","","4","",""
"","","","","","single-stim-button","236","421233","0.0-3.0-16.0-1.0","5be1030c2b1e7d000178d718","F1","batch6","","488","","","tol_toboard","","","","","","","","","tol_peg_2","488","488","0","[[2,0,0],[3,0],[1]]","1","[[1,2,0],[3,0],[0]]","2","0","","","","","","4","",""
"","","","","","single-stim-button","237","421817","0.0-3.0-16.1-0.1","5be1030c2b1e7d000178d718","F1","batch6","","583","","","tol_tohand","","","","","","","","","tol_peg_1","583","583","0","[[0,0,0],[3,0],[1]]","2","[[1,2,0],[3,0],[0]]","2","0","","","","","","4","",""
"","","","","","single-stim-button","238","422545","0.0-3.0-16.1-1.1","5be1030c2b1e7d000178d718","F1","batch6","","728","","","tol_toboard","","","","","","","","","tol_peg_2","728","728","0","[[0,0,0],[3,2],[1]]","2","[[1,2,0],[3,0],[0]]","2","0","","","","","","4","",""
"","","","","","single-stim-button","239","422953","0.0-3.0-16.2-0.2","5be1030c2b1e7d000178d718","F1","batch6","","407","","","tol_tohand","","","","","","","","","tol_peg_3","407","407","0","[[0,0,0],[3,2],[0]]","3","[[1,2,0],[3,0],[0]]","2","0","","","","","","4","",""
"","","","","","single-stim-button","240","423410","0.0-3.0-16.2-1.2","5be1030c2b1e7d000178d718","F1","batch6","","457","","","tol_toboard","","","","","","","","","tol_peg_1","457","457","0","[[1,0,0],[3,2],[0]]","3","[[1,2,0],[3,0],[0]]","2","0","","","","","","4","",""
"","","","","","single-stim-button","241","423832","0.0-3.0-16.3-0.3","5be1030c2b1e7d000178d718","F1","batch6","","422","","","tol_tohand","","","","","","","","","tol_peg_2","422","422","0","[[1,0,0],[3,0],[0]]","4","[[1,2,0],[3,0],[0]]","2","0","","","","","","4","",""
"","","","","","single-stim-button","242","424168","0.0-3.0-16.3-1.3","5be1030c2b1e7d000178d718","F1","batch6","","336","","","tol_toboard","","","","","","","","","tol_peg_1","336","336","0","[[1,2,0],[3,0],[0]]","4","[[1,2,0],[3,0],[0]]","2","0","","","","","","4","",""
"","","","","","poldrack-single-stim","243","425169","0.0-3.0-17.0","5be1030c2b1e7d000178d718","F1","batch6","","-1","","","tol_feedback","true","","","","","","","","","1000","1000","500","","","","","","-1","none","true","4025","5437","","",""
"","","","","","html-button-response","244","427576","0.0-3.0-18.0","5be1030c2b1e7d000178d718","F1","batch6","","2405.10000000149","<div class = centerbox><p class = center-block-text>problem <strong>4</strong> out of 25 problems</p></div>","0","tol_trial_num","","","","","","","","","","","","","","","","","","","","","","","","",""
"","","","","","single-stim-button","245","430704","0.0-3.0-19.0-0.0","5be1030c2b1e7d000178d718","F1","batch6","","3127","","","tol_tohand","","","","","","","","","tol_peg_2","3127","3127","0","[[3,0,0],[2,0],[0]]","1","[[3,0,0],[1,0],[2]]","3","0","","","","","","3","",""
"","","","","","single-stim-button","246","431128","0.0-3.0-19.0-1.0","5be1030c2b1e7d000178d718","F1","batch6","","424","","","tol_toboard","","","","","","","","","tol_peg_1","424","424","0","[[3,1,0],[2,0],[0]]","1","[[3,0,0],[1,0],[2]]","3","0","","","","","","3","",""
"","","","","","single-stim-button","247","431513","0.0-3.0-19.1-0.1","5be1030c2b1e7d000178d718","F1","batch6","","384","","","tol_tohand","","","","","","","","","tol_peg_2","384","384","0","[[3,1,0],[0,0],[0]]","2","[[3,0,0],[1,0],[2]]","3","0","","","","","","3","",""
"","","","","","single-stim-button","248","431880","0.0-3.0-19.1-1.1","5be1030c2b1e7d000178d718","F1","batch6","","367","","","tol_toboard","","","","","","","","","tol_peg_3","367","367","0","[[3,1,0],[0,0],[2]]","2","[[3,0,0],[1,0],[2]]","3","0","","","","","","3","",""
"","","","","","single-stim-button","249","432424","0.0-3.0-19.2-0.2","5be1030c2b1e7d000178d718","F1","batch6","","544","","","tol_tohand","","","","","","","","","tol_peg_1","544","544","0","[[3,0,0],[0,0],[2]]","3","[[3,0,0],[1,0],[2]]","3","0","","","","","","3","",""
"","","","","","single-stim-button","250","432928","0.0-3.0-19.2-1.2","5be1030c2b1e7d000178d718","F1","batch6","","504","","","tol_toboard","","","","","","","","","tol_peg_2","504","504","0","[[3,0,0],[1,0],[2]]","3","[[3,0,0],[1,0],[2]]","3","0","","","","","","3","",""
"","","","","","poldrack-single-stim","251","433932","0.0-3.0-20.0","5be1030c2b1e7d000178d718","F1","batch6","","-1","","","tol_feedback","true","","","","","","","","","1000","1000","500","","","","","","-1","none","true","3127","4055","","",""
"","","","","","html-button-response","252","434592","0.0-3.0-21.0","5be1030c2b1e7d000178d718","F1","batch6","","658.1999999955297","<div class = centerbox><p class = center-block-text>problem <strong>5</strong> out of 25 problems</p></div>","0","tol_trial_num","","","","","","","","","","","","","","","","","","","","","","","","",""
"","","","","","single-stim-button","253","437695","0.0-3.0-22.0-0.0","5be1030c2b1e7d000178d718","F1","batch6","","3103","","","tol_tohand","","","","","","","","","tol_peg_2","3103","3103","0","[[1,0,0],[0,0],[3]]","1","[[0,0,0],[1,2],[3]]","4","0","","","","","","7","",""
"","","","","","single-stim-button","254","439928","0.0-3.0-22.0-1.0","5be1030c2b1e7d000178d718","F1","batch6","","2232","","","tol_toboard","","","","","","","","","tol_peg_2","2232","2232","0","[[1,0,0],[2,0],[3]]","1","[[0,0,0],[1,2],[3]]","4","0","","","","","","7","",""
"","","","","","single-stim-button","255","440633","0.0-3.0-22.1-0.1","5be1030c2b1e7d000178d718","F1","batch6","","705","","","tol_tohand","","","","","","","","","tol_peg_3","705","705","0","[[1,0,0],[2,0],[0]]","2","[[0,0,0],[1,2],[3]]","4","0","","","","","","7","",""
"","","","","","single-stim-button","256","441000","0.0-3.0-22.1-1.1","5be1030c2b1e7d000178d718","F1","batch6","","366","","","tol_toboard","","","","","","","","","tol_peg_2","366","366","0","[[1,0,0],[2,3],[0]]","2","[[0,0,0],[1,2],[3]]","4","0","","","","","","7","",""
"","","","","","single-stim-button","257","441600","0.0-3.0-22.2-0.2","5be1030c2b1e7d000178d718","F1","batch6","","600","","","tol_tohand","","","","","","","","","tol_peg_1","600","600","0","[[0,0,0],[2,3],[0]]","3","[[0,0,0],[1,2],[3]]","4","0","","","","","","7","",""
"","","","","","single-stim-button","258","442264","0.0-3.0-22.2-1.2","5be1030c2b1e7d000178d718","F1","batch6","","664","","","tol_toboard","","","","","","","","","tol_peg_3","664","664","0","[[0,0,0],[2,3],[1]]","3","[[0,0,0],[1,2],[3]]","4","0","","","","","","7","",""
"","","","","","single-stim-button","259","442776","0.0-3.0-22.3-0.3","5be1030c2b1e7d000178d718","F1","batch6","","512","","","tol_tohand","","","","","","","","","tol_peg_2","512","512","0","[[0,0,0],[2,0],[1]]","4","[[0,0,0],[1,2],[3]]","4","0","","","","","","7","",""
"","","","","","single-stim-button","260","443135","0.0-3.0-22.3-1.3","5be1030c2b1e7d000178d718","F1","batch6","","359","","","tol_toboard","","","","","","","","","tol_peg_1","359","359","0","[[3,0,0],[2,0],[1]]","4","[[0,0,0],[1,2],[3]]","4","0","","","","","","7","",""
"","","","","","single-stim-button","261","445472","0.0-3.0-22.4-0.4","5be1030c2b1e7d000178d718","F1","batch6","","2336","","","tol_tohand","","","","","","","","","tol_peg_2","2336","2336","0","[[3,0,0],[0,0],[1]]","5","[[0,0,0],[1,2],[3]]","4","0","","","","","","7","",""
"","","","","","single-stim-button","262","450632","0.0-3.0-22.4-1.4","5be1030c2b1e7d000178d718","F1","batch6","","5160","","","tol_toboard","","","","","","","","","tol_peg_1","5160","5160","0","[[3,2,0],[0,0],[1]]","5","[[0,0,0],[1,2],[3]]","4","0","","","","","","7","",""
"","","","","","single-stim-button","263","451152","0.0-3.0-22.5-0.5","5be1030c2b1e7d000178d718","F1","batch6","","519","","","tol_tohand","","","","","","","","","tol_peg_3","519","519","0","[[3,2,0],[0,0],[0]]","6","[[0,0,0],[1,2],[3]]","4","0","","","","","","7","",""
"","","","","","single-stim-button","264","451703","0.0-3.0-22.5-1.5","5be1030c2b1e7d000178d718","F1","batch6","","551","","","tol_toboard","","","","","","","","","tol_peg_2","551","551","0","[[3,2,0],[1,0],[0]]","6","[[0,0,0],[1,2],[3]]","4","0","","","","","","7","",""
"","","","","","single-stim-button","265","452704","0.0-3.0-22.6-0.6","5be1030c2b1e7d000178d718","F1","batch6","","999","","","tol_tohand","","","","","","","","","tol_peg_1","999","999","0","[[3,0,0],[1,0],[0]]","7","[[0,0,0],[1,2],[3]]","4","0","","","","","","7","",""
"","","","","","single-stim-button","266","453184","0.0-3.0-22.6-1.6","5be1030c2b1e7d000178d718","F1","batch6","","480","","","tol_toboard","","","","","","","","","tol_peg_2","480","480","0","[[3,0,0],[1,2],[0]]","7","[[0,0,0],[1,2],[3]]","4","0","","","","","","7","",""
"","","","","","single-stim-button","267","453655","0.0-3.0-22.7-0.7","5be1030c2b1e7d000178d718","F1","batch6","","471","","","tol_tohand","","","","","","","","","tol_peg_1","471","471","0","[[0,0,0],[1,2],[0]]","8","[[0,0,0],[1,2],[3]]","4","0","","","","","","7","",""
"","","","","","single-stim-button","268","454095","0.0-3.0-22.7-1.7","5be1030c2b1e7d000178d718","F1","batch6","","439","","","tol_toboard","","","","","","","","","tol_peg_3","439","439","0","[[0,0,0],[1,2],[3]]","8","[[0,0,0],[1,2],[3]]","4","0","","","","","","7","",""
"","","","","","poldrack-single-stim","269","455097","0.0-3.0-23.0","5be1030c2b1e7d000178d718","F1","batch6","","-1","","","tol_feedback","true","","","","","","","","","1000","1000","500","","","","","","-1","none","true","3103","9245","","",""
"","","","","","html-button-response","270","455760","0.0-3.0-24.0","5be1030c2b1e7d000178d718","F1","batch6","","661.7000000029802","<div class = centerbox><p class = center-block-text>problem <strong>6</strong> out of 25 problems</p></div>","0","tol_trial_num","","","","","","","","","","","","","","","","","","","","","","","","",""
"","","","","","single-stim-button","271","464192","0.0-3.0-25.0-0.0","5be1030c2b1e7d000178d718","F1","batch6","","8431","","","tol_tohand","","","","","","","","","tol_peg_2","8431","8431","0","[[0,0,0],[1,0],[3]]","1","[[1,0,0],[2,3],[0]]","5","0","","","","","","6","",""
"","","","","","single-stim-button","272","467560","0.0-3.0-25.0-1.0","5be1030c2b1e7d000178d718","F1","batch6","","3367","","","tol_toboard","","","","","","","","","tol_peg_2","3367","3367","0","[[0,0,0],[1,2],[3]]","1","[[1,0,0],[2,3],[0]]","5","0","","","","","","6","",""
"","","","","","single-stim-button","273","467959","0.0-3.0-25.1-0.1","5be1030c2b1e7d000178d718","F1","batch6","","399","","","tol_tohand","","","","","","","","","tol_peg_3","399","399","0","[[0,0,0],[1,2],[0]]","2","[[1,0,0],[2,3],[0]]","5","0","","","","","","6","",""
"","","","","","single-stim-button","274","468649","0.0-3.0-25.1-1.1","5be1030c2b1e7d000178d718","F1","batch6","","689","","","tol_toboard","","","","","","","","","tol_peg_1","689","689","0","[[3,0,0],[1,2],[0]]","2","[[1,0,0],[2,3],[0]]","5","0","","","","","","6","",""
"","","","","","single-stim-button","275","469032","0.0-3.0-25.2-0.2","5be1030c2b1e7d000178d718","F1","batch6","","383","","","tol_tohand","","","","","","","","","tol_peg_2","383","383","0","[[3,0,0],[1,0],[0]]","3","[[1,0,0],[2,3],[0]]","5","0","","","","","","6","",""
"","","","","","single-stim-button","276","469503","0.0-3.0-25.2-1.2","5be1030c2b1e7d000178d718","F1","batch6","","471","","","tol_toboard","","","","","","","","","tol_peg_3","471","471","0","[[3,0,0],[1,0],[2]]","3","[[1,0,0],[2,3],[0]]","5","0","","","","","","6","",""
"","","","","","single-stim-button","277","470032","0.0-3.0-25.3-0.3","5be1030c2b1e7d000178d718","F1","batch6","","528","","","tol_tohand","","","","","","","","","tol_peg_1","528","528","0","[[0,0,0],[1,0],[2]]","4","[[1,0,0],[2,3],[0]]","5","0","","","","","","6","",""
"","","","","","single-stim-button","278","470360","0.0-3.0-25.3-1.3","5be1030c2b1e7d000178d718","F1","batch6","","328","","","tol_toboard","","","","","","","","","tol_peg_2","328","328","0","[[0,0,0],[1,3],[2]]","4","[[1,0,0],[2,3],[0]]","5","0","","","","","","6","",""
"","","","","","single-stim-button","279","471096","0.0-3.0-25.4-0.4","5be1030c2b1e7d000178d718","F1","batch6","","736","","","tol_tohand","","","","","","","","","tol_peg_3","736","736","0","[[0,0,0],[1,3],[0]]","5","[[1,0,0],[2,3],[0]]","5","0","","","","","","6","",""
"","","","","","single-stim-button","280","471784","0.0-3.0-25.4-1.4","5be1030c2b1e7d000178d718","F1","batch6","","688","","","tol_toboard","","","","","","","","","tol_peg_1","688","688","0","[[2,0,0],[1,3],[0]]","5","[[1,0,0],[2,3],[0]]","5","0","","","","","","6","",""
"","","","","","single-stim-button","281","472376","0.0-3.0-25.5-0.5","5be1030c2b1e7d000178d718","F1","batch6","","591","","","tol_tohand","","","","","","","","","tol_peg_2","591","591","0","[[2,0,0],[1,0],[0]]","6","[[1,0,0],[2,3],[0]]","5","0","","","","","","6","",""
"","","","","","single-stim-button","282","472824","0.0-3.0-25.5-1.5","5be1030c2b1e7d000178d718","F1","batch6","","447","","","tol_toboard","","","","","","","","","tol_peg_1","447","447","0","[[2,3,0],[1,0],[0]]","6","[[1,0,0],[2,3],[0]]","5","0","","","","","","6","",""
"","","","","","single-stim-button","283","477936","0.0-3.0-25.6-0.6","5be1030c2b1e7d000178d718","F1","batch6","","5112","","","tol_tohand","","","","","","","","","tol_peg_2","5112","5112","0","[[2,3,0],[0,0],[0]]","7","[[1,0,0],[2,3],[0]]","5","0","","","","","","6","",""
"","","","","","single-stim-button","284","478568","0.0-3.0-25.6-1.6","5be1030c2b1e7d000178d718","F1","batch6","","632","","","tol_toboard","","","","","","","","","tol_peg_3","632","632","0","[[2,3,0],[0,0],[1]]","7","[[1,0,0],[2,3],[0]]","5","0","","","","","","6","",""
"","","","","","single-stim-button","285","480184","0.0-3.0-25.7-0.7","5be1030c2b1e7d000178d718","F1","batch6","","1616","","","tol_tohand","","","","","","","","","tol_peg_1","1616","1616","0","[[2,0,0],[0,0],[1]]","8","[[1,0,0],[2,3],[0]]","5","0","","","","","","6","",""
"","","","","","single-stim-button","286","480736","0.0-3.0-25.7-1.7","5be1030c2b1e7d000178d718","F1","batch6","","552","","","tol_toboard","","","","","","","","","tol_peg_2","552","552","0","[[2,0,0],[3,0],[1]]","8","[[1,0,0],[2,3],[0]]","5","0","","","","","","6","",""
"","","","","","single-stim-button","287","481289","0.0-3.0-25.8-0.8","5be1030c2b1e7d000178d718","F1","batch6","","553","","","tol_tohand","","","","","","","","","tol_peg_1","553","553","0","[[0,0,0],[3,0],[1]]","9","[[1,0,0],[2,3],[0]]","5","0","","","","","","6","",""
"","","","","","single-stim-button","288","481608","0.0-3.0-25.8-1.8","5be1030c2b1e7d000178d718","F1","batch6","","319","","","tol_toboard","","","","","","","","","tol_peg_2","319","319","0","[[0,0,0],[3,2],[1]]","9","[[1,0,0],[2,3],[0]]","5","0","","","","","","6","",""
"","","","","","single-stim-button","289","482240","0.0-3.0-25.9-0.9","5be1030c2b1e7d000178d718","F1","batch6","","631","","","tol_tohand","","","","","","","","","tol_peg_3","631","631","0","[[0,0,0],[3,2],[0]]","10","[[1,0,0],[2,3],[0]]","5","0","","","","","","6","",""
"","","","","","single-stim-button","290","482599","0.0-3.0-25.9-1.9","5be1030c2b1e7d000178d718","F1","batch6","","359","","","tol_toboard","","","","","","","","","tol_peg_1","359","359","0","[[1,0,0],[3,2],[0]]","10","[[1,0,0],[2,3],[0]]","5","0","","","","","","6","",""
"","","","","","single-stim-button","291","483016","0.0-3.0-25.10-0.10","5be1030c2b1e7d000178d718","F1","batch6","","416","","","tol_tohand","","","","","","","","","tol_peg_2","416","416","0","[[1,0,0],[3,0],[0]]","11","[[1,0,0],[2,3],[0]]","5","0","","","","","","6","",""
"","","","","","single-stim-button","292","483359","0.0-3.0-25.10-1.10","5be1030c2b1e7d000178d718","F1","batch6","","343","","","tol_toboard","","","","","","","","","tol_peg_1","343","343","0","[[1,2,0],[3,0],[0]]","11","[[1,0,0],[2,3],[0]]","5","0","","","","","","6","",""
"","","","","","single-stim-button","293","483799","0.0-3.0-25.11-0.11","5be1030c2b1e7d000178d718","F1","batch6","","439","","","tol_tohand","","","","","","","","","tol_peg_2","439","439","0","[[1,2,0],[0,0],[0]]","12","[[1,0,0],[2,3],[0]]","5","0","","","","","","6","",""
"","","","","","single-stim-button","294","484159","0.0-3.0-25.11-1.11","5be1030c2b1e7d000178d718","F1","batch6","","359","","","tol_toboard","","","","","","","","","tol_peg_3","359","359","0","[[1,2,0],[0,0],[3]]","12","[[1,0,0],[2,3],[0]]","5","0","","","","","","6","",""
"","","","","","single-stim-button","295","484799","0.0-3.0-25.12-0.12","5be1030c2b1e7d000178d718","F1","batch6","","639","","","tol_tohand","","","","","","","","","tol_peg_1","639","639","0","[[1,0,0],[0,0],[3]]","13","[[1,0,0],[2,3],[0]]","5","0","","","","","","6","",""
"","","","","","single-stim-button","296","485167","0.0-3.0-25.12-1.12","5be1030c2b1e7d000178d718","F1","batch6","","368","","","tol_toboard","","","","","","","","","tol_peg_2","368","368","0","[[1,0,0],[2,0],[3]]","13","[[1,0,0],[2,3],[0]]","5","0","","","","","","6","",""
"","","","","","single-stim-button","297","485615","0.0-3.0-25.13-0.13","5be1030c2b1e7d000178d718","F1","batch6","","447","","","tol_tohand","","","","","","","","","tol_peg_3","447","447","0","[[1,0,0],[2,0],[0]]","14","[[1,0,0],[2,3],[0]]","5","0","","","","","","6","",""
"","","","","","single-stim-button","298","486127","0.0-3.0-25.13-1.13","5be1030c2b1e7d000178d718","F1","batch6","","511","","","tol_toboard","","","","","","","","","tol_peg_2","511","511","0","[[1,0,0],[2,3],[0]]","14","[[1,0,0],[2,3],[0]]","5","0","","","","","","6","",""
"","","","","","poldrack-single-stim","299","487130","0.0-3.0-26.0","5be1030c2b1e7d000178d718","F1","batch6","","-1","","","tol_feedback","true","","","","","","","","","1000","1000","500","","","","","","-1","none","true","8431","20921","","",""
"","","","","","html-button-response","300","488079","0.0-3.0-27.0","5be1030c2b1e7d000178d718","F1","batch6","","948.1000000014901","<div class = centerbox><p class = center-block-text>problem <strong>7</strong> out of 25 problems</p></div>","0","tol_trial_num","","","","","","","","","","","","","","","","","","","","","","","","",""
"","","","","","single-stim-button","301","491455","0.0-3.0-28.0-0.0","5be1030c2b1e7d000178d718","F1","batch6","","3375","","","tol_tohand","","","","","","","","","tol_peg_1","3375","3375","0","[[2,0,0],[0,0],[3]]","1","[[1,2,0],[3,0],[0]]","6","0","","","","","","5","",""
"","","","","","single-stim-button","302","491919","0.0-3.0-28.0-1.0","5be1030c2b1e7d000178d718","F1","batch6","","464","","","tol_toboard","","","","","","","","","tol_peg_2","464","464","0","[[2,0,0],[1,0],[3]]","1","[[1,2,0],[3,0],[0]]","6","0","","","","","","5","",""
"","","","","","single-stim-button","303","492639","0.0-3.0-28.1-0.1","5be1030c2b1e7d000178d718","F1","batch6","","719","","","tol_tohand","","","","","","","","","tol_peg_1","719","719","0","[[0,0,0],[1,0],[3]]","2","[[1,2,0],[3,0],[0]]","6","0","","","","","","5","",""
"","","","","","single-stim-button","304","494424","0.0-3.0-28.1-1.1","5be1030c2b1e7d000178d718","F1","batch6","","1784","","","tol_toboard","","","","","","","","","tol_peg_1","1784","1784","0","[[2,0,0],[1,0],[3]]","2","[[1,2,0],[3,0],[0]]","6","0","","","","","","5","",""
"","","","","","single-stim-button","305","494863","0.0-3.0-28.2-0.2","5be1030c2b1e7d000178d718","F1","batch6","","438","","","tol_tohand","","","","","","","","","tol_peg_2","438","438","0","[[2,0,0],[0,0],[3]]","3","[[1,2,0],[3,0],[0]]","6","0","","","","","","5","",""
"","","","","","single-stim-button","306","495319","0.0-3.0-28.2-1.2","5be1030c2b1e7d000178d718","F1","batch6","","456","","","tol_toboard","","","","","","","","","tol_peg_1","456","456","0","[[2,1,0],[0,0],[3]]","3","[[1,2,0],[3,0],[0]]","6","0","","","","","","5","",""
"","","","","","single-stim-button","307","496023","0.0-3.0-28.3-0.3","5be1030c2b1e7d000178d718","F1","batch6","","703","","","tol_tohand","","","","","","","","","tol_peg_3","703","703","0","[[2,1,0],[0,0],[0]]","4","[[1,2,0],[3,0],[0]]","6","0","","","","","","5","",""
"","","","","","single-stim-button","308","496367","0.0-3.0-28.3-1.3","5be1030c2b1e7d000178d718","F1","batch6","","344","","","tol_toboard","","","","","","","","","tol_peg_2","344","344","0","[[2,1,0],[3,0],[0]]","4","[[1,2,0],[3,0],[0]]","6","0","","","","","","5","",""
"","","","","","single-stim-button","309","496807","0.0-3.0-28.4-0.4","5be1030c2b1e7d000178d718","F1","batch6","","439","","","tol_tohand","","","","","","","","","tol_peg_1","439","439","0","[[2,0,0],[3,0],[0]]","5","[[1,2,0],[3,0],[0]]","6","0","","","","","","5","",""
"","","","","","single-stim-button","310","497183","0.0-3.0-28.4-1.4","5be1030c2b1e7d000178d718","F1","batch6","","376","","","tol_toboard","","","","","","","","","tol_peg_2","376","376","0","[[2,0,0],[3,1],[0]]","5","[[1,2,0],[3,0],[0]]","6","0","","","","","","5","",""
"","","","","","single-stim-button","311","498199","0.0-3.0-28.5-0.5","5be1030c2b1e7d000178d718","F1","batch6","","1015","","","tol_tohand","","","","","","","","","tol_peg_1","1015","1015","0","[[0,0,0],[3,1],[0]]","6","[[1,2,0],[3,0],[0]]","6","0","","","","","","5","",""
"","","","","","single-stim-button","312","498703","0.0-3.0-28.5-1.5","5be1030c2b1e7d000178d718","F1","batch6","","504","","","tol_toboard","","","","","","","","","tol_peg_3","504","504","0","[[0,0,0],[3,1],[2]]","6","[[1,2,0],[3,0],[0]]","6","0","","","","","","5","",""
"","","","","","single-stim-button","313","499255","0.0-3.0-28.6-0.6","5be1030c2b1e7d000178d718","F1","batch6","","551","","","tol_tohand","","","","","","","","","tol_peg_2","551","551","0","[[0,0,0],[3,0],[2]]","7","[[1,2,0],[3,0],[0]]","6","0","","","","","","5","",""
"","","","","","single-stim-button","314","500375","0.0-3.0-28.6-1.6","5be1030c2b1e7d000178d718","F1","batch6","","1119","","","tol_toboard","","","","","","","","","tol_peg_1","1119","1119","0","[[1,0,0],[3,0],[2]]","7","[[1,2,0],[3,0],[0]]","6","0","","","","","","5","",""
"","","","","","single-stim-button","315","501143","0.0-3.0-28.7-0.7","5be1030c2b1e7d000178d718","F1","batch6","","767","","","tol_tohand","","","","","","","","","tol_peg_3","767","767","0","[[1,0,0],[3,0],[0]]","8","[[1,2,0],[3,0],[0]]","6","0","","","","","","5","",""
"","","","","","single-stim-button","316","501631","0.0-3.0-28.7-1.7","5be1030c2b1e7d000178d718","F1","batch6","","488","","","tol_toboard","","","","","","","","","tol_peg_1","488","488","0","[[1,2,0],[3,0],[0]]","8","[[1,2,0],[3,0],[0]]","6","0","","","","","","5","",""
"","","","","","poldrack-single-stim","317","502633","0.0-3.0-29.0","5be1030c2b1e7d000178d718","F1","batch6","","-1","","","tol_feedback","true","","","","","","","","","1000","1000","500","","","","","","-1","none","true","3375","8007","","",""
"","","","","","html-button-response","318","503303","0.0-3.0-30.0","5be1030c2b1e7d000178d718","F1","batch6","","668.5","<div class = centerbox><p class = center-block-text>problem <strong>8</strong> out of 25 problems</p></div>","0","tol_trial_num","","","","","","","","","","","","","","","","","","","","","","","","",""
"","","","","","single-stim-button","319","505735","0.0-3.0-31.0-0.0","5be1030c2b1e7d000178d718","F1","batch6","","2431","","","tol_tohand","","","","","","","","","tol_peg_3","2431","2431","0","[[0,0,0],[2,3],[0]]","1","[[1,2,0],[3,0],[0]]","7","0","","","","","","4","",""
"","","","","","single-stim-button","320","506143","0.0-3.0-31.0-1.0","5be1030c2b1e7d000178d718","F1","batch6","","408","","","tol_toboard","","","","","","","","","tol_peg_1","408","408","0","[[1,0,0],[2,3],[0]]","1","[[1,2,0],[3,0],[0]]","7","0","","","","","","4","",""
"","","","","","single-stim-button","321","506521","0.0-3.0-31.1-0.1","5be1030c2b1e7d000178d718","F1","batch6","","376","","","tol_tohand","","","","","","","","","tol_peg_2","376","376","0","[[1,0,0],[2,0],[0]]","2","[[1,2,0],[3,0],[0]]","7","0","","","","","","4","",""
"","","","","","single-stim-button","322","506903","0.0-3.0-31.1-1.1","5be1030c2b1e7d000178d718","F1","batch6","","382","","","tol_toboard","","","","","","","","","tol_peg_3","382","382","0","[[1,0,0],[2,0],[3]]","2","[[1,2,0],[3,0],[0]]","7","0","","","","","","4","",""
"","","","","","single-stim-button","323","507279","0.0-3.0-31.2-0.2","5be1030c2b1e7d000178d718","F1","batch6","","375","","","tol_tohand","","","","","","","","","tol_peg_2","375","375","0","[[1,0,0],[0,0],[3]]","3","[[1,2,0],[3,0],[0]]","7","0","","","","","","4","",""
"","","","","","single-stim-button","324","507671","0.0-3.0-31.2-1.2","5be1030c2b1e7d000178d718","F1","batch6","","391","","","tol_toboard","","","","","","","","","tol_peg_1","391","391","0","[[1,2,0],[0,0],[3]]","3","[[1,2,0],[3,0],[0]]","7","0","","","","","","4","",""
"","","","","","single-stim-button","325","508487","0.0-3.0-31.3-0.3","5be1030c2b1e7d000178d718","F1","batch6","","815","","","tol_tohand","","","","","","","","","tol_peg_3","815","815","0","[[1,2,0],[0,0],[0]]","4","[[1,2,0],[3,0],[0]]","7","0","","","","","","4","",""
"","","","","","single-stim-button","326","509175","0.0-3.0-31.3-1.3","5be1030c2b1e7d000178d718","F1","batch6","","687","","","tol_toboard","","","","","","","","","tol_peg_2","687","687","0","[[1,2,0],[3,0],[0]]","4","[[1,2,0],[3,0],[0]]","7","0","","","","","","4","",""
"","","","","","poldrack-single-stim","327","510177","0.0-3.0-32.0","5be1030c2b1e7d000178d718","F1","batch6","","-1","","","tol_feedback","true","","","","","","","","","1000","1000","500","","","","","","-1","none","true","2431","3997","","",""
"","","","","","html-button-response","328","510863","0.0-3.0-33.0","5be1030c2b1e7d000178d718","F1","batch6","","684.8999999985099","<div class = centerbox><p class = center-block-text>problem <strong>9</strong> out of 25 problems</p></div>","0","tol_trial_num","","","","","","","","","","","","","","","","","","","","","","","","",""
"","","","","","single-stim-button","329","517439","0.0-3.0-34.0-0.0","5be1030c2b1e7d000178d718","F1","batch6","","6575","","","tol_tohand","","","","","","","","","tol_peg_3","6575","6575","0","[[3,2,0],[0,0],[0]]","1","[[2,1,0],[3,0],[0]]","8","0","","","","","","6","",""
"","","","","","single-stim-button","330","517799","0.0-3.0-34.0-1.0","5be1030c2b1e7d000178d718","F1","batch6","","359","","","tol_toboard","","","","","","","","","tol_peg_2","359","359","0","[[3,2,0],[1,0],[0]]","1","[[2,1,0],[3,0],[0]]","8","0","","","","","","6","",""
"","","","","","single-stim-button","331","518479","0.0-3.0-34.1-0.1","5be1030c2b1e7d000178d718","F1","batch6","","680","","","tol_tohand","","","","","","","","","tol_peg_1","680","680","0","[[3,0,0],[1,0],[0]]","2","[[2,1,0],[3,0],[0]]","8","0","","","","","","6","",""
"","","","","","single-stim-button","332","519063","0.0-3.0-34.1-1.1","5be1030c2b1e7d000178d718","F1","batch6","","583","","","tol_toboard","","","","","","","","","tol_peg_2","583","583","0","[[3,0,0],[1,2],[0]]","2","[[2,1,0],[3,0],[0]]","8","0","","","","","","6","",""
"","","","","","single-stim-button","333","519519","0.0-3.0-34.2-0.2","5be1030c2b1e7d000178d718","F1","batch6","","456","","","tol_tohand","","","","","","","","","tol_peg_1","456","456","0","[[0,0,0],[1,2],[0]]","3","[[2,1,0],[3,0],[0]]","8","0","","","","","","6","",""
"","","","","","single-stim-button","334","519952","0.0-3.0-34.2-1.2","5be1030c2b1e7d000178d718","F1","batch6","","432","","","tol_toboard","","","","","","","","","tol_peg_3","432","432","0","[[0,0,0],[1,2],[3]]","3","[[2,1,0],[3,0],[0]]","8","0","","","","","","6","",""
"","","","","","single-stim-button","335","520335","0.0-3.0-34.3-0.3","5be1030c2b1e7d000178d718","F1","batch6","","382","","","tol_tohand","","","","","","","","","tol_peg_2","382","382","0","[[0,0,0],[1,0],[3]]","4","[[2,1,0],[3,0],[0]]","8","0","","","","","","6","",""
"","","","","","single-stim-button","336","520919","0.0-3.0-34.3-1.3","5be1030c2b1e7d000178d718","F1","batch6","","584","","","tol_toboard","","","","","","","","","tol_peg_1","584","584","0","[[2,0,0],[1,0],[3]]","4","[[2,1,0],[3,0],[0]]","8","0","","","","","","6","",""
"","","","","","single-stim-button","337","521319","0.0-3.0-34.4-0.4","5be1030c2b1e7d000178d718","F1","batch6","","399","","","tol_tohand","","","","","","","","","tol_peg_2","399","399","0","[[2,0,0],[0,0],[3]]","5","[[2,1,0],[3,0],[0]]","8","0","","","","","","6","",""
"","","","","","single-stim-button","338","521631","0.0-3.0-34.4-1.4","5be1030c2b1e7d000178d718","F1","batch6","","311","","","tol_toboard","","","","","","","","","tol_peg_1","311","311","0","[[2,1,0],[0,0],[3]]","5","[[2,1,0],[3,0],[0]]","8","0","","","","","","6","",""
"","","","","","single-stim-button","339","522047","0.0-3.0-34.5-0.5","5be1030c2b1e7d000178d718","F1","batch6","","415","","","tol_tohand","","","","","","","","","tol_peg_3","415","415","0","[[2,1,0],[0,0],[0]]","6","[[2,1,0],[3,0],[0]]","8","0","","","","","","6","",""
"","","","","","single-stim-button","340","522503","0.0-3.0-34.5-1.5","5be1030c2b1e7d000178d718","F1","batch6","","456","","","tol_toboard","","","","","","","","","tol_peg_2","456","456","0","[[2,1,0],[3,0],[0]]","6","[[2,1,0],[3,0],[0]]","8","0","","","","","","6","",""
"","","","","","poldrack-single-stim","341","523510","0.0-3.0-35.0","5be1030c2b1e7d000178d718","F1","batch6","","-1","","","tol_feedback","true","","","","","","","","","1000","1000","500","","","","","","-1","none","true","6575","8907","","",""
"","","","","","html-button-response","342","524239","0.0-3.0-36.0","5be1030c2b1e7d000178d718","F1","batch6","","728","<div class = centerbox><p class = center-block-text>problem <strong>10</strong> out of 25 problems</p></div>","0","tol_trial_num","","","","","","","","","","","","","","","","","","","","","","","","",""
"","","","","","single-stim-button","343","527055","0.0-3.0-37.0-0.0","5be1030c2b1e7d000178d718","F1","batch6","","2816","","","tol_tohand","","","","","","","","","tol_peg_3","2816","2816","0","[[3,0,0],[1,0],[0]]","1","[[3,0,0],[2,1],[0]]","9","0","","","","","","3","",""
"","","","","","single-stim-button","344","527623","0.0-3.0-37.0-1.0","5be1030c2b1e7d000178d718","F1","batch6","","567","","","tol_toboard","","","","","","","","","tol_peg_1","567","567","0","[[3,2,0],[1,0],[0]]","1","[[3,0,0],[2,1],[0]]","9","0","","","","","","3","",""
"","","","","","single-stim-button","345","528031","0.0-3.0-37.1-0.1","5be1030c2b1e7d000178d718","F1","batch6","","407","","","tol_tohand","","","","","","","","","tol_peg_2","407","407","0","[[3,2,0],[0,0],[0]]","2","[[3,0,0],[2,1],[0]]","9","0","","","","","","3","",""
"","","","","","single-stim-button","346","528631","0.0-3.0-37.1-1.1","5be1030c2b1e7d000178d718","F1","batch6","","599","","","tol_toboard","","","","","","","","","tol_peg_3","599","599","0","[[3,2,0],[0,0],[1]]","2","[[3,0,0],[2,1],[0]]","9","0","","","","","","3","",""
