"success","timeout","failed_images","failed_audio","failed_video","trial_type","trial_index","time_elapsed","internal_node_id","subject_id","study_id","session_id","view_history","rt","stimulus","response","task","correct","answer","item","fiar_detect_rt","fiar_detect_correct","total_correct_fiar_detect","post_trial_gap","choices","spm_correct","spm_rt","mouse_click","stim_duration","block_duration","timing_post_trial","current_position","tol_num_moves_made","tol_target","tol_problem_id","tol_rt","key_press","possible_responses","tol_correct","preplanning","tol_rt_per_trial","tol_min_moves"
"true","false","[]","[]","[]","preload","0","4819","0.0-0.0","5bf37a8017a7de0001cf7cb1","D2","batch4","","","","","","","","","","","","","","","","","","","","","","","","","","","","","",""
"true","","","","","fullscreen","1","11258","0.0-1.0-0.0","5bf37a8017a7de0001cf7cb1","D2","batch4","","","","","","","","","","","","","","","","","","","","","","","","","","","","","",""
"true","","","","","fullscreen","2","30521","0.0-2.0-0.0","5bf37a8017a7de0001cf7cb1","D2","batch4","","","","","","","","","","","","","","","","","","","","","","","","","","","","","",""
"","","","","","instructions","3","50229","0.0-2.0-1.0-0.0","5bf37a8017a7de0001cf7cb1","D2","batch4","[{""page_index"":0,""viewing_time"":14834},{""page_index"":1,""viewing_time"":4867.5}]","19703.39999999851","","","","","","","","","","","","","","","","","","","","","","","","","","","",""
"","","","","","html-button-response","4","51920","0.0-2.0-1.0-1.0-0.0","5bf37a8017a7de0001cf7cb1","D2","batch4","","1684.0999999996275","<p class=block-text> Let's answer a few questions <br>","0","pattern_enter_quiz","","","","","","","","","","","","","","","","","","","","","","","","",""
"","","","","","html-button-response","5","54248","0.0-2.0-1.0-1.0-1.0","5bf37a8017a7de0001cf7cb1","D2","batch4","","2321.5999999996275","<p class = block-text>True or False: You will have as much time as you want to make each choice. <br></p>","1","pattern_quiz","true","","","","","","","","","","","","","","","","","","","","","","","",""
"","","","","","html-button-response","6","55119","0.0-2.0-1.0-1.0-2.0","5bf37a8017a7de0001cf7cb1","D2","batch4","","862.5999999996275","<p class = block-text>Correct! You should make your choice <strong> as fast as you can</strong>.</p>","0","pattern_quiz_feedback","","","","","","","","","","","","","","","","","","","","","","","","",""
"","","","","","html-button-response","7","58021","0.0-2.0-1.0-1.0-3.0","5bf37a8017a7de0001cf7cb1","D2","batch4","","2896.5999999996275","<p class = block-text>True or False: You will look for 4 pieces in black or white color connected in a row either horizontally, vertically or diagonally. <br></p>","0","pattern_quiz","true","","","","","","","","","","","","","","","","","","","","","","","",""
"","","","","","html-button-response","8","58943","0.0-2.0-1.0-1.0-4.0","5bf37a8017a7de0001cf7cb1","D2","batch4","","915.5","<p class = block-text>Correct! </p>","0","pattern_quiz_feedback","","","","","","","","","","","","","","","","","","","","","","","","",""
"","","","","","html-button-response","9","60536","0.0-2.0-2.0","5bf37a8017a7de0001cf7cb1","D2","batch4","","1583.2999999988824","<p class=block-text> Now that you've understood the game, let's do a few practice trials before we start!<br> <br>","0","pattern_enter_practice","","","","","","","","","","","","","","","","","","","","","","","","",""
"","","","","","image-keyboard-response","10","61645","0.0-2.0-3.0-0.0","5bf37a8017a7de0001cf7cb1","D2","batch4","","1033.9000000003725","stim/prac_no_18_1.png","j","pattern_practice","true","j","","","","","","","","","","","","","","","","","","","","","","",""
"","","","","","html-keyboard-response","11","62659","0.0-2.0-3.0-1.0","5bf37a8017a7de0001cf7cb1","D2","batch4","","null","<p style=""font-size:30px;color:green;"">Correct!</p>","null","pattern_feedback","","","","","","","","","","","","","","","","","","","","","","","","",""
"","","","","","image-keyboard-response","12","63808","0.0-2.0-3.0-0.1","5bf37a8017a7de0001cf7cb1","D2","batch4","","1139.7999999988824","stim/prac_yes_20_dia_b1.png","j","pattern_practice","false","f","","","","","","","","","","","","","","","","","","","","","","",""
"","","","","","html-keyboard-response","13","64819","0.0-2.0-3.0-1.1","5bf37a8017a7de0001cf7cb1","D2","batch4","","null","<p style=""font-size:30px;color:red;"">Wrong.</p>","null","pattern_feedback","","","","","","","","","","","","","","","","","","","","","","","","",""
"","","","","","image-keyboard-response","14","65577","0.0-2.0-3.0-0.2","5bf37a8017a7de0001cf7cb1","D2","batch4","","751.2999999988824","stim/prac_yes_18_hor_w1.png","f","pattern_practice","true","f","","","","","","","","","","","","","","","","","","","","","","",""
"","","","","","html-keyboard-response","15","66587","0.0-2.0-3.0-1.2","5bf37a8017a7de0001cf7cb1","D2","batch4","","null","<p style=""font-size:30px;color:green;"">Correct!</p>","null","pattern_feedback","","","","","","","","","","","","","","","","","","","","","","","","",""
"","","","","","image-keyboard-response","16","67281","0.0-2.0-3.0-0.3","5bf37a8017a7de0001cf7cb1","D2","batch4","","686.3000000007451","stim/prac_yes_16_ver_w1.png","f","pattern_practice","true","f","","","","","","","","","","","","","","","","","","","","","","",""
"","","","","","html-keyboard-response","17","68292","0.0-2.0-3.0-1.3","5bf37a8017a7de0001cf7cb1","D2","batch4","","null","<p style=""font-size:30px;color:green;"">Correct!</p>","null","pattern_feedback","","","","","","","","","","","","","","","","","","","","","","","","",""
"","","","","","image-keyboard-response","18","69123","0.0-2.0-3.0-0.4","5bf37a8017a7de0001cf7cb1","D2","batch4","","823.2999999988824","stim/prac_no_16_1.png","j","pattern_practice","true","j","","","","","","","","","","","","","","","","","","","","","","",""
"","","","","","html-keyboard-response","19","70131","0.0-2.0-3.0-1.4","5bf37a8017a7de0001cf7cb1","D2","batch4","","null","<p style=""font-size:30px;color:green;"">Correct!</p>","null","pattern_feedback","","","","","","","","","","","","","","","","","","","","","","","","",""
"","","","","","html-button-response","20","72381","0.0-2.0-4.0","5bf37a8017a7de0001cf7cb1","D2","batch4","","2245","<p class=block-text> Good job! You are done with practice trials!<br>
        You responded correctly on 80% of the trials.<br>
        Press the button below to start official trials. Now you won't see any feedback about your response</p>","0","pattern_enter_official_trials","","","","","","","","","","","","","","","","","","","","","","","","",""
"","","","","","html-keyboard-response","21","73186","0.0-2.0-5.0-0.0","5bf37a8017a7de0001cf7cb1","D2","batch4","","null","<p class=block-text>Trial 1 out of 78</p>","null","pattern_show_trial_num","","","","","","","","","","","","","","","","","","","","","","","","",""
"","","","","","image-keyboard-response","22","75253","0.0-2.0-5.0-1.0","5bf37a8017a7de0001cf7cb1","D2","batch4","","2059.5","stim/no_37_2_w.png","j","pattern_response","true","j","pattern_19","2059.5","true","1","","","","","","","","","","","","","","","","","","",""
"","","","","","html-keyboard-response","23","76571","0.0-2.0-5.0-0.1","5bf37a8017a7de0001cf7cb1","D2","batch4","","null","<p class=block-text>Trial 2 out of 78</p>","null","pattern_show_trial_num","","","","","","","","","","","","","","","","","","","","","","","","",""
"","","","","","image-keyboard-response","24","77537","0.0-2.0-5.0-1.1","5bf37a8017a7de0001cf7cb1","D2","batch4","","958.7000000011176","stim/yes_36_ver_w1_w.png","f","pattern_response","true","f","pattern_58","958.7000000011176","true","2","","","","","","","","","","","","","","","","","","",""
"","","","","","html-keyboard-response","25","78851","0.0-2.0-5.0-0.2","5bf37a8017a7de0001cf7cb1","D2","batch4","","null","<p class=block-text>Trial 3 out of 78</p>","null","pattern_show_trial_num","","","","","","","","","","","","","","","","","","","","","","","","",""
"","","","","","image-keyboard-response","26","80676","0.0-2.0-5.0-1.2","5bf37a8017a7de0001cf7cb1","D2","batch4","","1817.300000000745","stim/no_53_1_b.png","f","pattern_response","false","j","pattern_33","1817.300000000745","false","2","","","","","","","","","","","","","","","","","","",""
"","","","","","html-keyboard-response","27","81986","0.0-2.0-5.0-0.3","5bf37a8017a7de0001cf7cb1","D2","batch4","","null","<p class=block-text>Trial 4 out of 78</p>","null","pattern_show_trial_num","","","","","","","","","","","","","","","","","","","","","","","","",""
"","","","","","image-keyboard-response","28","83101","0.0-2.0-5.0-1.3","5bf37a8017a7de0001cf7cb1","D2","batch4","","1107.5999999996275","stim/no_45_1_w.png","j","pattern_response","true","j","pattern_25","1107.5999999996275","true","3","","","","","","","","","","","","","","","","","","",""
"","","","","","html-keyboard-response","29","84419","0.0-2.0-5.0-0.4","5bf37a8017a7de0001cf7cb1","D2","batch4","","null","<p class=block-text>Trial 5 out of 78</p>","null","pattern_show_trial_num","","","","","","","","","","","","","","","","","","","","","","","","",""
"","","","","","image-keyboard-response","30","85757","0.0-2.0-5.0-1.4","5bf37a8017a7de0001cf7cb1","D2","batch4","","1329.199999999255","stim/no_51_1.png","j","pattern_response","true","j","pattern_31","1329.199999999255","true","4","","","","","","","","","","","","","","","","","","",""
"","","","","","html-keyboard-response","31","87074","0.0-2.0-5.0-0.5","5bf37a8017a7de0001cf7cb1","D2","batch4","","null","<p class=block-text>Trial 6 out of 78</p>","null","pattern_show_trial_num","","","","","","","","","","","","","","","","","","","","","","","","",""
"","","","","","image-keyboard-response","32","88432","0.0-2.0-5.0-1.5","5bf37a8017a7de0001cf7cb1","D2","batch4","","1351","stim/no_28_2.png","j","pattern_response","true","j","pattern_11","1351","true","5","","","","","","","","","","","","","","","","","","",""
"","","","","","html-keyboard-response","33","89746","0.0-2.0-5.0-0.6","5bf37a8017a7de0001cf7cb1","D2","batch4","","null","<p class=block-text>Trial 7 out of 78</p>","null","pattern_show_trial_num","","","","","","","","","","","","","","","","","","","","","","","","",""
"","","","","","image-keyboard-response","34","91174","0.0-2.0-5.0-1.6","5bf37a8017a7de0001cf7cb1","D2","batch4","","1419.9000000003725","stim/no_36_1_b.png","j","pattern_response","true","j","pattern_17","1419.9000000003725","true","6","","","","","","","","","","","","","","","","","","",""
"","","","","","html-keyboard-response","35","92490","0.0-2.0-5.0-0.7","5bf37a8017a7de0001cf7cb1","D2","batch4","","null","<p class=block-text>Trial 8 out of 78</p>","null","pattern_show_trial_num","","","","","","","","","","","","","","","","","","","","","","","","",""
"","","","","","image-keyboard-response","36","93130","0.0-2.0-5.0-1.7","5bf37a8017a7de0001cf7cb1","D2","batch4","","630.5","stim/yes_39_hor_w1_w.png","f","pattern_response","true","f","pattern_62","630.5","true","7","","","","","","","","","","","","","","","","","","",""
"","","","","","html-keyboard-response","37","94444","0.0-2.0-5.0-0.8","5bf37a8017a7de0001cf7cb1","D2","batch4","","null","<p class=block-text>Trial 9 out of 78</p>","null","pattern_show_trial_num","","","","","","","","","","","","","","","","","","","","","","","","",""
"","","","","","image-keyboard-response","38","96062","0.0-2.0-5.0-1.8","5bf37a8017a7de0001cf7cb1","D2","batch4","","1609","stim/yes_63_dia_b1.png","f","pattern_response","true","f","pattern_78","1609","true","8","","","","","","","","","","","","","","","","","","",""
"","","","","","html-keyboard-response","39","97379","0.0-2.0-5.0-0.9","5bf37a8017a7de0001cf7cb1","D2","batch4","","null","<p class=block-text>Trial 10 out of 78</p>","null","pattern_show_trial_num","","","","","","","","","","","","","","","","","","","","","","","","",""
"","","","","","image-keyboard-response","40","98017","0.0-2.0-5.0-1.9","5bf37a8017a7de0001cf7cb1","D2","batch4","","631.1000000014901","stim/yes_15_dia_b1u_b.png","f","pattern_response","true","f","pattern_44","631.1000000014901","true","9","","","","","","","","","","","","","","","","","","",""
"","","","","","html-keyboard-response","41","99330","0.0-2.0-5.0-0.10","5bf37a8017a7de0001cf7cb1","D2","batch4","","null","<p class=block-text>Trial 11 out of 78</p>","null","pattern_show_trial_num","","","","","","","","","","","","","","","","","","","","","","","","",""
"","","","","","image-keyboard-response","42","99970","0.0-2.0-5.0-1.10","5bf37a8017a7de0001cf7cb1","D2","batch4","","633.4000000003725","stim/yes_12_hor_w1_w.png","f","pattern_response","true","f","pattern_42","633.4000000003725","true","10","","","","","","","","","","","","","","","","","","",""
"","","","","","html-keyboard-response","43","101282","0.0-2.0-5.0-0.11","5bf37a8017a7de0001cf7cb1","D2","batch4","","null","<p class=block-text>Trial 12 out of 78</p>","null","pattern_show_trial_num","","","","","","","","","","","","","","","","","","","","","","","","",""
"","","","","","image-keyboard-response","44","102382","0.0-2.0-5.0-1.11","5bf37a8017a7de0001cf7cb1","D2","batch4","","1091.9000000003725","stim/no_39_1_w.png","j","pattern_response","true","j","pattern_21","1091.9000000003725","true","11","","","","","","","","","","","","","","","","","","",""
"","","","","","html-keyboard-response","45","103698","0.0-2.0-5.0-0.12","5bf37a8017a7de0001cf7cb1","D2","batch4","","null","<p class=block-text>Trial 13 out of 78</p>","null","pattern_show_trial_num","","","","","","","","","","","","","","","","","","","","","","","","",""
"","","","","","image-keyboard-response","46","105080","0.0-2.0-5.0-1.12","5bf37a8017a7de0001cf7cb1","D2","batch4","","1375.0999999996275","stim/yes_46_ver_b1_b.png","j","pattern_response","false","f","pattern_68","1375.0999999996275","false","11","","","","","","","","","","","","","","","","","","",""
"","","","","","html-keyboard-response","47","106394","0.0-2.0-5.0-0.13","5bf37a8017a7de0001cf7cb1","D2","batch4","","null","<p class=block-text>Trial 14 out of 78</p>","null","pattern_show_trial_num","","","","","","","","","","","","","","","","","","","","","","","","",""
"","","","","","image-keyboard-response","48","107418","0.0-2.0-5.0-1.13","5bf37a8017a7de0001cf7cb1","D2","batch4","","1015.3999999985099","stim/no_22_1_b.png","j","pattern_response","true","j","pattern_07","1015.3999999985099","true","12","","","","","","","","","","","","","","","","","","",""
"","","","","","html-keyboard-response","49","108731","0.0-2.0-5.0-0.14","5bf37a8017a7de0001cf7cb1","D2","batch4","","null","<p class=block-text>Trial 15 out of 78</p>","null","pattern_show_trial_num","","","","","","","","","","","","","","","","","","","","","","","","",""
"","","","","","image-keyboard-response","50","109696","0.0-2.0-5.0-1.14","5bf37a8017a7de0001cf7cb1","D2","batch4","","958.3000000007451","stim/yes_29_hor_b1_b.png","f","pattern_response","true","f","pattern_52","958.3000000007451","true","13","","","","","","","","","","","","","","","","","","",""
"","","","","","html-keyboard-response","51","111010","0.0-2.0-5.0-0.15","5bf37a8017a7de0001cf7cb1","D2","batch4","","null","<p class=block-text>Trial 16 out of 78</p>","null","pattern_show_trial_num","","","","","","","","","","","","","","","","","","","","","","","","",""
"","","","","","image-keyboard-response","52","111737","0.0-2.0-5.0-1.15","5bf37a8017a7de0001cf7cb1","D2","batch4","","719.2999999988824","stim/yes_37_hor_w1_w.png","f","pattern_response","true","f","pattern_60","719.2999999988824","true","14","","","","","","","","","","","","","","","","","","",""
"","","","","","html-keyboard-response","53","113050","0.0-2.0-5.0-0.16","5bf37a8017a7de0001cf7cb1","D2","batch4","","null","<p class=block-text>Trial 17 out of 78</p>","null","pattern_show_trial_num","","","","","","","","","","","","","","","","","","","","","","","","",""
"","","","","","image-keyboard-response","54","113996","0.0-2.0-5.0-1.16","5bf37a8017a7de0001cf7cb1","D2","batch4","","939","stim/yes_53_ver_b1_b.png","f","pattern_response","true","f","pattern_74","939","true","15","","","","","","","","","","","","","","","","","","",""
"","","","","","html-keyboard-response","55","115307","0.0-2.0-5.0-0.17","5bf37a8017a7de0001cf7cb1","D2","batch4","","null","<p class=block-text>Trial 18 out of 78</p>","null","pattern_show_trial_num","","","","","","","","","","","","","","","","","","","","","","","","",""
"","","","","","image-keyboard-response","56","116641","0.0-2.0-5.0-1.17","5bf37a8017a7de0001cf7cb1","D2","batch4","","1324.699999999255","stim/no_33_1_b.png","j","pattern_response","true","j","pattern_15","1324.699999999255","true","16","","","","","","","","","","","","","","","","","","",""
"","","","","","html-keyboard-response","57","117954","0.0-2.0-5.0-0.18","5bf37a8017a7de0001cf7cb1","D2","batch4","","null","<p class=block-text>Trial 19 out of 78</p>","null","pattern_show_trial_num","","","","","","","","","","","","","","","","","","","","","","","","",""
"","","","","","image-keyboard-response","58","119257","0.0-2.0-5.0-1.18","5bf37a8017a7de0001cf7cb1","D2","batch4","","1296.5","stim/yes_51_dia_b1.png","j","pattern_response","false","f","pattern_72","1296.5","false","16","","","","","","","","","","","","","","","","","","",""
"","","","","","html-keyboard-response","59","120569","0.0-2.0-5.0-0.19","5bf37a8017a7de0001cf7cb1","D2","batch4","","null","<p class=block-text>Trial 20 out of 78</p>","null","pattern_show_trial_num","","","","","","","","","","","","","","","","","","","","","","","","",""
"","","","","","image-keyboard-response","60","121221","0.0-2.0-5.0-1.19","5bf37a8017a7de0001cf7cb1","D2","batch4","","641.8000000007451","stim/no_12_1.png","j","pattern_response","true","j","pattern_01","641.8000000007451","true","17","","","","","","","","","","","","","","","","","","",""
"","","","","","html-keyboard-response","61","122538","0.0-2.0-5.0-0.20","5bf37a8017a7de0001cf7cb1","D2","batch4","","null","<p class=block-text>Trial 21 out of 78</p>","null","pattern_show_trial_num","","","","","","","","","","","","","","","","","","","","","","","","",""
"","","","","","image-keyboard-response","62","123274","0.0-2.0-5.0-1.20","5bf37a8017a7de0001cf7cb1","D2","batch4","","728.5","stim/yes_30_ver_b1_b.png","f","pattern_response","true","f","pattern_54","728.5","true","18","","","","","","","","","","","","","","","","","","",""
"","","","","","html-keyboard-response","63","124586","0.0-2.0-5.0-0.21","5bf37a8017a7de0001cf7cb1","D2","batch4","","null","<p class=block-text>Trial 22 out of 78</p>","null","pattern_show_trial_num","","","","","","","","","","","","","","","","","","","","","","","","",""
"","","","","","image-keyboard-response","64","125533","0.0-2.0-5.0-1.21","5bf37a8017a7de0001cf7cb1","D2","batch4","","940.3000000007451","stim/no_49_2_b.png","j","pattern_response","true","j","pattern_29","940.3000000007451","true","19","","","","","","","","","","","","","","","","","","",""
"","","","","","html-keyboard-response","65","126850","0.0-2.0-5.0-0.22","5bf37a8017a7de0001cf7cb1","D2","batch4","","null","<p class=block-text>Trial 23 out of 78</p>","null","pattern_show_trial_num","","","","","","","","","","","","","","","","","","","","","","","","",""
"","","","","","image-keyboard-response","66","127625","0.0-2.0-5.0-1.22","5bf37a8017a7de0001cf7cb1","D2","batch4","","768.1000000014901","stim/no_30_1_b.png","j","pattern_response","true","j","pattern_13","768.1000000014901","true","20","","","","","","","","","","","","","","","","","","",""
"","","","","","html-keyboard-response","67","128938","0.0-2.0-5.0-0.23","5bf37a8017a7de0001cf7cb1","D2","batch4","","null","<p class=block-text>Trial 24 out of 78</p>","null","pattern_show_trial_num","","","","","","","","","","","","","","","","","","","","","","","","",""
"","","","","","image-keyboard-response","68","130429","0.0-2.0-5.0-1.23","5bf37a8017a7de0001cf7cb1","D2","batch4","","1482.8999999985099","stim/yes_49_hor_w1_b.png","f","pattern_response","true","f","pattern_70","1482.8999999985099","true","21","","","","","","","","","","","","","","","","","","",""
"","","","","","html-keyboard-response","69","131738","0.0-2.0-5.0-0.24","5bf37a8017a7de0001cf7cb1","D2","batch4","","null","<p class=block-text>Trial 25 out of 78</p>","null","pattern_show_trial_num","","","","","","","","","","","","","","","","","","","","","","","","",""
"","","","","","image-keyboard-response","70","132975","0.0-2.0-5.0-1.24","5bf37a8017a7de0001cf7cb1","D2","batch4","","1229","stim/no_43_2_b.png","j","pattern_response","true","j","pattern_23","1229","true","22","","","","","","","","","","","","","","","","","","",""
"","","","","","html-keyboard-response","71","134289","0.0-2.0-5.0-0.25","5bf37a8017a7de0001cf7cb1","D2","batch4","","null","<p class=block-text>Trial 26 out of 78</p>","null","pattern_show_trial_num","","","","","","","","","","","","","","","","","","","","","","","","",""
"","","","","","image-keyboard-response","72","135352","0.0-2.0-5.0-1.25","5bf37a8017a7de0001cf7cb1","D2","batch4","","1052.9000000003725","stim/no_47_1_b.png","j","pattern_response","true","j","pattern_27","1052.9000000003725","true","23","","","","","","","","","","","","","","","","","","",""
"","","","","","html-keyboard-response","73","136665","0.0-2.0-5.0-0.26","5bf37a8017a7de0001cf7cb1","D2","batch4","","null","<p class=block-text>Trial 27 out of 78</p>","null","pattern_show_trial_num","","","","","","","","","","","","","","","","","","","","","","","","",""
"","","","","","image-keyboard-response","74","137341","0.0-2.0-5.0-1.26","5bf37a8017a7de0001cf7cb1","D2","batch4","","667.9000000003725","stim/no_18_1_b.png","j","pattern_response","true","j","pattern_05","667.9000000003725","true","24","","","","","","","","","","","","","","","","","","",""
"","","","","","html-keyboard-response","75","138657","0.0-2.0-5.0-0.27","5bf37a8017a7de0001cf7cb1","D2","batch4","","null","<p class=block-text>Trial 28 out of 78</p>","null","pattern_show_trial_num","","","","","","","","","","","","","","","","","","","","","","","","",""
"","","","","","image-keyboard-response","76","140574","0.0-2.0-5.0-1.27","5bf37a8017a7de0001cf7cb1","D2","batch4","","1909.3999999985099","stim/no_58_1_w.png","j","pattern_response","true","j","pattern_35","1909.3999999985099","true","25","","","","","","","","","","","","","","","","","","",""
"","","","","","html-keyboard-response","77","141890","0.0-2.0-5.0-0.28","5bf37a8017a7de0001cf7cb1","D2","batch4","","null","<p class=block-text>Trial 29 out of 78</p>","null","pattern_show_trial_num","","","","","","","","","","","","","","","","","","","","","","","","",""
"","","","","","image-keyboard-response","78","143589","0.0-2.0-5.0-1.28","5bf37a8017a7de0001cf7cb1","D2","batch4","","1692.0999999996275","stim/yes_42_dia_w1_w.png","j","pattern_response","false","f","pattern_64","1692.0999999996275","false","25","","","","","","","","","","","","","","","","","","",""
"","","","","","html-keyboard-response","79","144906","0.0-2.0-5.0-0.29","5bf37a8017a7de0001cf7cb1","D2","batch4","","null","<p class=block-text>Trial 30 out of 78</p>","null","pattern_show_trial_num","","","","","","","","","","","","","","","","","","","","","","","","",""
"","","","","","image-keyboard-response","80","145557","0.0-2.0-5.0-1.29","5bf37a8017a7de0001cf7cb1","D2","batch4","","641.8999999985099","stim/yes_17_ver_b1_b.png","f","pattern_response","true","f","pattern_46","641.8999999985099","true","26","","","","","","","","","","","","","","","","","","",""
"","","","","","html-keyboard-response","81","146866","0.0-2.0-5.0-0.30","5bf37a8017a7de0001cf7cb1","D2","batch4","","null","<p class=block-text>Trial 31 out of 78</p>","null","pattern_show_trial_num","","","","","","","","","","","","","","","","","","","","","","","","",""
"","","","","","image-keyboard-response","82","147532","0.0-2.0-5.0-1.30","5bf37a8017a7de0001cf7cb1","D2","batch4","","658.5999999996275","stim/no_15_1_w.png","j","pattern_response","true","j","pattern_03","658.5999999996275","true","27","","","","","","","","","","","","","","","","","","",""
"","","","","","html-keyboard-response","83","148842","0.0-2.0-5.0-0.31","5bf37a8017a7de0001cf7cb1","D2","batch4","","null","<p class=block-text>Trial 32 out of 78</p>","null","pattern_show_trial_num","","","","","","","","","","","","","","","","","","","","","","","","",""
"","","","","","image-keyboard-response","84","150416","0.0-2.0-5.0-1.31","5bf37a8017a7de0001cf7cb1","D2","batch4","","1567.300000000745","stim/yes_58_dia_w1_w.png","j","pattern_response","false","f","pattern_76","1567.300000000745","false","27","","","","","","","","","","","","","","","","","","",""
"","","","","","html-keyboard-response","85","151730","0.0-2.0-5.0-0.32","5bf37a8017a7de0001cf7cb1","D2","batch4","","null","<p class=block-text>Trial 33 out of 78</p>","null","pattern_show_trial_num","","","","","","","","","","","","","","","","","","","","","","","","",""
"","","","","","image-keyboard-response","86","154003","0.0-2.0-5.0-1.32","5bf37a8017a7de0001cf7cb1","D2","batch4","","2265.5999999996275","stim/no_67_1.png","j","pattern_response","true","j","pattern_39","2265.5999999996275","true","28","","","","","","","","","","","","","","","","","","",""
"","","","","","html-keyboard-response","87","155313","0.0-2.0-5.0-0.33","5bf37a8017a7de0001cf7cb1","D2","batch4","","null","<p class=block-text>Trial 34 out of 78</p>","null","pattern_show_trial_num","","","","","","","","","","","","","","","","","","","","","","","","",""
"","","","","","image-keyboard-response","88","156200","0.0-2.0-5.0-1.33","5bf37a8017a7de0001cf7cb1","D2","batch4","","877.1999999992549","stim/yes_33_dia_w1_w.png","f","pattern_response","true","f","pattern_56","877.1999999992549","true","29","","","","","","","","","","","","","","","","","","",""
"","","","","","html-keyboard-response","89","157514","0.0-2.0-5.0-0.34","5bf37a8017a7de0001cf7cb1","D2","batch4","","null","<p class=block-text>Trial 35 out of 78</p>","null","pattern_show_trial_num","","","","","","","","","","","","","","","","","","","","","","","","",""
"","","","","","image-keyboard-response","90","158418","0.0-2.0-5.0-1.34","5bf37a8017a7de0001cf7cb1","D2","batch4","","896.9000000003725","stim/yes_70_ver_b1.png","f","pattern_response","true","f","pattern_80","896.9000000003725","true","30","","","","","","","","","","","","","","","","","","",""
"","","","","","html-keyboard-response","91","159730","0.0-2.0-5.0-0.35","5bf37a8017a7de0001cf7cb1","D2","batch4","","null","<p class=block-text>Trial 36 out of 78</p>","null","pattern_show_trial_num","","","","","","","","","","","","","","","","","","","","","","","","",""
"","","","","","image-keyboard-response","92","160546","0.0-2.0-5.0-1.35","5bf37a8017a7de0001cf7cb1","D2","batch4","","809.1000000014901","stim/yes_23_ver_b1.png","f","pattern_response","true","f","pattern_48","809.1000000014901","true","31","","","","","","","","","","","","","","","","","","",""
"","","","","","html-keyboard-response","93","161858","0.0-2.0-5.0-0.36","5bf37a8017a7de0001cf7cb1","D2","batch4","","null","<p class=block-text>Trial 37 out of 78</p>","null","pattern_show_trial_num","","","","","","","","","","","","","","","","","","","","","","","","",""
"","","","","","image-keyboard-response","94","163184","0.0-2.0-5.0-1.36","5bf37a8017a7de0001cf7cb1","D2","batch4","","1318.3999999985099","stim/yes_26_dia_w2_w.png","f","pattern_response","true","f","pattern_50","1318.3999999985099","true","32","","","","","","","","","","","","","","","","","","",""
"","","","","","html-keyboard-response","95","164497","0.0-2.0-5.0-0.37","5bf37a8017a7de0001cf7cb1","D2","batch4","","null","<p class=block-text>Trial 38 out of 78</p>","null","pattern_show_trial_num","","","","","","","","","","","","","","","","","","","","","","","","",""
"","","","","","image-keyboard-response","96","165483","0.0-2.0-5.0-1.37","5bf37a8017a7de0001cf7cb1","D2","batch4","","976.5","stim/yes_44_ver_w1_w.png","f","pattern_response","true","f","pattern_66","976.5","true","33","","","","","","","","","","","","","","","","","","",""
"","","","","","html-keyboard-response","97","166794","0.0-2.0-5.0-0.38","5bf37a8017a7de0001cf7cb1","D2","batch4","","null","<p class=block-text>Trial 39 out of 78</p>","null","pattern_show_trial_num","","","","","","","","","","","","","","","","","","","","","","","","",""
"","","","","","image-keyboard-response","98","167657","0.0-2.0-5.0-1.38","5bf37a8017a7de0001cf7cb1","D2","batch4","","856.4000000003725","stim/no_25_1_b.png","j","pattern_response","true","j","pattern_09","856.4000000003725","true","34","","","","","","","","","","","","","","","","","","",""
"","","","","","image-keyboard-response","99","171296","0.0-2.0-6.0","5bf37a8017a7de0001cf7cb1","D2","batch4","","3128.39999999851","stim/empty_board.png","j","attention_check","true","j","","","","","500","[""f"",""j""]","","","","","","","","","","","","","","","","",""
"","","","","","html-keyboard-response","100","172106","0.0-2.0-7.0-0.0","5bf37a8017a7de0001cf7cb1","D2","batch4","","null","<p class=block-text>Trial 40 out of 78</p>","null","pattern_show_trial_num","","","","","","","","","","","","","","","","","","","","","","","","",""
"","","","","","image-keyboard-response","101","175112","0.0-2.0-7.0-1.0","5bf37a8017a7de0001cf7cb1","D2","batch4","","2995.60000000149","stim/no_44_1.png","j","pattern_response","true","j","pattern_24","2995.60000000149","true","35","","","","","","","","","","","","","","","","","","",""
"","","","","","html-keyboard-response","102","176426","0.0-2.0-7.0-0.1","5bf37a8017a7de0001cf7cb1","D2","batch4","","null","<p class=block-text>Trial 41 out of 78</p>","null","pattern_show_trial_num","","","","","","","","","","","","","","","","","","","","","","","","",""
"","","","","","image-keyboard-response","103","178338","0.0-2.0-7.0-1.1","5bf37a8017a7de0001cf7cb1","D2","batch4","","1902.800000000745","stim/no_50_1.png","j","pattern_response","true","j","pattern_30","1902.800000000745","true","36","","","","","","","","","","","","","","","","","","",""
"","","","","","html-keyboard-response","104","179650","0.0-2.0-7.0-0.2","5bf37a8017a7de0001cf7cb1","D2","batch4","","null","<p class=block-text>Trial 42 out of 78</p>","null","pattern_show_trial_num","","","","","","","","","","","","","","","","","","","","","","","","",""
"","","","","","image-keyboard-response","105","180336","0.0-2.0-7.0-1.2","5bf37a8017a7de0001cf7cb1","D2","batch4","","679","stim/yes_43_ver_w1_w.png","f","pattern_response","true","f","pattern_65","679","true","37","","","","","","","","","","","","","","","","","","",""
"","","","","","html-keyboard-response","106","181650","0.0-2.0-7.0-0.3","5bf37a8017a7de0001cf7cb1","D2","batch4","","null","<p class=block-text>Trial 43 out of 78</p>","null","pattern_show_trial_num","","","","","","","","","","","","","","","","","","","","","","","","",""
"","","","","","image-keyboard-response","107","183036","0.0-2.0-7.0-1.3","5bf37a8017a7de0001cf7cb1","D2","batch4","","1378.6000000014901","stim/yes_31_hor_b1.png","f","pattern_response","true","f","pattern_55","1378.6000000014901","true","38","","","","","","","","","","","","","","","","","","",""
"","","","","","html-keyboard-response","108","184346","0.0-2.0-7.0-0.4","5bf37a8017a7de0001cf7cb1","D2","batch4","","null","<p class=block-text>Trial 44 out of 78</p>","null","pattern_show_trial_num","","","","","","","","","","","","","","","","","","","","","","","","",""
"","","","","","image-keyboard-response","109","185732","0.0-2.0-7.0-1.4","5bf37a8017a7de0001cf7cb1","D2","batch4","","1378.199999999255","stim/yes_38_hor_b1_b.png","f","pattern_response","true","f","pattern_61","1378.199999999255","true","39","","","","","","","","","","","","","","","","","","",""
"","","","","","html-keyboard-response","110","187043","0.0-2.0-7.0-0.5","5bf37a8017a7de0001cf7cb1","D2","batch4","","null","<p class=block-text>Trial 45 out of 78</p>","null","pattern_show_trial_num","","","","","","","","","","","","","","","","","","","","","","","","",""
"","","","","","image-keyboard-response","111","188244","0.0-2.0-7.0-1.5","5bf37a8017a7de0001cf7cb1","D2","batch4","","1192.5","stim/no_34_1_b.png","j","pattern_response","true","j","pattern_16","1192.5","true","40","","","","","","","","","","","","","","","","","","",""
"","","","","","html-keyboard-response","112","189555","0.0-2.0-7.0-0.6","5bf37a8017a7de0001cf7cb1","D2","batch4","","null","<p class=block-text>Trial 46 out of 78</p>","null","pattern_show_trial_num","","","","","","","","","","","","","","","","","","","","","","","","",""
"","","","","","image-keyboard-response","113","190807","0.0-2.0-7.0-1.6","5bf37a8017a7de0001cf7cb1","D2","batch4","","1245","stim/no_29_1_b.png","j","pattern_response","true","j","pattern_12","1245","true","41","","","","","","","","","","","","","","","","","","",""
"","","","","","html-keyboard-response","114","192122","0.0-2.0-7.0-0.7","5bf37a8017a7de0001cf7cb1","D2","batch4","","null","<p class=block-text>Trial 47 out of 78</p>","null","pattern_show_trial_num","","","","","","","","","","","","","","","","","","","","","","","","",""
"","","","","","image-keyboard-response","115","193875","0.0-2.0-7.0-1.7","5bf37a8017a7de0001cf7cb1","D2","batch4","","1744.9000000003725","stim/no_38_1_b.png","j","pattern_response","true","j","pattern_20","1744.9000000003725","true","42","","","","","","","","","","","","","","","","","","",""
"","","","","","html-keyboard-response","116","195187","0.0-2.0-7.0-0.8","5bf37a8017a7de0001cf7cb1","D2","batch4","","null","<p class=block-text>Trial 48 out of 78</p>","null","pattern_show_trial_num","","","","","","","","","","","","","","","","","","","","","","","","",""
"","","","","","image-keyboard-response","117","196042","0.0-2.0-7.0-1.8","5bf37a8017a7de0001cf7cb1","D2","batch4","","843.5999999996275","stim/no_17_1_w.png","j","pattern_response","true","j","pattern_04","843.5999999996275","true","43","","","","","","","","","","","","","","","","","","",""
"","","","","","html-keyboard-response","118","197355","0.0-2.0-7.0-0.9","5bf37a8017a7de0001cf7cb1","D2","batch4","","null","<p class=block-text>Trial 49 out of 78</p>","null","pattern_show_trial_num","","","","","","","","","","","","","","","","","","","","","","","","",""
"","","","","","image-keyboard-response","119","197994","0.0-2.0-7.0-1.9","5bf37a8017a7de0001cf7cb1","D2","batch4","","631.7999999988824","stim/yes_28_ver_b1.png","f","pattern_response","true","f","pattern_51","631.7999999988824","true","44","","","","","","","","","","","","","","","","","","",""
"","","","","","html-keyboard-response","120","199307","0.0-2.0-7.0-0.10","5bf37a8017a7de0001cf7cb1","D2","batch4","","null","<p class=block-text>Trial 50 out of 78</p>","null","pattern_show_trial_num","","","","","","","","","","","","","","","","","","","","","","","","",""
"","","","","","image-keyboard-response","121","200134","0.0-2.0-7.0-1.10","5bf37a8017a7de0001cf7cb1","D2","batch4","","817.6999999992549","stim/yes_55_hor_w1_w.png","f","pattern_response","true","f","pattern_75","817.6999999992549","true","45","","","","","","","","","","","","","","","","","","",""
"","","","","","html-keyboard-response","122","201451","0.0-2.0-7.0-0.11","5bf37a8017a7de0001cf7cb1","D2","batch4","","null","<p class=block-text>Trial 51 out of 78</p>","null","pattern_show_trial_num","","","","","","","","","","","","","","","","","","","","","","","","",""
"","","","","","image-keyboard-response","123","202676","0.0-2.0-7.0-1.11","5bf37a8017a7de0001cf7cb1","D2","batch4","","1217.5999999996275","stim/no_26_1_w.png","j","pattern_response","true","j","pattern_10","1217.5999999996275","true","46","","","","","","","","","","","","","","","","","","",""
"","","","","","html-keyboard-response","124","203987","0.0-2.0-7.0-0.12","5bf37a8017a7de0001cf7cb1","D2","batch4","","null","<p class=block-text>Trial 52 out of 78</p>","null","pattern_show_trial_num","","","","","","","","","","","","","","","","","","","","","","","","",""
"","","","","","image-keyboard-response","125","205120","0.0-2.0-7.0-1.12","5bf37a8017a7de0001cf7cb1","D2","batch4","","1125.5","stim/no_36_2_w.png","f","pattern_response","false","j","pattern_18","1125.5","false","46","","","","","","","","","","","","","","","","","","",""
"","","","","","html-keyboard-response","126","206434","0.0-2.0-7.0-0.13","5bf37a8017a7de0001cf7cb1","D2","batch4","","null","<p class=block-text>Trial 53 out of 78</p>","null","pattern_show_trial_num","","","","","","","","","","","","","","","","","","","","","","","","",""
"","","","","","image-keyboard-response","127","208964","0.0-2.0-7.0-1.13","5bf37a8017a7de0001cf7cb1","D2","batch4","","2523.199999999255","stim/no_48_1_w.png","j","pattern_response","true","j","pattern_28","2523.199999999255","true","47","","","","","","","","","","","","","","","","","","",""
"","","","","","html-keyboard-response","128","210274","0.0-2.0-7.0-0.14","5bf37a8017a7de0001cf7cb1","D2","batch4","","null","<p class=block-text>Trial 54 out of 78</p>","null","pattern_show_trial_num","","","","","","","","","","","","","","","","","","","","","","","","",""
"","","","","","image-keyboard-response","129","211302","0.0-2.0-7.0-1.14","5bf37a8017a7de0001cf7cb1","D2","batch4","","1018.7999999988824","stim/yes_45_hor_b2_b.png","f","pattern_response","true","f","pattern_67","1018.7999999988824","true","48","","","","","","","","","","","","","","","","","","",""
"","","","","","html-keyboard-response","130","212619","0.0-2.0-7.0-0.15","5bf37a8017a7de0001cf7cb1","D2","batch4","","null","<p class=block-text>Trial 55 out of 78</p>","null","pattern_show_trial_num","","","","","","","","","","","","","","","","","","","","","","","","",""
"","","","","","image-keyboard-response","131","214299","0.0-2.0-7.0-1.15","5bf37a8017a7de0001cf7cb1","D2","batch4","","1670.800000000745","stim/yes_37_dia_w1.png","f","pattern_response","true","f","pattern_59","1670.800000000745","true","49","","","","","","","","","","","","","","","","","","",""
"","","","","","html-keyboard-response","132","215611","0.0-2.0-7.0-0.16","5bf37a8017a7de0001cf7cb1","D2","batch4","","null","<p class=block-text>Trial 56 out of 78</p>","null","pattern_show_trial_num","","","","","","","","","","","","","","","","","","","","","","","","",""
"","","","","","image-keyboard-response","133","216681","0.0-2.0-7.0-1.16","5bf37a8017a7de0001cf7cb1","D2","batch4","","1063.4000000003725","stim/no_20_1_w.png","j","pattern_response","true","j","pattern_06","1063.4000000003725","true","50","","","","","","","","","","","","","","","","","","",""
"","","","","","html-keyboard-response","134","217995","0.0-2.0-7.0-0.17","5bf37a8017a7de0001cf7cb1","D2","batch4","","null","<p class=block-text>Trial 57 out of 78</p>","null","pattern_show_trial_num","","","","","","","","","","","","","","","","","","","","","","","","",""
"","","","","","image-keyboard-response","135","218804","0.0-2.0-7.0-1.17","5bf37a8017a7de0001cf7cb1","D2","batch4","","802.5999999996275","stim/yes_60_ver_b1_b.png","f","pattern_response","true","f","pattern_77","802.5999999996275","true","51","","","","","","","","","","","","","","","","","","",""
"","","","","","html-keyboard-response","136","220115","0.0-2.0-7.0-0.18","5bf37a8017a7de0001cf7cb1","D2","batch4","","null","<p class=block-text>Trial 58 out of 78</p>","null","pattern_show_trial_num","","","","","","","","","","","","","","","","","","","","","","","","",""
"","","","","","image-keyboard-response","137","222851","0.0-2.0-7.0-1.18","5bf37a8017a7de0001cf7cb1","D2","batch4","","2729.5","stim/no_42_1_w.png","j","pattern_response","true","j","pattern_22","2729.5","true","52","","","","","","","","","","","","","","","","","","",""
"","","","","","html-keyboard-response","138","224163","0.0-2.0-7.0-0.19","5bf37a8017a7de0001cf7cb1","D2","batch4","","null","<p class=block-text>Trial 59 out of 78</p>","null","pattern_show_trial_num","","","","","","","","","","","","","","","","","","","","","","","","",""
"","","","","","image-keyboard-response","139","225158","0.0-2.0-7.0-1.19","5bf37a8017a7de0001cf7cb1","D2","batch4","","986","stim/no_32_1_w.png","j","pattern_response","true","j","pattern_14","986","true","53","","","","","","","","","","","","","","","","","","",""
"","","","","","html-keyboard-response","140","226474","0.0-2.0-7.0-0.20","5bf37a8017a7de0001cf7cb1","D2","batch4","","null","<p class=block-text>Trial 60 out of 78</p>","null","pattern_show_trial_num","","","","","","","","","","","","","","","","","","","","","","","","",""
"","","","","","image-keyboard-response","141","227168","0.0-2.0-7.0-1.20","5bf37a8017a7de0001cf7cb1","D2","batch4","","686.5999999996275","stim/yes_17_dia_w1.png","f","pattern_response","true","f","pattern_45","686.5999999996275","true","54","","","","","","","","","","","","","","","","","","",""
"","","","","","html-keyboard-response","142","228483","0.0-2.0-7.0-0.21","5bf37a8017a7de0001cf7cb1","D2","batch4","","null","<p class=block-text>Trial 61 out of 78</p>","null","pattern_show_trial_num","","","","","","","","","","","","","","","","","","","","","","","","",""
"","","","","","image-keyboard-response","143","229464","0.0-2.0-7.0-1.21","5bf37a8017a7de0001cf7cb1","D2","batch4","","974","stim/yes_52_ver_w1.png","f","pattern_response","true","f","pattern_73","974","true","55","","","","","","","","","","","","","","","","","","",""
"","","","","","html-keyboard-response","144","230778","0.0-2.0-7.0-0.22","5bf37a8017a7de0001cf7cb1","D2","batch4","","null","<p class=block-text>Trial 62 out of 78</p>","null","pattern_show_trial_num","","","","","","","","","","","","","","","","","","","","","","","","",""
"","","","","","image-keyboard-response","145","231413","0.0-2.0-7.0-1.22","5bf37a8017a7de0001cf7cb1","D2","batch4","","626.2999999988824","stim/yes_14_hor_b1_w.png","f","pattern_response","true","f","pattern_43","626.2999999988824","true","56","","","","","","","","","","","","","","","","","","",""
"","","","","","html-keyboard-response","146","232730","0.0-2.0-7.0-0.23","5bf37a8017a7de0001cf7cb1","D2","batch4","","null","<p class=block-text>Trial 63 out of 78</p>","null","pattern_show_trial_num","","","","","","","","","","","","","","","","","","","","","","","","",""
"","","","","","image-keyboard-response","147","233391","0.0-2.0-7.0-1.23","5bf37a8017a7de0001cf7cb1","D2","batch4","","653.8000000007451","stim/yes_22_ver_w1.png","f","pattern_response","true","f","pattern_47","653.8000000007451","true","57","","","","","","","","","","","","","","","","","","",""
"","","","","","html-keyboard-response","148","234706","0.0-2.0-7.0-0.24","5bf37a8017a7de0001cf7cb1","D2","batch4","","null","<p class=block-text>Trial 64 out of 78</p>","null","pattern_show_trial_num","","","","","","","","","","","","","","","","","","","","","","","","",""
"","","","","","image-keyboard-response","149","237103","0.0-2.0-7.0-1.24","5bf37a8017a7de0001cf7cb1","D2","batch4","","2389.9000000003725","stim/no_52_1.png","j","pattern_response","true","j","pattern_32","2389.9000000003725","true","58","","","","","","","","","","","","","","","","","","",""
"","","","","","html-keyboard-response","150","238418","0.0-2.0-7.0-0.25","5bf37a8017a7de0001cf7cb1","D2","batch4","","null","<p class=block-text>Trial 65 out of 78</p>","null","pattern_show_trial_num","","","","","","","","","","","","","","","","","","","","","","","","",""
"","","","","","image-keyboard-response","151","241605","0.0-2.0-7.0-1.25","5bf37a8017a7de0001cf7cb1","D2","batch4","","3179.800000000745","stim/no_62_1_w.png","j","pattern_response","true","j","pattern_36","3179.800000000745","true","59","","","","","","","","","","","","","","","","","","",""
"","","","","","html-keyboard-response","152","242915","0.0-2.0-7.0-0.26","5bf37a8017a7de0001cf7cb1","D2","batch4","","null","<p class=block-text>Trial 66 out of 78</p>","null","pattern_show_trial_num","","","","","","","","","","","","","","","","","","","","","","","","",""
"","","","","","image-keyboard-response","153","244363","0.0-2.0-7.0-1.26","5bf37a8017a7de0001cf7cb1","D2","batch4","","1439","stim/no_55_1_w.png","j","pattern_response","true","j","pattern_34","1439","true","60","","","","","","","","","","","","","","","","","","",""
"","","","","","html-keyboard-response","154","245675","0.0-2.0-7.0-0.27","5bf37a8017a7de0001cf7cb1","D2","batch4","","null","<p class=block-text>Trial 67 out of 78</p>","null","pattern_show_trial_num","","","","","","","","","","","","","","","","","","","","","","","","",""
"","","","","","image-keyboard-response","155","247306","0.0-2.0-7.0-1.27","5bf37a8017a7de0001cf7cb1","D2","batch4","","1624","stim/yes_29_ver_w1.png","f","pattern_response","true","f","pattern_53","1624","true","61","","","","","","","","","","","","","","","","","","",""
"","","","","","html-keyboard-response","156","248618","0.0-2.0-7.0-0.28","5bf37a8017a7de0001cf7cb1","D2","batch4","","null","<p class=block-text>Trial 68 out of 78</p>","null","pattern_show_trial_num","","","","","","","","","","","","","","","","","","","","","","","","",""
"","","","","","image-keyboard-response","157","250079","0.0-2.0-7.0-1.28","5bf37a8017a7de0001cf7cb1","D2","batch4","","1453.699999999255","stim/yes_67_hor_b1.png","f","pattern_response","true","f","pattern_79","1453.699999999255","true","62","","","","","","","","","","","","","","","","","","",""
"","","","","","html-keyboard-response","158","251394","0.0-2.0-7.0-0.29","5bf37a8017a7de0001cf7cb1","D2","batch4","","null","<p class=block-text>Trial 69 out of 78</p>","null","pattern_show_trial_num","","","","","","","","","","","","","","","","","","","","","","","","",""
"","","","","","image-keyboard-response","159","253066","0.0-2.0-7.0-1.29","5bf37a8017a7de0001cf7cb1","D2","batch4","","1663.199999999255","stim/yes_48_dia_w1_w.png","f","pattern_response","true","f","pattern_69","1663.199999999255","true","63","","","","","","","","","","","","","","","","","","",""
"","","","","","html-keyboard-response","160","254378","0.0-2.0-7.0-0.30","5bf37a8017a7de0001cf7cb1","D2","batch4","","null","<p class=block-text>Trial 70 out of 78</p>","null","pattern_show_trial_num","","","","","","","","","","","","","","","","","","","","","","","","",""
"","","","","","image-keyboard-response","161","255490","0.0-2.0-7.0-1.30","5bf37a8017a7de0001cf7cb1","D2","batch4","","1105.2000000011176","stim/yes_25_hor_b1_b.png","f","pattern_response","true","f","pattern_49","1105.2000000011176","true","64","","","","","","","","","","","","","","","","","","",""
"","","","","","html-keyboard-response","162","256802","0.0-2.0-7.0-0.31","5bf37a8017a7de0001cf7cb1","D2","batch4","","null","<p class=block-text>Trial 71 out of 78</p>","null","pattern_show_trial_num","","","","","","","","","","","","","","","","","","","","","","","","",""
"","","","","","image-keyboard-response","163","258845","0.0-2.0-7.0-1.31","5bf37a8017a7de0001cf7cb1","D2","batch4","","2036.5","stim/no_70_2.png","j","pattern_response","true","j","pattern_40","2036.5","true","65","","","","","","","","","","","","","","","","","","",""
"","","","","","html-keyboard-response","164","260155","0.0-2.0-7.0-0.32","5bf37a8017a7de0001cf7cb1","D2","batch4","","null","<p class=block-text>Trial 72 out of 78</p>","null","pattern_show_trial_num","","","","","","","","","","","","","","","","","","","","","","","","",""
"","","","","","image-keyboard-response","165","260969","0.0-2.0-7.0-1.32","5bf37a8017a7de0001cf7cb1","D2","batch4","","806.9000000003725","stim/no_13_2_b.png","j","pattern_response","true","j","pattern_02","806.9000000003725","true","66","","","","","","","","","","","","","","","","","","",""
"","","","","","html-keyboard-response","166","262283","0.0-2.0-7.0-0.33","5bf37a8017a7de0001cf7cb1","D2","batch4","","null","<p class=block-text>Trial 73 out of 78</p>","null","pattern_show_trial_num","","","","","","","","","","","","","","","","","","","","","","","","",""
"","","","","","image-keyboard-response","167","263486","0.0-2.0-7.0-1.33","5bf37a8017a7de0001cf7cb1","D2","batch4","","1196","stim/yes_50_dia_w1.png","j","pattern_response","false","f","pattern_71","1196","false","66","","","","","","","","","","","","","","","","","","",""
"","","","","","html-keyboard-response","168","264803","0.0-2.0-7.0-0.34","5bf37a8017a7de0001cf7cb1","D2","batch4","","null","<p class=block-text>Trial 74 out of 78</p>","null","pattern_show_trial_num","","","","","","","","","","","","","","","","","","","","","","","","",""
"","","","","","image-keyboard-response","169","265960","0.0-2.0-7.0-1.34","5bf37a8017a7de0001cf7cb1","D2","batch4","","1148.2999999988824","stim/yes_35_dia_b1.png","j","pattern_response","false","f","pattern_57","1148.2999999988824","false","66","","","","","","","","","","","","","","","","","","",""
"","","","","","html-keyboard-response","170","267275","0.0-2.0-7.0-0.35","5bf37a8017a7de0001cf7cb1","D2","batch4","","null","<p class=block-text>Trial 75 out of 78</p>","null","pattern_show_trial_num","","","","","","","","","","","","","","","","","","","","","","","","",""
"","","","","","image-keyboard-response","171","269034","0.0-2.0-7.0-1.35","5bf37a8017a7de0001cf7cb1","D2","batch4","","1752.5999999996275","stim/yes_40_dia_b1_b.png","j","pattern_response","false","f","pattern_63","1752.5999999996275","false","66","","","","","","","","","","","","","","","","","","",""
"","","","","","html-keyboard-response","172","270346","0.0-2.0-7.0-0.36","5bf37a8017a7de0001cf7cb1","D2","batch4","","null","<p class=block-text>Trial 76 out of 78</p>","null","pattern_show_trial_num","","","","","","","","","","","","","","","","","","","","","","","","",""
"","","","","","image-keyboard-response","173","271932","0.0-2.0-7.0-1.36","5bf37a8017a7de0001cf7cb1","D2","batch4","","1579.300000000745","stim/no_46_1_b.png","j","pattern_response","true","j","pattern_26","1579.300000000745","true","67","","","","","","","","","","","","","","","","","","",""
"","","","","","html-keyboard-response","174","273242","0.0-2.0-7.0-0.37","5bf37a8017a7de0001cf7cb1","D2","batch4","","null","<p class=block-text>Trial 77 out of 78</p>","null","pattern_show_trial_num","","","","","","","","","","","","","","","","","","","","","","","","",""
"","","","","","image-keyboard-response","175","275437","0.0-2.0-7.0-1.37","5bf37a8017a7de0001cf7cb1","D2","batch4","","2186.10000000149","stim/no_65_1_b.png","j","pattern_response","true","j","pattern_38","2186.10000000149","true","68","","","","","","","","","","","","","","","","","","",""
"","","","","","html-keyboard-response","176","276754","0.0-2.0-7.0-0.38","5bf37a8017a7de0001cf7cb1","D2","batch4","","null","<p class=block-text>Trial 78 out of 78</p>","null","pattern_show_trial_num","","","","","","","","","","","","","","","","","","","","","","","","",""
"","","","","","image-keyboard-response","177","277899","0.0-2.0-7.0-1.38","5bf37a8017a7de0001cf7cb1","D2","batch4","","1137.1000000014901","stim/no_23_1.png","j","pattern_response","true","j","pattern_08","1137.1000000014901","true","69","","","","","","","","","","","","","","","","","","",""
"","","","","","html-button-response","178","280545","0.0-2.0-8.0","5bf37a8017a7de0001cf7cb1","D2","batch4","","2139.39999999851","<p class = block-text>This concludes the 4-in-a-row detection game.Thank you for your responses!<br>
            You responded correctly on 88% of the trials.<br>
            When you are ready, press ""Continue"" button to continue </p>","0","","","","","","","","","","","","","","","","","","","","","","","","","",""
"true","","","","","fullscreen","179","283891","0.0-3.0-0.0","5bf37a8017a7de0001cf7cb1","D2","batch4","","","","","spm_fullscreen","","","","","","","","","","","","","","","","","","","","","","","","",""
"","","","","","html-button-response","180","292742","0.0-3.0-1.0","5bf37a8017a7de0001cf7cb1","D2","batch4","","8846.10000000149","<p class = block-text><b>Instructions</b> <br>This is a widely used intelligence test in research. <br>In this test, a figure with a missing piece will be presented.<br>Below the figure are alternative pieces to complete the figure, only one of which is correct.<br> Different figures might involve different principles for obtaining the missing piece<br>Your job is to select the most logical piece to complete the figure.</p>","0","","","","","","","","","","","","","","","","","","","","","","","","","",""
"","","","","","html-keyboard-response","181","293546","0.0-3.0-2.0-0.0","5bf37a8017a7de0001cf7cb1","D2","batch4","","null","<p class=block-text>Trial 1 out of 60</p>","null","spm_show_trial_num","","","","","","","","","","","","","","","","","","","","","","","","",""
"","","","","","image-button-response","182","299489","0.0-3.0-2.0-1.0","5bf37a8017a7de0001cf7cb1","D2","batch4","","5927.5","img/question_1_1.jpeg","3","spm_respsonse","1","4","mat_01","","","","","","1","5927.5","","","","","","","","","","","","","","",""
"","","","","","html-keyboard-response","183","300555","0.0-3.0-2.0-0.1","5bf37a8017a7de0001cf7cb1","D2","batch4","","null","<p class=block-text>Trial 2 out of 60</p>","null","spm_show_trial_num","","","","","","","","","","","","","","","","","","","","","","","","",""
"","","","","","image-button-response","184","303726","0.0-3.0-2.0-1.1","5bf37a8017a7de0001cf7cb1","D2","batch4","","3158.4000000003725","img/question_1_2.jpeg","4","spm_respsonse","1","5","mat_02","","","","","","1","3158.4000000003725","","","","","","","","","","","","","","",""
"","","","","","html-keyboard-response","185","304788","0.0-3.0-2.0-0.2","5bf37a8017a7de0001cf7cb1","D2","batch4","","null","<p class=block-text>Trial 3 out of 60</p>","null","spm_show_trial_num","","","","","","","","","","","","","","","","","","","","","","","","",""
"","","","","","image-button-response","186","309686","0.0-3.0-2.0-1.2","5bf37a8017a7de0001cf7cb1","D2","batch4","","4886.5","img/question_1_3.jpeg","0","spm_respsonse","1","1","mat_03","","","","","","1","4886.5","","","","","","","","","","","","","","",""
"","","","","","html-keyboard-response","187","310747","0.0-3.0-2.0-0.3","5bf37a8017a7de0001cf7cb1","D2","batch4","","null","<p class=block-text>Trial 4 out of 60</p>","null","spm_show_trial_num","","","","","","","","","","","","","","","","","","","","","","","","",""
"","","","","","image-button-response","188","314721","0.0-3.0-2.0-1.3","5bf37a8017a7de0001cf7cb1","D2","batch4","","3961.9000000003725","img/question_1_4.jpeg","1","spm_respsonse","1","2","mat_04","","","","","","1","3961.9000000003725","","","","","","","","","","","","","","",""
"","","","","","html-keyboard-response","189","315787","0.0-3.0-2.0-0.4","5bf37a8017a7de0001cf7cb1","D2","batch4","","null","<p class=block-text>Trial 5 out of 60</p>","null","spm_show_trial_num","","","","","","","","","","","","","","","","","","","","","","","","",""
"","","","","","image-button-response","190","320199","0.0-3.0-2.0-1.4","5bf37a8017a7de0001cf7cb1","D2","batch4","","4399.4000000003725","img/question_1_5.jpeg","5","spm_respsonse","1","6","mat_05","","","","","","1","4399.4000000003725","","","","","","","","","","","","","","",""
"","","","","","html-keyboard-response","191","321259","0.0-3.0-2.0-0.5","5bf37a8017a7de0001cf7cb1","D2","batch4","","null","<p class=block-text>Trial 6 out of 60</p>","null","spm_show_trial_num","","","","","","","","","","","","","","","","","","","","","","","","",""
"","","","","","image-button-response","192","326247","0.0-3.0-2.0-1.5","5bf37a8017a7de0001cf7cb1","D2","batch4","","4976","img/question_1_6.jpeg","2","spm_respsonse","1","3","mat_06","","","","","","1","4976","","","","","","","","","","","","","","",""
"","","","","","html-keyboard-response","193","327307","0.0-3.0-2.0-0.6","5bf37a8017a7de0001cf7cb1","D2","batch4","","null","<p class=block-text>Trial 7 out of 60</p>","null","spm_show_trial_num","","","","","","","","","","","","","","","","","","","","","","","","",""
"","","","","","image-button-response","194","330606","0.0-3.0-2.0-1.6","5bf37a8017a7de0001cf7cb1","D2","batch4","","3285.5","img/question_1_7.jpeg","5","spm_respsonse","1","6","mat_07","","","","","","1","3285.5","","","","","","","","","","","","","","",""
"","","","","","html-keyboard-response","195","331667","0.0-3.0-2.0-0.7","5bf37a8017a7de0001cf7cb1","D2","batch4","","null","<p class=block-text>Trial 8 out of 60</p>","null","spm_show_trial_num","","","","","","","","","","","","","","","","","","","","","","","","",""
"","","","","","image-button-response","196","336120","0.0-3.0-2.0-1.7","5bf37a8017a7de0001cf7cb1","D2","batch4","","4440.4000000003725","img/question_1_8.jpeg","1","spm_respsonse","1","2","mat_08","","","","","","1","4440.4000000003725","","","","","","","","","","","","","","",""
"","","","","","html-keyboard-response","197","337188","0.0-3.0-2.0-0.8","5bf37a8017a7de0001cf7cb1","D2","batch4","","null","<p class=block-text>Trial 9 out of 60</p>","null","spm_show_trial_num","","","","","","","","","","","","","","","","","","","","","","","","",""
"","","","","","image-button-response","198","341562","0.0-3.0-2.0-1.8","5bf37a8017a7de0001cf7cb1","D2","batch4","","4362.799999998882","img/question_1_9.jpeg","0","spm_respsonse","1","1","mat_09","","","","","","1","4362.799999998882","","","","","","","","","","","","","","",""
"","","","","","html-keyboard-response","199","342628","0.0-3.0-2.0-0.9","5bf37a8017a7de0001cf7cb1","D2","batch4","","null","<p class=block-text>Trial 10 out of 60</p>","null","spm_show_trial_num","","","","","","","","","","","","","","","","","","","","","","","","",""
"","","","","","image-button-response","200","347749","0.0-3.0-2.0-1.9","5bf37a8017a7de0001cf7cb1","D2","batch4","","5108.199999999255","img/question_1_10.jpeg","2","spm_respsonse","1","3","mat_10","","","","","","1","5108.199999999255","","","","","","","","","","","","","","",""
"","","","","","html-keyboard-response","201","348811","0.0-3.0-2.0-0.10","5bf37a8017a7de0001cf7cb1","D2","batch4","","null","<p class=block-text>Trial 11 out of 60</p>","null","spm_show_trial_num","","","","","","","","","","","","","","","","","","","","","","","","",""
"","","","","","image-button-response","202","356085","0.0-3.0-2.0-1.10","5bf37a8017a7de0001cf7cb1","D2","batch4","","7260.10000000149","img/question_1_11.jpeg","3","spm_respsonse","1","4","mat_11","","","","","","1","7260.10000000149","","","","","","","","","","","","","","",""
"","","","","","html-keyboard-response","203","357148","0.0-3.0-2.0-0.11","5bf37a8017a7de0001cf7cb1","D2","batch4","","null","<p class=block-text>Trial 12 out of 60</p>","null","spm_show_trial_num","","","","","","","","","","","","","","","","","","","","","","","","",""
"","","","","","image-button-response","204","363256","0.0-3.0-2.0-1.11","5bf37a8017a7de0001cf7cb1","D2","batch4","","6094.799999998882","img/question_1_12.jpeg","0","spm_respsonse","0","5","mat_12","","","","","","0","6094.799999998882","","","","","","","","","","","","","","",""
"","","","","","html-keyboard-response","205","364324","0.0-3.0-2.0-0.12","5bf37a8017a7de0001cf7cb1","D2","batch4","","null","<p class=block-text>Trial 13 out of 60</p>","null","spm_show_trial_num","","","","","","","","","","","","","","","","","","","","","","","","",""
"","","","","","image-button-response","206","370462","0.0-3.0-2.0-1.12","5bf37a8017a7de0001cf7cb1","D2","batch4","","6125.300000000745","img/question_2_1.jpeg","1","spm_respsonse","1","2","mat_13","","","","","","1","6125.300000000745","","","","","","","","","","","","","","",""
"","","","","","html-keyboard-response","207","371523","0.0-3.0-2.0-0.13","5bf37a8017a7de0001cf7cb1","D2","batch4","","null","<p class=block-text>Trial 14 out of 60</p>","null","spm_show_trial_num","","","","","","","","","","","","","","","","","","","","","","","","",""
"","","","","","image-button-response","208","378098","0.0-3.0-2.0-1.13","5bf37a8017a7de0001cf7cb1","D2","batch4","","6561.199999999255","img/question_2_2.jpeg","5","spm_respsonse","1","6","mat_14","","","","","","1","6561.199999999255","","","","","","","","","","","","","","",""
"","","","","","html-keyboard-response","209","379164","0.0-3.0-2.0-0.14","5bf37a8017a7de0001cf7cb1","D2","batch4","","null","<p class=block-text>Trial 15 out of 60</p>","null","spm_show_trial_num","","","","","","","","","","","","","","","","","","","","","","","","",""
"","","","","","image-button-response","210","381923","0.0-3.0-2.0-1.14","5bf37a8017a7de0001cf7cb1","D2","batch4","","2745.9000000003725","img/question_2_3.jpeg","0","spm_respsonse","1","1","mat_15","","","","","","1","2745.9000000003725","","","","","","","","","","","","","","",""
"","","","","","html-keyboard-response","211","382988","0.0-3.0-2.0-0.15","5bf37a8017a7de0001cf7cb1","D2","batch4","","null","<p class=block-text>Trial 16 out of 60</p>","null","spm_show_trial_num","","","","","","","","","","","","","","","","","","","","","","","","",""
"","","","","","image-button-response","212","386270","0.0-3.0-2.0-1.15","5bf37a8017a7de0001cf7cb1","D2","batch4","","3271.5","img/question_2_4.jpeg","1","spm_respsonse","1","2","mat_16","","","","","","1","3271.5","","","","","","","","","","","","","","",""
"","","","","","html-keyboard-response","213","387331","0.0-3.0-2.0-0.16","5bf37a8017a7de0001cf7cb1","D2","batch4","","null","<p class=block-text>Trial 17 out of 60</p>","null","spm_show_trial_num","","","","","","","","","","","","","","","","","","","","","","","","",""
"","","","","","image-button-response","214","391172","0.0-3.0-2.0-1.16","5bf37a8017a7de0001cf7cb1","D2","batch4","","3828.800000000745","img/question_2_5.jpeg","0","spm_respsonse","1","1","mat_17","","","","","","1","3828.800000000745","","","","","","","","","","","","","","",""
"","","","","","html-keyboard-response","215","392235","0.0-3.0-2.0-0.17","5bf37a8017a7de0001cf7cb1","D2","batch4","","null","<p class=block-text>Trial 18 out of 60</p>","null","spm_show_trial_num","","","","","","","","","","","","","","","","","","","","","","","","",""
"","","","","","image-button-response","216","397243","0.0-3.0-2.0-1.17","5bf37a8017a7de0001cf7cb1","D2","batch4","","4997.700000001118","img/question_2_6.jpeg","2","spm_respsonse","1","3","mat_18","","","","","","1","4997.700000001118","","","","","","","","","","","","","","",""
"","","","","","html-keyboard-response","217","398307","0.0-3.0-2.0-0.18","5bf37a8017a7de0001cf7cb1","D2","batch4","","null","<p class=block-text>Trial 19 out of 60</p>","null","spm_show_trial_num","","","","","","","","","","","","","","","","","","","","","","","","",""
"","","","","","image-button-response","218","406346","0.0-3.0-2.0-1.18","5bf37a8017a7de0001cf7cb1","D2","batch4","","8023.699999999255","img/question_2_7.jpeg","4","spm_respsonse","1","5","mat_19","","","","","","1","8023.699999999255","","","","","","","","","","","","","","",""
"","","","","","html-keyboard-response","219","407411","0.0-3.0-2.0-0.19","5bf37a8017a7de0001cf7cb1","D2","batch4","","null","<p class=block-text>Trial 20 out of 60</p>","null","spm_show_trial_num","","","","","","","","","","","","","","","","","","","","","","","","",""
"","","","","","image-button-response","220","416222","0.0-3.0-2.0-1.19","5bf37a8017a7de0001cf7cb1","D2","batch4","","8798.900000000373","img/question_2_8.jpeg","5","spm_respsonse","1","6","mat_20","","","","","","1","8798.900000000373","","","","","","","","","","","","","","",""
"","","","","","html-keyboard-response","221","417283","0.0-3.0-2.0-0.20","5bf37a8017a7de0001cf7cb1","D2","batch4","","null","<p class=block-text>Trial 21 out of 60</p>","null","spm_show_trial_num","","","","","","","","","","","","","","","","","","","","","","","","",""
"","","","","","image-button-response","222","422954","0.0-3.0-2.0-1.20","5bf37a8017a7de0001cf7cb1","D2","batch4","","5658.4000000003725","img/question_2_9.jpeg","3","spm_respsonse","1","4","mat_21","","","","","","1","5658.4000000003725","","","","","","","","","","","","","","",""
"","","","","","html-keyboard-response","223","424019","0.0-3.0-2.0-0.21","5bf37a8017a7de0001cf7cb1","D2","batch4","","null","<p class=block-text>Trial 22 out of 60</p>","null","spm_show_trial_num","","","","","","","","","","","","","","","","","","","","","","","","",""
"","","","","","image-button-response","224","429321","0.0-3.0-2.0-1.21","5bf37a8017a7de0001cf7cb1","D2","batch4","","5289.4000000003725","img/question_2_10.jpeg","2","spm_respsonse","1","3","mat_22","","","","","","1","5289.4000000003725","","","","","","","","","","","","","","",""
"","","","","","html-keyboard-response","225","430388","0.0-3.0-2.0-0.22","5bf37a8017a7de0001cf7cb1","D2","batch4","","null","<p class=block-text>Trial 23 out of 60</p>","null","spm_show_trial_num","","","","","","","","","","","","","","","","","","","","","","","","",""
"","","","","","image-button-response","226","435393","0.0-3.0-2.0-1.22","5bf37a8017a7de0001cf7cb1","D2","batch4","","4993.4000000003725","img/question_2_11.jpeg","3","spm_respsonse","1","4","mat_23","","","","","","1","4993.4000000003725","","","","","","","","","","","","","","",""
"","","","","","html-keyboard-response","227","436460","0.0-3.0-2.0-0.23","5bf37a8017a7de0001cf7cb1","D2","batch4","","null","<p class=block-text>Trial 24 out of 60</p>","null","spm_show_trial_num","","","","","","","","","","","","","","","","","","","","","","","","",""
"","","","","","image-button-response","228","443604","0.0-3.0-2.0-1.23","5bf37a8017a7de0001cf7cb1","D2","batch4","","7130.299999998882","img/question_2_12.jpeg","4","spm_respsonse","1","5","mat_24","","","","","","1","7130.299999998882","","","","","","","","","","","","","","",""
"","","","","","html-button-response","229","445956","0.0-3.0-3.0","5bf37a8017a7de0001cf7cb1","D2","batch4","","2092.5","<p class = block-text>Attention check: Please choose 1<br></p>","0","attention_check","true","","","","","","","","","","","","","","","","","","","","","","","",""
"","","","","","html-keyboard-response","230","446765","0.0-3.0-4.0-0.0","5bf37a8017a7de0001cf7cb1","D2","batch4","","null","<p class=block-text>Trial 25 out of 60</p>","null","spm_show_trial_num","","","","","","","","","","","","","","","","","","","","","","","","",""
"","","","","","image-button-response","231","452273","0.0-3.0-4.0-1.0","5bf37a8017a7de0001cf7cb1","D2","batch4","","5494.4000000003725","img/question_3_1.jpeg","7","spm_respsonse","1","8","mat_25","","","","","","1","5494.4000000003725","","","","","","","","","","","","","","",""
"","","","","","html-keyboard-response","232","453340","0.0-3.0-4.0-0.1","5bf37a8017a7de0001cf7cb1","D2","batch4","","null","<p class=block-text>Trial 26 out of 60</p>","null","spm_show_trial_num","","","","","","","","","","","","","","","","","","","","","","","","",""
"","","","","","image-button-response","233","458438","0.0-3.0-4.0-1.1","5bf37a8017a7de0001cf7cb1","D2","batch4","","5085.4000000003725","img/question_3_2.jpeg","1","spm_respsonse","1","2","mat_26","","","","","","1","5085.4000000003725","","","","","","","","","","","","","","",""
"","","","","","html-keyboard-response","234","459500","0.0-3.0-4.0-0.2","5bf37a8017a7de0001cf7cb1","D2","batch4","","null","<p class=block-text>Trial 27 out of 60</p>","null","spm_show_trial_num","","","","","","","","","","","","","","","","","","","","","","","","",""
"","","","","","image-button-response","235","466387","0.0-3.0-4.0-1.2","5bf37a8017a7de0001cf7cb1","D2","batch4","","6872.699999999255","img/question_3_3.jpeg","2","spm_respsonse","1","3","mat_27","","","","","","1","6872.699999999255","","","","","","","","","","","","","","",""
"","","","","","html-keyboard-response","236","467452","0.0-3.0-4.0-0.3","5bf37a8017a7de0001cf7cb1","D2","batch4","","null","<p class=block-text>Trial 28 out of 60</p>","null","spm_show_trial_num","","","","","","","","","","","","","","","","","","","","","","","","",""
"","","","","","image-button-response","237","480073","0.0-3.0-4.0-1.3","5bf37a8017a7de0001cf7cb1","D2","batch4","","12604.800000000745","img/question_3_4.jpeg","7","spm_respsonse","1","8","mat_28","","","","","","1","12604.800000000745","","","","","","","","","","","","","","",""
"","","","","","html-keyboard-response","238","481140","0.0-3.0-4.0-0.4","5bf37a8017a7de0001cf7cb1","D2","batch4","","null","<p class=block-text>Trial 29 out of 60</p>","null","spm_show_trial_num","","","","","","","","","","","","","","","","","","","","","","","","",""
"","","","","","image-button-response","239","491911","0.0-3.0-4.0-1.4","5bf37a8017a7de0001cf7cb1","D2","batch4","","10755.89999999851","img/question_3_5.jpeg","6","spm_respsonse","1","7","mat_29","","","","","","1","10755.89999999851","","","","","","","","","","","","","","",""
"","","","","","html-keyboard-response","240","492972","0.0-3.0-4.0-0.5","5bf37a8017a7de0001cf7cb1","D2","batch4","","null","<p class=block-text>Trial 30 out of 60</p>","null","spm_show_trial_num","","","","","","","","","","","","","","","","","","","","","","","","",""
"","","","","","image-button-response","241","499628","0.0-3.0-4.0-1.5","5bf37a8017a7de0001cf7cb1","D2","batch4","","6641.89999999851","img/question_3_6.jpeg","3","spm_respsonse","1","4","mat_30","","","","","","1","6641.89999999851","","","","","","","","","","","","","","",""
"","","","","","html-keyboard-response","242","500693","0.0-3.0-4.0-0.6","5bf37a8017a7de0001cf7cb1","D2","batch4","","null","<p class=block-text>Trial 31 out of 60</p>","null","spm_show_trial_num","","","","","","","","","","","","","","","","","","","","","","","","",""
"","","","","","image-button-response","243","504777","0.0-3.0-4.0-1.6","5bf37a8017a7de0001cf7cb1","D2","batch4","","4069.4000000003725","img/question_3_7.jpeg","4","spm_respsonse","1","5","mat_31","","","","","","1","4069.4000000003725","","","","","","","","","","","","","","",""
"","","","","","html-keyboard-response","244","505844","0.0-3.0-4.0-0.7","5bf37a8017a7de0001cf7cb1","D2","batch4","","null","<p class=block-text>Trial 32 out of 60</p>","null","spm_show_trial_num","","","","","","","","","","","","","","","","","","","","","","","","",""
"","","","","","image-button-response","245","516462","0.0-3.0-4.0-1.7","5bf37a8017a7de0001cf7cb1","D2","batch4","","10604.699999999255","img/question_3_8.jpeg","0","spm_respsonse","1","1","mat_32","","","","","","1","10604.699999999255","","","","","","","","","","","","","","",""
"","","","","","html-keyboard-response","246","517525","0.0-3.0-4.0-0.8","5bf37a8017a7de0001cf7cb1","D2","batch4","","null","<p class=block-text>Trial 33 out of 60</p>","null","spm_show_trial_num","","","","","","","","","","","","","","","","","","","","","","","","",""
"","","","","","image-button-response","247","525610","0.0-3.0-4.0-1.8","5bf37a8017a7de0001cf7cb1","D2","batch4","","8072","img/question_3_9.jpeg","6","spm_respsonse","1","7","mat_33","","","","","","1","8072","","","","","","","","","","","","","","",""
"","","","","","html-keyboard-response","248","526676","0.0-3.0-4.0-0.9","5bf37a8017a7de0001cf7cb1","D2","batch4","","null","<p class=block-text>Trial 34 out of 60</p>","null","spm_show_trial_num","","","","","","","","","","","","","","","","","","","","","","","","",""
"","","","","","image-button-response","249","542321","0.0-3.0-4.0-1.9","5bf37a8017a7de0001cf7cb1","D2","batch4","","15630.800000000745","img/question_3_10.jpeg","5","spm_respsonse","1","6","mat_34","","","","","","1","15630.800000000745","","","","","","","","","","","","","","",""
"","","","","","html-keyboard-response","250","543389","0.0-3.0-4.0-0.10","5bf37a8017a7de0001cf7cb1","D2","batch4","","null","<p class=block-text>Trial 35 out of 60</p>","null","spm_show_trial_num","","","","","","","","","","","","","","","","","","","","","","","","",""
"","","","","","image-button-response","251","554068","0.0-3.0-4.0-1.10","5bf37a8017a7de0001cf7cb1","D2","batch4","","10663.800000000745","img/question_3_11.jpeg","0","spm_respsonse","1","1","mat_35","","","","","","1","10663.800000000745","","","","","","","","","","","","","","",""
"","","","","","html-keyboard-response","252","555133","0.0-3.0-4.0-0.11","5bf37a8017a7de0001cf7cb1","D2","batch4","","null","<p class=block-text>Trial 36 out of 60</p>","null","spm_show_trial_num","","","","","","","","","","","","","","","","","","","","","","","","",""
"","","","","","image-button-response","253","570622","0.0-3.0-4.0-1.11","5bf37a8017a7de0001cf7cb1","D2","batch4","","15474.900000000373","img/question_3_12.jpeg","1","spm_respsonse","1","2","mat_36","","","","","","1","15474.900000000373","","","","","","","","","","","","","","",""
"","","","","","html-keyboard-response","254","571685","0.0-3.0-4.0-0.12","5bf37a8017a7de0001cf7cb1","D2","batch4","","null","<p class=block-text>Trial 37 out of 60</p>","null","spm_show_trial_num","","","","","","","","","","","","","","","","","","","","","","","","",""
"","","","","","image-button-response","255","575790","0.0-3.0-4.0-1.12","5bf37a8017a7de0001cf7cb1","D2","batch4","","4091.5","img/question_4_1.jpeg","2","spm_respsonse","1","3","mat_37","","","","","","1","4091.5","","","","","","","","","","","","","","",""
"","","","","","html-keyboard-response","256","576853","0.0-3.0-4.0-0.13","5bf37a8017a7de0001cf7cb1","D2","batch4","","null","<p class=block-text>Trial 38 out of 60</p>","null","spm_show_trial_num","","","","","","","","","","","","","","","","","","","","","","","","",""
"","","","","","image-button-response","257","583848","0.0-3.0-4.0-1.13","5bf37a8017a7de0001cf7cb1","D2","batch4","","6983.9000000003725","img/question_4_2.jpeg","3","spm_respsonse","1","4","mat_38","","","","","","1","6983.9000000003725","","","","","","","","","","","","","","",""
"","","","","","html-keyboard-response","258","584908","0.0-3.0-4.0-0.14","5bf37a8017a7de0001cf7cb1","D2","batch4","","null","<p class=block-text>Trial 39 out of 60</p>","null","spm_show_trial_num","","","","","","","","","","","","","","","","","","","","","","","","",""
"","","","","","image-button-response","259","604532","0.0-3.0-4.0-1.14","5bf37a8017a7de0001cf7cb1","D2","batch4","","19611.39999999851","img/question_4_3.jpeg","2","spm_respsonse","1","3","mat_39","","","","","","1","19611.39999999851","","","","","","","","","","","","","","",""
"","","","","","html-keyboard-response","260","605598","0.0-3.0-4.0-0.15","5bf37a8017a7de0001cf7cb1","D2","batch4","","null","<p class=block-text>Trial 40 out of 60</p>","null","spm_show_trial_num","","","","","","","","","","","","","","","","","","","","","","","","",""
"","","","","","image-button-response","261","617535","0.0-3.0-4.0-1.15","5bf37a8017a7de0001cf7cb1","D2","batch4","","11926.800000000745","img/question_4_4.jpeg","6","spm_respsonse","1","7","mat_40","","","","","","1","11926.800000000745","","","","","","","","","","","","","","",""
"","","","","","html-keyboard-response","262","618597","0.0-3.0-4.0-0.16","5bf37a8017a7de0001cf7cb1","D2","batch4","","null","<p class=block-text>Trial 41 out of 60</p>","null","spm_show_trial_num","","","","","","","","","","","","","","","","","","","","","","","","",""
"","","","","","image-button-response","263","628759","0.0-3.0-4.0-1.16","5bf37a8017a7de0001cf7cb1","D2","batch4","","10149.699999999255","img/question_4_5.jpeg","7","spm_respsonse","1","8","mat_41","","","","","","1","10149.699999999255","","","","","","","","","","","","","","",""
"","","","","","html-keyboard-response","264","629821","0.0-3.0-4.0-0.17","5bf37a8017a7de0001cf7cb1","D2","batch4","","null","<p class=block-text>Trial 42 out of 60</p>","null","spm_show_trial_num","","","","","","","","","","","","","","","","","","","","","","","","",""
"","","","","","image-button-response","265","639981","0.0-3.0-4.0-1.17","5bf37a8017a7de0001cf7cb1","D2","batch4","","10146.699999999255","img/question_4_6.jpeg","5","spm_respsonse","1","6","mat_42","","","","","","1","10146.699999999255","","","","","","","","","","","","","","",""
"","","","","","html-keyboard-response","266","641045","0.0-3.0-4.0-0.18","5bf37a8017a7de0001cf7cb1","D2","batch4","","null","<p class=block-text>Trial 43 out of 60</p>","null","spm_show_trial_num","","","","","","","","","","","","","","","","","","","","","","","","",""
"","","","","","image-button-response","267","651801","0.0-3.0-4.0-1.18","5bf37a8017a7de0001cf7cb1","D2","batch4","","10744.200000001118","img/question_4_7.jpeg","4","spm_respsonse","1","5","mat_43","","","","","","1","10744.200000001118","","","","","","","","","","","","","","",""
"","","","","","html-keyboard-response","268","652868","0.0-3.0-4.0-0.19","5bf37a8017a7de0001cf7cb1","D2","batch4","","null","<p class=block-text>Trial 44 out of 60</p>","null","spm_show_trial_num","","","","","","","","","","","","","","","","","","","","","","","","",""
"","","","","","image-button-response","269","675065","0.0-3.0-4.0-1.19","5bf37a8017a7de0001cf7cb1","D2","batch4","","22183.5","img/question_4_8.jpeg","3","spm_respsonse","1","4","mat_44","","","","","","1","22183.5","","","","","","","","","","","","","","",""
"","","","","","html-keyboard-response","270","676125","0.0-3.0-4.0-0.20","5bf37a8017a7de0001cf7cb1","D2","batch4","","null","<p class=block-text>Trial 45 out of 60</p>","null","spm_show_trial_num","","","","","","","","","","","","","","","","","","","","","","","","",""
"","","","","","image-button-response","271","691927","0.0-3.0-4.0-1.20","5bf37a8017a7de0001cf7cb1","D2","batch4","","15789.199999999255","img/question_4_9.jpeg","0","spm_respsonse","1","1","mat_45","","","","","","1","15789.199999999255","","","","","","","","","","","","","","",""
"","","","","","html-keyboard-response","272","692990","0.0-3.0-4.0-0.21","5bf37a8017a7de0001cf7cb1","D2","batch4","","null","<p class=block-text>Trial 46 out of 60</p>","null","spm_show_trial_num","","","","","","","","","","","","","","","","","","","","","","","","",""
"","","","","","image-button-response","273","705103","0.0-3.0-4.0-1.21","5bf37a8017a7de0001cf7cb1","D2","batch4","","12100.400000000373","img/question_4_10.jpeg","1","spm_respsonse","1","2","mat_46","","","","","","1","12100.400000000373","","","","","","","","","","","","","","",""
"","","","","","html-keyboard-response","274","706166","0.0-3.0-4.0-0.22","5bf37a8017a7de0001cf7cb1","D2","batch4","","null","<p class=block-text>Trial 47 out of 60</p>","null","spm_show_trial_num","","","","","","","","","","","","","","","","","","","","","","","","",""
"","","","","","image-button-response","275","736411","0.0-3.0-4.0-1.22","5bf37a8017a7de0001cf7cb1","D2","batch4","","30232.5","img/question_4_11.jpeg","4","spm_respsonse","1","5","mat_47","","","","","","1","30232.5","","","","","","","","","","","","","","",""
"","","","","","html-keyboard-response","276","737477","0.0-3.0-4.0-0.23","5bf37a8017a7de0001cf7cb1","D2","batch4","","null","<p class=block-text>Trial 48 out of 60</p>","null","spm_show_trial_num","","","","","","","","","","","","","","","","","","","","","","","","",""
"","","","","","image-button-response","277","777829","0.0-3.0-4.0-1.23","5bf37a8017a7de0001cf7cb1","D2","batch4","","40338.60000000149","img/question_4_12.jpeg","7","spm_respsonse","0","6","mat_48","","","","","","0","40338.60000000149","","","","","","","","","","","","","","",""
"","","","","","html-keyboard-response","278","778894","0.0-3.0-4.0-0.24","5bf37a8017a7de0001cf7cb1","D2","batch4","","null","<p class=block-text>Trial 49 out of 60</p>","null","spm_show_trial_num","","","","","","","","","","","","","","","","","","","","","","","","",""
"","","","","","image-button-response","279","789799","0.0-3.0-4.0-1.24","5bf37a8017a7de0001cf7cb1","D2","batch4","","10891.400000000373","img/question_5_1.jpeg","6","spm_respsonse","1","7","mat_49","","","","","","1","10891.400000000373","","","","","","","","","","","","","","",""
"","","","","","html-keyboard-response","280","790862","0.0-3.0-4.0-0.25","5bf37a8017a7de0001cf7cb1","D2","batch4","","null","<p class=block-text>Trial 50 out of 60</p>","null","spm_show_trial_num","","","","","","","","","","","","","","","","","","","","","","","","",""
"","","","","","image-button-response","281","804362","0.0-3.0-4.0-1.25","5bf37a8017a7de0001cf7cb1","D2","batch4","","13486.699999999255","img/question_5_2.jpeg","5","spm_respsonse","1","6","mat_50","","","","","","1","13486.699999999255","","","","","","","","","","","","","","",""
"","","","","","html-keyboard-response","282","805422","0.0-3.0-4.0-0.26","5bf37a8017a7de0001cf7cb1","D2","batch4","","null","<p class=block-text>Trial 51 out of 60</p>","null","spm_show_trial_num","","","","","","","","","","","","","","","","","","","","","","","","",""
"","","","","","image-button-response","283","820411","0.0-3.0-4.0-1.26","5bf37a8017a7de0001cf7cb1","D2","batch4","","14979.699999999255","img/question_5_3.jpeg","7","spm_respsonse","1","8","mat_51","","","","","","1","14979.699999999255","","","","","","","","","","","","","","",""
"","","","","","html-keyboard-response","284","821479","0.0-3.0-4.0-0.27","5bf37a8017a7de0001cf7cb1","D2","batch4","","null","<p class=block-text>Trial 52 out of 60</p>","null","spm_show_trial_num","","","","","","","","","","","","","","","","","","","","","","","","",""
"","","","","","image-button-response","285","834340","0.0-3.0-4.0-1.27","5bf37a8017a7de0001cf7cb1","D2","batch4","","12847.699999999255","img/question_5_4.jpeg","1","spm_respsonse","1","2","mat_52","","","","","","1","12847.699999999255","","","","","","","","","","","","","","",""
"","","","","","html-keyboard-response","286","835415","0.0-3.0-4.0-0.28","5bf37a8017a7de0001cf7cb1","D2","batch4","","null","<p class=block-text>Trial 53 out of 60</p>","null","spm_show_trial_num","","","","","","","","","","","","","","","","","","","","","","","","",""
"","","","","","image-button-response","287","847243","0.0-3.0-4.0-1.28","5bf37a8017a7de0001cf7cb1","D2","batch4","","11815.200000001118","img/question_5_5.jpeg","0","spm_respsonse","1","1","mat_53","","","","","","1","11815.200000001118","","","","","","","","","","","","","","",""
"","","","","","html-keyboard-response","288","848302","0.0-3.0-4.0-0.29","5bf37a8017a7de0001cf7cb1","D2","batch4","","null","<p class=block-text>Trial 54 out of 60</p>","null","spm_show_trial_num","","","","","","","","","","","","","","","","","","","","","","","","",""
"","","","","","image-button-response","289","877276","0.0-3.0-4.0-1.29","5bf37a8017a7de0001cf7cb1","D2","batch4","","28957.5","img/question_5_6.jpeg","4","spm_respsonse","1","5","mat_54","","","","","","1","28957.5","","","","","","","","","","","","","","",""
"","","","","","html-keyboard-response","290","878343","0.0-3.0-4.0-0.30","5bf37a8017a7de0001cf7cb1","D2","batch4","","null","<p class=block-text>Trial 55 out of 60</p>","null","spm_show_trial_num","","","","","","","","","","","","","","","","","","","","","","","","",""
"","","","","","image-button-response","291","892561","0.0-3.0-4.0-1.30","5bf37a8017a7de0001cf7cb1","D2","batch4","","14205.400000000373","img/question_5_7.jpeg","0","spm_respsonse","1","1","mat_55","","","","","","1","14205.400000000373","","","","","","","","","","","","","","",""
"","","","","","html-keyboard-response","292","893623","0.0-3.0-4.0-0.31","5bf37a8017a7de0001cf7cb1","D2","batch4","","null","<p class=block-text>Trial 56 out of 60</p>","null","spm_show_trial_num","","","","","","","","","","","","","","","","","","","","","","","","",""
"","","","","","image-button-response","293","906706","0.0-3.0-4.0-1.31","5bf37a8017a7de0001cf7cb1","D2","batch4","","13068.699999999255","img/question_5_8.jpeg","5","spm_respsonse","1","6","mat_56","","","","","","1","13068.699999999255","","","","","","","","","","","","","","",""
"","","","","","html-keyboard-response","294","907767","0.0-3.0-4.0-0.32","5bf37a8017a7de0001cf7cb1","D2","batch4","","null","<p class=block-text>Trial 57 out of 60</p>","null","spm_show_trial_num","","","","","","","","","","","","","","","","","","","","","","","","",""
"","","","","","image-button-response","295","924938","0.0-3.0-4.0-1.32","5bf37a8017a7de0001cf7cb1","D2","batch4","","17156.10000000149","img/question_5_9.jpeg","2","spm_respsonse","1","3","mat_57","","","","","","1","17156.10000000149","","","","","","","","","","","","","","",""
"","","","","","html-keyboard-response","296","925999","0.0-3.0-4.0-0.33","5bf37a8017a7de0001cf7cb1","D2","batch4","","null","<p class=block-text>Trial 58 out of 60</p>","null","spm_show_trial_num","","","","","","","","","","","","","","","","","","","","","","","","",""
"","","","","","image-button-response","297","948848","0.0-3.0-4.0-1.33","5bf37a8017a7de0001cf7cb1","D2","batch4","","22834.900000000373","img/question_5_10.jpeg","2","spm_respsonse","0","2","mat_58","","","","","","0","22834.900000000373","","","","","","","","","","","","","","",""
"","","","","","html-keyboard-response","298","949910","0.0-3.0-4.0-0.34","5bf37a8017a7de0001cf7cb1","D2","batch4","","null","<p class=block-text>Trial 59 out of 60</p>","null","spm_show_trial_num","","","","","","","","","","","","","","","","","","","","","","","","",""
"","","","","","image-button-response","299","960918","0.0-3.0-4.0-1.34","5bf37a8017a7de0001cf7cb1","D2","batch4","","10992.800000000745","img/question_5_11.jpeg","6","spm_respsonse","0","4","mat_59","","","","","","0","10992.800000000745","","","","","","","","","","","","","","",""
"","","","","","html-keyboard-response","300","961983","0.0-3.0-4.0-0.35","5bf37a8017a7de0001cf7cb1","D2","batch4","","null","<p class=block-text>Trial 60 out of 60</p>","null","spm_show_trial_num","","","","","","","","","","","","","","","","","","","","","","","","",""
"","","","","","image-button-response","301","976657","0.0-3.0-4.0-1.35","5bf37a8017a7de0001cf7cb1","D2","batch4","","14660.300000000745","img/question_5_12.jpeg","0","spm_respsonse","0","5","mat_60","","","","","","0","14660.300000000745","","","","","","","","","","","","","","",""
"","","","","","html-button-response","302","1307473","0.0-3.0-5.0","5bf37a8017a7de0001cf7cb1","D2","batch4","","330556","<p class= block-text>This concludes the Standard Progressive Matrix game. Thank you for your responses!<br> When you are ready, click the button continue</p>","0","spm_goodbye","","","","","","","","","","","","","","","","","","","","","","","","",""
"true","","","","","fullscreen","303","1310449","0.0-4.0-0.0","5bf37a8017a7de0001cf7cb1","D2","batch4","","","","","","","","","","","","","","","","","","","","","","","","","","","","","",""
"","","","","","instructions","304","1363319","0.0-4.0-1.0-0.0-0.0","5bf37a8017a7de0001cf7cb1","D2","batch4","[{""page_index"":0,""viewing_time"":12206.800000000745},{""page_index"":1,""viewing_time"":7117.5999999996275},{""page_index"":2,""viewing_time"":8984.199999999255},{""page_index"":3,""viewing_time"":7903.300000000745},{""page_index"":4,""viewing_time"":4465.0999999996275},{""page_index"":5,""viewing_time"":9493.699999999255},{""page_index"":6,""viewing_time"":2692.800000000745}]","52864.800000000745","","","tol-instructions","","","","","","","","","","","","","","","","","","","","","","","","",""
"","","","","","html-button-response","305","1364679","0.0-4.0-1.0-1.0-0.0","5bf37a8017a7de0001cf7cb1","D2","batch4","","1355.2999999988824","<p class=block-text> Let's answer a few questions <br>","0","tol_enter_quiz","","","","","","","","","","","","","","","","","","","","","","","","",""
"","","","","","html-button-response","306","1370714","0.0-4.0-1.0-1.0-1.0","5bf37a8017a7de0001cf7cb1","D2","batch4","","6029.800000000745","<p class = block-text>True or False: You can only move the ball on top of a peg. <br></p>","0","tol_quiz","true","","","","","","","","","","","","","","","","","","","","","","","",""
"","","","","","html-button-response","307","1371777","0.0-4.0-1.0-1.0-2.0","5bf37a8017a7de0001cf7cb1","D2","batch4","","1057.1000000014901","<p class = block-text>Correct! You can only move the ball on top of a peg.</p>","0","tol_quiz_feedback","","","","","","","","","","","","","","","","","","","","","","","","",""
"","","","","","html-button-response","308","1374159","0.0-4.0-1.0-1.0-3.0","5bf37a8017a7de0001cf7cb1","D2","batch4","","2378.10000000149","<p class = block-text>True or False: You should try to match your board with the target board with fewest moves possible. <br></p>","0","tol_quiz","true","","","","","","","","","","","","","","","","","","","","","","","",""
"","","","","","html-button-response","309","1375103","0.0-4.0-1.0-1.0-4.0","5bf37a8017a7de0001cf7cb1","D2","batch4","","938.1999999992549","<p class = block-text>Correct! </p>","0","tol_quiz_feedback","","","","","","","","","","","","","","","","","","","","","","","","",""
"","","","","","html-button-response","310","1393673","0.0-4.0-2.0","5bf37a8017a7de0001cf7cb1","D2","batch4","","18563.599999999627","<p class=block-text> Now that you've understood the game, let's practice a few easier examples before we start!<br> <br>","0","","","","","","","","","","","","","","","","","","","","","","","","","",""
"","","","","","single-stim-button","311","1397515","0.0-4.0-3.0-0.0","5bf37a8017a7de0001cf7cb1","D2","batch4","","3830","","","tol_practice","","","","","","","","","","","tol_peg_2","3830","3830","0","[[1,2,0],[0,0],[0]]","1","[[1,2,0],[0,0],[3]]","practice","3830","","","","","",""
"","","","","","single-stim-button","312","1399235","0.0-4.0-3.0-1.0","5bf37a8017a7de0001cf7cb1","D2","batch4","","1713","","","tol_practice","","","","","","","","","","","tol_peg_3","1713","1713","0","[[1,2,0],[0,0],[3]]","1","[[1,2,0],[0,0],[3]]","practice","1713","","","","","",""
"","","","","","poldrack-single-stim","313","1400244","0.0-4.0-4.0","5bf37a8017a7de0001cf7cb1","D2","batch4","","-1","","","tol_feedback","true","","","","","","","","","","","1000","1000","500","","","","","","-1","none","true","","0",""
"","","","","","single-stim-button","314","1403565","0.0-4.0-5.0-0.0","5bf37a8017a7de0001cf7cb1","D2","batch4","","3317","","","tol_practice","","","","","","","","","","","tol_peg_1","3317","3317","0","[[1,0,0],[3,0],[0]]","2","[[0,0,0],[3,1],[2]]","practice","3317","","","","","",""
"","","","","","single-stim-button","315","1405880","0.0-4.0-5.0-1.0","5bf37a8017a7de0001cf7cb1","D2","batch4","","2311","","","tol_practice","","","","","","","","","","","tol_peg_3","2311","2311","0","[[1,0,0],[3,0],[2]]","2","[[0,0,0],[3,1],[2]]","practice","2311","","","","","",""
"","","","","","single-stim-button","316","1407018","0.0-4.0-5.1-0.1","5bf37a8017a7de0001cf7cb1","D2","batch4","","1134","","","tol_practice","","","","","","","","","","","tol_peg_1","1134","1134","0","[[0,0,0],[3,0],[2]]","3","[[0,0,0],[3,1],[2]]","practice","1134","","","","","",""
"","","","","","single-stim-button","317","1408022","0.0-4.0-5.1-1.1","5bf37a8017a7de0001cf7cb1","D2","batch4","","1001","","","tol_practice","","","","","","","","","","","tol_peg_2","1001","1001","0","[[0,0,0],[3,1],[2]]","3","[[0,0,0],[3,1],[2]]","practice","1001","","","","","",""
"","","","","","poldrack-single-stim","318","1409035","0.0-4.0-6.0","5bf37a8017a7de0001cf7cb1","D2","batch4","","-1","","","tol_feedback","true","","","","","","","","","","","1000","1000","500","","","","","","-1","none","true","","0",""
"","","","","","single-stim-button","319","1413952","0.0-4.0-7.0-0.0","5bf37a8017a7de0001cf7cb1","D2","batch4","","4913","","","tol_practice","","","","","","","","","","","tol_peg_2","4913","4913","0","[[1,2,0],[0,0],[0]]","4","[[1,0,0],[2,0],[3]]","practice","4913","","","","","",""
"","","","","","single-stim-button","320","1414942","0.0-4.0-7.0-1.0","5bf37a8017a7de0001cf7cb1","D2","batch4","","985","","","tol_practice","","","","","","","","","","","tol_peg_3","985","985","0","[[1,2,0],[0,0],[3]]","4","[[1,0,0],[2,0],[3]]","practice","985","","","","","",""
"","","","","","single-stim-button","321","1415898","0.0-4.0-7.1-0.1","5bf37a8017a7de0001cf7cb1","D2","batch4","","951","","","tol_practice","","","","","","","","","","","tol_peg_1","951","951","0","[[1,0,0],[0,0],[3]]","5","[[1,0,0],[2,0],[3]]","practice","951","","","","","",""
"","","","","","single-stim-button","322","1416817","0.0-4.0-7.1-1.1","5bf37a8017a7de0001cf7cb1","D2","batch4","","913","","","tol_practice","","","","","","","","","","","tol_peg_2","913","913","0","[[1,0,0],[2,0],[3]]","5","[[1,0,0],[2,0],[3]]","practice","913","","","","","",""
"","","","","","poldrack-single-stim","323","1417828","0.0-4.0-8.0","5bf37a8017a7de0001cf7cb1","D2","batch4","","-1","","","tol_feedback","true","","","","","","","","","","","1000","1000","500","","","","","","-1","none","true","","0",""
"","","","","","html-button-response","324","1424936","0.0-4.0-9.0","5bf37a8017a7de0001cf7cb1","D2","batch4","","7102.300000000745","<div class = centerbox><p class = center-block-text>Great job! You are done with practice trials<br>You are about to start official trials.<br> <br> Problem <strong>1</strong> out of 25 problems</p></div>","0","tol_instruction","","","","","","","","","","","","","","","","","","","","","","","","",""
"","","","","","single-stim-button","325","1436932","0.0-4.0-10.0-0.0","5bf37a8017a7de0001cf7cb1","D2","batch4","","10988","","","tol_tohand","","","","","","","","","","","tol_peg_1","10988","10988","0","[[1,0,0],[3,0],[0]]","1","[[1,3,0],[2,0],[0]]","0","0","","","","","","3"
"","","","","","single-stim-button","326","1441911","0.0-4.0-10.0-1.0","5bf37a8017a7de0001cf7cb1","D2","batch4","","4973","","","tol_toboard","","","","","","","","","","","tol_peg_3","4973","4973","0","[[1,0,0],[3,0],[2]]","1","[[1,3,0],[2,0],[0]]","0","0","","","","","","3"
"","","","","","single-stim-button","327","1442755","0.0-4.0-10.1-0.1","5bf37a8017a7de0001cf7cb1","D2","batch4","","838","","","tol_tohand","","","","","","","","","","","tol_peg_2","838","838","0","[[1,0,0],[0,0],[2]]","2","[[1,3,0],[2,0],[0]]","0","0","","","","","","3"
"","","","","","single-stim-button","328","1443687","0.0-4.0-10.1-1.1","5bf37a8017a7de0001cf7cb1","D2","batch4","","928","","","tol_toboard","","","","","","","","","","","tol_peg_1","928","928","0","[[1,3,0],[0,0],[2]]","2","[[1,3,0],[2,0],[0]]","0","0","","","","","","3"
"","","","","","single-stim-button","329","1444508","0.0-4.0-10.2-0.2","5bf37a8017a7de0001cf7cb1","D2","batch4","","815","","","tol_tohand","","","","","","","","","","","tol_peg_3","815","815","0","[[1,3,0],[0,0],[0]]","3","[[1,3,0],[2,0],[0]]","0","0","","","","","","3"
"","","","","","single-stim-button","330","1445339","0.0-4.0-10.2-1.2","5bf37a8017a7de0001cf7cb1","D2","batch4","","827","","","tol_toboard","","","","","","","","","","","tol_peg_2","827","827","0","[[1,3,0],[2,0],[0]]","3","[[1,3,0],[2,0],[0]]","0","0","","","","","","3"
"","","","","","poldrack-single-stim","331","1446347","0.0-4.0-11.0","5bf37a8017a7de0001cf7cb1","D2","batch4","","-1","","","tol_feedback","true","","","","","","","","","","","1000","1000","500","","","","","","-1","none","true","10988","12641",""
"","","","","","html-button-response","332","1447555","0.0-4.0-12.0","5bf37a8017a7de0001cf7cb1","D2","batch4","","1202.3999999985099","<div class = centerbox><p class = center-block-text>problem <strong>2</strong> out of 25 problems</p></div>","0","tol_trial_num","","","","","","","","","","","","","","","","","","","","","","","","",""
"","","","","","single-stim-button","333","1456478","0.0-4.0-13.0-0.0","5bf37a8017a7de0001cf7cb1","D2","batch4","","8919","","","tol_tohand","","","","","","","","","","","tol_peg_1","8919","8919","0","[[1,0,0],[3,0],[0]]","1","[[2,1,3],[0,0],[0]]","1","0","","","","","","5"
"","","","","","single-stim-button","334","1463693","0.0-4.0-13.0-1.0","5bf37a8017a7de0001cf7cb1","D2","batch4","","7210","","","tol_toboard","","","","","","","","","","","tol_peg_2","7210","7210","0","[[1,0,0],[3,2],[0]]","1","[[2,1,3],[0,0],[0]]","1","0","","","","","","5"
"","","","","","single-stim-button","335","1464456","0.0-4.0-13.1-0.1","5bf37a8017a7de0001cf7cb1","D2","batch4","","758","","","tol_tohand","","","","","","","","","","","tol_peg_1","758","758","0","[[0,0,0],[3,2],[0]]","2","[[2,1,3],[0,0],[0]]","1","0","","","","","","5"
"","","","","","single-stim-button","336","1465597","0.0-4.0-13.1-1.1","5bf37a8017a7de0001cf7cb1","D2","batch4","","1137","","","tol_toboard","","","","","","","","","","","tol_peg_3","1137","1137","0","[[0,0,0],[3,2],[1]]","2","[[2,1,3],[0,0],[0]]","1","0","","","","","","5"
"","","","","","single-stim-button","337","1466339","0.0-4.0-13.2-0.2","5bf37a8017a7de0001cf7cb1","D2","batch4","","738","","","tol_tohand","","","","","","","","","","","tol_peg_2","738","738","0","[[0,0,0],[3,0],[1]]","3","[[2,1,3],[0,0],[0]]","1","0","","","","","","5"
"","","","","","single-stim-button","338","1467455","0.0-4.0-13.2-1.2","5bf37a8017a7de0001cf7cb1","D2","batch4","","1112","","","tol_toboard","","","","","","","","","","","tol_peg_1","1112","1112","0","[[2,0,0],[3,0],[1]]","3","[[2,1,3],[0,0],[0]]","1","0","","","","","","5"
"","","","","","single-stim-button","339","1468389","0.0-4.0-13.3-0.3","5bf37a8017a7de0001cf7cb1","D2","batch4","","929","","","tol_tohand","","","","","","","","","","","tol_peg_3","929","929","0","[[2,0,0],[3,0],[0]]","4","[[2,1,3],[0,0],[0]]","1","0","","","","","","5"
"","","","","","single-stim-button","340","1469258","0.0-4.0-13.3-1.3","5bf37a8017a7de0001cf7cb1","D2","batch4","","866","","","tol_toboard","","","","","","","","","","","tol_peg_1","866","866","0","[[2,1,0],[3,0],[0]]","4","[[2,1,3],[0,0],[0]]","1","0","","","","","","5"
"","","","","","single-stim-button","341","1470037","0.0-4.0-13.4-0.4","5bf37a8017a7de0001cf7cb1","D2","batch4","","774","","","tol_tohand","","","","","","","","","","","tol_peg_2","774","774","0","[[2,1,0],[0,0],[0]]","5","[[2,1,3],[0,0],[0]]","1","0","","","","","","5"
"","","","","","single-stim-button","342","1470919","0.0-4.0-13.4-1.4","5bf37a8017a7de0001cf7cb1","D2","batch4","","878","","","tol_toboard","","","","","","","","","","","tol_peg_1","878","878","0","[[2,1,3],[0,0],[0]]","5","[[2,1,3],[0,0],[0]]","1","0","","","","","","5"
"","","","","","poldrack-single-stim","343","1471931","0.0-4.0-14.0","5bf37a8017a7de0001cf7cb1","D2","batch4","","-1","","","tol_feedback","true","","","","","","","","","","","1000","1000","500","","","","","","-1","none","true","8919","12118",""
"","","","","","html-button-response","344","1473358","0.0-4.0-15.0","5bf37a8017a7de0001cf7cb1","D2","batch4","","1421.300000000745","<div class = centerbox><p class = center-block-text>problem <strong>3</strong> out of 25 problems</p></div>","0","tol_trial_num","","","","","","","","","","","","","","","","","","","","","","","","",""
"","","","","","single-stim-button","345","1478479","0.0-4.0-16.0-0.0","5bf37a8017a7de0001cf7cb1","D2","batch4","","5117","","","tol_tohand","","","","","","","","","","","tol_peg_1","5117","5117","0","[[2,0,0],[0,0],[1]]","1","[[1,2,0],[3,0],[0]]","2","0","","","","","","4"
"","","","","","single-stim-button","346","1480116","0.0-4.0-16.0-1.0","5bf37a8017a7de0001cf7cb1","D2","batch4","","1632","","","tol_toboard","","","","","","","","","","","tol_peg_2","1632","1632","0","[[2,0,0],[3,0],[1]]","1","[[1,2,0],[3,0],[0]]","2","0","","","","","","4"
"","","","","","single-stim-button","347","1482405","0.0-4.0-16.1-0.1","5bf37a8017a7de0001cf7cb1","D2","batch4","","2285","","","tol_tohand","","","","","","","","","","","tol_peg_1","2285","2285","0","[[0,0,0],[3,0],[1]]","2","[[1,2,0],[3,0],[0]]","2","0","","","","","","4"
