"success","timeout","failed_images","failed_audio","failed_video","trial_type","trial_index","time_elapsed","internal_node_id","subject_id","study_id","session_id","task","rt","stimulus","response","item","answer","correct","spm_correct","spm_rt","view_history","mouse_click","stim_duration","block_duration","timing_post_trial","current_position","tol_num_moves_made","tol_target","tol_problem_id","tol_rt","key_press","possible_responses","tol_correct","preplanning","tol_rt_per_trial","tol_min_moves","fiar_detect_rt","fiar_detect_correct","total_correct_fiar_detect","post_trial_gap","choices"
"true","false","[]","[]","[]","preload","0","2288","0.0-0.0","5c1021a547d07800011a23de","B2","batch2","","","","","","","","","","","","","","","","","","","","","","","","","","","","","",""
"true","","","","","fullscreen","1","145146","0.0-1.0-0.0","5c1021a547d07800011a23de","B2","batch2","","","","","","","","","","","","","","","","","","","","","","","","","","","","","",""
"true","","","","","fullscreen","2","148522","0.0-2.0-0.0","5c1021a547d07800011a23de","B2","batch2","spm_fullscreen","","","","","","","","","","","","","","","","","","","","","","","","","","","","",""
"","","","","","html-button-response","3","161275","0.0-2.0-1.0","5c1021a547d07800011a23de","B2","batch2","","12749.60000000894","<p class = block-text><b>Instructions</b> <br>This is a widely used intelligence test in research. <br>In this test, a figure with a missing piece will be presented.<br>Below the figure are alternative pieces to complete the figure, only one of which is correct.<br> Different figures might involve different principles for obtaining the missing piece<br>Your job is to select the most logical piece to complete the figure.</p>","0","","","","","","","","","","","","","","","","","","","","","","","","","",""
"","","","","","html-keyboard-response","4","162082","0.0-2.0-2.0-0.0","5c1021a547d07800011a23de","B2","batch2","spm_show_trial_num","null","<p class=block-text>Trial 1 out of 60</p>","null","","","","","","","","","","","","","","","","","","","","","","","","","",""
"","","","","","image-button-response","5","168928","0.0-2.0-2.0-1.0","5c1021a547d07800011a23de","B2","batch2","spm_respsonse","6834.4000000059605","img/question_1_1.jpeg","3","mat_01","4","1","1","6834.4000000059605","","","","","","","","","","","","","","","","","","","","",""
"","","","","","html-keyboard-response","6","169990","0.0-2.0-2.0-0.1","5c1021a547d07800011a23de","B2","batch2","spm_show_trial_num","null","<p class=block-text>Trial 2 out of 60</p>","null","","","","","","","","","","","","","","","","","","","","","","","","","",""
"","","","","","image-button-response","7","175085","0.0-2.0-2.0-1.1","5c1021a547d07800011a23de","B2","batch2","spm_respsonse","5092.5999999940395","img/question_1_2.jpeg","4","mat_02","5","1","1","5092.5999999940395","","","","","","","","","","","","","","","","","","","","",""
"","","","","","html-keyboard-response","8","176150","0.0-2.0-2.0-0.2","5c1021a547d07800011a23de","B2","batch2","spm_show_trial_num","null","<p class=block-text>Trial 3 out of 60</p>","null","","","","","","","","","","","","","","","","","","","","","","","","","",""
"","","","","","image-button-response","9","181754","0.0-2.0-2.0-1.2","5c1021a547d07800011a23de","B2","batch2","spm_respsonse","5600.600000008941","img/question_1_3.jpeg","0","mat_03","1","1","1","5600.600000008941","","","","","","","","","","","","","","","","","","","","",""
"","","","","","html-keyboard-response","10","182810","0.0-2.0-2.0-0.3","5c1021a547d07800011a23de","B2","batch2","spm_show_trial_num","null","<p class=block-text>Trial 4 out of 60</p>","null","","","","","","","","","","","","","","","","","","","","","","","","","",""
"","","","","","image-button-response","11","188287","0.0-2.0-2.0-1.3","5c1021a547d07800011a23de","B2","batch2","spm_respsonse","5474.0999999940395","img/question_1_4.jpeg","1","mat_04","2","1","1","5474.0999999940395","","","","","","","","","","","","","","","","","","","","",""
"","","","","","html-keyboard-response","12","189345","0.0-2.0-2.0-0.4","5c1021a547d07800011a23de","B2","batch2","spm_show_trial_num","null","<p class=block-text>Trial 5 out of 60</p>","null","","","","","","","","","","","","","","","","","","","","","","","","","",""
"","","","","","image-button-response","13","194708","0.0-2.0-2.0-1.4","5c1021a547d07800011a23de","B2","batch2","spm_respsonse","5360.29999999702","img/question_1_5.jpeg","5","mat_05","6","1","1","5360.29999999702","","","","","","","","","","","","","","","","","","","","",""
"","","","","","html-keyboard-response","14","195761","0.0-2.0-2.0-0.5","5c1021a547d07800011a23de","B2","batch2","spm_show_trial_num","null","<p class=block-text>Trial 6 out of 60</p>","null","","","","","","","","","","","","","","","","","","","","","","","","","",""
"","","","","","image-button-response","15","200601","0.0-2.0-2.0-1.5","5c1021a547d07800011a23de","B2","batch2","spm_respsonse","4836.9000000059605","img/question_1_6.jpeg","2","mat_06","3","1","1","4836.9000000059605","","","","","","","","","","","","","","","","","","","","",""
"","","","","","html-keyboard-response","16","201672","0.0-2.0-2.0-0.6","5c1021a547d07800011a23de","B2","batch2","spm_show_trial_num","null","<p class=block-text>Trial 7 out of 60</p>","null","","","","","","","","","","","","","","","","","","","","","","","","","",""
"","","","","","image-button-response","17","207854","0.0-2.0-2.0-1.6","5c1021a547d07800011a23de","B2","batch2","spm_respsonse","6179","img/question_1_7.jpeg","5","mat_07","6","1","1","6179","","","","","","","","","","","","","","","","","","","","",""
"","","","","","html-keyboard-response","18","208907","0.0-2.0-2.0-0.7","5c1021a547d07800011a23de","B2","batch2","spm_show_trial_num","null","<p class=block-text>Trial 8 out of 60</p>","null","","","","","","","","","","","","","","","","","","","","","","","","","",""
"","","","","","image-button-response","19","215201","0.0-2.0-2.0-1.7","5c1021a547d07800011a23de","B2","batch2","spm_respsonse","6291.5999999940395","img/question_1_8.jpeg","1","mat_08","2","1","1","6291.5999999940395","","","","","","","","","","","","","","","","","","","","",""
"","","","","","html-keyboard-response","20","216264","0.0-2.0-2.0-0.8","5c1021a547d07800011a23de","B2","batch2","spm_show_trial_num","null","<p class=block-text>Trial 9 out of 60</p>","null","","","","","","","","","","","","","","","","","","","","","","","","","",""
"","","","","","image-button-response","21","219928","0.0-2.0-2.0-1.8","5c1021a547d07800011a23de","B2","batch2","spm_respsonse","3661.2000000029802","img/question_1_9.jpeg","0","mat_09","1","1","1","3661.2000000029802","","","","","","","","","","","","","","","","","","","","",""
"","","","","","html-keyboard-response","22","220995","0.0-2.0-2.0-0.9","5c1021a547d07800011a23de","B2","batch2","spm_show_trial_num","null","<p class=block-text>Trial 10 out of 60</p>","null","","","","","","","","","","","","","","","","","","","","","","","","","",""
"","","","","","image-button-response","23","231387","0.0-2.0-2.0-1.9","5c1021a547d07800011a23de","B2","batch2","spm_respsonse","10389.59999999404","img/question_1_10.jpeg","2","mat_10","3","1","1","10389.59999999404","","","","","","","","","","","","","","","","","","","","",""
"","","","","","html-keyboard-response","24","232445","0.0-2.0-2.0-0.10","5c1021a547d07800011a23de","B2","batch2","spm_show_trial_num","null","<p class=block-text>Trial 11 out of 60</p>","null","","","","","","","","","","","","","","","","","","","","","","","","","",""
"","","","","","image-button-response","25","244789","0.0-2.0-2.0-1.10","5c1021a547d07800011a23de","B2","batch2","spm_respsonse","12341.79999999702","img/question_1_11.jpeg","3","mat_11","4","1","1","12341.79999999702","","","","","","","","","","","","","","","","","","","","",""
"","","","","","html-keyboard-response","26","245854","0.0-2.0-2.0-0.11","5c1021a547d07800011a23de","B2","batch2","spm_show_trial_num","null","<p class=block-text>Trial 12 out of 60</p>","null","","","","","","","","","","","","","","","","","","","","","","","","","",""
"","","","","","image-button-response","27","263004","0.0-2.0-2.0-1.11","5c1021a547d07800011a23de","B2","batch2","spm_respsonse","17146.70000000298","img/question_1_12.jpeg","0","mat_12","5","0","0","17146.70000000298","","","","","","","","","","","","","","","","","","","","",""
"","","","","","html-keyboard-response","28","264072","0.0-2.0-2.0-0.12","5c1021a547d07800011a23de","B2","batch2","spm_show_trial_num","null","<p class=block-text>Trial 13 out of 60</p>","null","","","","","","","","","","","","","","","","","","","","","","","","","",""
"","","","","","image-button-response","29","269840","0.0-2.0-2.0-1.12","5c1021a547d07800011a23de","B2","batch2","spm_respsonse","5766","img/question_2_1.jpeg","1","mat_13","2","1","1","5766","","","","","","","","","","","","","","","","","","","","",""
"","","","","","html-keyboard-response","30","270906","0.0-2.0-2.0-0.13","5c1021a547d07800011a23de","B2","batch2","spm_show_trial_num","null","<p class=block-text>Trial 14 out of 60</p>","null","","","","","","","","","","","","","","","","","","","","","","","","","",""
"","","","","","image-button-response","31","276390","0.0-2.0-2.0-1.13","5c1021a547d07800011a23de","B2","batch2","spm_respsonse","5480.5999999940395","img/question_2_2.jpeg","5","mat_14","6","1","1","5480.5999999940395","","","","","","","","","","","","","","","","","","","","",""
"","","","","","html-keyboard-response","32","277442","0.0-2.0-2.0-0.14","5c1021a547d07800011a23de","B2","batch2","spm_show_trial_num","null","<p class=block-text>Trial 15 out of 60</p>","null","","","","","","","","","","","","","","","","","","","","","","","","","",""
"","","","","","image-button-response","33","282802","0.0-2.0-2.0-1.14","5c1021a547d07800011a23de","B2","batch2","spm_respsonse","5357.70000000298","img/question_2_3.jpeg","0","mat_15","1","1","1","5357.70000000298","","","","","","","","","","","","","","","","","","","","",""
"","","","","","html-keyboard-response","34","283861","0.0-2.0-2.0-0.15","5c1021a547d07800011a23de","B2","batch2","spm_show_trial_num","null","<p class=block-text>Trial 16 out of 60</p>","null","","","","","","","","","","","","","","","","","","","","","","","","","",""
"","","","","","image-button-response","35","288168","0.0-2.0-2.0-1.15","5c1021a547d07800011a23de","B2","batch2","spm_respsonse","4305.4000000059605","img/question_2_4.jpeg","1","mat_16","2","1","1","4305.4000000059605","","","","","","","","","","","","","","","","","","","","",""
"","","","","","html-keyboard-response","36","289222","0.0-2.0-2.0-0.16","5c1021a547d07800011a23de","B2","batch2","spm_show_trial_num","null","<p class=block-text>Trial 17 out of 60</p>","null","","","","","","","","","","","","","","","","","","","","","","","","","",""
"","","","","","image-button-response","37","294837","0.0-2.0-2.0-1.16","5c1021a547d07800011a23de","B2","batch2","spm_respsonse","5612.5","img/question_2_5.jpeg","0","mat_17","1","1","1","5612.5","","","","","","","","","","","","","","","","","","","","",""
"","","","","","html-keyboard-response","38","295889","0.0-2.0-2.0-0.17","5c1021a547d07800011a23de","B2","batch2","spm_show_trial_num","null","<p class=block-text>Trial 18 out of 60</p>","null","","","","","","","","","","","","","","","","","","","","","","","","","",""
"","","","","","image-button-response","39","304352","0.0-2.0-2.0-1.17","5c1021a547d07800011a23de","B2","batch2","spm_respsonse","8460.29999999702","img/question_2_6.jpeg","2","mat_18","3","1","1","8460.29999999702","","","","","","","","","","","","","","","","","","","","",""
"","","","","","html-keyboard-response","40","305435","0.0-2.0-2.0-0.18","5c1021a547d07800011a23de","B2","batch2","spm_show_trial_num","null","<p class=block-text>Trial 19 out of 60</p>","null","","","","","","","","","","","","","","","","","","","","","","","","","",""
"","","","","","image-button-response","41","318458","0.0-2.0-2.0-1.18","5c1021a547d07800011a23de","B2","batch2","spm_respsonse","13020.39999999106","img/question_2_7.jpeg","4","mat_19","5","1","1","13020.39999999106","","","","","","","","","","","","","","","","","","","","",""
"","","","","","html-keyboard-response","42","319511","0.0-2.0-2.0-0.19","5c1021a547d07800011a23de","B2","batch2","spm_show_trial_num","null","<p class=block-text>Trial 20 out of 60</p>","null","","","","","","","","","","","","","","","","","","","","","","","","","",""
"","","","","","image-button-response","43","329653","0.0-2.0-2.0-1.19","5c1021a547d07800011a23de","B2","batch2","spm_respsonse","10139","img/question_2_8.jpeg","5","mat_20","6","1","1","10139","","","","","","","","","","","","","","","","","","","","",""
"","","","","","html-keyboard-response","44","330708","0.0-2.0-2.0-0.20","5c1021a547d07800011a23de","B2","batch2","spm_show_trial_num","null","<p class=block-text>Trial 21 out of 60</p>","null","","","","","","","","","","","","","","","","","","","","","","","","","",""
"","","","","","image-button-response","45","339545","0.0-2.0-2.0-1.20","5c1021a547d07800011a23de","B2","batch2","spm_respsonse","8834.29999999702","img/question_2_9.jpeg","3","mat_21","4","1","1","8834.29999999702","","","","","","","","","","","","","","","","","","","","",""
"","","","","","html-keyboard-response","46","340613","0.0-2.0-2.0-0.21","5c1021a547d07800011a23de","B2","batch2","spm_show_trial_num","null","<p class=block-text>Trial 22 out of 60</p>","null","","","","","","","","","","","","","","","","","","","","","","","","","",""
"","","","","","image-button-response","47","346549","0.0-2.0-2.0-1.21","5c1021a547d07800011a23de","B2","batch2","spm_respsonse","5933.5999999940395","img/question_2_10.jpeg","2","mat_22","3","1","1","5933.5999999940395","","","","","","","","","","","","","","","","","","","","",""
"","","","","","html-keyboard-response","48","347626","0.0-2.0-2.0-0.22","5c1021a547d07800011a23de","B2","batch2","spm_show_trial_num","null","<p class=block-text>Trial 23 out of 60</p>","null","","","","","","","","","","","","","","","","","","","","","","","","","",""
"","","","","","image-button-response","49","358288","0.0-2.0-2.0-1.22","5c1021a547d07800011a23de","B2","batch2","spm_respsonse","10659.39999999106","img/question_2_11.jpeg","3","mat_23","4","1","1","10659.39999999106","","","","","","","","","","","","","","","","","","","","",""
"","","","","","html-keyboard-response","50","359350","0.0-2.0-2.0-0.23","5c1021a547d07800011a23de","B2","batch2","spm_show_trial_num","null","<p class=block-text>Trial 24 out of 60</p>","null","","","","","","","","","","","","","","","","","","","","","","","","","",""
"","","","","","image-button-response","51","371106","0.0-2.0-2.0-1.23","5c1021a547d07800011a23de","B2","batch2","spm_respsonse","11753.79999999702","img/question_2_12.jpeg","4","mat_24","5","1","1","11753.79999999702","","","","","","","","","","","","","","","","","","","","",""
"","","","","","html-button-response","52","373841","0.0-2.0-3.0","5c1021a547d07800011a23de","B2","batch2","attention_check","2482.5","<p class = block-text>Attention check: Please choose 1<br></p>","0","","","true","","","","","","","","","","","","","","","","","","","","","","",""
"","","","","","html-keyboard-response","53","374647","0.0-2.0-4.0-0.0","5c1021a547d07800011a23de","B2","batch2","spm_show_trial_num","null","<p class=block-text>Trial 25 out of 60</p>","null","","","","","","","","","","","","","","","","","","","","","","","","","",""
"","","","","","image-button-response","54","383925","0.0-2.0-4.0-1.0","5c1021a547d07800011a23de","B2","batch2","spm_respsonse","9275.09999999404","img/question_3_1.jpeg","7","mat_25","8","1","1","9275.09999999404","","","","","","","","","","","","","","","","","","","","",""
"","","","","","html-keyboard-response","55","384976","0.0-2.0-4.0-0.1","5c1021a547d07800011a23de","B2","batch2","spm_show_trial_num","null","<p class=block-text>Trial 26 out of 60</p>","null","","","","","","","","","","","","","","","","","","","","","","","","","",""
"","","","","","image-button-response","56","390377","0.0-2.0-4.0-1.1","5c1021a547d07800011a23de","B2","batch2","spm_respsonse","5397.5","img/question_3_2.jpeg","1","mat_26","2","1","1","5397.5","","","","","","","","","","","","","","","","","","","","",""
"","","","","","html-keyboard-response","57","391432","0.0-2.0-4.0-0.2","5c1021a547d07800011a23de","B2","batch2","spm_show_trial_num","null","<p class=block-text>Trial 27 out of 60</p>","null","","","","","","","","","","","","","","","","","","","","","","","","","",""
"","","","","","image-button-response","58","400198","0.0-2.0-4.0-1.2","5c1021a547d07800011a23de","B2","batch2","spm_respsonse","8763.89999999106","img/question_3_3.jpeg","2","mat_27","3","1","1","8763.89999999106","","","","","","","","","","","","","","","","","","","","",""
"","","","","","html-keyboard-response","59","401258","0.0-2.0-4.0-0.3","5c1021a547d07800011a23de","B2","batch2","spm_show_trial_num","null","<p class=block-text>Trial 28 out of 60</p>","null","","","","","","","","","","","","","","","","","","","","","","","","","",""
"","","","","","image-button-response","60","416261","0.0-2.0-4.0-1.3","5c1021a547d07800011a23de","B2","batch2","spm_respsonse","15001.10000000894","img/question_3_4.jpeg","7","mat_28","8","1","1","15001.10000000894","","","","","","","","","","","","","","","","","","","","",""
"","","","","","html-keyboard-response","61","417314","0.0-2.0-4.0-0.4","5c1021a547d07800011a23de","B2","batch2","spm_show_trial_num","null","<p class=block-text>Trial 29 out of 60</p>","null","","","","","","","","","","","","","","","","","","","","","","","","","",""
"","","","","","image-button-response","62","431366","0.0-2.0-4.0-1.4","5c1021a547d07800011a23de","B2","batch2","spm_respsonse","14049.29999999702","img/question_3_5.jpeg","6","mat_29","7","1","1","14049.29999999702","","","","","","","","","","","","","","","","","","","","",""
"","","","","","html-keyboard-response","63","432432","0.0-2.0-4.0-0.5","5c1021a547d07800011a23de","B2","batch2","spm_show_trial_num","null","<p class=block-text>Trial 30 out of 60</p>","null","","","","","","","","","","","","","","","","","","","","","","","","","",""
"","","","","","image-button-response","64","442145","0.0-2.0-4.0-1.5","5c1021a547d07800011a23de","B2","batch2","spm_respsonse","9711.09999999404","img/question_3_6.jpeg","3","mat_30","4","1","1","9711.09999999404","","","","","","","","","","","","","","","","","","","","",""
"","","","","","html-keyboard-response","65","443210","0.0-2.0-4.0-0.6","5c1021a547d07800011a23de","B2","batch2","spm_show_trial_num","null","<p class=block-text>Trial 31 out of 60</p>","null","","","","","","","","","","","","","","","","","","","","","","","","","",""
"","","","","","image-button-response","66","456371","0.0-2.0-4.0-1.6","5c1021a547d07800011a23de","B2","batch2","spm_respsonse","13158.70000000298","img/question_3_7.jpeg","7","mat_31","5","0","0","13158.70000000298","","","","","","","","","","","","","","","","","","","","",""
"","","","","","html-keyboard-response","67","457423","0.0-2.0-4.0-0.7","5c1021a547d07800011a23de","B2","batch2","spm_show_trial_num","null","<p class=block-text>Trial 32 out of 60</p>","null","","","","","","","","","","","","","","","","","","","","","","","","","",""
"","","","","","image-button-response","68","465607","0.0-2.0-4.0-1.7","5c1021a547d07800011a23de","B2","batch2","spm_respsonse","8181.600000008941","img/question_3_8.jpeg","0","mat_32","1","1","1","8181.600000008941","","","","","","","","","","","","","","","","","","","","",""
"","","","","","html-keyboard-response","69","466660","0.0-2.0-4.0-0.8","5c1021a547d07800011a23de","B2","batch2","spm_show_trial_num","null","<p class=block-text>Trial 33 out of 60</p>","null","","","","","","","","","","","","","","","","","","","","","","","","","",""
"","","","","","image-button-response","70","497280","0.0-2.0-4.0-1.8","5c1021a547d07800011a23de","B2","batch2","spm_respsonse","30617.29999999702","img/question_3_9.jpeg","1","mat_33","7","0","0","30617.29999999702","","","","","","","","","","","","","","","","","","","","",""
"","","","","","html-keyboard-response","71","498347","0.0-2.0-4.0-0.9","5c1021a547d07800011a23de","B2","batch2","spm_show_trial_num","null","<p class=block-text>Trial 34 out of 60</p>","null","","","","","","","","","","","","","","","","","","","","","","","","","",""
"","","","","","image-button-response","72","515632","0.0-2.0-4.0-1.9","5c1021a547d07800011a23de","B2","batch2","spm_respsonse","17282.40000000596","img/question_3_10.jpeg","3","mat_34","6","0","0","17282.40000000596","","","","","","","","","","","","","","","","","","","","",""
"","","","","","html-keyboard-response","73","516685","0.0-2.0-4.0-0.10","5c1021a547d07800011a23de","B2","batch2","spm_show_trial_num","null","<p class=block-text>Trial 35 out of 60</p>","null","","","","","","","","","","","","","","","","","","","","","","","","","",""
"","","","","","image-button-response","74","535959","0.0-2.0-4.0-1.10","5c1021a547d07800011a23de","B2","batch2","spm_respsonse","19270.39999999106","img/question_3_11.jpeg","0","mat_35","1","1","1","19270.39999999106","","","","","","","","","","","","","","","","","","","","",""
"","","","","","html-keyboard-response","75","537011","0.0-2.0-4.0-0.11","5c1021a547d07800011a23de","B2","batch2","spm_show_trial_num","null","<p class=block-text>Trial 36 out of 60</p>","null","","","","","","","","","","","","","","","","","","","","","","","","","",""
"","","","","","image-button-response","76","559028","0.0-2.0-4.0-1.11","5c1021a547d07800011a23de","B2","batch2","spm_respsonse","22014.39999999106","img/question_3_12.jpeg","3","mat_36","2","0","0","22014.39999999106","","","","","","","","","","","","","","","","","","","","",""
"","","","","","html-keyboard-response","77","560106","0.0-2.0-4.0-0.12","5c1021a547d07800011a23de","B2","batch2","spm_show_trial_num","null","<p class=block-text>Trial 37 out of 60</p>","null","","","","","","","","","","","","","","","","","","","","","","","","","",""
"","","","","","image-button-response","78","566792","0.0-2.0-4.0-1.12","5c1021a547d07800011a23de","B2","batch2","spm_respsonse","6683.29999999702","img/question_4_1.jpeg","2","mat_37","3","1","1","6683.29999999702","","","","","","","","","","","","","","","","","","","","",""
"","","","","","html-keyboard-response","79","567850","0.0-2.0-4.0-0.13","5c1021a547d07800011a23de","B2","batch2","spm_show_trial_num","null","<p class=block-text>Trial 38 out of 60</p>","null","","","","","","","","","","","","","","","","","","","","","","","","","",""
"","","","","","image-button-response","80","573637","0.0-2.0-4.0-1.13","5c1021a547d07800011a23de","B2","batch2","spm_respsonse","5784.79999999702","img/question_4_2.jpeg","3","mat_38","4","1","1","5784.79999999702","","","","","","","","","","","","","","","","","","","","",""
"","","","","","html-keyboard-response","81","574690","0.0-2.0-4.0-0.14","5c1021a547d07800011a23de","B2","batch2","spm_show_trial_num","null","<p class=block-text>Trial 39 out of 60</p>","null","","","","","","","","","","","","","","","","","","","","","","","","","",""
"","","","","","image-button-response","82","581905","0.0-2.0-4.0-1.14","5c1021a547d07800011a23de","B2","batch2","spm_respsonse","7212.5","img/question_4_3.jpeg","2","mat_39","3","1","1","7212.5","","","","","","","","","","","","","","","","","","","","",""
"","","","","","html-keyboard-response","83","582961","0.0-2.0-4.0-0.15","5c1021a547d07800011a23de","B2","batch2","spm_show_trial_num","null","<p class=block-text>Trial 40 out of 60</p>","null","","","","","","","","","","","","","","","","","","","","","","","","","",""
"","","","","","image-button-response","84","594292","0.0-2.0-4.0-1.15","5c1021a547d07800011a23de","B2","batch2","spm_respsonse","11329.10000000894","img/question_4_4.jpeg","6","mat_40","7","1","1","11329.10000000894","","","","","","","","","","","","","","","","","","","","",""
"","","","","","html-keyboard-response","85","595355","0.0-2.0-4.0-0.16","5c1021a547d07800011a23de","B2","batch2","spm_show_trial_num","null","<p class=block-text>Trial 41 out of 60</p>","null","","","","","","","","","","","","","","","","","","","","","","","","","",""
"","","","","","image-button-response","86","608733","0.0-2.0-4.0-1.16","5c1021a547d07800011a23de","B2","batch2","spm_respsonse","13376.09999999404","img/question_4_5.jpeg","7","mat_41","8","1","1","13376.09999999404","","","","","","","","","","","","","","","","","","","","",""
"","","","","","html-keyboard-response","87","609785","0.0-2.0-4.0-0.17","5c1021a547d07800011a23de","B2","batch2","spm_show_trial_num","null","<p class=block-text>Trial 42 out of 60</p>","null","","","","","","","","","","","","","","","","","","","","","","","","","",""
"","","","","","image-button-response","88","635123","0.0-2.0-4.0-1.17","5c1021a547d07800011a23de","B2","batch2","spm_respsonse","25348.69999998808","img/question_4_6.jpeg","6","mat_42","6","0","0","25348.69999998808","","","","","","","","","","","","","","","","","","","","",""
"","","","","","html-keyboard-response","89","636176","0.0-2.0-4.0-0.18","5c1021a547d07800011a23de","B2","batch2","spm_show_trial_num","null","<p class=block-text>Trial 43 out of 60</p>","null","","","","","","","","","","","","","","","","","","","","","","","","","",""
"","","","","","image-button-response","90","652371","0.0-2.0-4.0-1.18","5c1021a547d07800011a23de","B2","batch2","spm_respsonse","16192.20000000298","img/question_4_7.jpeg","4","mat_43","5","1","1","16192.20000000298","","","","","","","","","","","","","","","","","","","","",""
"","","","","","html-keyboard-response","91","653424","0.0-2.0-4.0-0.19","5c1021a547d07800011a23de","B2","batch2","spm_show_trial_num","null","<p class=block-text>Trial 44 out of 60</p>","null","","","","","","","","","","","","","","","","","","","","","","","","","",""
"","","","","","image-button-response","92","668108","0.0-2.0-4.0-1.19","5c1021a547d07800011a23de","B2","batch2","spm_respsonse","14680.59999999404","img/question_4_8.jpeg","3","mat_44","4","1","1","14680.59999999404","","","","","","","","","","","","","","","","","","","","",""
"","","","","","html-keyboard-response","93","669161","0.0-2.0-4.0-0.20","5c1021a547d07800011a23de","B2","batch2","spm_show_trial_num","null","<p class=block-text>Trial 45 out of 60</p>","null","","","","","","","","","","","","","","","","","","","","","","","","","",""
"","","","","","image-button-response","94","693520","0.0-2.0-4.0-1.20","5c1021a547d07800011a23de","B2","batch2","spm_respsonse","24355.5","img/question_4_9.jpeg","1","mat_45","1","0","0","24355.5","","","","","","","","","","","","","","","","","","","","",""
"","","","","","html-keyboard-response","95","694582","0.0-2.0-4.0-0.21","5c1021a547d07800011a23de","B2","batch2","spm_show_trial_num","null","<p class=block-text>Trial 46 out of 60</p>","null","","","","","","","","","","","","","","","","","","","","","","","","","",""
"","","","","","image-button-response","96","707848","0.0-2.0-4.0-1.21","5c1021a547d07800011a23de","B2","batch2","spm_respsonse","13249.09999999404","img/question_4_10.jpeg","1","mat_46","2","1","1","13249.09999999404","","","","","","","","","","","","","","","","","","","","",""
"","","","","","html-keyboard-response","97","708901","0.0-2.0-4.0-0.22","5c1021a547d07800011a23de","B2","batch2","spm_show_trial_num","null","<p class=block-text>Trial 47 out of 60</p>","null","","","","","","","","","","","","","","","","","","","","","","","","","",""
"","","","","","image-button-response","98","726439","0.0-2.0-4.0-1.22","5c1021a547d07800011a23de","B2","batch2","spm_respsonse","17535.79999999702","img/question_4_11.jpeg","1","mat_47","5","0","0","17535.79999999702","","","","","","","","","","","","","","","","","","","","",""
"","","","","","html-keyboard-response","99","727491","0.0-2.0-4.0-0.23","5c1021a547d07800011a23de","B2","batch2","spm_show_trial_num","null","<p class=block-text>Trial 48 out of 60</p>","null","","","","","","","","","","","","","","","","","","","","","","","","","",""
"","","","","","image-button-response","100","755938","0.0-2.0-4.0-1.23","5c1021a547d07800011a23de","B2","batch2","spm_respsonse","28444.40000000596","img/question_4_12.jpeg","6","mat_48","6","0","0","28444.40000000596","","","","","","","","","","","","","","","","","","","","",""
"","","","","","html-keyboard-response","101","756994","0.0-2.0-4.0-0.24","5c1021a547d07800011a23de","B2","batch2","spm_show_trial_num","null","<p class=block-text>Trial 49 out of 60</p>","null","","","","","","","","","","","","","","","","","","","","","","","","","",""
"","","","","","image-button-response","102","779552","0.0-2.0-4.0-1.24","5c1021a547d07800011a23de","B2","batch2","spm_respsonse","22554.70000000298","img/question_5_1.jpeg","2","mat_49","7","0","0","22554.70000000298","","","","","","","","","","","","","","","","","","","","",""
"","","","","","html-keyboard-response","103","780611","0.0-2.0-4.0-0.25","5c1021a547d07800011a23de","B2","batch2","spm_show_trial_num","null","<p class=block-text>Trial 50 out of 60</p>","null","","","","","","","","","","","","","","","","","","","","","","","","","",""
"","","","","","image-button-response","104","798671","0.0-2.0-4.0-1.25","5c1021a547d07800011a23de","B2","batch2","spm_respsonse","18057.10000000894","img/question_5_2.jpeg","5","mat_50","6","1","1","18057.10000000894","","","","","","","","","","","","","","","","","","","","",""
"","","","","","html-keyboard-response","105","799735","0.0-2.0-4.0-0.26","5c1021a547d07800011a23de","B2","batch2","spm_show_trial_num","null","<p class=block-text>Trial 51 out of 60</p>","null","","","","","","","","","","","","","","","","","","","","","","","","","",""
"","","","","","image-button-response","106","813056","0.0-2.0-4.0-1.26","5c1021a547d07800011a23de","B2","batch2","spm_respsonse","13318.5","img/question_5_3.jpeg","3","mat_51","8","0","0","13318.5","","","","","","","","","","","","","","","","","","","","",""
"","","","","","html-keyboard-response","107","814119","0.0-2.0-4.0-0.27","5c1021a547d07800011a23de","B2","batch2","spm_show_trial_num","null","<p class=block-text>Trial 52 out of 60</p>","null","","","","","","","","","","","","","","","","","","","","","","","","","",""
"","","","","","image-button-response","108","828457","0.0-2.0-4.0-1.27","5c1021a547d07800011a23de","B2","batch2","spm_respsonse","14335.70000000298","img/question_5_4.jpeg","1","mat_52","2","1","1","14335.70000000298","","","","","","","","","","","","","","","","","","","","",""
"","","","","","html-keyboard-response","109","829514","0.0-2.0-4.0-0.28","5c1021a547d07800011a23de","B2","batch2","spm_show_trial_num","null","<p class=block-text>Trial 53 out of 60</p>","null","","","","","","","","","","","","","","","","","","","","","","","","","",""
"","","","","","image-button-response","110","844922","0.0-2.0-4.0-1.28","5c1021a547d07800011a23de","B2","batch2","spm_respsonse","15404.90000000596","img/question_5_5.jpeg","0","mat_53","1","1","1","15404.90000000596","","","","","","","","","","","","","","","","","","","","",""
"","","","","","html-keyboard-response","111","845985","0.0-2.0-4.0-0.29","5c1021a547d07800011a23de","B2","batch2","spm_show_trial_num","null","<p class=block-text>Trial 54 out of 60</p>","null","","","","","","","","","","","","","","","","","","","","","","","","","",""
"","","","","","image-button-response","112","862665","0.0-2.0-4.0-1.29","5c1021a547d07800011a23de","B2","batch2","spm_respsonse","16677.70000000298","img/question_5_6.jpeg","4","mat_54","5","1","1","16677.70000000298","","","","","","","","","","","","","","","","","","","","",""
"","","","","","html-keyboard-response","113","863740","0.0-2.0-4.0-0.30","5c1021a547d07800011a23de","B2","batch2","spm_show_trial_num","null","<p class=block-text>Trial 55 out of 60</p>","null","","","","","","","","","","","","","","","","","","","","","","","","","",""
"","","","","","image-button-response","114","880066","0.0-2.0-4.0-1.30","5c1021a547d07800011a23de","B2","batch2","spm_respsonse","16323","img/question_5_7.jpeg","7","mat_55","1","0","0","16323","","","","","","","","","","","","","","","","","","","","",""
"","","","","","html-keyboard-response","115","881134","0.0-2.0-4.0-0.31","5c1021a547d07800011a23de","B2","batch2","spm_show_trial_num","null","<p class=block-text>Trial 56 out of 60</p>","null","","","","","","","","","","","","","","","","","","","","","","","","","",""
"","","","","","image-button-response","116","899912","0.0-2.0-4.0-1.31","5c1021a547d07800011a23de","B2","batch2","spm_respsonse","18775.5","img/question_5_8.jpeg","5","mat_56","6","1","1","18775.5","","","","","","","","","","","","","","","","","","","","",""
"","","","","","html-keyboard-response","117","900972","0.0-2.0-4.0-0.32","5c1021a547d07800011a23de","B2","batch2","spm_show_trial_num","null","<p class=block-text>Trial 57 out of 60</p>","null","","","","","","","","","","","","","","","","","","","","","","","","","",""
"","","","","","image-button-response","118","914050","0.0-2.0-4.0-1.32","5c1021a547d07800011a23de","B2","batch2","spm_respsonse","13075.300000011921","img/question_5_9.jpeg","6","mat_57","3","0","0","13075.300000011921","","","","","","","","","","","","","","","","","","","","",""
"","","","","","html-keyboard-response","119","915104","0.0-2.0-4.0-0.33","5c1021a547d07800011a23de","B2","batch2","spm_show_trial_num","null","<p class=block-text>Trial 58 out of 60</p>","null","","","","","","","","","","","","","","","","","","","","","","","","","",""
"","","","","","image-button-response","120","940350","0.0-2.0-4.0-1.33","5c1021a547d07800011a23de","B2","batch2","spm_respsonse","25243.29999999702","img/question_5_10.jpeg","7","mat_58","2","0","0","25243.29999999702","","","","","","","","","","","","","","","","","","","","",""
"","","","","","html-keyboard-response","121","941404","0.0-2.0-4.0-0.34","5c1021a547d07800011a23de","B2","batch2","spm_show_trial_num","null","<p class=block-text>Trial 59 out of 60</p>","null","","","","","","","","","","","","","","","","","","","","","","","","","",""
"","","","","","image-button-response","122","951808","0.0-2.0-4.0-1.34","5c1021a547d07800011a23de","B2","batch2","spm_respsonse","10401.09999999404","img/question_5_11.jpeg","6","mat_59","4","0","0","10401.09999999404","","","","","","","","","","","","","","","","","","","","",""
"","","","","","html-keyboard-response","123","952876","0.0-2.0-4.0-0.35","5c1021a547d07800011a23de","B2","batch2","spm_show_trial_num","null","<p class=block-text>Trial 60 out of 60</p>","null","","","","","","","","","","","","","","","","","","","","","","","","","",""
"","","","","","image-button-response","124","972047","0.0-2.0-4.0-1.35","5c1021a547d07800011a23de","B2","batch2","spm_respsonse","19168.5","img/question_5_12.jpeg","2","mat_60","5","0","0","19168.5","","","","","","","","","","","","","","","","","","","","",""
"","","","","","html-button-response","125","974246","0.0-2.0-5.0","5c1021a547d07800011a23de","B2","batch2","spm_goodbye","1947.2000000029802","<p class= block-text>This concludes the Standard Progressive Matrix game. Thank you for your responses!<br> When you are ready, click the button continue</p>","0","","","","","","","","","","","","","","","","","","","","","","","","","",""
"true","","","","","fullscreen","126","976740","0.0-3.0-0.0","5c1021a547d07800011a23de","B2","batch2","","","","","","","","","","","","","","","","","","","","","","","","","","","","","",""
"","","","","","instructions","127","1028733","0.0-3.0-1.0-0.0-0.0","5c1021a547d07800011a23de","B2","batch2","tol-instructions","51991.79999999702","","","","","","","","[{""page_index"":0,""viewing_time"":6228.0999999940395},{""page_index"":1,""viewing_time"":10746.79999999702},{""page_index"":2,""viewing_time"":3527},{""page_index"":3,""viewing_time"":11730},{""page_index"":4,""viewing_time"":6357},{""page_index"":5,""viewing_time"":11075},{""page_index"":6,""viewing_time"":2327.4000000059605}]","","","","","","","","","","","","","","","","","","","",""
"","","","","","html-button-response","128","1030220","0.0-3.0-1.0-1.0-0.0","5c1021a547d07800011a23de","B2","batch2","tol_enter_quiz","1485.2000000029802","<p class=block-text> Let's answer a few questions <br>","0","","","","","","","","","","","","","","","","","","","","","","","","","",""
"","","","","","html-button-response","129","1036106","0.0-3.0-1.0-1.0-1.0","5c1021a547d07800011a23de","B2","batch2","tol_quiz","5884.5","<p class = block-text>True or False: You can only move the ball on top of a peg. <br></p>","0","","","true","","","","","","","","","","","","","","","","","","","","","","",""
"","","","","","html-button-response","130","1037913","0.0-3.0-1.0-1.0-2.0","5c1021a547d07800011a23de","B2","batch2","tol_quiz_feedback","1805","<p class = block-text>Correct! You can only move the ball on top of a peg.</p>","0","","","","","","","","","","","","","","","","","","","","","","","","","",""
"","","","","","html-button-response","131","1041463","0.0-3.0-1.0-1.0-3.0","5c1021a547d07800011a23de","B2","batch2","tol_quiz","3548.7000000029802","<p class = block-text>True or False: You should try to match your board with the target board with fewest moves possible. <br></p>","0","","","true","","","","","","","","","","","","","","","","","","","","","","",""
"","","","","","html-button-response","132","1042415","0.0-3.0-1.0-1.0-4.0","5c1021a547d07800011a23de","B2","batch2","tol_quiz_feedback","950.5","<p class = block-text>Correct! </p>","0","","","","","","","","","","","","","","","","","","","","","","","","","",""
"","","","","","html-button-response","133","1045342","0.0-3.0-2.0","5c1021a547d07800011a23de","B2","batch2","","2923.7000000029802","<p class=block-text> Now that you've understood the game, let's practice a few easier examples before we start!<br> <br>","0","","","","","","","","","","","","","","","","","","","","","","","","","",""
"","","","","","single-stim-button","134","1048120","0.0-3.0-3.0-0.0","5c1021a547d07800011a23de","B2","batch2","tol_practice","2775","","","","","","","","","tol_peg_2","2775","2775","0","[[1,2,0],[0,0],[0]]","1","[[1,2,0],[0,0],[3]]","practice","2775","","","","","","","","","","",""
"","","","","","single-stim-button","135","1049788","0.0-3.0-3.0-1.0","5c1021a547d07800011a23de","B2","batch2","tol_practice","1666","","","","","","","","","tol_peg_3","1666","1666","0","[[1,2,0],[0,0],[3]]","1","[[1,2,0],[0,0],[3]]","practice","1666","","","","","","","","","","",""
"","","","","","poldrack-single-stim","136","1050790","0.0-3.0-4.0","5c1021a547d07800011a23de","B2","batch2","tol_feedback","-1","","","","","true","","","","","1000","1000","500","","","","","","-1","none","true","","0","","","","","",""
"","","","","","single-stim-button","137","1054697","0.0-3.0-5.0-0.0","5c1021a547d07800011a23de","B2","batch2","tol_practice","3905","","","","","","","","","tol_peg_1","3905","3905","0","[[1,0,0],[3,0],[0]]","2","[[0,0,0],[3,1],[2]]","practice","3905","","","","","","","","","","",""
"","","","","","single-stim-button","138","1056065","0.0-3.0-5.0-1.0","5c1021a547d07800011a23de","B2","batch2","tol_practice","1366","","","","","","","","","tol_peg_3","1366","1366","0","[[1,0,0],[3,0],[2]]","2","[[0,0,0],[3,1],[2]]","practice","1366","","","","","","","","","","",""
"","","","","","single-stim-button","139","1057792","0.0-3.0-5.1-0.1","5c1021a547d07800011a23de","B2","batch2","tol_practice","1726","","","","","","","","","tol_peg_1","1726","1726","0","[[0,0,0],[3,0],[2]]","3","[[0,0,0],[3,1],[2]]","practice","1726","","","","","","","","","","",""
"","","","","","single-stim-button","140","1058815","0.0-3.0-5.1-1.1","5c1021a547d07800011a23de","B2","batch2","tol_practice","1022","","","","","","","","","tol_peg_2","1022","1022","0","[[0,0,0],[3,1],[2]]","3","[[0,0,0],[3,1],[2]]","practice","1022","","","","","","","","","","",""
"","","","","","poldrack-single-stim","141","1059818","0.0-3.0-6.0","5c1021a547d07800011a23de","B2","batch2","tol_feedback","-1","","","","","true","","","","","1000","1000","500","","","","","","-1","none","true","","0","","","","","",""
"","","","","","single-stim-button","142","1064037","0.0-3.0-7.0-0.0","5c1021a547d07800011a23de","B2","batch2","tol_practice","4217","","","","","","","","","tol_peg_2","4217","4217","0","[[1,2,0],[0,0],[0]]","4","[[1,0,0],[2,0],[3]]","practice","4217","","","","","","","","","","",""
"","","","","","single-stim-button","143","1065053","0.0-3.0-7.0-1.0","5c1021a547d07800011a23de","B2","batch2","tol_practice","1015","","","","","","","","","tol_peg_3","1015","1015","0","[[1,2,0],[0,0],[3]]","4","[[1,0,0],[2,0],[3]]","practice","1015","","","","","","","","","","",""
"","","","","","single-stim-button","144","1065852","0.0-3.0-7.1-0.1","5c1021a547d07800011a23de","B2","batch2","tol_practice","798","","","","","","","","","tol_peg_1","798","798","0","[[1,0,0],[0,0],[3]]","5","[[1,0,0],[2,0],[3]]","practice","798","","","","","","","","","","",""
"","","","","","single-stim-button","145","1066452","0.0-3.0-7.1-1.1","5c1021a547d07800011a23de","B2","batch2","tol_practice","599","","","","","","","","","tol_peg_2","599","599","0","[[1,0,0],[2,0],[3]]","5","[[1,0,0],[2,0],[3]]","practice","599","","","","","","","","","","",""
"","","","","","poldrack-single-stim","146","1067457","0.0-3.0-8.0","5c1021a547d07800011a23de","B2","batch2","tol_feedback","-1","","","","","true","","","","","1000","1000","500","","","","","","-1","none","true","","0","","","","","",""
"","","","","","html-button-response","147","1069355","0.0-3.0-9.0","5c1021a547d07800011a23de","B2","batch2","tol_instruction","1897.2000000029802","<div class = centerbox><p class = center-block-text>Great job! You are done with practice trials<br>You are about to start official trials.<br> <br> Problem <strong>1</strong> out of 25 problems</p></div>","0","","","","","","","","","","","","","","","","","","","","","","","","","",""
"","","","","","single-stim-button","148","1074336","0.0-3.0-10.0-0.0","5c1021a547d07800011a23de","B2","batch2","tol_tohand","3968","","","","","","","","","tol_peg_1","3968","3968","0","[[1,0,0],[3,0],[0]]","1","[[1,3,0],[2,0],[0]]","0","0","","","","","","3","","","","",""
"","","","","","single-stim-button","149","1075256","0.0-3.0-10.0-1.0","5c1021a547d07800011a23de","B2","batch2","tol_toboard","919","","","","","","","","","tol_peg_3","919","919","0","[[1,0,0],[3,0],[2]]","1","[[1,3,0],[2,0],[0]]","0","0","","","","","","3","","","","",""
"","","","","","single-stim-button","150","1076175","0.0-3.0-10.1-0.1","5c1021a547d07800011a23de","B2","batch2","tol_tohand","918","","","","","","","","","tol_peg_2","918","918","0","[[1,0,0],[0,0],[2]]","2","[[1,3,0],[2,0],[0]]","0","0","","","","","","3","","","","",""
"","","","","","single-stim-button","151","1076943","0.0-3.0-10.1-1.1","5c1021a547d07800011a23de","B2","batch2","tol_toboard","768","","","","","","","","","tol_peg_1","768","768","0","[[1,3,0],[0,0],[2]]","2","[[1,3,0],[2,0],[0]]","0","0","","","","","","3","","","","",""
"","","","","","single-stim-button","152","1077855","0.0-3.0-10.2-0.2","5c1021a547d07800011a23de","B2","batch2","tol_tohand","911","","","","","","","","","tol_peg_3","911","911","0","[[1,3,0],[0,0],[0]]","3","[[1,3,0],[2,0],[0]]","0","0","","","","","","3","","","","",""
"","","","","","single-stim-button","153","1078534","0.0-3.0-10.2-1.2","5c1021a547d07800011a23de","B2","batch2","tol_toboard","678","","","","","","","","","tol_peg_2","678","678","0","[[1,3,0],[2,0],[0]]","3","[[1,3,0],[2,0],[0]]","0","0","","","","","","3","","","","",""
"","","","","","poldrack-single-stim","154","1079537","0.0-3.0-11.0","5c1021a547d07800011a23de","B2","batch2","tol_feedback","-1","","","","","true","","","","","1000","1000","500","","","","","","-1","none","true","3968","5797","","","","","",""
"","","","","","html-button-response","155","1080462","0.0-3.0-12.0","5c1021a547d07800011a23de","B2","batch2","tol_trial_num","924.0999999940395","<div class = centerbox><p class = center-block-text>problem <strong>2</strong> out of 25 problems</p></div>","0","","","","","","","","","","","","","","","","","","","","","","","","","",""
"","","","","","single-stim-button","156","1086691","0.0-3.0-13.0-0.0","5c1021a547d07800011a23de","B2","batch2","tol_tohand","6228","","","","","","","","","tol_peg_1","6228","6228","0","[[1,0,0],[3,0],[0]]","1","[[2,1,3],[0,0],[0]]","1","0","","","","","","5","","","","",""
"","","","","","single-stim-button","157","1087898","0.0-3.0-13.0-1.0","5c1021a547d07800011a23de","B2","batch2","tol_toboard","1206","","","","","","","","","tol_peg_3","1206","1206","0","[[1,0,0],[3,0],[2]]","1","[[2,1,3],[0,0],[0]]","1","0","","","","","","5","","","","",""
"","","","","","single-stim-button","158","1089609","0.0-3.0-13.1-0.1","5c1021a547d07800011a23de","B2","batch2","tol_tohand","1710","","","","","","","","","tol_peg_1","1710","1710","0","[[0,0,0],[3,0],[2]]","2","[[2,1,3],[0,0],[0]]","1","0","","","","","","5","","","","",""
"","","","","","single-stim-button","159","1090385","0.0-3.0-13.1-1.1","5c1021a547d07800011a23de","B2","batch2","tol_toboard","774","","","","","","","","","tol_peg_2","774","774","0","[[0,0,0],[3,1],[2]]","2","[[2,1,3],[0,0],[0]]","1","0","","","","","","5","","","","",""
"","","","","","single-stim-button","160","1091185","0.0-3.0-13.2-0.2","5c1021a547d07800011a23de","B2","batch2","tol_tohand","798","","","","","","","","","tol_peg_3","798","798","0","[[0,0,0],[3,1],[0]]","3","[[2,1,3],[0,0],[0]]","1","0","","","","","","5","","","","",""
"","","","","","single-stim-button","161","1092256","0.0-3.0-13.2-1.2","5c1021a547d07800011a23de","B2","batch2","tol_toboard","1069","","","","","","","","","tol_peg_1","1069","1069","0","[[2,0,0],[3,1],[0]]","3","[[2,1,3],[0,0],[0]]","1","0","","","","","","5","","","","",""
"","","","","","single-stim-button","162","1092976","0.0-3.0-13.3-0.3","5c1021a547d07800011a23de","B2","batch2","tol_tohand","718","","","","","","","","","tol_peg_2","718","718","0","[[2,0,0],[3,0],[0]]","4","[[2,1,3],[0,0],[0]]","1","0","","","","","","5","","","","",""
"","","","","","single-stim-button","163","1093537","0.0-3.0-13.3-1.3","5c1021a547d07800011a23de","B2","batch2","tol_toboard","559","","","","","","","","","tol_peg_1","559","559","0","[[2,1,0],[3,0],[0]]","4","[[2,1,3],[0,0],[0]]","1","0","","","","","","5","","","","",""
"","","","","","single-stim-button","164","1094071","0.0-3.0-13.4-0.4","5c1021a547d07800011a23de","B2","batch2","tol_tohand","534","","","","","","","","","tol_peg_2","534","534","0","[[2,1,0],[0,0],[0]]","5","[[2,1,3],[0,0],[0]]","1","0","","","","","","5","","","","",""
"","","","","","single-stim-button","165","1094799","0.0-3.0-13.4-1.4","5c1021a547d07800011a23de","B2","batch2","tol_toboard","726","","","","","","","","","tol_peg_1","726","726","0","[[2,1,3],[0,0],[0]]","5","[[2,1,3],[0,0],[0]]","1","0","","","","","","5","","","","",""
"","","","","","poldrack-single-stim","166","1095801","0.0-3.0-14.0","5c1021a547d07800011a23de","B2","batch2","tol_feedback","-1","","","","","true","","","","","1000","1000","500","","","","","","-1","none","true","6228","9988","","","","","",""
"","","","","","html-button-response","167","1096814","0.0-3.0-15.0","5c1021a547d07800011a23de","B2","batch2","tol_trial_num","1012.0999999940395","<div class = centerbox><p class = center-block-text>problem <strong>3</strong> out of 25 problems</p></div>","0","","","","","","","","","","","","","","","","","","","","","","","","","",""
"","","","","","single-stim-button","168","1100556","0.0-3.0-16.0-0.0","5c1021a547d07800011a23de","B2","batch2","tol_tohand","3740","","","","","","","","","tol_peg_1","3740","3740","0","[[2,0,0],[0,0],[1]]","1","[[1,2,0],[3,0],[0]]","2","0","","","","","","4","","","","",""
"","","","","","single-stim-button","169","1101292","0.0-3.0-16.0-1.0","5c1021a547d07800011a23de","B2","batch2","tol_toboard","734","","","","","","","","","tol_peg_2","734","734","0","[[2,0,0],[3,0],[1]]","1","[[1,2,0],[3,0],[0]]","2","0","","","","","","4","","","","",""
"","","","","","single-stim-button","170","1103835","0.0-3.0-16.1-0.1","5c1021a547d07800011a23de","B2","batch2","tol_tohand","2541","","","","","","","","","tol_peg_1","2541","2541","0","[[0,0,0],[3,0],[1]]","2","[[1,2,0],[3,0],[0]]","2","0","","","","","","4","","","","",""
"","","","","","single-stim-button","171","1104451","0.0-3.0-16.1-1.1","5c1021a547d07800011a23de","B2","batch2","tol_toboard","614","","","","","","","","","tol_peg_2","614","614","0","[[0,0,0],[3,2],[1]]","2","[[1,2,0],[3,0],[0]]","2","0","","","","","","4","","","","",""
"","","","","","single-stim-button","172","1105130","0.0-3.0-16.2-0.2","5c1021a547d07800011a23de","B2","batch2","tol_tohand","678","","","","","","","","","tol_peg_3","678","678","0","[[0,0,0],[3,2],[0]]","3","[[1,2,0],[3,0],[0]]","2","0","","","","","","4","","","","",""
"","","","","","single-stim-button","173","1105722","0.0-3.0-16.2-1.2","5c1021a547d07800011a23de","B2","batch2","tol_toboard","591","","","","","","","","","tol_peg_1","591","591","0","[[1,0,0],[3,2],[0]]","3","[[1,2,0],[3,0],[0]]","2","0","","","","","","4","","","","",""
"","","","","","single-stim-button","174","1106434","0.0-3.0-16.3-0.3","5c1021a547d07800011a23de","B2","batch2","tol_tohand","711","","","","","","","","","tol_peg_2","711","711","0","[[1,0,0],[3,0],[0]]","4","[[1,2,0],[3,0],[0]]","2","0","","","","","","4","","","","",""
"","","","","","single-stim-button","175","1106921","0.0-3.0-16.3-1.3","5c1021a547d07800011a23de","B2","batch2","tol_toboard","487","","","","","","","","","tol_peg_1","487","487","0","[[1,2,0],[3,0],[0]]","4","[[1,2,0],[3,0],[0]]","2","0","","","","","","4","","","","",""
"","","","","","poldrack-single-stim","176","1107922","0.0-3.0-17.0","5c1021a547d07800011a23de","B2","batch2","tol_feedback","-1","","","","","true","","","","","1000","1000","500","","","","","","-1","none","true","3740","7670","","","","","",""
"","","","","","html-button-response","177","1108681","0.0-3.0-18.0","5c1021a547d07800011a23de","B2","batch2","tol_trial_num","757.2999999970198","<div class = centerbox><p class = center-block-text>problem <strong>4</strong> out of 25 problems</p></div>","0","","","","","","","","","","","","","","","","","","","","","","","","","",""
"","","","","","single-stim-button","178","1112495","0.0-3.0-19.0-0.0","5c1021a547d07800011a23de","B2","batch2","tol_tohand","3813","","","","","","","","","tol_peg_2","3813","3813","0","[[3,0,0],[2,0],[0]]","1","[[3,0,0],[1,0],[2]]","3","0","","","","","","3","","","","",""
"","","","","","single-stim-button","179","1113143","0.0-3.0-19.0-1.0","5c1021a547d07800011a23de","B2","batch2","tol_toboard","646","","","","","","","","","tol_peg_3","646","646","0","[[3,0,0],[2,0],[1]]","1","[[3,0,0],[1,0],[2]]","3","0","","","","","","3","","","","",""
"","","","","","single-stim-button","180","1114246","0.0-3.0-19.1-0.1","5c1021a547d07800011a23de","B2","batch2","tol_tohand","1102","","","","","","","","","tol_peg_2","1102","1102","0","[[3,0,0],[0,0],[1]]","2","[[3,0,0],[1,0],[2]]","3","0","","","","","","3","","","","",""
"","","","","","single-stim-button","181","1114838","0.0-3.0-19.1-1.1","5c1021a547d07800011a23de","B2","batch2","tol_toboard","592","","","","","","","","","tol_peg_1","592","592","0","[[3,2,0],[0,0],[1]]","2","[[3,0,0],[1,0],[2]]","3","0","","","","","","3","","","","",""
"","","","","","single-stim-button","182","1115685","0.0-3.0-19.2-0.2","5c1021a547d07800011a23de","B2","batch2","tol_tohand","846","","","","","","","","","tol_peg_3","846","846","0","[[3,2,0],[0,0],[0]]","3","[[3,0,0],[1,0],[2]]","3","0","","","","","","3","","","","",""
"","","","","","single-stim-button","183","1116229","0.0-3.0-19.2-1.2","5c1021a547d07800011a23de","B2","batch2","tol_toboard","542","","","","","","","","","tol_peg_2","542","542","0","[[3,2,0],[1,0],[0]]","3","[[3,0,0],[1,0],[2]]","3","0","","","","","","3","","","","",""
"","","","","","single-stim-button","184","1117589","0.0-3.0-19.3-0.3","5c1021a547d07800011a23de","B2","batch2","tol_tohand","1359","","","","","","","","","tol_peg_1","1359","1359","0","[[3,0,0],[1,0],[0]]","4","[[3,0,0],[1,0],[2]]","3","0","","","","","","3","","","","",""
"","","","","","single-stim-button","185","1118188","0.0-3.0-19.3-1.3","5c1021a547d07800011a23de","B2","batch2","tol_toboard","598","","","","","","","","","tol_peg_3","598","598","0","[[3,0,0],[1,0],[2]]","4","[[3,0,0],[1,0],[2]]","3","0","","","","","","3","","","","",""
"","","","","","poldrack-single-stim","186","1119194","0.0-3.0-20.0","5c1021a547d07800011a23de","B2","batch2","tol_feedback","-1","","","","","true","","","","","1000","1000","500","","","","","","-1","none","true","3813","7120","","","","","",""
"","","","","","html-button-response","187","1120019","0.0-3.0-21.0","5c1021a547d07800011a23de","B2","batch2","tol_trial_num","823.9000000059605","<div class = centerbox><p class = center-block-text>problem <strong>5</strong> out of 25 problems</p></div>","0","","","","","","","","","","","","","","","","","","","","","","","","","",""
"","","","","","single-stim-button","188","1123922","0.0-3.0-22.0-0.0","5c1021a547d07800011a23de","B2","batch2","tol_tohand","3902","","","","","","","","","tol_peg_2","3902","3902","0","[[1,0,0],[0,0],[3]]","1","[[0,0,0],[1,2],[3]]","4","0","","","","","","7","","","","",""
"","","","","","single-stim-button","189","1126992","0.0-3.0-22.0-1.0","5c1021a547d07800011a23de","B2","batch2","tol_toboard","3068","","","","","","","","","tol_peg_2","3068","3068","0","[[1,0,0],[2,0],[3]]","1","[[0,0,0],[1,2],[3]]","4","0","","","","","","7","","","","",""
"","","","","","single-stim-button","190","1133701","0.0-3.0-22.1-0.1","5c1021a547d07800011a23de","B2","batch2","tol_tohand","6708","","","","","","","","","tol_peg_3","6708","6708","0","[[1,0,0],[2,0],[0]]","2","[[0,0,0],[1,2],[3]]","4","0","","","","","","7","","","","",""
"","","","","","single-stim-button","191","1134268","0.0-3.0-22.1-1.1","5c1021a547d07800011a23de","B2","batch2","tol_toboard","567","","","","","","","","","tol_peg_1","567","567","0","[[1,3,0],[2,0],[0]]","2","[[0,0,0],[1,2],[3]]","4","0","","","","","","7","","","","",""
"","","","","","single-stim-button","192","1134796","0.0-3.0-22.2-0.2","5c1021a547d07800011a23de","B2","batch2","tol_tohand","527","","","","","","","","","tol_peg_2","527","527","0","[[1,3,0],[0,0],[0]]","3","[[0,0,0],[1,2],[3]]","4","0","","","","","","7","","","","",""
"","","","","","single-stim-button","193","1135411","0.0-3.0-22.2-1.2","5c1021a547d07800011a23de","B2","batch2","tol_toboard","614","","","","","","","","","tol_peg_3","614","614","0","[[1,3,0],[0,0],[2]]","3","[[0,0,0],[1,2],[3]]","4","0","","","","","","7","","","","",""
"","","","","","single-stim-button","194","1136156","0.0-3.0-22.3-0.3","5c1021a547d07800011a23de","B2","batch2","tol_tohand","743","","","","","","","","","tol_peg_1","743","743","0","[[1,0,0],[0,0],[2]]","4","[[0,0,0],[1,2],[3]]","4","0","","","","","","7","","","","",""
"","","","","","single-stim-button","195","1136684","0.0-3.0-22.3-1.3","5c1021a547d07800011a23de","B2","batch2","tol_toboard","527","","","","","","","","","tol_peg_2","527","527","0","[[1,0,0],[3,0],[2]]","4","[[0,0,0],[1,2],[3]]","4","0","","","","","","7","","","","",""
"","","","","","single-stim-button","196","1137547","0.0-3.0-22.4-0.4","5c1021a547d07800011a23de","B2","batch2","tol_tohand","862","","","","","","","","","tol_peg_3","862","862","0","[[1,0,0],[3,0],[0]]","5","[[0,0,0],[1,2],[3]]","4","0","","","","","","7","","","","",""
"","","","","","single-stim-button","197","1138155","0.0-3.0-22.4-1.4","5c1021a547d07800011a23de","B2","batch2","tol_toboard","607","","","","","","","","","tol_peg_1","607","607","0","[[1,2,0],[3,0],[0]]","5","[[0,0,0],[1,2],[3]]","4","0","","","","","","7","","","","",""
"","","","","","single-stim-button","198","1138747","0.0-3.0-22.5-0.5","5c1021a547d07800011a23de","B2","batch2","tol_tohand","590","","","","","","","","","tol_peg_2","590","590","0","[[1,2,0],[0,0],[0]]","6","[[0,0,0],[1,2],[3]]","4","0","","","","","","7","","","","",""
"","","","","","single-stim-button","199","1139218","0.0-3.0-22.5-1.5","5c1021a547d07800011a23de","B2","batch2","tol_toboard","471","","","","","","","","","tol_peg_3","471","471","0","[[1,2,0],[0,0],[3]]","6","[[0,0,0],[1,2],[3]]","4","0","","","","","","7","","","","",""
"","","","","","single-stim-button","200","1142312","0.0-3.0-22.6-0.6","5c1021a547d07800011a23de","B2","batch2","tol_tohand","3093","","","","","","","","","tol_peg_1","3093","3093","0","[[1,0,0],[0,0],[3]]","7","[[0,0,0],[1,2],[3]]","4","0","","","","","","7","","","","",""
"","","","","","single-stim-button","201","1144776","0.0-3.0-22.6-1.6","5c1021a547d07800011a23de","B2","batch2","tol_toboard","2462","","","","","","","","","tol_peg_2","2462","2462","0","[[1,0,0],[2,0],[3]]","7","[[0,0,0],[1,2],[3]]","4","0","","","","","","7","","","","",""
"","","","","","single-stim-button","202","1146214","0.0-3.0-22.7-0.7","5c1021a547d07800011a23de","B2","batch2","tol_tohand","1438","","","","","","","","","tol_peg_3","1438","1438","0","[[1,0,0],[2,0],[0]]","8","[[0,0,0],[1,2],[3]]","4","0","","","","","","7","","","","",""
"","","","","","single-stim-button","203","1147078","0.0-3.0-22.7-1.7","5c1021a547d07800011a23de","B2","batch2","tol_toboard","863","","","","","","","","","tol_peg_2","863","863","0","[[1,0,0],[2,3],[0]]","8","[[0,0,0],[1,2],[3]]","4","0","","","","","","7","","","","",""
"","","","","","single-stim-button","204","1147895","0.0-3.0-22.8-0.8","5c1021a547d07800011a23de","B2","batch2","tol_tohand","815","","","","","","","","","tol_peg_1","815","815","0","[[0,0,0],[2,3],[0]]","9","[[0,0,0],[1,2],[3]]","4","0","","","","","","7","","","","",""
"","","","","","single-stim-button","205","1148629","0.0-3.0-22.8-1.8","5c1021a547d07800011a23de","B2","batch2","tol_toboard","734","","","","","","","","","tol_peg_3","734","734","0","[[0,0,0],[2,3],[1]]","9","[[0,0,0],[1,2],[3]]","4","0","","","","","","7","","","","",""
"","","","","","single-stim-button","206","1151125","0.0-3.0-22.9-0.9","5c1021a547d07800011a23de","B2","batch2","tol_tohand","2494","","","","","","","","","tol_peg_2","2494","2494","0","[[0,0,0],[2,0],[1]]","10","[[0,0,0],[1,2],[3]]","4","0","","","","","","7","","","","",""
"","","","","","single-stim-button","207","1151925","0.0-3.0-22.9-1.9","5c1021a547d07800011a23de","B2","batch2","tol_toboard","799","","","","","","","","","tol_peg_1","799","799","0","[[3,0,0],[2,0],[1]]","10","[[0,0,0],[1,2],[3]]","4","0","","","","","","7","","","","",""
"","","","","","single-stim-button","208","1152700","0.0-3.0-22.10-0.10","5c1021a547d07800011a23de","B2","batch2","tol_tohand","774","","","","","","","","","tol_peg_2","774","774","0","[[3,0,0],[0,0],[1]]","11","[[0,0,0],[1,2],[3]]","4","0","","","","","","7","","","","",""
"","","","","","single-stim-button","209","1153179","0.0-3.0-22.10-1.10","5c1021a547d07800011a23de","B2","batch2","tol_toboard","479","","","","","","","","","tol_peg_1","479","479","0","[[3,2,0],[0,0],[1]]","11","[[0,0,0],[1,2],[3]]","4","0","","","","","","7","","","","",""
"","","","","","single-stim-button","210","1153804","0.0-3.0-22.11-0.11","5c1021a547d07800011a23de","B2","batch2","tol_tohand","623","","","","","","","","","tol_peg_3","623","623","0","[[3,2,0],[0,0],[0]]","12","[[0,0,0],[1,2],[3]]","4","0","","","","","","7","","","","",""
"","","","","","single-stim-button","211","1154611","0.0-3.0-22.11-1.11","5c1021a547d07800011a23de","B2","batch2","tol_toboard","807","","","","","","","","","tol_peg_2","807","807","0","[[3,2,0],[1,0],[0]]","12","[[0,0,0],[1,2],[3]]","4","0","","","","","","7","","","","",""
"","","","","","single-stim-button","212","1155499","0.0-3.0-22.12-0.12","5c1021a547d07800011a23de","B2","batch2","tol_tohand","886","","","","","","","","","tol_peg_1","886","886","0","[[3,0,0],[1,0],[0]]","13","[[0,0,0],[1,2],[3]]","4","0","","","","","","7","","","","",""
"","","","","","single-stim-button","213","1156123","0.0-3.0-22.12-1.12","5c1021a547d07800011a23de","B2","batch2","tol_toboard","623","","","","","","","","","tol_peg_2","623","623","0","[[3,0,0],[1,2],[0]]","13","[[0,0,0],[1,2],[3]]","4","0","","","","","","7","","","","",""
"","","","","","single-stim-button","214","1156658","0.0-3.0-22.13-0.13","5c1021a547d07800011a23de","B2","batch2","tol_tohand","535","","","","","","","","","tol_peg_1","535","535","0","[[0,0,0],[1,2],[0]]","14","[[0,0,0],[1,2],[3]]","4","0","","","","","","7","","","","",""
"","","","","","single-stim-button","215","1157178","0.0-3.0-22.13-1.13","5c1021a547d07800011a23de","B2","batch2","tol_toboard","518","","","","","","","","","tol_peg_3","518","518","0","[[0,0,0],[1,2],[3]]","14","[[0,0,0],[1,2],[3]]","4","0","","","","","","7","","","","",""
"","","","","","poldrack-single-stim","216","1158181","0.0-3.0-23.0","5c1021a547d07800011a23de","B2","batch2","tol_feedback","-1","","","","","true","","","","","1000","1000","500","","","","","","-1","none","true","3902","23990","","","","","",""
"","","","","","html-button-response","217","1158873","0.0-3.0-24.0","5c1021a547d07800011a23de","B2","batch2","tol_trial_num","691.3999999910593","<div class = centerbox><p class = center-block-text>problem <strong>6</strong> out of 25 problems</p></div>","0","","","","","","","","","","","","","","","","","","","","","","","","","",""
"","","","","","single-stim-button","218","1166214","0.0-3.0-25.0-0.0","5c1021a547d07800011a23de","B2","batch2","tol_tohand","7339","","","","","","","","","tol_peg_3","7339","7339","0","[[0,0,0],[1,2],[0]]","1","[[1,0,0],[2,3],[0]]","5","0","","","","","","6","","","","",""
"","","","","","single-stim-button","219","1166870","0.0-3.0-25.0-1.0","5c1021a547d07800011a23de","B2","batch2","tol_toboard","655","","","","","","","","","tol_peg_1","655","655","0","[[3,0,0],[1,2],[0]]","1","[[1,0,0],[2,3],[0]]","5","0","","","","","","6","","","","",""
"","","","","","single-stim-button","220","1168277","0.0-3.0-25.1-0.1","5c1021a547d07800011a23de","B2","batch2","tol_tohand","1406","","","","","","","","","tol_peg_2","1406","1406","0","[[3,0,0],[1,0],[0]]","2","[[1,0,0],[2,3],[0]]","5","0","","","","","","6","","","","",""
"","","","","","single-stim-button","221","1169013","0.0-3.0-25.1-1.1","5c1021a547d07800011a23de","B2","batch2","tol_toboard","735","","","","","","","","","tol_peg_1","735","735","0","[[3,2,0],[1,0],[0]]","2","[[1,0,0],[2,3],[0]]","5","0","","","","","","6","","","","",""
"","","","","","single-stim-button","222","1172180","0.0-3.0-25.2-0.2","5c1021a547d07800011a23de","B2","batch2","tol_tohand","3166","","","","","","","","","tol_peg_2","3166","3166","0","[[3,2,0],[0,0],[0]]","3","[[1,0,0],[2,3],[0]]","5","0","","","","","","6","","","","",""
"","","","","","single-stim-button","223","1172826","0.0-3.0-25.2-1.2","5c1021a547d07800011a23de","B2","batch2","tol_toboard","646","","","","","","","","","tol_peg_3","646","646","0","[[3,2,0],[0,0],[1]]","3","[[1,0,0],[2,3],[0]]","5","0","","","","","","6","","","","",""
"","","","","","single-stim-button","224","1174770","0.0-3.0-25.3-0.3","5c1021a547d07800011a23de","B2","batch2","tol_tohand","1942","","","","","","","","","tol_peg_1","1942","1942","0","[[3,0,0],[0,0],[1]]","4","[[1,0,0],[2,3],[0]]","5","0","","","","","","6","","","","",""
"","","","","","single-stim-button","225","1175409","0.0-3.0-25.3-1.3","5c1021a547d07800011a23de","B2","batch2","tol_toboard","639","","","","","","","","","tol_peg_2","639","639","0","[[3,0,0],[2,0],[1]]","4","[[1,0,0],[2,3],[0]]","5","0","","","","","","6","","","","",""
"","","","","","single-stim-button","226","1175937","0.0-3.0-25.4-0.4","5c1021a547d07800011a23de","B2","batch2","tol_tohand","527","","","","","","","","","tol_peg_1","527","527","0","[[0,0,0],[2,0],[1]]","5","[[1,0,0],[2,3],[0]]","5","0","","","","","","6","","","","",""
"","","","","","single-stim-button","227","1176418","0.0-3.0-25.4-1.4","5c1021a547d07800011a23de","B2","batch2","tol_toboard","479","","","","","","","","","tol_peg_2","479","479","0","[[0,0,0],[2,3],[1]]","5","[[1,0,0],[2,3],[0]]","5","0","","","","","","6","","","","",""
"","","","","","single-stim-button","228","1177072","0.0-3.0-25.5-0.5","5c1021a547d07800011a23de","B2","batch2","tol_tohand","654","","","","","","","","","tol_peg_3","654","654","0","[[0,0,0],[2,3],[0]]","6","[[1,0,0],[2,3],[0]]","5","0","","","","","","6","","","","",""
"","","","","","single-stim-button","229","1177688","0.0-3.0-25.5-1.5","5c1021a547d07800011a23de","B2","batch2","tol_toboard","615","","","","","","","","","tol_peg_1","615","615","0","[[1,0,0],[2,3],[0]]","6","[[1,0,0],[2,3],[0]]","5","0","","","","","","6","","","","",""
"","","","","","poldrack-single-stim","230","1178691","0.0-3.0-26.0","5c1021a547d07800011a23de","B2","batch2","tol_feedback","-1","","","","","true","","","","","1000","1000","500","","","","","","-1","none","true","7339","15034","","","","","",""
"","","","","","html-button-response","231","1179424","0.0-3.0-27.0","5c1021a547d07800011a23de","B2","batch2","tol_trial_num","731.3999999910593","<div class = centerbox><p class = center-block-text>problem <strong>7</strong> out of 25 problems</p></div>","0","","","","","","","","","","","","","","","","","","","","","","","","","",""
"","","","","","single-stim-button","232","1184654","0.0-3.0-28.0-0.0","5c1021a547d07800011a23de","B2","batch2","tol_tohand","5228","","","","","","","","","tol_peg_3","5228","5228","0","[[2,1,0],[0,0],[0]]","1","[[1,2,0],[3,0],[0]]","6","0","","","","","","5","","","","",""
"","","","","","single-stim-button","233","1185293","0.0-3.0-28.0-1.0","5c1021a547d07800011a23de","B2","batch2","tol_toboard","639","","","","","","","","","tol_peg_2","639","639","0","[[2,1,0],[3,0],[0]]","1","[[1,2,0],[3,0],[0]]","6","0","","","","","","5","","","","",""
"","","","","","single-stim-button","234","1187276","0.0-3.0-28.1-0.1","5c1021a547d07800011a23de","B2","batch2","tol_tohand","1982","","","","","","","","","tol_peg_1","1982","1982","0","[[2,0,0],[3,0],[0]]","2","[[1,2,0],[3,0],[0]]","6","0","","","","","","5","","","","",""
"","","","","","single-stim-button","235","1187987","0.0-3.0-28.1-1.1","5c1021a547d07800011a23de","B2","batch2","tol_toboard","710","","","","","","","","","tol_peg_3","710","710","0","[[2,0,0],[3,0],[1]]","2","[[1,2,0],[3,0],[0]]","6","0","","","","","","5","","","","",""
"","","","","","single-stim-button","236","1188667","0.0-3.0-28.2-0.2","5c1021a547d07800011a23de","B2","batch2","tol_tohand","679","","","","","","","","","tol_peg_1","679","679","0","[[0,0,0],[3,0],[1]]","3","[[1,2,0],[3,0],[0]]","6","0","","","","","","5","","","","",""
"","","","","","single-stim-button","237","1189100","0.0-3.0-28.2-1.2","5c1021a547d07800011a23de","B2","batch2","tol_toboard","431","","","","","","","","","tol_peg_2","431","431","0","[[0,0,0],[3,2],[1]]","3","[[1,2,0],[3,0],[0]]","6","0","","","","","","5","","","","",""
"","","","","","single-stim-button","238","1189676","0.0-3.0-28.3-0.3","5c1021a547d07800011a23de","B2","batch2","tol_tohand","575","","","","","","","","","tol_peg_3","575","575","0","[[0,0,0],[3,2],[0]]","4","[[1,2,0],[3,0],[0]]","6","0","","","","","","5","","","","",""
"","","","","","single-stim-button","239","1190403","0.0-3.0-28.3-1.3","5c1021a547d07800011a23de","B2","batch2","tol_toboard","726","","","","","","","","","tol_peg_1","726","726","0","[[1,0,0],[3,2],[0]]","4","[[1,2,0],[3,0],[0]]","6","0","","","","","","5","","","","",""
"","","","","","single-stim-button","240","1190875","0.0-3.0-28.4-0.4","5c1021a547d07800011a23de","B2","batch2","tol_tohand","472","","","","","","","","","tol_peg_2","472","472","0","[[1,0,0],[3,0],[0]]","5","[[1,2,0],[3,0],[0]]","6","0","","","","","","5","","","","",""
"","","","","","single-stim-button","241","1191315","0.0-3.0-28.4-1.4","5c1021a547d07800011a23de","B2","batch2","tol_toboard","438","","","","","","","","","tol_peg_1","438","438","0","[[1,2,0],[3,0],[0]]","5","[[1,2,0],[3,0],[0]]","6","0","","","","","","5","","","","",""
"","","","","","poldrack-single-stim","242","1192325","0.0-3.0-29.0","5c1021a547d07800011a23de","B2","batch2","tol_feedback","-1","","","","","true","","","","","1000","1000","500","","","","","","-1","none","true","5228","8936","","","","","",""
"","","","","","html-button-response","243","1192969","0.0-3.0-30.0","5c1021a547d07800011a23de","B2","batch2","tol_trial_num","643.7999999970198","<div class = centerbox><p class = center-block-text>problem <strong>8</strong> out of 25 problems</p></div>","0","","","","","","","","","","","","","","","","","","","","","","","","","",""
"","","","","","single-stim-button","244","1196968","0.0-3.0-31.0-0.0","5c1021a547d07800011a23de","B2","batch2","tol_tohand","3997","","","","","","","","","tol_peg_2","3997","3997","0","[[0,0,0],[2,0],[1]]","1","[[1,2,0],[3,0],[0]]","7","0","","","","","","4","","","","",""
"","","","","","single-stim-button","245","1197583","0.0-3.0-31.0-1.0","5c1021a547d07800011a23de","B2","batch2","tol_toboard","615","","","","","","","","","tol_peg_1","615","615","0","[[3,0,0],[2,0],[1]]","1","[[1,2,0],[3,0],[0]]","7","0","","","","","","4","","","","",""
"","","","","","single-stim-button","246","1200830","0.0-3.0-31.1-0.1","5c1021a547d07800011a23de","B2","batch2","tol_tohand","3245","","","","","","","","","tol_peg_3","3245","3245","0","[[3,0,0],[2,0],[0]]","2","[[1,2,0],[3,0],[0]]","7","0","","","","","","4","","","","",""
"","","","","","single-stim-button","247","1201359","0.0-3.0-31.1-1.1","5c1021a547d07800011a23de","B2","batch2","tol_toboard","527","","","","","","","","","tol_peg_2","527","527","0","[[3,0,0],[2,1],[0]]","2","[[1,2,0],[3,0],[0]]","7","0","","","","","","4","","","","",""
"","","","","","single-stim-button","248","1202269","0.0-3.0-31.2-0.2","5c1021a547d07800011a23de","B2","batch2","tol_tohand","909","","","","","","","","","tol_peg_1","909","909","0","[[0,0,0],[2,1],[0]]","3","[[1,2,0],[3,0],[0]]","7","0","","","","","","4","","","","",""
"","","","","","single-stim-button","249","1203461","0.0-3.0-31.2-1.2","5c1021a547d07800011a23de","B2","batch2","tol_toboard","1190","","","","","","","","","tol_peg_3","1190","1190","0","[[0,0,0],[2,1],[3]]","3","[[1,2,0],[3,0],[0]]","7","0","","","","","","4","","","","",""
"","","","","","single-stim-button","250","1205411","0.0-3.0-31.3-0.3","5c1021a547d07800011a23de","B2","batch2","tol_tohand","1950","","","","","","","","","tol_peg_2","1950","1950","0","[[0,0,0],[2,0],[3]]","4","[[1,2,0],[3,0],[0]]","7","0","","","","","","4","","","","",""
"","","","","","single-stim-button","251","1205883","0.0-3.0-31.3-1.3","5c1021a547d07800011a23de","B2","batch2","tol_toboard","471","","","","","","","","","tol_peg_1","471","471","0","[[1,0,0],[2,0],[3]]","4","[[1,2,0],[3,0],[0]]","7","0","","","","","","4","","","","",""
"","","","","","single-stim-button","252","1206548","0.0-3.0-31.4-0.4","5c1021a547d07800011a23de","B2","batch2","tol_tohand","663","","","","","","","","","tol_peg_2","663","663","0","[[1,0,0],[0,0],[3]]","5","[[1,2,0],[3,0],[0]]","7","0","","","","","","4","","","","",""
"","","","","","single-stim-button","253","1207251","0.0-3.0-31.4-1.4","5c1021a547d07800011a23de","B2","batch2","tol_toboard","703","","","","","","","","","tol_peg_1","703","703","0","[[1,2,0],[0,0],[3]]","5","[[1,2,0],[3,0],[0]]","7","0","","","","","","4","","","","",""
"","","","","","single-stim-button","254","1207906","0.0-3.0-31.5-0.5","5c1021a547d07800011a23de","B2","batch2","tol_tohand","654","","","","","","","","","tol_peg_3","654","654","0","[[1,2,0],[0,0],[0]]","6","[[1,2,0],[3,0],[0]]","7","0","","","","","","4","","","","",""
"","","","","","single-stim-button","255","1208314","0.0-3.0-31.5-1.5","5c1021a547d07800011a23de","B2","batch2","tol_toboard","407","","","","","","","","","tol_peg_2","407","407","0","[[1,2,0],[3,0],[0]]","6","[[1,2,0],[3,0],[0]]","7","0","","","","","","4","","","","",""
"","","","","","poldrack-single-stim","256","1209316","0.0-3.0-32.0","5c1021a547d07800011a23de","B2","batch2","tol_feedback","-1","","","","","true","","","","","1000","1000","500","","","","","","-1","none","true","3997","11418","","","","","",""
"","","","","","html-button-response","257","1209905","0.0-3.0-33.0","5c1021a547d07800011a23de","B2","batch2","tol_trial_num","588.2999999970198","<div class = centerbox><p class = center-block-text>problem <strong>9</strong> out of 25 problems</p></div>","0","","","","","","","","","","","","","","","","","","","","","","","","","",""
"","","","","","single-stim-button","258","1216551","0.0-3.0-34.0-0.0","5c1021a547d07800011a23de","B2","batch2","tol_tohand","6644","","","","","","","","","tol_peg_3","6644","6644","0","[[3,2,0],[0,0],[0]]","1","[[2,1,0],[3,0],[0]]","8","0","","","","","","6","","","","",""
"","","","","","single-stim-button","259","1217310","0.0-3.0-34.0-1.0","5c1021a547d07800011a23de","B2","batch2","tol_toboard","759","","","","","","","","","tol_peg_2","759","759","0","[[3,2,0],[1,0],[0]]","1","[[2,1,0],[3,0],[0]]","8","0","","","","","","6","","","","",""
"","","","","","single-stim-button","260","1217998","0.0-3.0-34.1-0.1","5c1021a547d07800011a23de","B2","batch2","tol_tohand","687","","","","","","","","","tol_peg_1","687","687","0","[[3,0,0],[1,0],[0]]","2","[[2,1,0],[3,0],[0]]","8","0","","","","","","6","","","","",""
"","","","","","single-stim-button","261","1218718","0.0-3.0-34.1-1.1","5c1021a547d07800011a23de","B2","batch2","tol_toboard","718","","","","","","","","","tol_peg_2","718","718","0","[[3,0,0],[1,2],[0]]","2","[[2,1,0],[3,0],[0]]","8","0","","","","","","6","","","","",""
"","","","","","single-stim-button","262","1219726","0.0-3.0-34.2-0.2","5c1021a547d07800011a23de","B2","batch2","tol_tohand","1007","","","","","","","","","tol_peg_1","1007","1007","0","[[0,0,0],[1,2],[0]]","3","[[2,1,0],[3,0],[0]]","8","0","","","","","","6","","","","",""
"","","","","","single-stim-button","263","1220652","0.0-3.0-34.2-1.2","5c1021a547d07800011a23de","B2","batch2","tol_toboard","924","","","","","","","","","tol_peg_3","924","924","0","[[0,0,0],[1,2],[3]]","3","[[2,1,0],[3,0],[0]]","8","0","","","","","","6","","","","",""
"","","","","","single-stim-button","264","1221204","0.0-3.0-34.3-0.3","5c1021a547d07800011a23de","B2","batch2","tol_tohand","551","","","","","","","","","tol_peg_2","551","551","0","[[0,0,0],[1,0],[3]]","4","[[2,1,0],[3,0],[0]]","8","0","","","","","","6","","","","",""
"","","","","","single-stim-button","265","1221636","0.0-3.0-34.3-1.3","5c1021a547d07800011a23de","B2","batch2","tol_toboard","431","","","","","","","","","tol_peg_1","431","431","0","[[2,0,0],[1,0],[3]]","4","[[2,1,0],[3,0],[0]]","8","0","","","","","","6","","","","",""
"","","","","","single-stim-button","266","1222093","0.0-3.0-34.4-0.4","5c1021a547d07800011a23de","B2","batch2","tol_tohand","455","","","","","","","","","tol_peg_2","455","455","0","[[2,0,0],[0,0],[3]]","5","[[2,1,0],[3,0],[0]]","8","0","","","","","","6","","","","",""
"","","","","","single-stim-button","267","1222756","0.0-3.0-34.4-1.4","5c1021a547d07800011a23de","B2","batch2","tol_toboard","661","","","","","","","","","tol_peg_1","661","661","0","[[2,1,0],[0,0],[3]]","5","[[2,1,0],[3,0],[0]]","8","0","","","","","","6","","","","",""
"","","","","","single-stim-button","268","1223323","0.0-3.0-34.5-0.5","5c1021a547d07800011a23de","B2","batch2","tol_tohand","567","","","","","","","","","tol_peg_3","567","567","0","[[2,1,0],[0,0],[0]]","6","[[2,1,0],[3,0],[0]]","8","0","","","","","","6","","","","",""
"","","","","","single-stim-button","269","1223860","0.0-3.0-34.5-1.5","5c1021a547d07800011a23de","B2","batch2","tol_toboard","535","","","","","","","","","tol_peg_2","535","535","0","[[2,1,0],[3,0],[0]]","6","[[2,1,0],[3,0],[0]]","8","0","","","","","","6","","","","",""
"","","","","","poldrack-single-stim","270","1224862","0.0-3.0-35.0","5c1021a547d07800011a23de","B2","batch2","tol_feedback","-1","","","","","true","","","","","1000","1000","500","","","","","","-1","none","true","6644","9911","","","","","",""
"","","","","","html-button-response","271","1225506","0.0-3.0-36.0","5c1021a547d07800011a23de","B2","batch2","tol_trial_num","643.3999999910593","<div class = centerbox><p class = center-block-text>problem <strong>10</strong> out of 25 problems</p></div>","0","","","","","","","","","","","","","","","","","","","","","","","","","",""
"","","","","","single-stim-button","272","1229585","0.0-3.0-37.0-0.0","5c1021a547d07800011a23de","B2","batch2","tol_tohand","4077","","","","","","","","","tol_peg_3","4077","4077","0","[[3,0,0],[1,0],[0]]","1","[[3,0,0],[2,1],[0]]","9","0","","","","","","3","","","","",""
"","","","","","single-stim-button","273","1230208","0.0-3.0-37.0-1.0","5c1021a547d07800011a23de","B2","batch2","tol_toboard","622","","","","","","","","","tol_peg_1","622","622","0","[[3,2,0],[1,0],[0]]","1","[[3,0,0],[2,1],[0]]","9","0","","","","","","3","","","","",""
"","","","","","single-stim-button","274","1230816","0.0-3.0-37.1-0.1","5c1021a547d07800011a23de","B2","batch2","tol_tohand","606","","","","","","","","","tol_peg_2","606","606","0","[[3,2,0],[0,0],[0]]","2","[[3,0,0],[2,1],[0]]","9","0","","","","","","3","","","","",""
"","","","","","single-stim-button","275","1231304","0.0-3.0-37.1-1.1","5c1021a547d07800011a23de","B2","batch2","tol_toboard","488","","","","","","","","","tol_peg_3","488","488","0","[[3,2,0],[0,0],[1]]","2","[[3,0,0],[2,1],[0]]","9","0","","","","","","3","","","","",""
"","","","","","single-stim-button","276","1232208","0.0-3.0-37.2-0.2","5c1021a547d07800011a23de","B2","batch2","tol_tohand","902","","","","","","","","","tol_peg_1","902","902","0","[[3,0,0],[0,0],[1]]","3","[[3,0,0],[2,1],[0]]","9","0","","","","","","3","","","","",""
"","","","","","single-stim-button","277","1232744","0.0-3.0-37.2-1.2","5c1021a547d07800011a23de","B2","batch2","tol_toboard","535","","","","","","","","","tol_peg_2","535","535","0","[[3,0,0],[2,0],[1]]","3","[[3,0,0],[2,1],[0]]","9","0","","","","","","3","","","","",""
"","","","","","single-stim-button","278","1233814","0.0-3.0-37.3-0.3","5c1021a547d07800011a23de","B2","batch2","tol_tohand","1069","","","","","","","","","tol_peg_3","1069","1069","0","[[3,0,0],[2,0],[0]]","4","[[3,0,0],[2,1],[0]]","9","0","","","","","","3","","","","",""
"","","","","","single-stim-button","279","1234222","0.0-3.0-37.3-1.3","5c1021a547d07800011a23de","B2","batch2","tol_toboard","407","","","","","","","","","tol_peg_2","407","407","0","[[3,0,0],[2,1],[0]]","4","[[3,0,0],[2,1],[0]]","9","0","","","","","","3","","","","",""
"","","","","","poldrack-single-stim","280","1235224","0.0-3.0-38.0","5c1021a547d07800011a23de","B2","batch2","tol_feedback","-1","","","","","true","","","","","1000","1000","500","","","","","","-1","none","true","4077","6654","","","","","",""
"","","","","","html-button-response","281","1235773","0.0-3.0-39.0","5c1021a547d07800011a23de","B2","batch2","tol_trial_num","548.2999999970198","<div class = centerbox><p class = center-block-text>problem <strong>11</strong> out of 25 problems</p></div>","0","","","","","","","","","","","","","","","","","","","","","","","","","",""
"","","","","","single-stim-button","282","1241220","0.0-3.0-40.0-0.0","5c1021a547d07800011a23de","B2","batch2","tol_tohand","5445","","","","","","","","","tol_peg_2","5445","5445","0","[[1,2,0],[0,0],[0]]","1","[[2,0,0],[1,3],[0]]","10","0","","","","","","6","","","","",""
"","","","","","single-stim-button","283","1241875","0.0-3.0-40.0-1.0","5c1021a547d07800011a23de","B2","batch2","tol_toboard","655","","","","","","","","","tol_peg_3","655","655","0","[[1,2,0],[0,0],[3]]","1","[[2,0,0],[1,3],[0]]","10","0","","","","","","6","","","","",""
"","","","","","single-stim-button","284","1248904","0.0-3.0-40.1-0.1","5c1021a547d07800011a23de","B2","batch2","tol_tohand","7027","","","","","","","","","tol_peg_1","7027","7027","0","[[1,0,0],[0,0],[3]]","2","[[2,0,0],[1,3],[0]]","10","0","","","","","","6","","","","",""
"","","","","","single-stim-button","285","1249648","0.0-3.0-40.1-1.1","5c1021a547d07800011a23de","B2","batch2","tol_toboard","743","","","","","","","","","tol_peg_2","743","743","0","[[1,0,0],[2,0],[3]]","2","[[2,0,0],[1,3],[0]]","10","0","","","","","","6","","","","",""
"","","","","","single-stim-button","286","1250544","0.0-3.0-40.2-0.2","5c1021a547d07800011a23de","B2","batch2","tol_tohand","895","","","","","","","","","tol_peg_3","895","895","0","[[1,0,0],[2,0],[0]]","3","[[2,0,0],[1,3],[0]]","10","0","","","","","","6","","","","",""
"","","","","","single-stim-button","287","1251263","0.0-3.0-40.2-1.2","5c1021a547d07800011a23de","B2","batch2","tol_toboard","717","","","","","","","","","tol_peg_2","717","717","0","[[1,0,0],[2,3],[0]]","3","[[2,0,0],[1,3],[0]]","10","0","","","","","","6","","","","",""
"","","","","","single-stim-button","288","1252095","0.0-3.0-40.3-0.3","5c1021a547d07800011a23de","B2","batch2","tol_tohand","832","","","","","","","","","tol_peg_1","832","832","0","[[0,0,0],[2,3],[0]]","4","[[2,0,0],[1,3],[0]]","10","0","","","","","","6","","","","",""
"","","","","","single-stim-button","289","1252719","0.0-3.0-40.3-1.3","5c1021a547d07800011a23de","B2","batch2","tol_toboard","622","","","","","","","","","tol_peg_3","622","622","0","[[0,0,0],[2,3],[1]]","4","[[2,0,0],[1,3],[0]]","10","0","","","","","","6","","","","",""
"","","","","","single-stim-button","290","1253654","0.0-3.0-40.4-0.4","5c1021a547d07800011a23de","B2","batch2","tol_tohand","934","","","","","","","","","tol_peg_2","934","934","0","[[0,0,0],[2,0],[1]]","5","[[2,0,0],[1,3],[0]]","10","0","","","","","","6","","","","",""
"","","","","","single-stim-button","291","1254070","0.0-3.0-40.4-1.4","5c1021a547d07800011a23de","B2","batch2","tol_toboard","415","","","","","","","","","tol_peg_1","415","415","0","[[3,0,0],[2,0],[1]]","5","[[2,0,0],[1,3],[0]]","10","0","","","","","","6","","","","",""
"","","","","","single-stim-button","292","1254886","0.0-3.0-40.5-0.5","5c1021a547d07800011a23de","B2","batch2","tol_tohand","815","","","","","","","","","tol_peg_2","815","815","0","[[3,0,0],[0,0],[1]]","6","[[2,0,0],[1,3],[0]]","10","0","","","","","","6","","","","",""
"","","","","","single-stim-button","293","1255805","0.0-3.0-40.5-1.5","5c1021a547d07800011a23de","B2","batch2","tol_toboard","918","","","","","","","","","tol_peg_1","918","918","0","[[3,2,0],[0,0],[1]]","6","[[2,0,0],[1,3],[0]]","10","0","","","","","","6","","","","",""
"","","","","","single-stim-button","294","1256501","0.0-3.0-40.6-0.6","5c1021a547d07800011a23de","B2","batch2","tol_tohand","695","","","","","","","","","tol_peg_3","695","695","0","[[3,2,0],[0,0],[0]]","7","[[2,0,0],[1,3],[0]]","10","0","","","","","","6","","","","",""
"","","","","","single-stim-button","295","1257069","0.0-3.0-40.6-1.6","5c1021a547d07800011a23de","B2","batch2","tol_toboard","567","","","","","","","","","tol_peg_2","567","567","0","[[3,2,0],[1,0],[0]]","7","[[2,0,0],[1,3],[0]]","10","0","","","","","","6","","","","",""
"","","","","","single-stim-button","296","1257829","0.0-3.0-40.7-0.7","5c1021a547d07800011a23de","B2","batch2","tol_tohand","759","","","","","","","","","tol_peg_1","759","759","0","[[3,0,0],[1,0],[0]]","8","[[2,0,0],[1,3],[0]]","10","0","","","","","","6","","","","",""
"","","","","","single-stim-button","297","1258636","0.0-3.0-40.7-1.7","5c1021a547d07800011a23de","B2","batch2","tol_toboard","806","","","","","","","","","tol_peg_3","806","806","0","[[3,0,0],[1,0],[2]]","8","[[2,0,0],[1,3],[0]]","10","0","","","","","","6","","","","",""
"","","","","","single-stim-button","298","1260451","0.0-3.0-40.8-0.8","5c1021a547d07800011a23de","B2","batch2","tol_tohand","1814","","","","","","","","","tol_peg_1","1814","1814","0","[[0,0,0],[1,0],[2]]","9","[[2,0,0],[1,3],[0]]","10","0","","","","","","6","","","","",""
"","","","","","single-stim-button","299","1261163","0.0-3.0-40.8-1.8","5c1021a547d07800011a23de","B2","batch2","tol_toboard","711","","","","","","","","","tol_peg_2","711","711","0","[[0,0,0],[1,3],[2]]","9","[[2,0,0],[1,3],[0]]","10","0","","","","","","6","","","","",""
"","","","","","single-stim-button","300","1261659","0.0-3.0-40.9-0.9","5c1021a547d07800011a23de","B2","batch2","tol_tohand","495","","","","","","","","","tol_peg_3","495","495","0","[[0,0,0],[1,3],[0]]","10","[[2,0,0],[1,3],[0]]","10","0","","","","","","6","","","","",""
"","","","","","single-stim-button","301","1262162","0.0-3.0-40.9-1.9","5c1021a547d07800011a23de","B2","batch2","tol_toboard","503","","","","","","","","","tol_peg_1","503","503","0","[[2,0,0],[1,3],[0]]","10","[[2,0,0],[1,3],[0]]","10","0","","","","","","6","","","","",""
"","","","","","poldrack-single-stim","302","1263169","0.0-3.0-41.0","5c1021a547d07800011a23de","B2","batch2","tol_feedback","-1","","","","","true","","","","","1000","1000","500","","","","","","-1","none","true","5445","19711","","","","","",""
"","","","","","html-button-response","303","1263809","0.0-3.0-42.0","5c1021a547d07800011a23de","B2","batch2","tol_trial_num","639.5","<div class = centerbox><p class = center-block-text>problem <strong>12</strong> out of 25 problems</p></div>","0","","","","","","","","","","","","","","","","","","","","","","","","","",""
"","","","","","single-stim-button","304","1267784","0.0-3.0-43.0-0.0","5c1021a547d07800011a23de","B2","batch2","tol_tohand","3973","","","","","","","","","tol_peg_1","3973","3973","0","[[1,0,0],[3,0],[0]]","1","[[2,3,0],[0,0],[1]]","11","0","","","","","","4","","","","",""
"","","","","","single-stim-button","305","1268432","0.0-3.0-43.0-1.0","5c1021a547d07800011a23de","B2","batch2","tol_toboard","647","","","","","","","","","tol_peg_2","647","647","0","[[1,0,0],[3,2],[0]]","1","[[2,3,0],[0,0],[1]]","11","0","","","","","","4","","","","",""
"","","","","","single-stim-button","306","1268999","0.0-3.0-43.1-0.1","5c1021a547d07800011a23de","B2","batch2","tol_tohand","566","","","","","","","","","tol_peg_1","566","566","0","[[0,0,0],[3,2],[0]]","2","[[2,3,0],[0,0],[1]]","11","0","","","","","","4","","","","",""
"","","","","","single-stim-button","307","1269647","0.0-3.0-43.1-1.1","5c1021a547d07800011a23de","B2","batch2","tol_toboard","647","","","","","","","","","tol_peg_3","647","647","0","[[0,0,0],[3,2],[1]]","2","[[2,3,0],[0,0],[1]]","11","0","","","","","","4","","","","",""
"","","","","","single-stim-button","308","1273501","0.0-3.0-43.2-0.2","5c1021a547d07800011a23de","B2","batch2","tol_tohand","3853","","","","","","","","","tol_peg_2","3853","3853","0","[[0,0,0],[3,0],[1]]","3","[[2,3,0],[0,0],[1]]","11","0","","","","","","4","","","","",""
"","","","","","single-stim-button","309","1274181","0.0-3.0-43.2-1.2","5c1021a547d07800011a23de","B2","batch2","tol_toboard","679","","","","","","","","","tol_peg_1","679","679","0","[[2,0,0],[3,0],[1]]","3","[[2,3,0],[0,0],[1]]","11","0","","","","","","4","","","","",""
"","","","","","single-stim-button","310","1274717","0.0-3.0-43.3-0.3","5c1021a547d07800011a23de","B2","batch2","tol_tohand","535","","","","","","","","","tol_peg_2","535","535","0","[[2,0,0],[0,0],[1]]","4","[[2,3,0],[0,0],[1]]","11","0","","","","","","4","","","","",""
"","","","","","single-stim-button","311","1275444","0.0-3.0-43.3-1.3","5c1021a547d07800011a23de","B2","batch2","tol_toboard","726","","","","","","","","","tol_peg_1","726","726","0","[[2,3,0],[0,0],[1]]","4","[[2,3,0],[0,0],[1]]","11","0","","","","","","4","","","","",""
"","","","","","poldrack-single-stim","312","1276445","0.0-3.0-44.0","5c1021a547d07800011a23de","B2","batch2","tol_feedback","-1","","","","","true","","","","","1000","1000","500","","","","","","-1","none","true","3973","8927","","","","","",""
"","","","","","html-button-response","313","1277011","0.0-3.0-45.0","5c1021a547d07800011a23de","B2","batch2","tol_trial_num","564.8999999910593","<div class = centerbox><p class = center-block-text>problem <strong>13</strong> out of 25 problems</p></div>","0","","","","","","","","","","","","","","","","","","","","","","","","","",""
"","","","","","single-stim-button","314","1283129","0.0-3.0-46.0-0.0","5c1021a547d07800011a23de","B2","batch2","tol_tohand","6115","","","","","","","","","tol_peg_2","6115","6115","0","[[1,2,0],[0,0],[0]]","1","[[0,0,0],[2,3],[1]]","12","0","","","","","","4","","","","",""
"","","","","","single-stim-button","315","1283689","0.0-3.0-46.0-1.0","5c1021a547d07800011a23de","B2","batch2","tol_toboard","558","","","","","","","","","tol_peg_3","558","558","0","[[1,2,0],[0,0],[3]]","1","[[0,0,0],[2,3],[1]]","12","0","","","","","","4","","","","",""
"","","","","","single-stim-button","316","1284480","0.0-3.0-46.1-0.1","5c1021a547d07800011a23de","B2","batch2","tol_tohand","791","","","","","","","","","tol_peg_1","791","791","0","[[1,0,0],[0,0],[3]]","2","[[0,0,0],[2,3],[1]]","12","0","","","","","","4","","","","",""
"","","","","","single-stim-button","317","1285104","0.0-3.0-46.1-1.1","5c1021a547d07800011a23de","B2","batch2","tol_toboard","622","","","","","","","","","tol_peg_2","622","622","0","[[1,0,0],[2,0],[3]]","2","[[0,0,0],[2,3],[1]]","12","0","","","","","","4","","","","",""
"","","","","","single-stim-button","318","1285816","0.0-3.0-46.2-0.2","5c1021a547d07800011a23de","B2","batch2","tol_tohand","711","","","","","","","","","tol_peg_3","711","711","0","[[1,0,0],[2,0],[0]]","3","[[0,0,0],[2,3],[1]]","12","0","","","","","","4","","","","",""
"","","","","","single-stim-button","319","1286343","0.0-3.0-46.2-1.2","5c1021a547d07800011a23de","B2","batch2","tol_toboard","526","","","","","","","","","tol_peg_2","526","526","0","[[1,0,0],[2,3],[0]]","3","[[0,0,0],[2,3],[1]]","12","0","","","","","","4","","","","",""
"","","","","","single-stim-button","320","1286903","0.0-3.0-46.3-0.3","5c1021a547d07800011a23de","B2","batch2","tol_tohand","559","","","","","","","","","tol_peg_1","559","559","0","[[0,0,0],[2,3],[0]]","4","[[0,0,0],[2,3],[1]]","12","0","","","","","","4","","","","",""
"","","","","","single-stim-button","321","1287519","0.0-3.0-46.3-1.3","5c1021a547d07800011a23de","B2","batch2","tol_toboard","615","","","","","","","","","tol_peg_3","615","615","0","[[0,0,0],[2,3],[1]]","4","[[0,0,0],[2,3],[1]]","12","0","","","","","","4","","","","",""
"","","","","","poldrack-single-stim","322","1288520","0.0-3.0-47.0","5c1021a547d07800011a23de","B2","batch2","tol_feedback","-1","","","","","true","","","","","1000","1000","500","","","","","","-1","none","true","6115","8176","","","","","",""
"","","","","","html-button-response","323","1292245","0.0-3.0-48.0","5c1021a547d07800011a23de","B2","batch2","attention_check","3723.2999999970198","<p class = block-text>How many balls are in your board<br></p>","1","","","true","","","","","","","","","","","","","","","","","","","","","","",""
"","","","","","html-button-response","324","1293484","0.0-3.0-49.0","5c1021a547d07800011a23de","B2","batch2","tol_trial_num","1237.3999999910593","<div class = centerbox><p class = center-block-text>problem <strong>14</strong> out of 25 problems</p></div>","0","","","","","","","","","","","","","","","","","","","","","","","","","",""
"","","","","","single-stim-button","325","1298258","0.0-3.0-50.0-0.0","5c1021a547d07800011a23de","B2","batch2","tol_tohand","4773","","","","","","","","","tol_peg_1","4773","4773","0","[[2,0,0],[3,0],[0]]","1","[[1,2,0],[3,0],[0]]","13","0","","","","","","4","","","","",""
"","","","","","single-stim-button","326","1298946","0.0-3.0-50.0-1.0","5c1021a547d07800011a23de","B2","batch2","tol_toboard","687","","","","","","","","","tol_peg_2","687","687","0","[[2,0,0],[3,1],[0]]","1","[[1,2,0],[3,0],[0]]","13","0","","","","","","4","","","","",""
"","","","","","single-stim-button","327","1299481","0.0-3.0-50.1-0.1","5c1021a547d07800011a23de","B2","batch2","tol_tohand","535","","","","","","","","","tol_peg_1","535","535","0","[[0,0,0],[3,1],[0]]","2","[[1,2,0],[3,0],[0]]","13","0","","","","","","4","","","","",""
"","","","","","single-stim-button","328","1300201","0.0-3.0-50.1-1.1","5c1021a547d07800011a23de","B2","batch2","tol_toboard","718","","","","","","","","","tol_peg_3","718","718","0","[[0,0,0],[3,1],[2]]","2","[[1,2,0],[3,0],[0]]","13","0","","","","","","4","","","","",""
"","","","","","single-stim-button","329","1300785","0.0-3.0-50.2-0.2","5c1021a547d07800011a23de","B2","batch2","tol_tohand","583","","","","","","","","","tol_peg_2","583","583","0","[[0,0,0],[3,0],[2]]","3","[[1,2,0],[3,0],[0]]","13","0","","","","","","4","","","","",""
"","","","","","single-stim-button","330","1301249","0.0-3.0-50.2-1.2","5c1021a547d07800011a23de","B2","batch2","tol_toboard","463","","","","","","","","","tol_peg_1","463","463","0","[[1,0,0],[3,0],[2]]","3","[[1,2,0],[3,0],[0]]","13","0","","","","","","4","","","","",""
"","","","","","single-stim-button","331","1301832","0.0-3.0-50.3-0.3","5c1021a547d07800011a23de","B2","batch2","tol_tohand","582","","","","","","","","","tol_peg_3","582","582","0","[[1,0,0],[3,0],[0]]","4","[[1,2,0],[3,0],[0]]","13","0","","","","","","4","","","","",""
"","","","","","single-stim-button","332","1302464","0.0-3.0-50.3-1.3","5c1021a547d07800011a23de","B2","batch2","tol_toboard","631","","","","","","","","","tol_peg_1","631","631","0","[[1,2,0],[3,0],[0]]","4","[[1,2,0],[3,0],[0]]","13","0","","","","","","4","","","","",""
"","","","","","poldrack-single-stim","333","1303469","0.0-3.0-51.0","5c1021a547d07800011a23de","B2","batch2","tol_feedback","-1","","","","","true","","","","","1000","1000","500","","","","","","-1","none","true","4773","6473","","","","","",""
"","","","","","html-button-response","334","1303966","0.0-3.0-52.0","5c1021a547d07800011a23de","B2","batch2","tol_trial_num","496.79999999701977","<div class = centerbox><p class = center-block-text>problem <strong>15</strong> out of 25 problems</p></div>","0","","","","","","","","","","","","","","","","","","","","","","","","","",""
"","","","","","single-stim-button","335","1307062","0.0-3.0-53.0-0.0","5c1021a547d07800011a23de","B2","batch2","tol_tohand","3094","","","","","","","","","tol_peg_1","3094","3094","0","[[1,0,0],[3,0],[0]]","1","[[2,0,0],[3,0],[1]]","14","0","","","","","","3","","","","",""
"","","","","","single-stim-button","336","1307518","0.0-3.0-53.0-1.0","5c1021a547d07800011a23de","B2","batch2","tol_toboard","455","","","","","","","","","tol_peg_2","455","455","0","[[1,0,0],[3,2],[0]]","1","[[2,0,0],[3,0],[1]]","14","0","","","","","","3","","","","",""
"","","","","","single-stim-button","337","1308045","0.0-3.0-53.1-0.1","5c1021a547d07800011a23de","B2","batch2","tol_tohand","526","","","","","","","","","tol_peg_1","526","526","0","[[0,0,0],[3,2],[0]]","2","[[2,0,0],[3,0],[1]]","14","0","","","","","","3","","","","",""
"","","","","","single-stim-button","338","1308701","0.0-3.0-53.1-1.1","5c1021a547d07800011a23de","B2","batch2","tol_toboard","655","","","","","","","","","tol_peg_3","655","655","0","[[0,0,0],[3,2],[1]]","2","[[2,0,0],[3,0],[1]]","14","0","","","","","","3","","","","",""
"","","","","","single-stim-button","339","1309292","0.0-3.0-53.2-0.2","5c1021a547d07800011a23de","B2","batch2","tol_tohand","591","","","","","","","","","tol_peg_2","591","591","0","[[0,0,0],[3,0],[1]]","3","[[2,0,0],[3,0],[1]]","14","0","","","","","","3","","","","",""
"","","","","","single-stim-button","340","1309805","0.0-3.0-53.2-1.2","5c1021a547d07800011a23de","B2","batch2","tol_toboard","511","","","","","","","","","tol_peg_1","511","511","0","[[2,0,0],[3,0],[1]]","3","[[2,0,0],[3,0],[1]]","14","0","","","","","","3","","","","",""
"","","","","","poldrack-single-stim","341","1310815","0.0-3.0-54.0","5c1021a547d07800011a23de","B2","batch2","tol_feedback","-1","","","","","true","","","","","1000","1000","500","","","","","","-1","none","true","3094","4211","","","","","",""
"","","","","","html-button-response","342","1311507","0.0-3.0-55.0","5c1021a547d07800011a23de","B2","batch2","tol_trial_num","691.7999999970198","<div class = centerbox><p class = center-block-text>problem <strong>16</strong> out of 25 problems</p></div>","0","","","","","","","","","","","","","","","","","","","","","","","","","",""
"","","","","","single-stim-button","343","1325222","0.0-3.0-56.0-0.0","5c1021a547d07800011a23de","B2","batch2","tol_tohand","13713","","","","","","","","","tol_peg_3","13713","13713","0","[[0,0,0],[2,3],[0]]","1","[[2,3,0],[1,0],[0]]","15","0","","","","","","7","","","","",""
"","","","","","single-stim-button","344","1325925","0.0-3.0-56.0-1.0","5c1021a547d07800011a23de","B2","batch2","tol_toboard","702","","","","","","","","","tol_peg_1","702","702","0","[[1,0,0],[2,3],[0]]","1","[[2,3,0],[1,0],[0]]","15","0","","","","","","7","","","","",""
"","","","","","single-stim-button","345","1326453","0.0-3.0-56.1-0.1","5c1021a547d07800011a23de","B2","batch2","tol_tohand","527","","","","","","","","","tol_peg_2","527","527","0","[[1,0,0],[2,0],[0]]","2","[[2,3,0],[1,0],[0]]","15","0","","","","","","7","","","","",""
"","","","","","single-stim-button","346","1326981","0.0-3.0-56.1-1.1","5c1021a547d07800011a23de","B2","batch2","tol_toboard","527","","","","","","","","","tol_peg_1","527","527","0","[[1,3,0],[2,0],[0]]","2","[[2,3,0],[1,0],[0]]","15","0","","","","","","7","","","","",""
"","","","","","single-stim-button","347","1327716","0.0-3.0-56.2-0.2","5c1021a547d07800011a23de","B2","batch2","tol_tohand","735","","","","","","","","","tol_peg_2","735","735","0","[[1,3,0],[0,0],[0]]","3","[[2,3,0],[1,0],[0]]","15","0","","","","","","7","","","","",""
"","","","","","single-stim-button","348","1328356","0.0-3.0-56.2-1.2","5c1021a547d07800011a23de","B2","batch2","tol_toboard","638","","","","","","","","","tol_peg_3","638","638","0","[[1,3,0],[0,0],[2]]","3","[[2,3,0],[1,0],[0]]","15","0","","","","","","7","","","","",""
"","","","","","single-stim-button","349","1330747","0.0-3.0-56.3-0.3","5c1021a547d07800011a23de","B2","batch2","tol_tohand","2390","","","","","","","","","tol_peg_1","2390","2390","0","[[1,0,0],[0,0],[2]]","4","[[2,3,0],[1,0],[0]]","15","0","","","","","","7","","","","",""
"","","","","","single-stim-button","350","1331355","0.0-3.0-56.3-1.3","5c1021a547d07800011a23de","B2","batch2","tol_toboard","607","","","","","","","","","tol_peg_2","607","607","0","[[1,0,0],[3,0],[2]]","4","[[2,3,0],[1,0],[0]]","15","0","","","","","","7","","","","",""
"","","","","","single-stim-button","351","1331906","0.0-3.0-56.4-0.4","5c1021a547d07800011a23de","B2","batch2","tol_tohand","550","","","","","","","","","tol_peg_1","550","550","0","[[0,0,0],[3,0],[2]]","5","[[2,3,0],[1,0],[0]]","15","0","","","","","","7","","","","",""
"","","","","","single-stim-button","352","1332370","0.0-3.0-56.4-1.4","5c1021a547d07800011a23de","B2","batch2","tol_toboard","463","","","","","","","","","tol_peg_2","463","463","0","[[0,0,0],[3,1],[2]]","5","[[2,3,0],[1,0],[0]]","15","0","","","","","","7","","","","",""
"","","","","","single-stim-button","353","1333058","0.0-3.0-56.5-0.5","5c1021a547d07800011a23de","B2","batch2","tol_tohand","687","","","","","","","","","tol_peg_3","687","687","0","[[0,0,0],[3,1],[0]]","6","[[2,3,0],[1,0],[0]]","15","0","","","","","","7","","","","",""
"","","","","","single-stim-button","354","1333682","0.0-3.0-56.5-1.5","5c1021a547d07800011a23de","B2","batch2","tol_toboard","623","","","","","","","","","tol_peg_1","623","623","0","[[2,0,0],[3,1],[0]]","6","[[2,3,0],[1,0],[0]]","15","0","","","","","","7","","","","",""
