"success","timeout","failed_images","failed_audio","failed_video","trial_type","trial_index","time_elapsed","internal_node_id","subject_id","study_id","session_id","view_history","rt","task","stimulus","response","correct","mouse_click","stim_duration","block_duration","timing_post_trial","current_position","tol_num_moves_made","tol_target","tol_problem_id","tol_rt","key_press","possible_responses","tol_correct","preplanning","tol_rt_per_trial","tol_min_moves","answer","item","fiar_detect_rt","fiar_detect_correct","total_correct_fiar_detect","post_trial_gap","choices","spm_correct","spm_rt"
"true","false","[]","[]","[]","preload","0","3102","0.0-0.0","5c10724111fe9a00013cd815","C3","batch3","","","","","","","","","","","","","","","","","","","","","","","","","","","","","",""
"true","","","","","fullscreen","1","25974","0.0-1.0-0.0","5c10724111fe9a00013cd815","C3","batch3","","","","","","","","","","","","","","","","","","","","","","","","","","","","","",""
"true","","","","","fullscreen","2","30713","0.0-2.0-0.0","5c10724111fe9a00013cd815","C3","batch3","","","","","","","","","","","","","","","","","","","","","","","","","","","","","",""
"","","","","","instructions","3","222900","0.0-2.0-1.0-0.0-0.0","5c10724111fe9a00013cd815","C3","batch3","[{""page_index"":0,""viewing_time"":32431.69999999553},{""page_index"":1,""viewing_time"":47559.39999999851},{""page_index"":2,""viewing_time"":10727.90000000596},{""page_index"":3,""viewing_time"":14472.19999999553},{""page_index"":4,""viewing_time"":16471.89999999851},{""page_index"":5,""viewing_time"":35928.30000000447},{""page_index"":6,""viewing_time"":34591.69999999553}]","192184.29999999702","tol-instructions","","","","","","","","","","","","","","","","","","","","","","","","","","",""
"","","","","","html-button-response","4","224748","0.0-2.0-1.0-1.0-0.0","5c10724111fe9a00013cd815","C3","batch3","","1845.5","tol_enter_quiz","<p class=block-text> Let's answer a few questions <br>","0","","","","","","","","","","","","","","","","","","","","","","","","",""
"","","","","","html-button-response","5","233123","0.0-2.0-1.0-1.0-1.0","5c10724111fe9a00013cd815","C3","batch3","","8372.70000000298","tol_quiz","<p class = block-text>True or False: You can only move the ball on top of a peg. <br></p>","0","true","","","","","","","","","","","","","","","","","","","","","","","",""
"","","","","","html-button-response","6","234588","0.0-2.0-1.0-1.0-2.0","5c10724111fe9a00013cd815","C3","batch3","","1460.6999999955297","tol_quiz_feedback","<p class = block-text>Correct! You can only move the ball on top of a peg.</p>","0","","","","","","","","","","","","","","","","","","","","","","","","",""
"","","","","","html-button-response","7","239163","0.0-2.0-1.0-1.0-3.0","5c10724111fe9a00013cd815","C3","batch3","","4573.20000000298","tol_quiz","<p class = block-text>True or False: You should try to match your board with the target board with fewest moves possible. <br></p>","0","true","","","","","","","","","","","","","","","","","","","","","","","",""
"","","","","","html-button-response","8","240475","0.0-2.0-1.0-1.0-4.0","5c10724111fe9a00013cd815","C3","batch3","","1309.8999999985099","tol_quiz_feedback","<p class = block-text>Correct! </p>","0","","","","","","","","","","","","","","","","","","","","","","","","",""
"","","","","","html-button-response","9","293467","0.0-2.0-2.0","5c10724111fe9a00013cd815","C3","batch3","","52987.10000000149","","<p class=block-text> Now that you've understood the game, let's practice a few easier examples before we start!<br> <br>","0","","","","","","","","","","","","","","","","","","","","","","","","",""
"","","","","","single-stim-button","10","302461","0.0-2.0-3.0-0.0","5c10724111fe9a00013cd815","C3","batch3","","8991","tol_practice","","","","tol_peg_2","8991","8991","0","[[1,2,0],[0,0],[0]]","1","[[1,2,0],[0,0],[3]]","practice","8991","","","","","","","","","","","","","","",""
"","","","","","single-stim-button","11","303140","0.0-2.0-3.0-1.0","5c10724111fe9a00013cd815","C3","batch3","","678","tol_practice","","","","tol_peg_2","678","678","0","[[1,2,0],[3,0],[0]]","1","[[1,2,0],[0,0],[3]]","practice","678","","","","","","","","","","","","","","",""
"","","","","","single-stim-button","12","306051","0.0-2.0-3.1-0.1","5c10724111fe9a00013cd815","C3","batch3","","2909","tol_practice","","","","tol_peg_2","2909","2909","0","[[1,2,0],[0,0],[0]]","2","[[1,2,0],[0,0],[3]]","practice","2909","","","","","","","","","","","","","","",""
"","","","","","single-stim-button","13","307523","0.0-2.0-3.1-1.1","5c10724111fe9a00013cd815","C3","batch3","","1470","tol_practice","","","","tol_peg_3","1470","1470","0","[[1,2,0],[0,0],[3]]","2","[[1,2,0],[0,0],[3]]","practice","1470","","","","","","","","","","","","","","",""
"","","","","","poldrack-single-stim","14","308534","0.0-2.0-4.0","5c10724111fe9a00013cd815","C3","batch3","","-1","tol_feedback","","","true","","1000","1000","500","","","","","","-1","none","true","","0","","","","","","","","","",""
"","","","","","single-stim-button","15","314539","0.0-2.0-5.0-0.0","5c10724111fe9a00013cd815","C3","batch3","","6003","tol_practice","","","","tol_peg_1","6003","6003","0","[[1,0,0],[3,0],[0]]","3","[[0,0,0],[3,1],[2]]","practice","6003","","","","","","","","","","","","","","",""
"","","","","","single-stim-button","16","316420","0.0-2.0-5.0-1.0","5c10724111fe9a00013cd815","C3","batch3","","1879","tol_practice","","","","tol_peg_3","1879","1879","0","[[1,0,0],[3,0],[2]]","3","[[0,0,0],[3,1],[2]]","practice","1879","","","","","","","","","","","","","","",""
"","","","","","single-stim-button","17","318315","0.0-2.0-5.1-0.1","5c10724111fe9a00013cd815","C3","batch3","","1893","tol_practice","","","","tol_peg_2","1893","1893","0","[[1,0,0],[0,0],[2]]","4","[[0,0,0],[3,1],[2]]","practice","1893","","","","","","","","","","","","","","",""
"","","","","","single-stim-button","18","319843","0.0-2.0-5.1-1.1","5c10724111fe9a00013cd815","C3","batch3","","1527","tol_practice","","","","tol_peg_1","1527","1527","0","[[1,3,0],[0,0],[2]]","4","[[0,0,0],[3,1],[2]]","practice","1527","","","","","","","","","","","","","","",""
"","","","","","single-stim-button","19","324035","0.0-2.0-5.2-0.2","5c10724111fe9a00013cd815","C3","batch3","","4190","tol_practice","","","","tol_peg_1","4190","4190","0","[[1,0,0],[0,0],[2]]","5","[[0,0,0],[3,1],[2]]","practice","4190","","","","","","","","","","","","","","",""
"","","","","","single-stim-button","20","326227","0.0-2.0-5.2-1.2","5c10724111fe9a00013cd815","C3","batch3","","2190","tol_practice","","","","tol_peg_2","2190","2190","0","[[1,0,0],[3,0],[2]]","5","[[0,0,0],[3,1],[2]]","practice","2190","","","","","","","","","","","","","","",""
"","","","","","single-stim-button","21","327275","0.0-2.0-5.3-0.3","5c10724111fe9a00013cd815","C3","batch3","","1047","tol_practice","","","","tol_peg_1","1047","1047","0","[[0,0,0],[3,0],[2]]","6","[[0,0,0],[3,1],[2]]","practice","1047","","","","","","","","","","","","","","",""
"","","","","","single-stim-button","22","328843","0.0-2.0-5.3-1.3","5c10724111fe9a00013cd815","C3","batch3","","1566","tol_practice","","","","tol_peg_2","1566","1566","0","[[0,0,0],[3,1],[2]]","6","[[0,0,0],[3,1],[2]]","practice","1566","","","","","","","","","","","","","","",""
"","","","","","poldrack-single-stim","23","329859","0.0-2.0-6.0","5c10724111fe9a00013cd815","C3","batch3","","-1","tol_feedback","","","true","","1000","1000","500","","","","","","-1","none","true","","0","","","","","","","","","",""
"","","","","","single-stim-button","24","334387","0.0-2.0-7.0-0.0","5c10724111fe9a00013cd815","C3","batch3","","4526","tol_practice","","","","tol_peg_2","4526","4526","0","[[1,2,0],[0,0],[0]]","7","[[1,0,0],[2,0],[3]]","practice","4526","","","","","","","","","","","","","","",""
"","","","","","single-stim-button","25","337243","0.0-2.0-7.0-1.0","5c10724111fe9a00013cd815","C3","batch3","","2854","tol_practice","","","","tol_peg_3","2854","2854","0","[[1,2,0],[0,0],[3]]","7","[[1,0,0],[2,0],[3]]","practice","2854","","","","","","","","","","","","","","",""
"","","","","","single-stim-button","26","339459","0.0-2.0-7.1-0.1","5c10724111fe9a00013cd815","C3","batch3","","2214","tol_practice","","","","tol_peg_1","2214","2214","0","[[1,0,0],[0,0],[3]]","8","[[1,0,0],[2,0],[3]]","practice","2214","","","","","","","","","","","","","","",""
"","","","","","single-stim-button","27","340811","0.0-2.0-7.1-1.1","5c10724111fe9a00013cd815","C3","batch3","","1351","tol_practice","","","","tol_peg_2","1351","1351","0","[[1,0,0],[2,0],[3]]","8","[[1,0,0],[2,0],[3]]","practice","1351","","","","","","","","","","","","","","",""
"","","","","","poldrack-single-stim","28","341820","0.0-2.0-8.0","5c10724111fe9a00013cd815","C3","batch3","","-1","tol_feedback","","","true","","1000","1000","500","","","","","","-1","none","true","","0","","","","","","","","","",""
"","","","","","html-button-response","29","401780","0.0-2.0-9.0","5c10724111fe9a00013cd815","C3","batch3","","59957.80000000447","tol_instruction","<div class = centerbox><p class = center-block-text>Great job! You are done with practice trials<br>You are about to start official trials.<br> <br> Problem <strong>1</strong> out of 25 problems</p></div>","0","","","","","","","","","","","","","","","","","","","","","","","","",""
"","","","","","single-stim-button","30","410875","0.0-2.0-10.0-0.0","5c10724111fe9a00013cd815","C3","batch3","","8087","tol_tohand","","","","tol_peg_1","8087","8087","0","[[1,0,0],[3,0],[0]]","1","[[1,3,0],[2,0],[0]]","0","0","","","","","","3","","","","","","","","",""
"","","","","","single-stim-button","31","412691","0.0-2.0-10.0-1.0","5c10724111fe9a00013cd815","C3","batch3","","1815","tol_toboard","","","","tol_peg_3","1815","1815","0","[[1,0,0],[3,0],[2]]","1","[[1,3,0],[2,0],[0]]","0","0","","","","","","3","","","","","","","","",""
"","","","","","single-stim-button","32","413675","0.0-2.0-10.1-0.1","5c10724111fe9a00013cd815","C3","batch3","","982","tol_tohand","","","","tol_peg_2","982","982","0","[[1,0,0],[0,0],[2]]","2","[[1,3,0],[2,0],[0]]","0","0","","","","","","3","","","","","","","","",""
"","","","","","single-stim-button","33","414947","0.0-2.0-10.1-1.1","5c10724111fe9a00013cd815","C3","batch3","","1271","tol_toboard","","","","tol_peg_1","1271","1271","0","[[1,3,0],[0,0],[2]]","2","[[1,3,0],[2,0],[0]]","0","0","","","","","","3","","","","","","","","",""
"","","","","","single-stim-button","34","416115","0.0-2.0-10.2-0.2","5c10724111fe9a00013cd815","C3","batch3","","1166","tol_tohand","","","","tol_peg_3","1166","1166","0","[[1,3,0],[0,0],[0]]","3","[[1,3,0],[2,0],[0]]","0","0","","","","","","3","","","","","","","","",""
"","","","","","single-stim-button","35","417203","0.0-2.0-10.2-1.2","5c10724111fe9a00013cd815","C3","batch3","","1086","tol_toboard","","","","tol_peg_2","1086","1086","0","[[1,3,0],[2,0],[0]]","3","[[1,3,0],[2,0],[0]]","0","0","","","","","","3","","","","","","","","",""
"","","","","","poldrack-single-stim","36","418207","0.0-2.0-11.0","5c10724111fe9a00013cd815","C3","batch3","","-1","tol_feedback","","","true","","1000","1000","500","","","","","","-1","none","true","8087","10235","","","","","","","","","",""
"","","","","","html-button-response","37","420147","0.0-2.0-12.0","5c10724111fe9a00013cd815","C3","batch3","","1938.2999999970198","tol_trial_num","<div class = centerbox><p class = center-block-text>problem <strong>2</strong> out of 25 problems</p></div>","0","","","","","","","","","","","","","","","","","","","","","","","","",""
"","","","","","single-stim-button","38","426067","0.0-2.0-13.0-0.0","5c10724111fe9a00013cd815","C3","batch3","","5918","tol_tohand","","","","tol_peg_1","5918","5918","0","[[1,0,0],[3,0],[0]]","1","[[2,1,3],[0,0],[0]]","1","0","","","","","","5","","","","","","","","",""
"","","","","","single-stim-button","39","427461","0.0-2.0-13.0-1.0","5c10724111fe9a00013cd815","C3","batch3","","1393","tol_toboard","","","","tol_peg_3","1393","1393","0","[[1,0,0],[3,0],[2]]","1","[[2,1,3],[0,0],[0]]","1","0","","","","","","5","","","","","","","","",""
"","","","","","single-stim-button","40","430859","0.0-2.0-13.1-0.1","5c10724111fe9a00013cd815","C3","batch3","","3397","tol_tohand","","","","tol_peg_1","3397","3397","0","[[0,0,0],[3,0],[2]]","2","[[2,1,3],[0,0],[0]]","1","0","","","","","","5","","","","","","","","",""
"","","","","","single-stim-button","41","440795","0.0-2.0-13.1-1.1","5c10724111fe9a00013cd815","C3","batch3","","9934","tol_toboard","","","","tol_peg_1","9934","9934","0","[[1,0,0],[3,0],[2]]","2","[[2,1,3],[0,0],[0]]","1","0","","","","","","5","","","","","","","","",""
"","","","","","single-stim-button","42","449291","0.0-2.0-13.2-0.2","5c10724111fe9a00013cd815","C3","batch3","","8494","tol_tohand","","","","tol_peg_2","8494","8494","0","[[1,0,0],[0,0],[2]]","3","[[2,1,3],[0,0],[0]]","1","0","","","","","","5","","","","","","","","",""
"","","","","","single-stim-button","43","450563","0.0-2.0-13.2-1.2","5c10724111fe9a00013cd815","C3","batch3","","1270","tol_toboard","","","","tol_peg_1","1270","1270","0","[[1,3,0],[0,0],[2]]","3","[[2,1,3],[0,0],[0]]","1","0","","","","","","5","","","","","","","","",""
"","","","","","single-stim-button","44","452236","0.0-2.0-13.3-0.3","5c10724111fe9a00013cd815","C3","batch3","","1671","tol_tohand","","","","tol_peg_3","1671","1671","0","[[1,3,0],[0,0],[0]]","4","[[2,1,3],[0,0],[0]]","1","0","","","","","","5","","","","","","","","",""
"","","","","","single-stim-button","45","453499","0.0-2.0-13.3-1.3","5c10724111fe9a00013cd815","C3","batch3","","1263","tol_toboard","","","","tol_peg_1","1263","1263","0","[[1,3,2],[0,0],[0]]","4","[[2,1,3],[0,0],[0]]","1","0","","","","","","5","","","","","","","","",""
"","","","","","single-stim-button","46","464989","0.0-2.0-13.4-0.4","5c10724111fe9a00013cd815","C3","batch3","","11487","tol_tohand","","","","tol_peg_1","11487","11487","0","[[1,3,0],[0,0],[0]]","5","[[2,1,3],[0,0],[0]]","1","0","","","","","","5","","","","","","","","",""
"","","","","","single-stim-button","47","466091","0.0-2.0-13.4-1.4","5c10724111fe9a00013cd815","C3","batch3","","1101","tol_toboard","","","","tol_peg_3","1101","1101","0","[[1,3,0],[0,0],[2]]","5","[[2,1,3],[0,0],[0]]","1","0","","","","","","5","","","","","","","","",""
"","","","","","single-stim-button","48","470699","0.0-2.0-13.5-0.5","5c10724111fe9a00013cd815","C3","batch3","","4607","tol_tohand","","","","tol_peg_1","4607","4607","0","[[1,0,0],[0,0],[2]]","6","[[2,1,3],[0,0],[0]]","1","0","","","","","","5","","","","","","","","",""
"","","","","","single-stim-button","49","477069","0.0-2.0-13.5-1.5","5c10724111fe9a00013cd815","C3","batch3","","6368","tol_toboard","","","","tol_peg_2","6368","6368","0","[[1,0,0],[3,0],[2]]","6","[[2,1,3],[0,0],[0]]","1","0","","","","","","5","","","","","","","","",""
"","","","","","single-stim-button","50","478075","0.0-2.0-13.6-0.6","5c10724111fe9a00013cd815","C3","batch3","","1004","tol_tohand","","","","tol_peg_1","1004","1004","0","[[0,0,0],[3,0],[2]]","7","[[2,1,3],[0,0],[0]]","1","0","","","","","","5","","","","","","","","",""
"","","","","","single-stim-button","51","481884","0.0-2.0-13.6-1.6","5c10724111fe9a00013cd815","C3","batch3","","3807","tol_toboard","","","","tol_peg_2","3807","3807","0","[[0,0,0],[3,1],[2]]","7","[[2,1,3],[0,0],[0]]","1","0","","","","","","5","","","","","","","","",""
"","","","","","single-stim-button","52","485667","0.0-2.0-13.7-0.7","5c10724111fe9a00013cd815","C3","batch3","","3783","tol_tohand","","","","tol_peg_3","3783","3783","0","[[0,0,0],[3,1],[0]]","8","[[2,1,3],[0,0],[0]]","1","0","","","","","","5","","","","","","","","",""
"","","","","","single-stim-button","53","487123","0.0-2.0-13.7-1.7","5c10724111fe9a00013cd815","C3","batch3","","1454","tol_toboard","","","","tol_peg_1","1454","1454","0","[[2,0,0],[3,1],[0]]","8","[[2,1,3],[0,0],[0]]","1","0","","","","","","5","","","","","","","","",""
"","","","","","single-stim-button","54","491019","0.0-2.0-13.8-0.8","5c10724111fe9a00013cd815","C3","batch3","","3895","tol_tohand","","","","tol_peg_2","3895","3895","0","[[2,0,0],[3,0],[0]]","9","[[2,1,3],[0,0],[0]]","1","0","","","","","","5","","","","","","","","",""
"","","","","","single-stim-button","55","492364","0.0-2.0-13.8-1.8","5c10724111fe9a00013cd815","C3","batch3","","1344","tol_toboard","","","","tol_peg_3","1344","1344","0","[[2,0,0],[3,0],[1]]","9","[[2,1,3],[0,0],[0]]","1","0","","","","","","5","","","","","","","","",""
"","","","","","single-stim-button","56","495003","0.0-2.0-13.9-0.9","5c10724111fe9a00013cd815","C3","batch3","","2637","tol_tohand","","","","tol_peg_3","2637","2637","0","[[2,0,0],[3,0],[0]]","10","[[2,1,3],[0,0],[0]]","1","0","","","","","","5","","","","","","","","",""
"","","","","","single-stim-button","57","496507","0.0-2.0-13.9-1.9","5c10724111fe9a00013cd815","C3","batch3","","1503","tol_toboard","","","","tol_peg_1","1503","1503","0","[[2,1,0],[3,0],[0]]","10","[[2,1,3],[0,0],[0]]","1","0","","","","","","5","","","","","","","","",""
"","","","","","single-stim-button","58","497411","0.0-2.0-13.10-0.10","5c10724111fe9a00013cd815","C3","batch3","","902","tol_tohand","","","","tol_peg_2","902","902","0","[[2,1,0],[0,0],[0]]","11","[[2,1,3],[0,0],[0]]","1","0","","","","","","5","","","","","","","","",""
"","","","","","single-stim-button","59","498948","0.0-2.0-13.10-1.10","5c10724111fe9a00013cd815","C3","batch3","","1536","tol_toboard","","","","tol_peg_1","1536","1536","0","[[2,1,3],[0,0],[0]]","11","[[2,1,3],[0,0],[0]]","1","0","","","","","","5","","","","","","","","",""
"","","","","","poldrack-single-stim","60","499964","0.0-2.0-14.0","5c10724111fe9a00013cd815","C3","batch3","","-1","tol_feedback","","","true","","1000","1000","500","","","","","","-1","none","true","5918","47795","","","","","","","","","",""
"","","","","","html-button-response","61","501459","0.0-2.0-15.0","5c10724111fe9a00013cd815","C3","batch3","","1493.7999999970198","tol_trial_num","<div class = centerbox><p class = center-block-text>problem <strong>3</strong> out of 25 problems</p></div>","0","","","","","","","","","","","","","","","","","","","","","","","","",""
"","","","","","single-stim-button","62","507243","0.0-2.0-16.0-0.0","5c10724111fe9a00013cd815","C3","batch3","","5782","tol_tohand","","","","tol_peg_1","5782","5782","0","[[2,0,0],[0,0],[1]]","1","[[1,2,0],[3,0],[0]]","2","0","","","","","","4","","","","","","","","",""
"","","","","","single-stim-button","63","508547","0.0-2.0-16.0-1.0","5c10724111fe9a00013cd815","C3","batch3","","1303","tol_toboard","","","","tol_peg_2","1303","1303","0","[[2,0,0],[3,0],[1]]","1","[[1,2,0],[3,0],[0]]","2","0","","","","","","4","","","","","","","","",""
"","","","","","single-stim-button","64","517427","0.0-2.0-16.1-0.1","5c10724111fe9a00013cd815","C3","batch3","","8879","tol_tohand","","","","tol_peg_1","8879","8879","0","[[0,0,0],[3,0],[1]]","2","[[1,2,0],[3,0],[0]]","2","0","","","","","","4","","","","","","","","",""
"","","","","","single-stim-button","65","518451","0.0-2.0-16.1-1.1","5c10724111fe9a00013cd815","C3","batch3","","1022","tol_toboard","","","","tol_peg_2","1022","1022","0","[[0,0,0],[3,2],[1]]","2","[[1,2,0],[3,0],[0]]","2","0","","","","","","4","","","","","","","","",""
"","","","","","single-stim-button","66","519491","0.0-2.0-16.2-0.2","5c10724111fe9a00013cd815","C3","batch3","","1039","tol_tohand","","","","tol_peg_3","1039","1039","0","[[0,0,0],[3,2],[0]]","3","[[1,2,0],[3,0],[0]]","2","0","","","","","","4","","","","","","","","",""
"","","","","","single-stim-button","67","523115","0.0-2.0-16.2-1.2","5c10724111fe9a00013cd815","C3","batch3","","3623","tol_toboard","","","","tol_peg_1","3623","3623","0","[[1,0,0],[3,2],[0]]","3","[[1,2,0],[3,0],[0]]","2","0","","","","","","4","","","","","","","","",""
"","","","","","single-stim-button","68","524187","0.0-2.0-16.3-0.3","5c10724111fe9a00013cd815","C3","batch3","","1072","tol_tohand","","","","tol_peg_2","1072","1072","0","[[1,0,0],[3,0],[0]]","4","[[1,2,0],[3,0],[0]]","2","0","","","","","","4","","","","","","","","",""
"","","","","","single-stim-button","69","525675","0.0-2.0-16.3-1.3","5c10724111fe9a00013cd815","C3","batch3","","1486","tol_toboard","","","","tol_peg_1","1486","1486","0","[[1,2,0],[3,0],[0]]","4","[[1,2,0],[3,0],[0]]","2","0","","","","","","4","","","","","","","","",""
"","","","","","poldrack-single-stim","70","526677","0.0-2.0-17.0","5c10724111fe9a00013cd815","C3","batch3","","-1","tol_feedback","","","true","","1000","1000","500","","","","","","-1","none","true","5782","16772","","","","","","","","","",""
"","","","","","html-button-response","71","528443","0.0-2.0-18.0","5c10724111fe9a00013cd815","C3","batch3","","1764.8999999985099","tol_trial_num","<div class = centerbox><p class = center-block-text>problem <strong>4</strong> out of 25 problems</p></div>","0","","","","","","","","","","","","","","","","","","","","","","","","",""
"","","","","","single-stim-button","72","536213","0.0-2.0-19.0-0.0","5c10724111fe9a00013cd815","C3","batch3","","7767","tol_tohand","","","","tol_peg_2","7767","7767","0","[[3,0,0],[2,0],[0]]","1","[[3,0,0],[1,0],[2]]","3","0","","","","","","3","","","","","","","","",""
"","","","","","single-stim-button","73","537699","0.0-2.0-19.0-1.0","5c10724111fe9a00013cd815","C3","batch3","","1485","tol_toboard","","","","tol_peg_1","1485","1485","0","[[3,1,0],[2,0],[0]]","1","[[3,0,0],[1,0],[2]]","3","0","","","","","","3","","","","","","","","",""
"","","","","","single-stim-button","74","539875","0.0-2.0-19.1-0.1","5c10724111fe9a00013cd815","C3","batch3","","2175","tol_tohand","","","","tol_peg_2","2175","2175","0","[[3,1,0],[0,0],[0]]","2","[[3,0,0],[1,0],[2]]","3","0","","","","","","3","","","","","","","","",""
"","","","","","single-stim-button","75","541259","0.0-2.0-19.1-1.1","5c10724111fe9a00013cd815","C3","batch3","","1382","tol_toboard","","","","tol_peg_3","1382","1382","0","[[3,1,0],[0,0],[2]]","2","[[3,0,0],[1,0],[2]]","3","0","","","","","","3","","","","","","","","",""
"","","","","","single-stim-button","76","542363","0.0-2.0-19.2-0.2","5c10724111fe9a00013cd815","C3","batch3","","1103","tol_tohand","","","","tol_peg_1","1103","1103","0","[[3,0,0],[0,0],[2]]","3","[[3,0,0],[1,0],[2]]","3","0","","","","","","3","","","","","","","","",""
"","","","","","single-stim-button","77","543339","0.0-2.0-19.2-1.2","5c10724111fe9a00013cd815","C3","batch3","","974","tol_toboard","","","","tol_peg_2","974","974","0","[[3,0,0],[1,0],[2]]","3","[[3,0,0],[1,0],[2]]","3","0","","","","","","3","","","","","","","","",""
"","","","","","poldrack-single-stim","78","544358","0.0-2.0-20.0","5c10724111fe9a00013cd815","C3","batch3","","-1","tol_feedback","","","true","","1000","1000","500","","","","","","-1","none","true","7767","11045","","","","","","","","","",""
"","","","","","html-button-response","79","546099","0.0-2.0-21.0","5c10724111fe9a00013cd815","C3","batch3","","1739.5","tol_trial_num","<div class = centerbox><p class = center-block-text>problem <strong>5</strong> out of 25 problems</p></div>","0","","","","","","","","","","","","","","","","","","","","","","","","",""
"","","","","","single-stim-button","80","567347","0.0-2.0-22.0-0.0","5c10724111fe9a00013cd815","C3","batch3","","21246","tol_tohand","","","","tol_peg_1","21246","21246","0","[[0,0,0],[2,0],[3]]","1","[[0,0,0],[1,2],[3]]","4","0","","","","","","7","","","","","","","","",""
"","","","","","single-stim-button","81","569211","0.0-2.0-22.0-1.0","5c10724111fe9a00013cd815","C3","batch3","","1862","tol_toboard","","","","tol_peg_2","1862","1862","0","[[0,0,0],[2,1],[3]]","1","[[0,0,0],[1,2],[3]]","4","0","","","","","","7","","","","","","","","",""
"","","","","","single-stim-button","82","572095","0.0-2.0-22.1-0.1","5c10724111fe9a00013cd815","C3","batch3","","2884","tol_tohand","","","","tol_peg_3","2884","2884","0","[[0,0,0],[2,1],[0]]","2","[[0,0,0],[1,2],[3]]","4","0","","","","","","7","","","","","","","","",""
"","","","","","single-stim-button","83","573579","0.0-2.0-22.1-1.1","5c10724111fe9a00013cd815","C3","batch3","","1483","tol_toboard","","","","tol_peg_1","1483","1483","0","[[3,0,0],[2,1],[0]]","2","[[0,0,0],[1,2],[3]]","4","0","","","","","","7","","","","","","","","",""
"","","","","","single-stim-button","84","576091","0.0-2.0-22.2-0.2","5c10724111fe9a00013cd815","C3","batch3","","2510","tol_tohand","","","","tol_peg_2","2510","2510","0","[[3,0,0],[2,0],[0]]","3","[[0,0,0],[1,2],[3]]","4","0","","","","","","7","","","","","","","","",""
"","","","","","single-stim-button","85","577282","0.0-2.0-22.2-1.2","5c10724111fe9a00013cd815","C3","batch3","","1191","tol_toboard","","","","tol_peg_3","1191","1191","0","[[3,0,0],[2,0],[1]]","3","[[0,0,0],[1,2],[3]]","4","0","","","","","","7","","","","","","","","",""
"","","","","","single-stim-button","86","583955","0.0-2.0-22.3-0.3","5c10724111fe9a00013cd815","C3","batch3","","6672","tol_tohand","","","","tol_peg_2","6672","6672","0","[[3,0,0],[0,0],[1]]","4","[[0,0,0],[1,2],[3]]","4","0","","","","","","7","","","","","","","","",""
"","","","","","single-stim-button","87","585060","0.0-2.0-22.3-1.3","5c10724111fe9a00013cd815","C3","batch3","","1103","tol_toboard","","","","tol_peg_1","1103","1103","0","[[3,2,0],[0,0],[1]]","4","[[0,0,0],[1,2],[3]]","4","0","","","","","","7","","","","","","","","",""
"","","","","","single-stim-button","88","587572","0.0-2.0-22.4-0.4","5c10724111fe9a00013cd815","C3","batch3","","2511","tol_tohand","","","","tol_peg_3","2511","2511","0","[[3,2,0],[0,0],[0]]","5","[[0,0,0],[1,2],[3]]","4","0","","","","","","7","","","","","","","","",""
"","","","","","single-stim-button","89","588475","0.0-2.0-22.4-1.4","5c10724111fe9a00013cd815","C3","batch3","","902","tol_toboard","","","","tol_peg_2","902","902","0","[[3,2,0],[1,0],[0]]","5","[[0,0,0],[1,2],[3]]","4","0","","","","","","7","","","","","","","","",""
"","","","","","single-stim-button","90","589395","0.0-2.0-22.5-0.5","5c10724111fe9a00013cd815","C3","batch3","","920","tol_tohand","","","","tol_peg_1","920","920","0","[[3,0,0],[1,0],[0]]","6","[[0,0,0],[1,2],[3]]","4","0","","","","","","7","","","","","","","","",""
"","","","","","single-stim-button","91","590469","0.0-2.0-22.5-1.5","5c10724111fe9a00013cd815","C3","batch3","","1073","tol_toboard","","","","tol_peg_2","1073","1073","0","[[3,0,0],[1,2],[0]]","6","[[0,0,0],[1,2],[3]]","4","0","","","","","","7","","","","","","","","",""
"","","","","","single-stim-button","92","591668","0.0-2.0-22.6-0.6","5c10724111fe9a00013cd815","C3","batch3","","1198","tol_tohand","","","","tol_peg_1","1198","1198","0","[[0,0,0],[1,2],[0]]","7","[[0,0,0],[1,2],[3]]","4","0","","","","","","7","","","","","","","","",""
"","","","","","single-stim-button","93","593131","0.0-2.0-22.6-1.6","5c10724111fe9a00013cd815","C3","batch3","","1462","tol_toboard","","","","tol_peg_3","1462","1462","0","[[0,0,0],[1,2],[3]]","7","[[0,0,0],[1,2],[3]]","4","0","","","","","","7","","","","","","","","",""
"","","","","","poldrack-single-stim","94","594148","0.0-2.0-23.0","5c10724111fe9a00013cd815","C3","batch3","","-1","tol_feedback","","","true","","1000","1000","500","","","","","","-1","none","true","21246","37941","","","","","","","","","",""
"","","","","","html-button-response","95","596379","0.0-2.0-24.0","5c10724111fe9a00013cd815","C3","batch3","","2230","tol_trial_num","<div class = centerbox><p class = center-block-text>problem <strong>6</strong> out of 25 problems</p></div>","0","","","","","","","","","","","","","","","","","","","","","","","","",""
"","","","","","single-stim-button","96","608331","0.0-2.0-25.0-0.0","5c10724111fe9a00013cd815","C3","batch3","","11950","tol_tohand","","","","tol_peg_3","11950","11950","0","[[0,0,0],[1,2],[0]]","1","[[1,0,0],[2,3],[0]]","5","0","","","","","","6","","","","","","","","",""
"","","","","","single-stim-button","97","609771","0.0-2.0-25.0-1.0","5c10724111fe9a00013cd815","C3","batch3","","1439","tol_toboard","","","","tol_peg_1","1439","1439","0","[[3,0,0],[1,2],[0]]","1","[[1,0,0],[2,3],[0]]","5","0","","","","","","6","","","","","","","","",""
"","","","","","single-stim-button","98","614867","0.0-2.0-25.1-0.1","5c10724111fe9a00013cd815","C3","batch3","","5094","tol_tohand","","","","tol_peg_2","5094","5094","0","[[3,0,0],[1,0],[0]]","2","[[1,0,0],[2,3],[0]]","5","0","","","","","","6","","","","","","","","",""
"","","","","","single-stim-button","99","618755","0.0-2.0-25.1-1.1","5c10724111fe9a00013cd815","C3","batch3","","3887","tol_toboard","","","","tol_peg_1","3887","3887","0","[[3,2,0],[1,0],[0]]","2","[[1,0,0],[2,3],[0]]","5","0","","","","","","6","","","","","","","","",""
"","","","","","single-stim-button","100","619723","0.0-2.0-25.2-0.2","5c10724111fe9a00013cd815","C3","batch3","","966","tol_tohand","","","","tol_peg_2","966","966","0","[[3,2,0],[0,0],[0]]","3","[[1,0,0],[2,3],[0]]","5","0","","","","","","6","","","","","","","","",""
"","","","","","single-stim-button","101","620923","0.0-2.0-25.2-1.2","5c10724111fe9a00013cd815","C3","batch3","","1199","tol_toboard","","","","tol_peg_3","1199","1199","0","[[3,2,0],[0,0],[1]]","3","[[1,0,0],[2,3],[0]]","5","0","","","","","","6","","","","","","","","",""
"","","","","","single-stim-button","102","622387","0.0-2.0-25.3-0.3","5c10724111fe9a00013cd815","C3","batch3","","1462","tol_tohand","","","","tol_peg_1","1462","1462","0","[[3,0,0],[0,0],[1]]","4","[[1,0,0],[2,3],[0]]","5","0","","","","","","6","","","","","","","","",""
"","","","","","single-stim-button","103","623380","0.0-2.0-25.3-1.3","5c10724111fe9a00013cd815","C3","batch3","","992","tol_toboard","","","","tol_peg_2","992","992","0","[[3,0,0],[2,0],[1]]","4","[[1,0,0],[2,3],[0]]","5","0","","","","","","6","","","","","","","","",""
"","","","","","single-stim-button","104","624939","0.0-2.0-25.4-0.4","5c10724111fe9a00013cd815","C3","batch3","","1558","tol_tohand","","","","tol_peg_1","1558","1558","0","[[0,0,0],[2,0],[1]]","5","[[1,0,0],[2,3],[0]]","5","0","","","","","","6","","","","","","","","",""
"","","","","","single-stim-button","105","626428","0.0-2.0-25.4-1.4","5c10724111fe9a00013cd815","C3","batch3","","1487","tol_toboard","","","","tol_peg_2","1487","1487","0","[[0,0,0],[2,3],[1]]","5","[[1,0,0],[2,3],[0]]","5","0","","","","","","6","","","","","","","","",""
"","","","","","single-stim-button","106","627267","0.0-2.0-25.5-0.5","5c10724111fe9a00013cd815","C3","batch3","","838","tol_tohand","","","","tol_peg_3","838","838","0","[[0,0,0],[2,3],[0]]","6","[[1,0,0],[2,3],[0]]","5","0","","","","","","6","","","","","","","","",""
"","","","","","single-stim-button","107","628547","0.0-2.0-25.5-1.5","5c10724111fe9a00013cd815","C3","batch3","","1279","tol_toboard","","","","tol_peg_1","1279","1279","0","[[1,0,0],[2,3],[0]]","6","[[1,0,0],[2,3],[0]]","5","0","","","","","","6","","","","","","","","",""
"","","","","","poldrack-single-stim","108","629551","0.0-2.0-26.0","5c10724111fe9a00013cd815","C3","batch3","","-1","tol_feedback","","","true","","1000","1000","500","","","","","","-1","none","true","11950","21868","","","","","","","","","",""
"","","","","","html-button-response","109","631035","0.0-2.0-27.0","5c10724111fe9a00013cd815","C3","batch3","","1482.6000000014901","tol_trial_num","<div class = centerbox><p class = center-block-text>problem <strong>7</strong> out of 25 problems</p></div>","0","","","","","","","","","","","","","","","","","","","","","","","","",""
"","","","","","single-stim-button","110","642571","0.0-2.0-28.0-0.0","5c10724111fe9a00013cd815","C3","batch3","","11534","tol_tohand","","","","tol_peg_3","11534","11534","0","[[2,1,0],[0,0],[0]]","1","[[1,2,0],[3,0],[0]]","6","0","","","","","","5","","","","","","","","",""
"","","","","","single-stim-button","111","643901","0.0-2.0-28.0-1.0","5c10724111fe9a00013cd815","C3","batch3","","1329","tol_toboard","","","","tol_peg_2","1329","1329","0","[[2,1,0],[3,0],[0]]","1","[[1,2,0],[3,0],[0]]","6","0","","","","","","5","","","","","","","","",""
"","","","","","single-stim-button","112","646923","0.0-2.0-28.1-0.1","5c10724111fe9a00013cd815","C3","batch3","","3021","tol_tohand","","","","tol_peg_1","3021","3021","0","[[2,0,0],[3,0],[0]]","2","[[1,2,0],[3,0],[0]]","6","0","","","","","","5","","","","","","","","",""
"","","","","","single-stim-button","113","648355","0.0-2.0-28.1-1.1","5c10724111fe9a00013cd815","C3","batch3","","1431","tol_toboard","","","","tol_peg_3","1431","1431","0","[[2,0,0],[3,0],[1]]","2","[[1,2,0],[3,0],[0]]","6","0","","","","","","5","","","","","","","","",""
"","","","","","single-stim-button","114","650844","0.0-2.0-28.2-0.2","5c10724111fe9a00013cd815","C3","batch3","","2488","tol_tohand","","","","tol_peg_1","2488","2488","0","[[0,0,0],[3,0],[1]]","3","[[1,2,0],[3,0],[0]]","6","0","","","","","","5","","","","","","","","",""
"","","","","","single-stim-button","115","652427","0.0-2.0-28.2-1.2","5c10724111fe9a00013cd815","C3","batch3","","1582","tol_toboard","","","","tol_peg_2","1582","1582","0","[[0,0,0],[3,2],[1]]","3","[[1,2,0],[3,0],[0]]","6","0","","","","","","5","","","","","","","","",""
"","","","","","single-stim-button","116","653211","0.0-2.0-28.3-0.3","5c10724111fe9a00013cd815","C3","batch3","","782","tol_tohand","","","","tol_peg_3","782","782","0","[[0,0,0],[3,2],[0]]","4","[[1,2,0],[3,0],[0]]","6","0","","","","","","5","","","","","","","","",""
"","","","","","single-stim-button","117","655075","0.0-2.0-28.3-1.3","5c10724111fe9a00013cd815","C3","batch3","","1862","tol_toboard","","","","tol_peg_1","1862","1862","0","[[1,0,0],[3,2],[0]]","4","[[1,2,0],[3,0],[0]]","6","0","","","","","","5","","","","","","","","",""
"","","","","","single-stim-button","118","656587","0.0-2.0-28.4-0.4","5c10724111fe9a00013cd815","C3","batch3","","1510","tol_tohand","","","","tol_peg_2","1510","1510","0","[[1,0,0],[3,0],[0]]","5","[[1,2,0],[3,0],[0]]","6","0","","","","","","5","","","","","","","","",""
"","","","","","single-stim-button","119","657835","0.0-2.0-28.4-1.4","5c10724111fe9a00013cd815","C3","batch3","","1247","tol_toboard","","","","tol_peg_1","1247","1247","0","[[1,2,0],[3,0],[0]]","5","[[1,2,0],[3,0],[0]]","6","0","","","","","","5","","","","","","","","",""
"","","","","","poldrack-single-stim","120","658850","0.0-2.0-29.0","5c10724111fe9a00013cd815","C3","batch3","","-1","tol_feedback","","","true","","1000","1000","500","","","","","","-1","none","true","11534","19335","","","","","","","","","",""
"","","","","","html-button-response","121","660243","0.0-2.0-30.0","5c10724111fe9a00013cd815","C3","batch3","","1391.1999999955297","tol_trial_num","<div class = centerbox><p class = center-block-text>problem <strong>8</strong> out of 25 problems</p></div>","0","","","","","","","","","","","","","","","","","","","","","","","","",""
"","","","","","single-stim-button","122","668867","0.0-2.0-31.0-0.0","5c10724111fe9a00013cd815","C3","batch3","","8621","tol_tohand","","","","tol_peg_3","8621","8621","0","[[0,0,0],[2,3],[0]]","1","[[1,2,0],[3,0],[0]]","7","0","","","","","","4","","","","","","","","",""
"","","","","","single-stim-button","123","670899","0.0-2.0-31.0-1.0","5c10724111fe9a00013cd815","C3","batch3","","2031","tol_toboard","","","","tol_peg_1","2031","2031","0","[[1,0,0],[2,3],[0]]","1","[[1,2,0],[3,0],[0]]","7","0","","","","","","4","","","","","","","","",""
"","","","","","single-stim-button","124","671843","0.0-2.0-31.1-0.1","5c10724111fe9a00013cd815","C3","batch3","","944","tol_tohand","","","","tol_peg_2","944","944","0","[[1,0,0],[2,0],[0]]","2","[[1,2,0],[3,0],[0]]","7","0","","","","","","4","","","","","","","","",""
"","","","","","single-stim-button","125","673178","0.0-2.0-31.1-1.1","5c10724111fe9a00013cd815","C3","batch3","","1335","tol_toboard","","","","tol_peg_3","1335","1335","0","[[1,0,0],[2,0],[3]]","2","[[1,2,0],[3,0],[0]]","7","0","","","","","","4","","","","","","","","",""
"","","","","","single-stim-button","126","674363","0.0-2.0-31.2-0.2","5c10724111fe9a00013cd815","C3","batch3","","1183","tol_tohand","","","","tol_peg_2","1183","1183","0","[[1,0,0],[0,0],[3]]","3","[[1,2,0],[3,0],[0]]","7","0","","","","","","4","","","","","","","","",""
"","","","","","single-stim-button","127","675715","0.0-2.0-31.2-1.2","5c10724111fe9a00013cd815","C3","batch3","","1352","tol_toboard","","","","tol_peg_1","1352","1352","0","[[1,2,0],[0,0],[3]]","3","[[1,2,0],[3,0],[0]]","7","0","","","","","","4","","","","","","","","",""
"","","","","","single-stim-button","128","678675","0.0-2.0-31.3-0.3","5c10724111fe9a00013cd815","C3","batch3","","2959","tol_tohand","","","","tol_peg_3","2959","2959","0","[[1,2,0],[0,0],[0]]","4","[[1,2,0],[3,0],[0]]","7","0","","","","","","4","","","","","","","","",""
"","","","","","single-stim-button","129","680035","0.0-2.0-31.3-1.3","5c10724111fe9a00013cd815","C3","batch3","","1359","tol_toboard","","","","tol_peg_2","1359","1359","0","[[1,2,0],[3,0],[0]]","4","[[1,2,0],[3,0],[0]]","7","0","","","","","","4","","","","","","","","",""
"","","","","","poldrack-single-stim","130","681041","0.0-2.0-32.0","5c10724111fe9a00013cd815","C3","batch3","","-1","tol_feedback","","","true","","1000","1000","500","","","","","","-1","none","true","8621","13707","","","","","","","","","",""
"","","","","","html-button-response","131","682165","0.0-2.0-33.0","5c10724111fe9a00013cd815","C3","batch3","","1121.3000000044703","tol_trial_num","<div class = centerbox><p class = center-block-text>problem <strong>9</strong> out of 25 problems</p></div>","0","","","","","","","","","","","","","","","","","","","","","","","","",""
"","","","","","single-stim-button","132","689564","0.0-2.0-34.0-0.0","5c10724111fe9a00013cd815","C3","batch3","","7397","tol_tohand","","","","tol_peg_3","7397","7397","0","[[3,2,0],[0,0],[0]]","1","[[2,1,0],[3,0],[0]]","8","0","","","","","","6","","","","","","","","",""
"","","","","","single-stim-button","133","690859","0.0-2.0-34.0-1.0","5c10724111fe9a00013cd815","C3","batch3","","1294","tol_toboard","","","","tol_peg_2","1294","1294","0","[[3,2,0],[1,0],[0]]","1","[[2,1,0],[3,0],[0]]","8","0","","","","","","6","","","","","","","","",""
"","","","","","single-stim-button","134","691891","0.0-2.0-34.1-0.1","5c10724111fe9a00013cd815","C3","batch3","","1031","tol_tohand","","","","tol_peg_1","1031","1031","0","[[3,0,0],[1,0],[0]]","2","[[2,1,0],[3,0],[0]]","8","0","","","","","","6","","","","","","","","",""
"","","","","","single-stim-button","135","693515","0.0-2.0-34.1-1.1","5c10724111fe9a00013cd815","C3","batch3","","1623","tol_toboard","","","","tol_peg_3","1623","1623","0","[[3,0,0],[1,0],[2]]","2","[[2,1,0],[3,0],[0]]","8","0","","","","","","6","","","","","","","","",""
"","","","","","single-stim-button","136","698643","0.0-2.0-34.2-0.2","5c10724111fe9a00013cd815","C3","batch3","","5128","tol_tohand","","","","tol_peg_3","5128","5128","0","[[3,0,0],[1,0],[0]]","3","[[2,1,0],[3,0],[0]]","8","0","","","","","","6","","","","","","","","",""
"","","","","","single-stim-button","137","699963","0.0-2.0-34.2-1.2","5c10724111fe9a00013cd815","C3","batch3","","1320","tol_toboard","","","","tol_peg_2","1320","1320","0","[[3,0,0],[1,2],[0]]","3","[[2,1,0],[3,0],[0]]","8","0","","","","","","6","","","","","","","","",""
"","","","","","single-stim-button","138","700979","0.0-2.0-34.3-0.3","5c10724111fe9a00013cd815","C3","batch3","","1015","tol_tohand","","","","tol_peg_1","1015","1015","0","[[0,0,0],[1,2],[0]]","4","[[2,1,0],[3,0],[0]]","8","0","","","","","","6","","","","","","","","",""
"","","","","","single-stim-button","139","705603","0.0-2.0-34.3-1.3","5c10724111fe9a00013cd815","C3","batch3","","4624","tol_toboard","","","","tol_peg_3","4624","4624","0","[[0,0,0],[1,2],[3]]","4","[[2,1,0],[3,0],[0]]","8","0","","","","","","6","","","","","","","","",""
"","","","","","single-stim-button","140","706739","0.0-2.0-34.4-0.4","5c10724111fe9a00013cd815","C3","batch3","","1135","tol_tohand","","","","tol_peg_2","1135","1135","0","[[0,0,0],[1,0],[3]]","5","[[2,1,0],[3,0],[0]]","8","0","","","","","","6","","","","","","","","",""
"","","","","","single-stim-button","141","717515","0.0-2.0-34.4-1.4","5c10724111fe9a00013cd815","C3","batch3","","10775","tol_toboard","","","","tol_peg_1","10775","10775","0","[[2,0,0],[1,0],[3]]","5","[[2,1,0],[3,0],[0]]","8","0","","","","","","6","","","","","","","","",""
"","","","","","single-stim-button","142","718139","0.0-2.0-34.5-0.5","5c10724111fe9a00013cd815","C3","batch3","","622","tol_tohand","","","","tol_peg_2","622","622","0","[[2,0,0],[0,0],[3]]","6","[[2,1,0],[3,0],[0]]","8","0","","","","","","6","","","","","","","","",""
"","","","","","single-stim-button","143","719947","0.0-2.0-34.5-1.5","5c10724111fe9a00013cd815","C3","batch3","","1807","tol_toboard","","","","tol_peg_1","1807","1807","0","[[2,1,0],[0,0],[3]]","6","[[2,1,0],[3,0],[0]]","8","0","","","","","","6","","","","","","","","",""
"","","","","","single-stim-button","144","720795","0.0-2.0-34.6-0.6","5c10724111fe9a00013cd815","C3","batch3","","848","tol_tohand","","","","tol_peg_3","848","848","0","[[2,1,0],[0,0],[0]]","7","[[2,1,0],[3,0],[0]]","8","0","","","","","","6","","","","","","","","",""
"","","","","","single-stim-button","145","721931","0.0-2.0-34.6-1.6","5c10724111fe9a00013cd815","C3","batch3","","1134","tol_toboard","","","","tol_peg_2","1134","1134","0","[[2,1,0],[3,0],[0]]","7","[[2,1,0],[3,0],[0]]","8","0","","","","","","6","","","","","","","","",""
"","","","","","poldrack-single-stim","146","722939","0.0-2.0-35.0","5c10724111fe9a00013cd815","C3","batch3","","-1","tol_feedback","","","true","","1000","1000","500","","","","","","-1","none","true","7397","17176","","","","","","","","","",""
"","","","","","html-button-response","147","724555","0.0-2.0-36.0","5c10724111fe9a00013cd815","C3","batch3","","1614.9000000059605","tol_trial_num","<div class = centerbox><p class = center-block-text>problem <strong>10</strong> out of 25 problems</p></div>","0","","","","","","","","","","","","","","","","","","","","","","","","",""
"","","","","","single-stim-button","148","731771","0.0-2.0-37.0-0.0","5c10724111fe9a00013cd815","C3","batch3","","7215","tol_tohand","","","","tol_peg_2","7215","7215","0","[[3,0,0],[0,0],[2]]","1","[[3,0,0],[2,1],[0]]","9","0","","","","","","3","","","","","","","","",""
"","","","","","single-stim-button","149","732835","0.0-2.0-37.0-1.0","5c10724111fe9a00013cd815","C3","batch3","","1062","tol_toboard","","","","tol_peg_1","1062","1062","0","[[3,1,0],[0,0],[2]]","1","[[3,0,0],[2,1],[0]]","9","0","","","","","","3","","","","","","","","",""
"","","","","","single-stim-button","150","733757","0.0-2.0-37.1-0.1","5c10724111fe9a00013cd815","C3","batch3","","921","tol_tohand","","","","tol_peg_3","921","921","0","[[3,1,0],[0,0],[0]]","2","[[3,0,0],[2,1],[0]]","9","0","","","","","","3","","","","","","","","",""
"","","","","","single-stim-button","151","734979","0.0-2.0-37.1-1.1","5c10724111fe9a00013cd815","C3","batch3","","1220","tol_toboard","","","","tol_peg_2","1220","1220","0","[[3,1,0],[2,0],[0]]","2","[[3,0,0],[2,1],[0]]","9","0","","","","","","3","","","","","","","","",""
"","","","","","single-stim-button","152","736675","0.0-2.0-37.2-0.2","5c10724111fe9a00013cd815","C3","batch3","","1695","tol_tohand","","","","tol_peg_1","1695","1695","0","[[3,0,0],[2,0],[0]]","3","[[3,0,0],[2,1],[0]]","9","0","","","","","","3","","","","","","","","",""
"","","","","","single-stim-button","153","737507","0.0-2.0-37.2-1.2","5c10724111fe9a00013cd815","C3","batch3","","830","tol_toboard","","","","tol_peg_2","830","830","0","[[3,0,0],[2,1],[0]]","3","[[3,0,0],[2,1],[0]]","9","0","","","","","","3","","","","","","","","",""
"","","","","","poldrack-single-stim","154","738521","0.0-2.0-38.0","5c10724111fe9a00013cd815","C3","batch3","","-1","tol_feedback","","","true","","1000","1000","500","","","","","","-1","none","true","7215","9831","","","","","","","","","",""
"","","","","","html-button-response","155","739899","0.0-2.0-39.0","5c10724111fe9a00013cd815","C3","batch3","","1376","tol_trial_num","<div class = centerbox><p class = center-block-text>problem <strong>11</strong> out of 25 problems</p></div>","0","","","","","","","","","","","","","","","","","","","","","","","","",""
"","","","","","single-stim-button","156","748211","0.0-2.0-40.0-0.0","5c10724111fe9a00013cd815","C3","batch3","","8310","tol_tohand","","","","tol_peg_2","8310","8310","0","[[1,2,0],[0,0],[0]]","1","[[2,0,0],[1,3],[0]]","10","0","","","","","","6","","","","","","","","",""
"","","","","","single-stim-button","157","750107","0.0-2.0-40.0-1.0","5c10724111fe9a00013cd815","C3","batch3","","1894","tol_toboard","","","","tol_peg_3","1894","1894","0","[[1,2,0],[0,0],[3]]","1","[[2,0,0],[1,3],[0]]","10","0","","","","","","6","","","","","","","","",""
"","","","","","single-stim-button","158","754034","0.0-2.0-40.1-0.1","5c10724111fe9a00013cd815","C3","batch3","","3925","tol_tohand","","","","tol_peg_3","3925","3925","0","[[1,2,0],[0,0],[0]]","2","[[2,0,0],[1,3],[0]]","10","0","","","","","","6","","","","","","","","",""
"","","","","","single-stim-button","159","754954","0.0-2.0-40.1-1.1","5c10724111fe9a00013cd815","C3","batch3","","919","tol_toboard","","","","tol_peg_2","919","919","0","[[1,2,0],[3,0],[0]]","2","[[2,0,0],[1,3],[0]]","10","0","","","","","","6","","","","","","","","",""
"","","","","","single-stim-button","160","756090","0.0-2.0-40.2-0.2","5c10724111fe9a00013cd815","C3","batch3","","1135","tol_tohand","","","","tol_peg_1","1135","1135","0","[[1,0,0],[3,0],[0]]","3","[[2,0,0],[1,3],[0]]","10","0","","","","","","6","","","","","","","","",""
"","","","","","single-stim-button","161","757138","0.0-2.0-40.2-1.2","5c10724111fe9a00013cd815","C3","batch3","","1046","tol_toboard","","","","tol_peg_2","1046","1046","0","[[1,0,0],[3,2],[0]]","3","[[2,0,0],[1,3],[0]]","10","0","","","","","","6","","","","","","","","",""
"","","","","","single-stim-button","162","758300","0.0-2.0-40.3-0.3","5c10724111fe9a00013cd815","C3","batch3","","1161","tol_tohand","","","","tol_peg_1","1161","1161","0","[[0,0,0],[3,2],[0]]","4","[[2,0,0],[1,3],[0]]","10","0","","","","","","6","","","","","","","","",""
"","","","","","single-stim-button","163","760803","0.0-2.0-40.3-1.3","5c10724111fe9a00013cd815","C3","batch3","","2502","tol_toboard","","","","tol_peg_3","2502","2502","0","[[0,0,0],[3,2],[1]]","4","[[2,0,0],[1,3],[0]]","10","0","","","","","","6","","","","","","","","",""
"","","","","","single-stim-button","164","761682","0.0-2.0-40.4-0.4","5c10724111fe9a00013cd815","C3","batch3","","878","tol_tohand","","","","tol_peg_2","878","878","0","[[0,0,0],[3,0],[1]]","5","[[2,0,0],[1,3],[0]]","10","0","","","","","","6","","","","","","","","",""
"","","","","","single-stim-button","165","763042","0.0-2.0-40.4-1.4","5c10724111fe9a00013cd815","C3","batch3","","1359","tol_toboard","","","","tol_peg_1","1359","1359","0","[[2,0,0],[3,0],[1]]","5","[[2,0,0],[1,3],[0]]","10","0","","","","","","6","","","","","","","","",""
"","","","","","single-stim-button","166","764186","0.0-2.0-40.5-0.5","5c10724111fe9a00013cd815","C3","batch3","","1142","tol_tohand","","","","tol_peg_2","1142","1142","0","[[2,0,0],[0,0],[1]]","6","[[2,0,0],[1,3],[0]]","10","0","","","","","","6","","","","","","","","",""
"","","","","","single-stim-button","167","765315","0.0-2.0-40.5-1.5","5c10724111fe9a00013cd815","C3","batch3","","1127","tol_toboard","","","","tol_peg_1","1127","1127","0","[[2,3,0],[0,0],[1]]","6","[[2,0,0],[1,3],[0]]","10","0","","","","","","6","","","","","","","","",""
"","","","","","single-stim-button","168","766138","0.0-2.0-40.6-0.6","5c10724111fe9a00013cd815","C3","batch3","","822","tol_tohand","","","","tol_peg_3","822","822","0","[[2,3,0],[0,0],[0]]","7","[[2,0,0],[1,3],[0]]","10","0","","","","","","6","","","","","","","","",""
"","","","","","single-stim-button","169","767284","0.0-2.0-40.6-1.6","5c10724111fe9a00013cd815","C3","batch3","","1145","tol_toboard","","","","tol_peg_2","1145","1145","0","[[2,3,0],[1,0],[0]]","7","[[2,0,0],[1,3],[0]]","10","0","","","","","","6","","","","","","","","",""
"","","","","","single-stim-button","170","768114","0.0-2.0-40.7-0.7","5c10724111fe9a00013cd815","C3","batch3","","829","tol_tohand","","","","tol_peg_1","829","829","0","[[2,0,0],[1,0],[0]]","8","[[2,0,0],[1,3],[0]]","10","0","","","","","","6","","","","","","","","",""
"","","","","","single-stim-button","171","769061","0.0-2.0-40.7-1.7","5c10724111fe9a00013cd815","C3","batch3","","945","tol_toboard","","","","tol_peg_2","945","945","0","[[2,0,0],[1,3],[0]]","8","[[2,0,0],[1,3],[0]]","10","0","","","","","","6","","","","","","","","",""
"","","","","","poldrack-single-stim","172","770062","0.0-2.0-41.0","5c10724111fe9a00013cd815","C3","batch3","","-1","tol_feedback","","","true","","1000","1000","500","","","","","","-1","none","true","8310","18202","","","","","","","","","",""
"","","","","","html-button-response","173","771002","0.0-2.0-42.0","5c10724111fe9a00013cd815","C3","batch3","","939","tol_trial_num","<div class = centerbox><p class = center-block-text>problem <strong>12</strong> out of 25 problems</p></div>","0","","","","","","","","","","","","","","","","","","","","","","","","",""
"","","","","","single-stim-button","174","775010","0.0-2.0-43.0-0.0","5c10724111fe9a00013cd815","C3","batch3","","4006","tol_tohand","","","","tol_peg_1","4006","4006","0","[[1,0,0],[3,0],[0]]","1","[[2,3,0],[0,0],[1]]","11","0","","","","","","4","","","","","","","","",""
"","","","","","single-stim-button","175","776482","0.0-2.0-43.0-1.0","5c10724111fe9a00013cd815","C3","batch3","","1471","tol_toboard","","","","tol_peg_2","1471","1471","0","[[1,0,0],[3,2],[0]]","1","[[2,3,0],[0,0],[1]]","11","0","","","","","","4","","","","","","","","",""
"","","","","","single-stim-button","176","777306","0.0-2.0-43.1-0.1","5c10724111fe9a00013cd815","C3","batch3","","823","tol_tohand","","","","tol_peg_1","823","823","0","[[0,0,0],[3,2],[0]]","2","[[2,3,0],[0,0],[1]]","11","0","","","","","","4","","","","","","","","",""
"","","","","","single-stim-button","177","779010","0.0-2.0-43.1-1.1","5c10724111fe9a00013cd815","C3","batch3","","1703","tol_toboard","","","","tol_peg_3","1703","1703","0","[[0,0,0],[3,2],[1]]","2","[[2,3,0],[0,0],[1]]","11","0","","","","","","4","","","","","","","","",""
"","","","","","single-stim-button","178","780898","0.0-2.0-43.2-0.2","5c10724111fe9a00013cd815","C3","batch3","","1887","tol_tohand","","","","tol_peg_2","1887","1887","0","[[0,0,0],[3,0],[1]]","3","[[2,3,0],[0,0],[1]]","11","0","","","","","","4","","","","","","","","",""
"","","","","","single-stim-button","179","783994","0.0-2.0-43.2-1.2","5c10724111fe9a00013cd815","C3","batch3","","3095","tol_toboard","","","","tol_peg_1","3095","3095","0","[[2,0,0],[3,0],[1]]","3","[[2,3,0],[0,0],[1]]","11","0","","","","","","4","","","","","","","","",""
"","","","","","single-stim-button","180","788410","0.0-2.0-43.3-0.3","5c10724111fe9a00013cd815","C3","batch3","","4414","tol_tohand","","","","tol_peg_3","4414","4414","0","[[2,0,0],[3,0],[0]]","4","[[2,3,0],[0,0],[1]]","11","0","","","","","","4","","","","","","","","",""
"","","","","","single-stim-button","181","790787","0.0-2.0-43.3-1.3","5c10724111fe9a00013cd815","C3","batch3","","2375","tol_toboard","","","","tol_peg_1","2375","2375","0","[[2,1,0],[3,0],[0]]","4","[[2,3,0],[0,0],[1]]","11","0","","","","","","4","","","","","","","","",""
"","","","","","single-stim-button","182","792098","0.0-2.0-43.4-0.4","5c10724111fe9a00013cd815","C3","batch3","","1311","tol_tohand","","","","tol_peg_2","1311","1311","0","[[2,1,0],[0,0],[0]]","5","[[2,3,0],[0,0],[1]]","11","0","","","","","","4","","","","","","","","",""
"","","","","","single-stim-button","183","793258","0.0-2.0-43.4-1.4","5c10724111fe9a00013cd815","C3","batch3","","1159","tol_toboard","","","","tol_peg_3","1159","1159","0","[[2,1,0],[0,0],[3]]","5","[[2,3,0],[0,0],[1]]","11","0","","","","","","4","","","","","","","","",""
"","","","","","single-stim-button","184","801019","0.0-2.0-43.5-0.5","5c10724111fe9a00013cd815","C3","batch3","","7759","tol_tohand","","","","tol_peg_1","7759","7759","0","[[2,0,0],[0,0],[3]]","6","[[2,3,0],[0,0],[1]]","11","0","","","","","","4","","","","","","","","",""
"","","","","","single-stim-button","185","802636","0.0-2.0-43.5-1.5","5c10724111fe9a00013cd815","C3","batch3","","1616","tol_toboard","","","","tol_peg_2","1616","1616","0","[[2,0,0],[1,0],[3]]","6","[[2,3,0],[0,0],[1]]","11","0","","","","","","4","","","","","","","","",""
"","","","","","single-stim-button","186","807298","0.0-2.0-43.6-0.6","5c10724111fe9a00013cd815","C3","batch3","","4661","tol_tohand","","","","tol_peg_1","4661","4661","0","[[0,0,0],[1,0],[3]]","7","[[2,3,0],[0,0],[1]]","11","0","","","","","","4","","","","","","","","",""
"","","","","","single-stim-button","187","812756","0.0-2.0-43.6-1.6","5c10724111fe9a00013cd815","C3","batch3","","5457","tol_toboard","","","","tol_peg_2","5457","5457","0","[[0,0,0],[1,2],[3]]","7","[[2,3,0],[0,0],[1]]","11","0","","","","","","4","","","","","","","","",""
"","","","","","single-stim-button","188","814827","0.0-2.0-43.7-0.7","5c10724111fe9a00013cd815","C3","batch3","","2069","tol_tohand","","","","tol_peg_2","2069","2069","0","[[0,0,0],[1,0],[3]]","8","[[2,3,0],[0,0],[1]]","11","0","","","","","","4","","","","","","","","",""
"","","","","","single-stim-button","189","815963","0.0-2.0-43.7-1.7","5c10724111fe9a00013cd815","C3","batch3","","1134","tol_toboard","","","","tol_peg_1","1134","1134","0","[[2,0,0],[1,0],[3]]","8","[[2,3,0],[0,0],[1]]","11","0","","","","","","4","","","","","","","","",""
"","","","","","single-stim-button","190","816899","0.0-2.0-43.8-0.8","5c10724111fe9a00013cd815","C3","batch3","","935","tol_tohand","","","","tol_peg_3","935","935","0","[[2,0,0],[1,0],[0]]","9","[[2,3,0],[0,0],[1]]","11","0","","","","","","4","","","","","","","","",""
"","","","","","single-stim-button","191","817803","0.0-2.0-43.8-1.8","5c10724111fe9a00013cd815","C3","batch3","","903","tol_toboard","","","","tol_peg_1","903","903","0","[[2,3,0],[1,0],[0]]","9","[[2,3,0],[0,0],[1]]","11","0","","","","","","4","","","","","","","","",""
"","","","","","single-stim-button","192","818723","0.0-2.0-43.9-0.9","5c10724111fe9a00013cd815","C3","batch3","","918","tol_tohand","","","","tol_peg_2","918","918","0","[[2,3,0],[0,0],[0]]","10","[[2,3,0],[0,0],[1]]","11","0","","","","","","4","","","","","","","","",""
"","","","","","single-stim-button","193","819787","0.0-2.0-43.9-1.9","5c10724111fe9a00013cd815","C3","batch3","","1062","tol_toboard","","","","tol_peg_3","1062","1062","0","[[2,3,0],[0,0],[1]]","10","[[2,3,0],[0,0],[1]]","11","0","","","","","","4","","","","","","","","",""
"","","","","","poldrack-single-stim","194","820804","0.0-2.0-44.0","5c10724111fe9a00013cd815","C3","batch3","","-1","tol_feedback","","","true","","1000","1000","500","","","","","","-1","none","true","4006","28783","","","","","","","","","",""
"","","","","","html-button-response","195","822179","0.0-2.0-45.0","5c10724111fe9a00013cd815","C3","batch3","","1373.4000000059605","tol_trial_num","<div class = centerbox><p class = center-block-text>problem <strong>13</strong> out of 25 problems</p></div>","0","","","","","","","","","","","","","","","","","","","","","","","","",""
"","","","","","single-stim-button","196","831707","0.0-2.0-46.0-0.0","5c10724111fe9a00013cd815","C3","batch3","","9526","tol_tohand","","","","tol_peg_1","9526","9526","0","[[1,0,0],[3,0],[0]]","1","[[0,0,0],[2,3],[1]]","12","0","","","","","","4","","","","","","","","",""
"","","","","","single-stim-button","197","833255","0.0-2.0-46.0-1.0","5c10724111fe9a00013cd815","C3","batch3","","1546","tol_toboard","","","","tol_peg_2","1546","1546","0","[[1,0,0],[3,2],[0]]","1","[[0,0,0],[2,3],[1]]","12","0","","","","","","4","","","","","","","","",""
"","","","","","single-stim-button","198","834347","0.0-2.0-46.1-0.1","5c10724111fe9a00013cd815","C3","batch3","","1091","tol_tohand","","","","tol_peg_1","1091","1091","0","[[0,0,0],[3,2],[0]]","2","[[0,0,0],[2,3],[1]]","12","0","","","","","","4","","","","","","","","",""
"","","","","","single-stim-button","199","836467","0.0-2.0-46.1-1.1","5c10724111fe9a00013cd815","C3","batch3","","2118","tol_toboard","","","","tol_peg_1","2118","2118","0","[[1,0,0],[3,2],[0]]","2","[[0,0,0],[2,3],[1]]","12","0","","","","","","4","","","","","","","","",""
"","","","","","single-stim-button","200","842731","0.0-2.0-46.2-0.2","5c10724111fe9a00013cd815","C3","batch3","","6263","tol_tohand","","","","tol_peg_1","6263","6263","0","[[0,0,0],[3,2],[0]]","3","[[0,0,0],[2,3],[1]]","12","0","","","","","","4","","","","","","","","",""
"","","","","","single-stim-button","201","844283","0.0-2.0-46.2-1.2","5c10724111fe9a00013cd815","C3","batch3","","1551","tol_toboard","","","","tol_peg_3","1551","1551","0","[[0,0,0],[3,2],[1]]","3","[[0,0,0],[2,3],[1]]","12","0","","","","","","4","","","","","","","","",""
"","","","","","single-stim-button","202","846875","0.0-2.0-46.3-0.3","5c10724111fe9a00013cd815","C3","batch3","","2590","tol_tohand","","","","tol_peg_3","2590","2590","0","[[0,0,0],[3,2],[0]]","4","[[0,0,0],[2,3],[1]]","12","0","","","","","","4","","","","","","","","",""
"","","","","","single-stim-button","203","850362","0.0-2.0-46.3-1.3","5c10724111fe9a00013cd815","C3","batch3","","3487","tol_toboard","","","","tol_peg_1","3487","3487","0","[[1,0,0],[3,2],[0]]","4","[[0,0,0],[2,3],[1]]","12","0","","","","","","4","","","","","","","","",""
"","","","","","single-stim-button","204","851067","0.0-2.0-46.4-0.4","5c10724111fe9a00013cd815","C3","batch3","","702","tol_tohand","","","","tol_peg_2","702","702","0","[[1,0,0],[3,0],[0]]","5","[[0,0,0],[2,3],[1]]","12","0","","","","","","4","","","","","","","","",""
"","","","","","single-stim-button","205","852363","0.0-2.0-46.4-1.4","5c10724111fe9a00013cd815","C3","batch3","","1294","tol_toboard","","","","tol_peg_1","1294","1294","0","[[1,2,0],[3,0],[0]]","5","[[0,0,0],[2,3],[1]]","12","0","","","","","","4","","","","","","","","",""
"","","","","","single-stim-button","206","853747","0.0-2.0-46.5-0.5","5c10724111fe9a00013cd815","C3","batch3","","1382","tol_tohand","","","","tol_peg_2","1382","1382","0","[[1,2,0],[0,0],[0]]","6","[[0,0,0],[2,3],[1]]","12","0","","","","","","4","","","","","","","","",""
"","","","","","single-stim-button","207","855155","0.0-2.0-46.5-1.5","5c10724111fe9a00013cd815","C3","batch3","","1407","tol_toboard","","","","tol_peg_3","1407","1407","0","[[1,2,0],[0,0],[3]]","6","[[0,0,0],[2,3],[1]]","12","0","","","","","","4","","","","","","","","",""
"","","","","","single-stim-button","208","856355","0.0-2.0-46.6-0.6","5c10724111fe9a00013cd815","C3","batch3","","1198","tol_tohand","","","","tol_peg_1","1198","1198","0","[[1,0,0],[0,0],[3]]","7","[[0,0,0],[2,3],[1]]","12","0","","","","","","4","","","","","","","","",""
"","","","","","single-stim-button","209","857411","0.0-2.0-46.6-1.6","5c10724111fe9a00013cd815","C3","batch3","","1055","tol_toboard","","","","tol_peg_2","1055","1055","0","[[1,0,0],[2,0],[3]]","7","[[0,0,0],[2,3],[1]]","12","0","","","","","","4","","","","","","","","",""
"","","","","","single-stim-button","210","860739","0.0-2.0-46.7-0.7","5c10724111fe9a00013cd815","C3","batch3","","3328","tol_tohand","","","","tol_peg_2","3328","3328","0","[[1,0,0],[0,0],[3]]","8","[[0,0,0],[2,3],[1]]","12","0","","","","","","4","","","","","","","","",""
"","","","","","single-stim-button","211","868195","0.0-2.0-46.7-1.7","5c10724111fe9a00013cd815","C3","batch3","","7454","tol_toboard","","","","tol_peg_2","7454","7454","0","[[1,0,0],[2,0],[3]]","8","[[0,0,0],[2,3],[1]]","12","0","","","","","","4","","","","","","","","",""
"","","","","","single-stim-button","212","870475","0.0-2.0-46.8-0.8","5c10724111fe9a00013cd815","C3","batch3","","2279","tol_tohand","","","","tol_peg_1","2279","2279","0","[[0,0,0],[2,0],[3]]","9","[[0,0,0],[2,3],[1]]","12","0","","","","","","4","","","","","","","","",""
"","","","","","single-stim-button","213","871683","0.0-2.0-46.8-1.8","5c10724111fe9a00013cd815","C3","batch3","","1207","tol_toboard","","","","tol_peg_2","1207","1207","0","[[0,0,0],[2,1],[3]]","9","[[0,0,0],[2,3],[1]]","12","0","","","","","","4","","","","","","","","",""
"","","","","","single-stim-button","214","875242","0.0-2.0-46.9-0.9","5c10724111fe9a00013cd815","C3","batch3","","3558","tol_tohand","","","","tol_peg_3","3558","3558","0","[[0,0,0],[2,1],[0]]","10","[[0,0,0],[2,3],[1]]","12","0","","","","","","4","","","","","","","","",""
"","","","","","single-stim-button","215","876692","0.0-2.0-46.9-1.9","5c10724111fe9a00013cd815","C3","batch3","","1449","tol_toboard","","","","tol_peg_1","1449","1449","0","[[3,0,0],[2,1],[0]]","10","[[0,0,0],[2,3],[1]]","12","0","","","","","","4","","","","","","","","",""
"","","","","","single-stim-button","216","877259","0.0-2.0-46.10-0.10","5c10724111fe9a00013cd815","C3","batch3","","565","tol_tohand","","","","tol_peg_1","565","565","0","[[0,0,0],[2,1],[0]]","11","[[0,0,0],[2,3],[1]]","12","0","","","","","","4","","","","","","","","",""
"","","","","","single-stim-button","217","878611","0.0-2.0-46.10-1.10","5c10724111fe9a00013cd815","C3","batch3","","1351","tol_toboard","","","","tol_peg_1","1351","1351","0","[[3,0,0],[2,1],[0]]","11","[[0,0,0],[2,3],[1]]","12","0","","","","","","4","","","","","","","","",""
"","","","","","single-stim-button","218","879259","0.0-2.0-46.11-0.11","5c10724111fe9a00013cd815","C3","batch3","","647","tol_tohand","","","","tol_peg_2","647","647","0","[[3,0,0],[2,0],[0]]","12","[[0,0,0],[2,3],[1]]","12","0","","","","","","4","","","","","","","","",""
"","","","","","single-stim-button","219","879964","0.0-2.0-46.11-1.11","5c10724111fe9a00013cd815","C3","batch3","","705","tol_toboard","","","","tol_peg_1","705","705","0","[[3,1,0],[2,0],[0]]","12","[[0,0,0],[2,3],[1]]","12","0","","","","","","4","","","","","","","","",""
"","","","","","single-stim-button","220","881906","0.0-2.0-46.12-0.12","5c10724111fe9a00013cd815","C3","batch3","","1941","tol_tohand","","","","tol_peg_2","1941","1941","0","[[3,1,0],[0,0],[0]]","13","[[0,0,0],[2,3],[1]]","12","0","","","","","","4","","","","","","","","",""
"","","","","","single-stim-button","221","884306","0.0-2.0-46.12-1.12","5c10724111fe9a00013cd815","C3","batch3","","2399","tol_toboard","","","","tol_peg_3","2399","2399","0","[[3,1,0],[0,0],[2]]","13","[[0,0,0],[2,3],[1]]","12","0","","","","","","4","","","","","","","","",""
"","","","","","single-stim-button","222","885587","0.0-2.0-46.13-0.13","5c10724111fe9a00013cd815","C3","batch3","","1279","tol_tohand","","","","tol_peg_1","1279","1279","0","[[3,0,0],[0,0],[2]]","14","[[0,0,0],[2,3],[1]]","12","0","","","","","","4","","","","","","","","",""
"","","","","","single-stim-button","223","888875","0.0-2.0-46.13-1.13","5c10724111fe9a00013cd815","C3","batch3","","3288","tol_toboard","","","","tol_peg_2","3288","3288","0","[[3,0,0],[1,0],[2]]","14","[[0,0,0],[2,3],[1]]","12","0","","","","","","4","","","","","","","","",""
"","","","","","single-stim-button","224","890412","0.0-2.0-46.14-0.14","5c10724111fe9a00013cd815","C3","batch3","","1536","tol_tohand","","","","tol_peg_1","1536","1536","0","[[0,0,0],[1,0],[2]]","15","[[0,0,0],[2,3],[1]]","12","0","","","","","","4","","","","","","","","",""
"","","","","","single-stim-button","225","891259","0.0-2.0-46.14-1.14","5c10724111fe9a00013cd815","C3","batch3","","847","tol_toboard","","","","tol_peg_2","847","847","0","[[0,0,0],[1,3],[2]]","15","[[0,0,0],[2,3],[1]]","12","0","","","","","","4","","","","","","","","",""
"","","","","","single-stim-button","226","891770","0.0-2.0-46.15-0.15","5c10724111fe9a00013cd815","C3","batch3","","511","tol_tohand","","","","tol_peg_2","511","511","0","[[0,0,0],[1,0],[2]]","16","[[0,0,0],[2,3],[1]]","12","0","","","","","","4","","","","","","","","",""
"","","","","","single-stim-button","227","893298","0.0-2.0-46.15-1.15","5c10724111fe9a00013cd815","C3","batch3","","1527","tol_toboard","","","","tol_peg_2","1527","1527","0","[[0,0,0],[1,3],[2]]","16","[[0,0,0],[2,3],[1]]","12","0","","","","","","4","","","","","","","","",""
"","","","","","single-stim-button","228","894019","0.0-2.0-46.16-0.16","5c10724111fe9a00013cd815","C3","batch3","","719","tol_tohand","","","","tol_peg_3","719","719","0","[[0,0,0],[1,3],[0]]","17","[[0,0,0],[2,3],[1]]","12","0","","","","","","4","","","","","","","","",""
"","","","","","single-stim-button","229","895402","0.0-2.0-46.16-1.16","5c10724111fe9a00013cd815","C3","batch3","","1383","tol_toboard","","","","tol_peg_1","1383","1383","0","[[2,0,0],[1,3],[0]]","17","[[0,0,0],[2,3],[1]]","12","0","","","","","","4","","","","","","","","",""
"","","","","","single-stim-button","230","896130","0.0-2.0-46.17-0.17","5c10724111fe9a00013cd815","C3","batch3","","727","tol_tohand","","","","tol_peg_2","727","727","0","[[2,0,0],[1,0],[0]]","18","[[0,0,0],[2,3],[1]]","12","0","","","","","","4","","","","","","","","",""
"","","","","","single-stim-button","231","897074","0.0-2.0-46.17-1.17","5c10724111fe9a00013cd815","C3","batch3","","943","tol_toboard","","","","tol_peg_1","943","943","0","[[2,3,0],[1,0],[0]]","18","[[0,0,0],[2,3],[1]]","12","0","","","","","","4","","","","","","","","",""
"","","","","","single-stim-button","232","898082","0.0-2.0-46.18-0.18","5c10724111fe9a00013cd815","C3","batch3","","1007","tol_tohand","","","","tol_peg_2","1007","1007","0","[[2,3,0],[0,0],[0]]","19","[[0,0,0],[2,3],[1]]","12","0","","","","","","4","","","","","","","","",""
"","","","","","single-stim-button","233","900514","0.0-2.0-46.18-1.18","5c10724111fe9a00013cd815","C3","batch3","","2432","tol_toboard","","","","tol_peg_3","2432","2432","0","[[2,3,0],[0,0],[1]]","19","[[0,0,0],[2,3],[1]]","12","0","","","","","","4","","","","","","","","",""
"","","","","","single-stim-button","234","902346","0.0-2.0-46.19-0.19","5c10724111fe9a00013cd815","C3","batch3","","1831","tol_tohand","","","","tol_peg_1","1831","1831","0","[[2,0,0],[0,0],[1]]","20","[[0,0,0],[2,3],[1]]","12","0","","","","","","4","","","","","","","","",""
"","","","","","single-stim-button","235","907746","0.0-2.0-46.19-1.19","5c10724111fe9a00013cd815","C3","batch3","","5399","tol_toboard","","","","tol_peg_2","5399","5399","0","[[2,0,0],[3,0],[1]]","20","[[0,0,0],[2,3],[1]]","12","0","","","","","","4","","","","","","","","",""
"","","","","","single-stim-button","236","908539","0.0-2.0-46.20-0.20","5c10724111fe9a00013cd815","C3","batch3","","791","tol_tohand","","","","tol_peg_1","791","791","0","[[0,0,0],[3,0],[1]]","21","[[0,0,0],[2,3],[1]]","12","0","","","","","","4","","","","","","","","",""
"","","","","","single-stim-button","237","909986","0.0-2.0-46.20-1.20","5c10724111fe9a00013cd815","C3","batch3","","1447","tol_toboard","","","","tol_peg_2","1447","1447","0","[[0,0,0],[3,2],[1]]","21","[[0,0,0],[2,3],[1]]","12","0","","","","","","4","","","","","","","","",""
"","","","","","single-stim-button","238","912019","0.0-2.0-46.21-0.21","5c10724111fe9a00013cd815","C3","batch3","","2031","tol_tohand","","","","tol_peg_3","2031","2031","0","[[0,0,0],[3,2],[0]]","22","[[0,0,0],[2,3],[1]]","12","0","","","","","","4","","","","","","","","",""
"","","","","","single-stim-button","239","913786","0.0-2.0-46.21-1.21","5c10724111fe9a00013cd815","C3","batch3","","1766","tol_toboard","","","","tol_peg_1","1766","1766","0","[[1,0,0],[3,2],[0]]","22","[[0,0,0],[2,3],[1]]","12","0","","","","","","4","","","","","","","","",""
"","","","","","single-stim-button","240","914739","0.0-2.0-46.22-0.22","5c10724111fe9a00013cd815","C3","batch3","","951","tol_tohand","","","","tol_peg_2","951","951","0","[[1,0,0],[3,0],[0]]","23","[[0,0,0],[2,3],[1]]","12","0","","","","","","4","","","","","","","","",""
"","","","","","single-stim-button","241","915691","0.0-2.0-46.22-1.22","5c10724111fe9a00013cd815","C3","batch3","","951","tol_toboard","","","","tol_peg_1","951","951","0","[[1,2,0],[3,0],[0]]","23","[[0,0,0],[2,3],[1]]","12","0","","","","","","4","","","","","","","","",""
"","","","","","single-stim-button","242","918139","0.0-2.0-46.23-0.23","5c10724111fe9a00013cd815","C3","batch3","","2446","tol_tohand","","","","tol_peg_2","2446","2446","0","[[1,2,0],[0,0],[0]]","24","[[0,0,0],[2,3],[1]]","12","0","","","","","","4","","","","","","","","",""
"","","","","","single-stim-button","243","919170","0.0-2.0-46.23-1.23","5c10724111fe9a00013cd815","C3","batch3","","1031","tol_toboard","","","","tol_peg_3","1031","1031","0","[[1,2,0],[0,0],[3]]","24","[[0,0,0],[2,3],[1]]","12","0","","","","","","4","","","","","","","","",""
"","","","","","single-stim-button","244","921099","0.0-2.0-46.24-0.24","5c10724111fe9a00013cd815","C3","batch3","","1927","tol_tohand","","","","tol_peg_3","1927","1927","0","[[1,2,0],[0,0],[0]]","25","[[0,0,0],[2,3],[1]]","12","0","","","","","","4","","","","","","","","",""
"","","","","","single-stim-button","245","927915","0.0-2.0-46.24-1.24","5c10724111fe9a00013cd815","C3","batch3","","6815","tol_toboard","","","","tol_peg_3","6815","6815","0","[[1,2,0],[0,0],[3]]","25","[[0,0,0],[2,3],[1]]","12","0","","","","","","4","","","","","","","","",""
"","","","","","single-stim-button","246","928890","0.0-2.0-46.25-0.25","5c10724111fe9a00013cd815","C3","batch3","","975","tol_tohand","","","","tol_peg_1","975","975","0","[[1,0,0],[0,0],[3]]","26","[[0,0,0],[2,3],[1]]","12","0","","","","","","4","","","","","","","","",""
"","","","","","single-stim-button","247","929740","0.0-2.0-46.25-1.25","5c10724111fe9a00013cd815","C3","batch3","","849","tol_toboard","","","","tol_peg_2","849","849","0","[[1,0,0],[2,0],[3]]","26","[[0,0,0],[2,3],[1]]","12","0","","","","","","4","","","","","","","","",""
"","","","","","single-stim-button","248","930493","0.0-2.0-46.26-0.26","5c10724111fe9a00013cd815","C3","batch3","","751","tol_tohand","","","","tol_peg_3","751","751","0","[[1,0,0],[2,0],[0]]","27","[[0,0,0],[2,3],[1]]","12","0","","","","","","4","","","","","","","","",""
"","","","","","single-stim-button","249","931586","0.0-2.0-46.26-1.26","5c10724111fe9a00013cd815","C3","batch3","","1092","tol_toboard","","","","tol_peg_2","1092","1092","0","[[1,0,0],[2,3],[0]]","27","[[0,0,0],[2,3],[1]]","12","0","","","","","","4","","","","","","","","",""
"","","","","","single-stim-button","250","932570","0.0-2.0-46.27-0.27","5c10724111fe9a00013cd815","C3","batch3","","983","tol_tohand","","","","tol_peg_1","983","983","0","[[0,0,0],[2,3],[0]]","28","[[0,0,0],[2,3],[1]]","12","0","","","","","","4","","","","","","","","",""
"","","","","","single-stim-button","251","933747","0.0-2.0-46.27-1.27","5c10724111fe9a00013cd815","C3","batch3","","1176","tol_toboard","","","","tol_peg_3","1176","1176","0","[[0,0,0],[2,3],[1]]","28","[[0,0,0],[2,3],[1]]","12","0","","","","","","4","","","","","","","","",""
"","","","","","poldrack-single-stim","252","934749","0.0-2.0-47.0","5c10724111fe9a00013cd815","C3","batch3","","-1","tol_feedback","","","true","","1000","1000","500","","","","","","-1","none","true","9526","53535","","","","","","","","","",""
"","","","","","html-button-response","253","940419","0.0-2.0-48.0","5c10724111fe9a00013cd815","C3","batch3","","5668.80000000447","attention_check","<p class = block-text>How many balls are in your board<br></p>","1","true","","","","","","","","","","","","","","","","","","","","","","","",""
"","","","","","html-button-response","254","941907","0.0-2.0-49.0","5c10724111fe9a00013cd815","C3","batch3","","1486","tol_trial_num","<div class = centerbox><p class = center-block-text>problem <strong>14</strong> out of 25 problems</p></div>","0","","","","","","","","","","","","","","","","","","","","","","","","",""
"","","","","","single-stim-button","255","949179","0.0-2.0-50.0-0.0","5c10724111fe9a00013cd815","C3","batch3","","7269","tol_tohand","","","","tol_peg_1","7269","7269","0","[[2,0,0],[3,0],[0]]","1","[[1,2,0],[3,0],[0]]","13","0","","","","","","4","","","","","","","","",""
"","","","","","single-stim-button","256","952763","0.0-2.0-50.0-1.0","5c10724111fe9a00013cd815","C3","batch3","","3582","tol_toboard","","","","tol_peg_3","3582","3582","0","[[2,0,0],[3,0],[1]]","1","[[1,2,0],[3,0],[0]]","13","0","","","","","","4","","","","","","","","",""
"","","","","","single-stim-button","257","953499","0.0-2.0-50.1-0.1","5c10724111fe9a00013cd815","C3","batch3","","735","tol_tohand","","","","tol_peg_1","735","735","0","[[0,0,0],[3,0],[1]]","2","[[1,2,0],[3,0],[0]]","13","0","","","","","","4","","","","","","","","",""
"","","","","","single-stim-button","258","954427","0.0-2.0-50.1-1.1","5c10724111fe9a00013cd815","C3","batch3","","927","tol_toboard","","","","tol_peg_2","927","927","0","[[0,0,0],[3,2],[1]]","2","[[1,2,0],[3,0],[0]]","13","0","","","","","","4","","","","","","","","",""
"","","","","","single-stim-button","259","955244","0.0-2.0-50.2-0.2","5c10724111fe9a00013cd815","C3","batch3","","816","tol_tohand","","","","tol_peg_3","816","816","0","[[0,0,0],[3,2],[0]]","3","[[1,2,0],[3,0],[0]]","13","0","","","","","","4","","","","","","","","",""
"","","","","","single-stim-button","260","957155","0.0-2.0-50.2-1.2","5c10724111fe9a00013cd815","C3","batch3","","1909","tol_toboard","","","","tol_peg_1","1909","1909","0","[[1,0,0],[3,2],[0]]","3","[[1,2,0],[3,0],[0]]","13","0","","","","","","4","","","","","","","","",""
"","","","","","single-stim-button","261","957891","0.0-2.0-50.3-0.3","5c10724111fe9a00013cd815","C3","batch3","","734","tol_tohand","","","","tol_peg_2","734","734","0","[[1,0,0],[3,0],[0]]","4","[[1,2,0],[3,0],[0]]","13","0","","","","","","4","","","","","","","","",""
"","","","","","single-stim-button","262","958819","0.0-2.0-50.3-1.3","5c10724111fe9a00013cd815","C3","batch3","","926","tol_toboard","","","","tol_peg_1","926","926","0","[[1,2,0],[3,0],[0]]","4","[[1,2,0],[3,0],[0]]","13","0","","","","","","4","","","","","","","","",""
"","","","","","poldrack-single-stim","263","959836","0.0-2.0-51.0","5c10724111fe9a00013cd815","C3","batch3","","-1","tol_feedback","","","true","","1000","1000","500","","","","","","-1","none","true","7269","9554","","","","","","","","","",""
"","","","","","html-button-response","264","961107","0.0-2.0-52.0","5c10724111fe9a00013cd815","C3","batch3","","1269.1000000014901","tol_trial_num","<div class = centerbox><p class = center-block-text>problem <strong>15</strong> out of 25 problems</p></div>","0","","","","","","","","","","","","","","","","","","","","","","","","",""
"","","","","","single-stim-button","265","967315","0.0-2.0-53.0-0.0","5c10724111fe9a00013cd815","C3","batch3","","6207","tol_tohand","","","","tol_peg_1","6207","6207","0","[[1,0,0],[3,0],[0]]","1","[[2,0,0],[3,0],[1]]","14","0","","","","","","3","","","","","","","","",""
"","","","","","single-stim-button","266","968195","0.0-2.0-53.0-1.0","5c10724111fe9a00013cd815","C3","batch3","","878","tol_toboard","","","","tol_peg_2","878","878","0","[[1,0,0],[3,2],[0]]","1","[[2,0,0],[3,0],[1]]","14","0","","","","","","3","","","","","","","","",""
"","","","","","single-stim-button","267","968924","0.0-2.0-53.1-0.1","5c10724111fe9a00013cd815","C3","batch3","","727","tol_tohand","","","","tol_peg_1","727","727","0","[[0,0,0],[3,2],[0]]","2","[[2,0,0],[3,0],[1]]","14","0","","","","","","3","","","","","","","","",""
"","","","","","single-stim-button","268","975252","0.0-2.0-53.1-1.1","5c10724111fe9a00013cd815","C3","batch3","","6328","tol_toboard","","","","tol_peg_1","6328","6328","0","[[1,0,0],[3,2],[0]]","2","[[2,0,0],[3,0],[1]]","14","0","","","","","","3","","","","","","","","",""
"","","","","","single-stim-button","269","976411","0.0-2.0-53.2-0.2","5c10724111fe9a00013cd815","C3","batch3","","1158","tol_tohand","","","","tol_peg_2","1158","1158","0","[[1,0,0],[3,0],[0]]","3","[[2,0,0],[3,0],[1]]","14","0","","","","","","3","","","","","","","","",""
"","","","","","single-stim-button","270","981979","0.0-2.0-53.2-1.2","5c10724111fe9a00013cd815","C3","batch3","","5568","tol_toboard","","","","tol_peg_2","5568","5568","0","[[1,0,0],[3,2],[0]]","3","[[2,0,0],[3,0],[1]]","14","0","","","","","","3","","","","","","","","",""
"","","","","","single-stim-button","271","983261","0.0-2.0-53.3-0.3","5c10724111fe9a00013cd815","C3","batch3","","1280","tol_tohand","","","","tol_peg_1","1280","1280","0","[[0,0,0],[3,2],[0]]","4","[[2,0,0],[3,0],[1]]","14","0","","","","","","3","","","","","","","","",""
"","","","","","single-stim-button","272","985947","0.0-2.0-53.3-1.3","5c10724111fe9a00013cd815","C3","batch3","","2686","tol_toboard","","","","tol_peg_3","2686","2686","0","[[0,0,0],[3,2],[1]]","4","[[2,0,0],[3,0],[1]]","14","0","","","","","","3","","","","","","","","",""
"","","","","","single-stim-button","273","986595","0.0-2.0-53.4-0.4","5c10724111fe9a00013cd815","C3","batch3","","646","tol_tohand","","","","tol_peg_2","646","646","0","[[0,0,0],[3,0],[1]]","5","[[2,0,0],[3,0],[1]]","14","0","","","","","","3","","","","","","","","",""
"","","","","","single-stim-button","274","987530","0.0-2.0-53.4-1.4","5c10724111fe9a00013cd815","C3","batch3","","934","tol_toboard","","","","tol_peg_1","934","934","0","[[2,0,0],[3,0],[1]]","5","[[2,0,0],[3,0],[1]]","14","0","","","","","","3","","","","","","","","",""
"","","","","","poldrack-single-stim","275","988535","0.0-2.0-54.0","5c10724111fe9a00013cd815","C3","batch3","","-1","tol_feedback","","","true","","1000","1000","500","","","","","","-1","none","true","6207","10018","","","","","","","","","",""
"","","","","","html-button-response","276","989684","0.0-2.0-55.0","5c10724111fe9a00013cd815","C3","batch3","","1147.7000000029802","tol_trial_num","<div class = centerbox><p class = center-block-text>problem <strong>16</strong> out of 25 problems</p></div>","0","","","","","","","","","","","","","","","","","","","","","","","","",""
"","","","","","single-stim-button","277","998242","0.0-2.0-56.0-0.0","5c10724111fe9a00013cd815","C3","batch3","","8557","tol_tohand","","","","tol_peg_3","8557","8557","0","[[0,0,0],[2,3],[0]]","1","[[2,3,0],[1,0],[0]]","15","0","","","","","","7","","","","","","","","",""
"","","","","","single-stim-button","278","999308","0.0-2.0-56.0-1.0","5c10724111fe9a00013cd815","C3","batch3","","1065","tol_toboard","","","","tol_peg_1","1065","1065","0","[[1,0,0],[2,3],[0]]","1","[[2,3,0],[1,0],[0]]","15","0","","","","","","7","","","","","","","","",""
"","","","","","single-stim-button","279","1004738","0.0-2.0-56.1-0.1","5c10724111fe9a00013cd815","C3","batch3","","5429","tol_tohand","","","","tol_peg_2","5429","5429","0","[[1,0,0],[2,0],[0]]","2","[[2,3,0],[1,0],[0]]","15","0","","","","","","7","","","","","","","","",""
"","","","","","single-stim-button","280","1007476","0.0-2.0-56.1-1.1","5c10724111fe9a00013cd815","C3","batch3","","2736","tol_toboard","","","","tol_peg_3","2736","2736","0","[[1,0,0],[2,0],[3]]","2","[[2,3,0],[1,0],[0]]","15","0","","","","","","7","","","","","","","","",""
"","","","","","single-stim-button","281","1008314","0.0-2.0-56.2-0.2","5c10724111fe9a00013cd815","C3","batch3","","837","tol_tohand","","","","tol_peg_1","837","837","0","[[0,0,0],[2,0],[3]]","3","[[2,3,0],[1,0],[0]]","15","0","","","","","","7","","","","","","","","",""
"","","","","","single-stim-button","282","1012891","0.0-2.0-56.2-1.2","5c10724111fe9a00013cd815","C3","batch3","","4575","tol_toboard","","","","tol_peg_2","4575","4575","0","[[0,0,0],[2,1],[3]]","3","[[2,3,0],[1,0],[0]]","15","0","","","","","","7","","","","","","","","",""
"","","","","","single-stim-button","283","1015067","0.0-2.0-56.3-0.3","5c10724111fe9a00013cd815","C3","batch3","","2175","tol_tohand","","","","tol_peg_2","2175","2175","0","[[0,0,0],[2,0],[3]]","4","[[2,3,0],[1,0],[0]]","15","0","","","","","","7","","","","","","","","",""
"","","","","","single-stim-button","284","1016010","0.0-2.0-56.3-1.3","5c10724111fe9a00013cd815","C3","batch3","","943","tol_toboard","","","","tol_peg_1","943","943","0","[[1,0,0],[2,0],[3]]","4","[[2,3,0],[1,0],[0]]","15","0","","","","","","7","","","","","","","","",""
"","","","","","single-stim-button","285","1017538","0.0-2.0-56.4-0.4","5c10724111fe9a00013cd815","C3","batch3","","1525","tol_tohand","","","","tol_peg_3","1525","1525","0","[[1,0,0],[2,0],[0]]","5","[[2,3,0],[1,0],[0]]","15","0","","","","","","7","","","","","","","","",""
"","","","","","single-stim-button","286","1018683","0.0-2.0-56.4-1.4","5c10724111fe9a00013cd815","C3","batch3","","1144","tol_toboard","","","","tol_peg_1","1144","1144","0","[[1,3,0],[2,0],[0]]","5","[[2,3,0],[1,0],[0]]","15","0","","","","","","7","","","","","","","","",""
"","","","","","single-stim-button","287","1020827","0.0-2.0-56.5-0.5","5c10724111fe9a00013cd815","C3","batch3","","2142","tol_tohand","","","","tol_peg_2","2142","2142","0","[[1,3,0],[0,0],[0]]","6","[[2,3,0],[1,0],[0]]","15","0","","","","","","7","","","","","","","","",""
"","","","","","single-stim-button","288","1023842","0.0-2.0-56.5-1.5","5c10724111fe9a00013cd815","C3","batch3","","3014","tol_toboard","","","","tol_peg_3","3014","3014","0","[[1,3,0],[0,0],[2]]","6","[[2,3,0],[1,0],[0]]","15","0","","","","","","7","","","","","","","","",""
"","","","","","single-stim-button","289","1025203","0.0-2.0-56.6-0.6","5c10724111fe9a00013cd815","C3","batch3","","1359","tol_tohand","","","","tol_peg_1","1359","1359","0","[[1,0,0],[0,0],[2]]","7","[[2,3,0],[1,0],[0]]","15","0","","","","","","7","","","","","","","","",""
"","","","","","single-stim-button","290","1026146","0.0-2.0-56.6-1.6","5c10724111fe9a00013cd815","C3","batch3","","943","tol_toboard","","","","tol_peg_1","943","943","0","[[1,3,0],[0,0],[2]]","7","[[2,3,0],[1,0],[0]]","15","0","","","","","","7","","","","","","","","",""
"","","","","","single-stim-button","291","1027090","0.0-2.0-56.7-0.7","5c10724111fe9a00013cd815","C3","batch3","","943","tol_tohand","","","","tol_peg_1","943","943","0","[[1,0,0],[0,0],[2]]","8","[[2,3,0],[1,0],[0]]","15","0","","","","","","7","","","","","","","","",""
"","","","","","single-stim-button","292","1030562","0.0-2.0-56.7-1.7","5c10724111fe9a00013cd815","C3","batch3","","3471","tol_toboard","","","","tol_peg_2","3471","3471","0","[[1,0,0],[3,0],[2]]","8","[[2,3,0],[1,0],[0]]","15","0","","","","","","7","","","","","","","","",""
"","","","","","single-stim-button","293","1031363","0.0-2.0-56.8-0.8","5c10724111fe9a00013cd815","C3","batch3","","799","tol_tohand","","","","tol_peg_1","799","799","0","[[0,0,0],[3,0],[2]]","9","[[2,3,0],[1,0],[0]]","15","0","","","","","","7","","","","","","","","",""
"","","","","","single-stim-button","294","1033195","0.0-2.0-56.8-1.8","5c10724111fe9a00013cd815","C3","batch3","","1831","tol_toboard","","","","tol_peg_2","1831","1831","0","[[0,0,0],[3,1],[2]]","9","[[2,3,0],[1,0],[0]]","15","0","","","","","","7","","","","","","","","",""
"","","","","","single-stim-button","295","1037260","0.0-2.0-56.9-0.9","5c10724111fe9a00013cd815","C3","batch3","","4063","tol_tohand","","","","tol_peg_3","4063","4063","0","[[0,0,0],[3,1],[0]]","10","[[2,3,0],[1,0],[0]]","15","0","","","","","","7","","","","","","","","",""
"","","","","","single-stim-button","296","1039060","0.0-2.0-56.9-1.9","5c10724111fe9a00013cd815","C3","batch3","","1798","tol_toboard","","","","tol_peg_1","1798","1798","0","[[2,0,0],[3,1],[0]]","10","[[2,3,0],[1,0],[0]]","15","0","","","","","","7","","","","","","","","",""
"","","","","","single-stim-button","297","1040219","0.0-2.0-56.10-0.10","5c10724111fe9a00013cd815","C3","batch3","","1158","tol_tohand","","","","tol_peg_2","1158","1158","0","[[2,0,0],[3,0],[0]]","11","[[2,3,0],[1,0],[0]]","15","0","","","","","","7","","","","","","","","",""
"","","","","","single-stim-button","298","1041747","0.0-2.0-56.10-1.10","5c10724111fe9a00013cd815","C3","batch3","","1527","tol_toboard","","","","tol_peg_3","1527","1527","0","[[2,0,0],[3,0],[1]]","11","[[2,3,0],[1,0],[0]]","15","0","","","","","","7","","","","","","","","",""
"","","","","","single-stim-button","299","1042659","0.0-2.0-56.11-0.11","5c10724111fe9a00013cd815","C3","batch3","","911","tol_tohand","","","","tol_peg_2","911","911","0","[[2,0,0],[0,0],[1]]","12","[[2,3,0],[1,0],[0]]","15","0","","","","","","7","","","","","","","","",""
"","","","","","single-stim-button","300","1043676","0.0-2.0-56.11-1.11","5c10724111fe9a00013cd815","C3","batch3","","1015","tol_toboard","","","","tol_peg_1","1015","1015","0","[[2,3,0],[0,0],[1]]","12","[[2,3,0],[1,0],[0]]","15","0","","","","","","7","","","","","","","","",""
"","","","","","single-stim-button","301","1044732","0.0-2.0-56.12-0.12","5c10724111fe9a00013cd815","C3","batch3","","1056","tol_tohand","","","","tol_peg_3","1056","1056","0","[[2,3,0],[0,0],[0]]","13","[[2,3,0],[1,0],[0]]","15","0","","","","","","7","","","","","","","","",""
"","","","","","single-stim-button","302","1045755","0.0-2.0-56.12-1.12","5c10724111fe9a00013cd815","C3","batch3","","1021","tol_toboard","","","","tol_peg_2","1021","1021","0","[[2,3,0],[1,0],[0]]","13","[[2,3,0],[1,0],[0]]","15","0","","","","","","7","","","","","","","","",""
"","","","","","poldrack-single-stim","303","1046764","0.0-2.0-57.0","5c10724111fe9a00013cd815","C3","batch3","","-1","tol_feedback","","","true","","1000","1000","500","","","","","","-1","none","true","8557","30954","","","","","","","","","",""
"","","","","","html-button-response","304","1048275","0.0-2.0-58.0","5c10724111fe9a00013cd815","C3","batch3","","1508.8999999985099","tol_trial_num","<div class = centerbox><p class = center-block-text>problem <strong>17</strong> out of 25 problems</p></div>","0","","","","","","","","","","","","","","","","","","","","","","","","",""
"","","","","","single-stim-button","305","1053770","0.0-2.0-59.0-0.0","5c10724111fe9a00013cd815","C3","batch3","","5494","tol_tohand","","","","tol_peg_2","5494","5494","0","[[1,2,0],[0,0],[0]]","1","[[3,1,0],[2,0],[0]]","16","0","","","","","","5","","","","","","","","",""
"","","","","","single-stim-button","306","1055402","0.0-2.0-59.0-1.0","5c10724111fe9a00013cd815","C3","batch3","","1630","tol_toboard","","","","tol_peg_3","1630","1630","0","[[1,2,0],[0,0],[3]]","1","[[3,1,0],[2,0],[0]]","16","0","","","","","","5","","","","","","","","",""
"","","","","","single-stim-button","307","1057386","0.0-2.0-59.1-0.1","5c10724111fe9a00013cd815","C3","batch3","","1982","tol_tohand","","","","tol_peg_1","1982","1982","0","[[1,0,0],[0,0],[3]]","2","[[3,1,0],[2,0],[0]]","16","0","","","","","","5","","","","","","","","",""
"","","","","","single-stim-button","308","1059442","0.0-2.0-59.1-1.1","5c10724111fe9a00013cd815","C3","batch3","","2055","tol_toboard","","","","tol_peg_2","2055","2055","0","[[1,0,0],[2,0],[3]]","2","[[3,1,0],[2,0],[0]]","16","0","","","","","","5","","","","","","","","",""
"","","","","","single-stim-button","309","1061066","0.0-2.0-59.2-0.2","5c10724111fe9a00013cd815","C3","batch3","","1622","tol_tohand","","","","tol_peg_1","1622","1622","0","[[0,0,0],[2,0],[3]]","3","[[3,1,0],[2,0],[0]]","16","0","","","","","","5","","","","","","","","",""
"","","","","","single-stim-button","310","1062451","0.0-2.0-59.2-1.2","5c10724111fe9a00013cd815","C3","batch3","","1383","tol_toboard","","","","tol_peg_2","1383","1383","0","[[0,0,0],[2,1],[3]]","3","[[3,1,0],[2,0],[0]]","16","0","","","","","","5","","","","","","","","",""
"","","","","","single-stim-button","311","1063099","0.0-2.0-59.3-0.3","5c10724111fe9a00013cd815","C3","batch3","","647","tol_tohand","","","","tol_peg_3","647","647","0","[[0,0,0],[2,1],[0]]","4","[[3,1,0],[2,0],[0]]","16","0","","","","","","5","","","","","","","","",""
"","","","","","single-stim-button","312","1064243","0.0-2.0-59.3-1.3","5c10724111fe9a00013cd815","C3","batch3","","1142","tol_toboard","","","","tol_peg_1","1142","1142","0","[[3,0,0],[2,1],[0]]","4","[[3,1,0],[2,0],[0]]","16","0","","","","","","5","","","","","","","","",""
"","","","","","single-stim-button","313","1065026","0.0-2.0-59.4-0.4","5c10724111fe9a00013cd815","C3","batch3","","782","tol_tohand","","","","tol_peg_2","782","782","0","[[3,0,0],[2,0],[0]]","5","[[3,1,0],[2,0],[0]]","16","0","","","","","","5","","","","","","","","",""
"","","","","","single-stim-button","314","1066067","0.0-2.0-59.4-1.4","5c10724111fe9a00013cd815","C3","batch3","","1039","tol_toboard","","","","tol_peg_1","1039","1039","0","[[3,1,0],[2,0],[0]]","5","[[3,1,0],[2,0],[0]]","16","0","","","","","","5","","","","","","","","",""
"","","","","","poldrack-single-stim","315","1067077","0.0-2.0-60.0","5c10724111fe9a00013cd815","C3","batch3","","-1","tol_feedback","","","true","","1000","1000","500","","","","","","-1","none","true","5494","10527","","","","","","","","","",""
"","","","","","html-button-response","316","1068483","0.0-2.0-61.0","5c10724111fe9a00013cd815","C3","batch3","","1403.7999999970198","tol_trial_num","<div class = centerbox><p class = center-block-text>problem <strong>18</strong> out of 25 problems</p></div>","0","","","","","","","","","","","","","","","","","","","","","","","","",""
"","","","","","single-stim-button","317","1076658","0.0-2.0-62.0-0.0","5c10724111fe9a00013cd815","C3","batch3","","8173","tol_tohand","","","","tol_peg_2","8173","8173","0","[[1,2,0],[0,0],[0]]","1","[[3,0,0],[2,0],[1]]","17","0","","","","","","5","","","","","","","","",""
"","","","","","single-stim-button","318","1077922","0.0-2.0-62.0-1.0","5c10724111fe9a00013cd815","C3","batch3","","1263","tol_toboard","","","","tol_peg_3","1263","1263","0","[[1,2,0],[0,0],[3]]","1","[[3,0,0],[2,0],[1]]","17","0","","","","","","5","","","","","","","","",""
"","","","","","single-stim-button","319","1079107","0.0-2.0-62.1-0.1","5c10724111fe9a00013cd815","C3","batch3","","1184","tol_tohand","","","","tol_peg_1","1184","1184","0","[[1,0,0],[0,0],[3]]","2","[[3,0,0],[2,0],[1]]","17","0","","","","","","5","","","","","","","","",""
"","","","","","single-stim-button","320","1080082","0.0-2.0-62.1-1.1","5c10724111fe9a00013cd815","C3","batch3","","973","tol_toboard","","","","tol_peg_2","973","973","0","[[1,0,0],[2,0],[3]]","2","[[3,0,0],[2,0],[1]]","17","0","","","","","","5","","","","","","","","",""
"","","","","","single-stim-button","321","1080954","0.0-2.0-62.2-0.2","5c10724111fe9a00013cd815","C3","batch3","","871","tol_tohand","","","","tol_peg_1","871","871","0","[[0,0,0],[2,0],[3]]","3","[[3,0,0],[2,0],[1]]","17","0","","","","","","5","","","","","","","","",""
"","","","","","single-stim-button","322","1082220","0.0-2.0-62.2-1.2","5c10724111fe9a00013cd815","C3","batch3","","1264","tol_toboard","","","","tol_peg_2","1264","1264","0","[[0,0,0],[2,1],[3]]","3","[[3,0,0],[2,0],[1]]","17","0","","","","","","5","","","","","","","","",""
"","","","","","single-stim-button","323","1089410","0.0-2.0-62.3-0.3","5c10724111fe9a00013cd815","C3","batch3","","7189","tol_tohand","","","","tol_peg_2","7189","7189","0","[[0,0,0],[2,0],[3]]","4","[[3,0,0],[2,0],[1]]","17","0","","","","","","5","","","","","","","","",""
"","","","","","single-stim-button","324","1090243","0.0-2.0-62.3-1.3","5c10724111fe9a00013cd815","C3","batch3","","831","tol_toboard","","","","tol_peg_1","831","831","0","[[1,0,0],[2,0],[3]]","4","[[3,0,0],[2,0],[1]]","17","0","","","","","","5","","","","","","","","",""
"","","","","","single-stim-button","325","1091730","0.0-2.0-62.4-0.4","5c10724111fe9a00013cd815","C3","batch3","","1486","tol_tohand","","","","tol_peg_3","1486","1486","0","[[1,0,0],[2,0],[0]]","5","[[3,0,0],[2,0],[1]]","17","0","","","","","","5","","","","","","","","",""
"","","","","","single-stim-button","326","1095412","0.0-2.0-62.4-1.4","5c10724111fe9a00013cd815","C3","batch3","","3681","tol_toboard","","","","tol_peg_3","3681","3681","0","[[1,0,0],[2,0],[3]]","5","[[3,0,0],[2,0],[1]]","17","0","","","","","","5","","","","","","","","",""
"","","","","","single-stim-button","327","1096099","0.0-2.0-62.5-0.5","5c10724111fe9a00013cd815","C3","batch3","","687","tol_tohand","","","","tol_peg_2","687","687","0","[[1,0,0],[0,0],[3]]","6","[[3,0,0],[2,0],[1]]","17","0","","","","","","5","","","","","","","","",""
"","","","","","single-stim-button","328","1098466","0.0-2.0-62.5-1.5","5c10724111fe9a00013cd815","C3","batch3","","2367","tol_toboard","","","","tol_peg_1","2367","2367","0","[[1,2,0],[0,0],[3]]","6","[[3,0,0],[2,0],[1]]","17","0","","","","","","5","","","","","","","","",""
"","","","","","single-stim-button","329","1100650","0.0-2.0-62.6-0.6","5c10724111fe9a00013cd815","C3","batch3","","2181","tol_tohand","","","","tol_peg_3","2181","2181","0","[[1,2,0],[0,0],[0]]","7","[[3,0,0],[2,0],[1]]","17","0","","","","","","5","","","","","","","","",""
"","","","","","single-stim-button","330","1101530","0.0-2.0-62.6-1.6","5c10724111fe9a00013cd815","C3","batch3","","879","tol_toboard","","","","tol_peg_2","879","879","0","[[1,2,0],[3,0],[0]]","7","[[3,0,0],[2,0],[1]]","17","0","","","","","","5","","","","","","","","",""
"","","","","","single-stim-button","331","1103362","0.0-2.0-62.7-0.7","5c10724111fe9a00013cd815","C3","batch3","","1830","tol_tohand","","","","tol_peg_1","1830","1830","0","[[1,0,0],[3,0],[0]]","8","[[3,0,0],[2,0],[1]]","17","0","","","","","","5","","","","","","","","",""
"","","","","","single-stim-button","332","1104562","0.0-2.0-62.7-1.7","5c10724111fe9a00013cd815","C3","batch3","","1199","tol_toboard","","","","tol_peg_3","1199","1199","0","[[1,0,0],[3,0],[2]]","8","[[3,0,0],[2,0],[1]]","17","0","","","","","","5","","","","","","","","",""
"","","","","","single-stim-button","333","1105514","0.0-2.0-62.8-0.8","5c10724111fe9a00013cd815","C3","batch3","","950","tol_tohand","","","","tol_peg_1","950","950","0","[[0,0,0],[3,0],[2]]","9","[[3,0,0],[2,0],[1]]","17","0","","","","","","5","","","","","","","","",""
"","","","","","single-stim-button","334","1106322","0.0-2.0-62.8-1.8","5c10724111fe9a00013cd815","C3","batch3","","806","tol_toboard","","","","tol_peg_2","806","806","0","[[0,0,0],[3,1],[2]]","9","[[3,0,0],[2,0],[1]]","17","0","","","","","","5","","","","","","","","",""
"","","","","","single-stim-button","335","1107058","0.0-2.0-62.9-0.9","5c10724111fe9a00013cd815","C3","batch3","","735","tol_tohand","","","","tol_peg_3","735","735","0","[[0,0,0],[3,1],[0]]","10","[[3,0,0],[2,0],[1]]","17","0","","","","","","5","","","","","","","","",""
"","","","","","single-stim-button","336","1111228","0.0-2.0-62.9-1.9","5c10724111fe9a00013cd815","C3","batch3","","4168","tol_toboard","","","","tol_peg_3","4168","4168","0","[[0,0,0],[3,1],[2]]","10","[[3,0,0],[2,0],[1]]","17","0","","","","","","5","","","","","","","","",""
"","","","","","single-stim-button","337","1112490","0.0-2.0-62.10-0.10","5c10724111fe9a00013cd815","C3","batch3","","1262","tol_tohand","","","","tol_peg_2","1262","1262","0","[[0,0,0],[3,0],[2]]","11","[[3,0,0],[2,0],[1]]","17","0","","","","","","5","","","","","","","","",""
"","","","","","single-stim-button","338","1113434","0.0-2.0-62.10-1.10","5c10724111fe9a00013cd815","C3","batch3","","943","tol_toboard","","","","tol_peg_1","943","943","0","[[1,0,0],[3,0],[2]]","11","[[3,0,0],[2,0],[1]]","17","0","","","","","","5","","","","","","","","",""
"","","","","","single-stim-button","339","1114243","0.0-2.0-62.11-0.11","5c10724111fe9a00013cd815","C3","batch3","","807","tol_tohand","","","","tol_peg_2","807","807","0","[[1,0,0],[0,0],[2]]","12","[[3,0,0],[2,0],[1]]","17","0","","","","","","5","","","","","","","","",""
"","","","","","single-stim-button","340","1117042","0.0-2.0-62.11-1.11","5c10724111fe9a00013cd815","C3","batch3","","2798","tol_toboard","","","","tol_peg_1","2798","2798","0","[[1,3,0],[0,0],[2]]","12","[[3,0,0],[2,0],[1]]","17","0","","","","","","5","","","","","","","","",""
"","","","","","single-stim-button","341","1118373","0.0-2.0-62.12-0.12","5c10724111fe9a00013cd815","C3","batch3","","1329","tol_tohand","","","","tol_peg_3","1329","1329","0","[[1,3,0],[0,0],[0]]","13","[[3,0,0],[2,0],[1]]","17","0","","","","","","5","","","","","","","","",""
"","","","","","single-stim-button","342","1119410","0.0-2.0-62.12-1.12","5c10724111fe9a00013cd815","C3","batch3","","1037","tol_toboard","","","","tol_peg_2","1037","1037","0","[[1,3,0],[2,0],[0]]","13","[[3,0,0],[2,0],[1]]","17","0","","","","","","5","","","","","","","","",""
"","","","","","single-stim-button","343","1123858","0.0-2.0-62.13-0.13","5c10724111fe9a00013cd815","C3","batch3","","4446","tol_tohand","","","","tol_peg_1","4446","4446","0","[[1,0,0],[2,0],[0]]","14","[[3,0,0],[2,0],[1]]","17","0","","","","","","5","","","","","","","","",""
"","","","","","single-stim-button","344","1125570","0.0-2.0-62.13-1.13","5c10724111fe9a00013cd815","C3","batch3","","1710","tol_toboard","","","","tol_peg_2","1710","1710","0","[[1,0,0],[2,3],[0]]","14","[[3,0,0],[2,0],[1]]","17","0","","","","","","5","","","","","","","","",""
"","","","","","single-stim-button","345","1127626","0.0-2.0-62.14-0.14","5c10724111fe9a00013cd815","C3","batch3","","2055","tol_tohand","","","","tol_peg_1","2055","2055","0","[[0,0,0],[2,3],[0]]","15","[[3,0,0],[2,0],[1]]","17","0","","","","","","5","","","","","","","","",""
"","","","","","single-stim-button","346","1128915","0.0-2.0-62.14-1.14","5c10724111fe9a00013cd815","C3","batch3","","1288","tol_toboard","","","","tol_peg_3","1288","1288","0","[[0,0,0],[2,3],[1]]","15","[[3,0,0],[2,0],[1]]","17","0","","","","","","5","","","","","","","","",""
"","","","","","single-stim-button","347","1130106","0.0-2.0-62.15-0.15","5c10724111fe9a00013cd815","C3","batch3","","1191","tol_tohand","","","","tol_peg_2","1191","1191","0","[[0,0,0],[2,0],[1]]","16","[[3,0,0],[2,0],[1]]","17","0","","","","","","5","","","","","","","","",""
"","","","","","single-stim-button","348","1131082","0.0-2.0-62.15-1.15","5c10724111fe9a00013cd815","C3","batch3","","975","tol_toboard","","","","tol_peg_1","975","975","0","[[3,0,0],[2,0],[1]]","16","[[3,0,0],[2,0],[1]]","17","0","","","","","","5","","","","","","","","",""
"","","","","","poldrack-single-stim","349","1132087","0.0-2.0-63.0","5c10724111fe9a00013cd815","C3","batch3","","-1","tol_feedback","","","true","","1000","1000","500","","","","","","-1","none","true","8173","36376","","","","","","","","","",""
"","","","","","html-button-response","350","1133834","0.0-2.0-64.0","5c10724111fe9a00013cd815","C3","batch3","","1745.3999999985099","tol_trial_num","<div class = centerbox><p class = center-block-text>problem <strong>19</strong> out of 25 problems</p></div>","0","","","","","","","","","","","","","","","","","","","","","","","","",""
"","","","","","single-stim-button","351","1138147","0.0-2.0-65.0-0.0","5c10724111fe9a00013cd815","C3","batch3","","4311","tol_tohand","","","","tol_peg_2","4311","4311","0","[[1,2,0],[0,0],[0]]","1","[[0,0,0],[1,2],[3]]","18","0","","","","","","7","","","","","","","","",""
"","","","","","single-stim-button","352","1139058","0.0-2.0-65.0-1.0","5c10724111fe9a00013cd815","C3","batch3","","910","tol_toboard","","","","tol_peg_2","910","910","0","[[1,2,0],[3,0],[0]]","1","[[0,0,0],[1,2],[3]]","18","0","","","","","","7","","","","","","","","",""
"","","","","","single-stim-button","353","1140138","0.0-2.0-65.1-0.1","5c10724111fe9a00013cd815","C3","batch3","","1078","tol_tohand","","","","tol_peg_2","1078","1078","0","[[1,2,0],[0,0],[0]]","2","[[0,0,0],[1,2],[3]]","18","0","","","","","","7","","","","","","","","",""
"","","","","","single-stim-button","354","1141746","0.0-2.0-65.1-1.1","5c10724111fe9a00013cd815","C3","batch3","","1607","tol_toboard","","","","tol_peg_3","1607","1607","0","[[1,2,0],[0,0],[3]]","2","[[0,0,0],[1,2],[3]]","18","0","","","","","","7","","","","","","","","",""
