"success","timeout","failed_images","failed_audio","failed_video","trial_type","trial_index","time_elapsed","internal_node_id","subject_id","study_id","session_id","view_history","rt","stimulus","response","task","correct","answer","item","fiar_detect_rt","fiar_detect_correct","total_correct_fiar_detect","post_trial_gap","choices","spm_correct","spm_rt","mouse_click","stim_duration","block_duration","timing_post_trial","current_position","tol_num_moves_made","tol_target","tol_problem_id","tol_rt","key_press","possible_responses","tol_correct","preplanning","tol_rt_per_trial","tol_min_moves"
"true","false","[]","[]","[]","preload","0","15248","0.0-0.0","5c1813d5d2790700010a718f","F1","batch6","","","","","","","","","","","","","","","","","","","","","","","","","","","","","",""
"true","","","","","fullscreen","1","479919","0.0-1.0-0.0","5c1813d5d2790700010a718f","F1","batch6","","","","","","","","","","","","","","","","","","","","","","","","","","","","","",""
"true","","","","","fullscreen","2","483528","0.0-2.0-0.0","5c1813d5d2790700010a718f","F1","batch6","","","","","","","","","","","","","","","","","","","","","","","","","","","","","",""
"","","","","","instructions","3","504192","0.0-2.0-1.0-0.0","5c1813d5d2790700010a718f","F1","batch6","[{""page_index"":0,""viewing_time"":11990.39999999851},{""page_index"":1,""viewing_time"":8671.800000000745}]","20662.599999997765","","","","","","","","","","","","","","","","","","","","","","","","","","","",""
"","","","","","html-button-response","4","506001","0.0-2.0-1.0-1.0-0.0","5c1813d5d2790700010a718f","F1","batch6","","1807.300000000745","<p class=block-text> Let's answer a few questions <br>","0","pattern_enter_quiz","","","","","","","","","","","","","","","","","","","","","","","","",""
"","","","","","html-button-response","5","510996","0.0-2.0-1.0-1.0-1.0","5c1813d5d2790700010a718f","F1","batch6","","4994.5","<p class = block-text>True or False: You will have as much time as you want to make each choice. <br></p>","0","pattern_quiz","false","","","","","","","","","","","","","","","","","","","","","","","",""
"","","","","","html-button-response","6","512904","0.0-2.0-1.0-1.0-2.0","5c1813d5d2790700010a718f","F1","batch6","","1906.800000000745","<p class = block-text>Incorrect. Remember, You should make your choice as fast as you can.</p>","0","pattern_quiz_feedback","","","","","","","","","","","","","","","","","","","","","","","","",""
"","","","","","html-button-response","7","536915","0.0-2.0-1.0-1.0-3.0","5c1813d5d2790700010a718f","F1","batch6","","24010.10000000149","<p class = block-text>True or False: You will look for 4 pieces in black or white color connected in a row either horizontally, vertically or diagonally. <br></p>","0","pattern_quiz","true","","","","","","","","","","","","","","","","","","","","","","","",""
"","","","","","html-button-response","8","538181","0.0-2.0-1.0-1.0-4.0","5c1813d5d2790700010a718f","F1","batch6","","1265","<p class = block-text>Correct! </p>","0","pattern_quiz_feedback","","","","","","","","","","","","","","","","","","","","","","","","",""
"","","","","","html-button-response","9","540307","0.0-2.0-1.0-2.0-0.0","5c1813d5d2790700010a718f","F1","batch6","","2124.199999999255","<p class = block-text>You made too many incorrect choices.</p><p class = block-text>You will now repeat the instruction and quiz</p>","0","","","","","","","","","","","","","","","","","","","","","","","","","",""
"","","","","","instructions","10","542414","0.0-2.0-1.1-0.1","5c1813d5d2790700010a718f","F1","batch6","[{""page_index"":0,""viewing_time"":1386.3999999985099},{""page_index"":1,""viewing_time"":719.5}]","2106.099999997765","","","","","","","","","","","","","","","","","","","","","","","","","","","",""
"","","","","","html-button-response","11","543713","0.0-2.0-1.1-1.1-0.1","5c1813d5d2790700010a718f","F1","batch6","","1298.5999999977648","<p class=block-text> Let's answer a few questions <br>","0","pattern_enter_quiz","","","","","","","","","","","","","","","","","","","","","","","","",""
"","","","","","html-button-response","12","545736","0.0-2.0-1.1-1.1-1.1","5c1813d5d2790700010a718f","F1","batch6","","2022","<p class = block-text>True or False: You will have as much time as you want to make each choice. <br></p>","0","pattern_quiz","false","","","","","","","","","","","","","","","","","","","","","","","",""
"","","","","","html-button-response","13","547295","0.0-2.0-1.1-1.1-2.1","5c1813d5d2790700010a718f","F1","batch6","","1557.8999999985099","<p class = block-text>Incorrect. Remember, You should make your choice as fast as you can.</p>","0","pattern_quiz_feedback","","","","","","","","","","","","","","","","","","","","","","","","",""
"","","","","","html-button-response","14","550971","0.0-2.0-1.1-1.1-3.1","5c1813d5d2790700010a718f","F1","batch6","","3674.800000000745","<p class = block-text>True or False: You will look for 4 pieces in black or white color connected in a row either horizontally, vertically or diagonally. <br></p>","0","pattern_quiz","true","","","","","","","","","","","","","","","","","","","","","","","",""
"","","","","","html-button-response","15","552030","0.0-2.0-1.1-1.1-4.1","5c1813d5d2790700010a718f","F1","batch6","","1058.2999999970198","<p class = block-text>Correct! </p>","0","pattern_quiz_feedback","","","","","","","","","","","","","","","","","","","","","","","","",""
"","","","","","html-button-response","16","553112","0.0-2.0-1.1-2.1-0.1","5c1813d5d2790700010a718f","F1","batch6","","1081","<p class = block-text>You made too many incorrect choices.</p><p class = block-text>You will now repeat the instruction and quiz</p>","0","","","","","","","","","","","","","","","","","","","","","","","","","",""
"","","","","","instructions","17","557031","0.0-2.0-1.2-0.2","5c1813d5d2790700010a718f","F1","batch6","[{""page_index"":0,""viewing_time"":1482.3999999985099},{""page_index"":1,""viewing_time"":2436.199999999255}]","3918.89999999851","","","","","","","","","","","","","","","","","","","","","","","","","","","",""
"","","","","","html-button-response","18","558411","0.0-2.0-1.2-1.2-0.2","5c1813d5d2790700010a718f","F1","batch6","","1379.2999999970198","<p class=block-text> Let's answer a few questions <br>","0","pattern_enter_quiz","","","","","","","","","","","","","","","","","","","","","","","","",""
"","","","","","html-button-response","19","559193","0.0-2.0-1.2-1.2-1.2","5c1813d5d2790700010a718f","F1","batch6","","780.8000000007451","<p class = block-text>True or False: You will have as much time as you want to make each choice. <br></p>","1","pattern_quiz","true","","","","","","","","","","","","","","","","","","","","","","","",""
"","","","","","html-button-response","20","560369","0.0-2.0-1.2-1.2-2.2","5c1813d5d2790700010a718f","F1","batch6","","1175.199999999255","<p class = block-text>Correct! You should make your choice <strong> as fast as you can</strong>.</p>","0","pattern_quiz_feedback","","","","","","","","","","","","","","","","","","","","","","","","",""
"","","","","","html-button-response","21","561570","0.0-2.0-1.2-1.2-3.2","5c1813d5d2790700010a718f","F1","batch6","","1200.5","<p class = block-text>True or False: You will look for 4 pieces in black or white color connected in a row either horizontally, vertically or diagonally. <br></p>","0","pattern_quiz","true","","","","","","","","","","","","","","","","","","","","","","","",""
"","","","","","html-button-response","22","562616","0.0-2.0-1.2-1.2-4.2","5c1813d5d2790700010a718f","F1","batch6","","1045.7999999970198","<p class = block-text>Correct! </p>","0","pattern_quiz_feedback","","","","","","","","","","","","","","","","","","","","","","","","",""
"","","","","","html-button-response","23","564127","0.0-2.0-2.0","5c1813d5d2790700010a718f","F1","batch6","","1509.8999999985099","<p class=block-text> Now that you've understood the game, let's do a few practice trials before we start!<br> <br>","0","pattern_enter_practice","","","","","","","","","","","","","","","","","","","","","","","","",""
"","","","","","image-keyboard-response","24","566098","0.0-2.0-3.0-0.0","5c1813d5d2790700010a718f","F1","batch6","","1964.699999999255","stim/prac_no_18_1.png","j","pattern_practice","true","j","","","","","","","","","","","","","","","","","","","","","","",""
"","","","","","html-keyboard-response","25","567111","0.0-2.0-3.0-1.0","5c1813d5d2790700010a718f","F1","batch6","","null","<p style=""font-size:30px;color:green;"">Correct!</p>","null","pattern_feedback","","","","","","","","","","","","","","","","","","","","","","","","",""
"","","","","","image-keyboard-response","26","567811","0.0-2.0-3.0-0.1","5c1813d5d2790700010a718f","F1","batch6","","698.8000000007451","stim/prac_yes_18_hor_w1.png","f","pattern_practice","true","f","","","","","","","","","","","","","","","","","","","","","","",""
"","","","","","html-keyboard-response","27","568826","0.0-2.0-3.0-1.1","5c1813d5d2790700010a718f","F1","batch6","","null","<p style=""font-size:30px;color:green;"">Correct!</p>","null","pattern_feedback","","","","","","","","","","","","","","","","","","","","","","","","",""
"","","","","","image-keyboard-response","28","569662","0.0-2.0-3.0-0.2","5c1813d5d2790700010a718f","F1","batch6","","834.6999999992549","stim/prac_no_16_1.png","j","pattern_practice","true","j","","","","","","","","","","","","","","","","","","","","","","",""
"","","","","","html-keyboard-response","29","570675","0.0-2.0-3.0-1.2","5c1813d5d2790700010a718f","F1","batch6","","null","<p style=""font-size:30px;color:green;"">Correct!</p>","null","pattern_feedback","","","","","","","","","","","","","","","","","","","","","","","","",""
"","","","","","image-keyboard-response","30","571545","0.0-2.0-3.0-0.3","5c1813d5d2790700010a718f","F1","batch6","","869","stim/prac_yes_20_dia_b1.png","j","pattern_practice","false","f","","","","","","","","","","","","","","","","","","","","","","",""
"","","","","","html-keyboard-response","31","572567","0.0-2.0-3.0-1.3","5c1813d5d2790700010a718f","F1","batch6","","null","<p style=""font-size:30px;color:red;"">Wrong.</p>","null","pattern_feedback","","","","","","","","","","","","","","","","","","","","","","","","",""
"","","","","","image-keyboard-response","32","573450","0.0-2.0-3.0-0.4","5c1813d5d2790700010a718f","F1","batch6","","881.8999999985099","stim/prac_yes_16_ver_w1.png","f","pattern_practice","true","f","","","","","","","","","","","","","","","","","","","","","","",""
"","","","","","html-keyboard-response","33","574479","0.0-2.0-3.0-1.4","5c1813d5d2790700010a718f","F1","batch6","","null","<p style=""font-size:30px;color:green;"">Correct!</p>","null","pattern_feedback","","","","","","","","","","","","","","","","","","","","","","","","",""
"","","","","","html-button-response","34","578172","0.0-2.0-4.0","5c1813d5d2790700010a718f","F1","batch6","","3691.7999999970198","<p class=block-text> Good job! You are done with practice trials!<br>
        You responded correctly on 80% of the trials.<br>
        Press the button below to start official trials. Now you won't see any feedback about your response</p>","0","pattern_enter_official_trials","","","","","","","","","","","","","","","","","","","","","","","","",""
"","","","","","html-keyboard-response","35","578982","0.0-2.0-5.0-0.0","5c1813d5d2790700010a718f","F1","batch6","","null","<p class=block-text>Trial 1 out of 78</p>","null","pattern_show_trial_num","","","","","","","","","","","","","","","","","","","","","","","","",""
"","","","","","image-keyboard-response","36","580338","0.0-2.0-5.0-1.0","5c1813d5d2790700010a718f","F1","batch6","","1353.5","stim/no_22_1_b.png","j","pattern_response","true","j","pattern_07","1353.5","true","1","","","","","","","","","","","","","","","","","","",""
"","","","","","html-keyboard-response","37","581662","0.0-2.0-5.0-0.1","5c1813d5d2790700010a718f","F1","batch6","","null","<p class=block-text>Trial 2 out of 78</p>","null","pattern_show_trial_num","","","","","","","","","","","","","","","","","","","","","","","","",""
"","","","","","image-keyboard-response","38","583290","0.0-2.0-5.0-1.1","5c1813d5d2790700010a718f","F1","batch6","","1626.199999999255","stim/no_39_1_w.png","j","pattern_response","true","j","pattern_21","1626.199999999255","true","2","","","","","","","","","","","","","","","","","","",""
"","","","","","html-keyboard-response","39","584597","0.0-2.0-5.0-0.2","5c1813d5d2790700010a718f","F1","batch6","","null","<p class=block-text>Trial 3 out of 78</p>","null","pattern_show_trial_num","","","","","","","","","","","","","","","","","","","","","","","","",""
"","","","","","image-keyboard-response","40","585893","0.0-2.0-5.0-1.2","5c1813d5d2790700010a718f","F1","batch6","","1294.7000000029802","stim/no_28_2.png","j","pattern_response","true","j","pattern_11","1294.7000000029802","true","3","","","","","","","","","","","","","","","","","","",""
"","","","","","html-keyboard-response","41","587207","0.0-2.0-5.0-0.3","5c1813d5d2790700010a718f","F1","batch6","","null","<p class=block-text>Trial 4 out of 78</p>","null","pattern_show_trial_num","","","","","","","","","","","","","","","","","","","","","","","","",""
"","","","","","image-keyboard-response","42","588063","0.0-2.0-5.0-1.3","5c1813d5d2790700010a718f","F1","batch6","","854.2999999970198","stim/yes_39_hor_w1_w.png","f","pattern_response","true","f","pattern_62","854.2999999970198","true","4","","","","","","","","","","","","","","","","","","",""
"","","","","","html-keyboard-response","43","589373","0.0-2.0-5.0-0.4","5c1813d5d2790700010a718f","F1","batch6","","null","<p class=block-text>Trial 5 out of 78</p>","null","pattern_show_trial_num","","","","","","","","","","","","","","","","","","","","","","","","",""
"","","","","","image-keyboard-response","44","590712","0.0-2.0-5.0-1.4","5c1813d5d2790700010a718f","F1","batch6","","1338.1000000014901","stim/no_37_2_w.png","j","pattern_response","true","j","pattern_19","1338.1000000014901","true","5","","","","","","","","","","","","","","","","","","",""
"","","","","","html-keyboard-response","45","592028","0.0-2.0-5.0-0.5","5c1813d5d2790700010a718f","F1","batch6","","null","<p class=block-text>Trial 6 out of 78</p>","null","pattern_show_trial_num","","","","","","","","","","","","","","","","","","","","","","","","",""
"","","","","","image-keyboard-response","46","593712","0.0-2.0-5.0-1.5","5c1813d5d2790700010a718f","F1","batch6","","1683.4000000022352","stim/yes_53_ver_b1_b.png","j","pattern_response","false","f","pattern_74","1683.4000000022352","false","5","","","","","","","","","","","","","","","","","","",""
"","","","","","html-keyboard-response","47","595022","0.0-2.0-5.0-0.6","5c1813d5d2790700010a718f","F1","batch6","","null","<p class=block-text>Trial 7 out of 78</p>","null","pattern_show_trial_num","","","","","","","","","","","","","","","","","","","","","","","","",""
"","","","","","image-keyboard-response","48","596837","0.0-2.0-5.0-1.6","5c1813d5d2790700010a718f","F1","batch6","","1813.199999999255","stim/no_43_2_b.png","j","pattern_response","true","j","pattern_23","1813.199999999255","true","6","","","","","","","","","","","","","","","","","","",""
"","","","","","html-keyboard-response","49","598158","0.0-2.0-5.0-0.7","5c1813d5d2790700010a718f","F1","batch6","","null","<p class=block-text>Trial 8 out of 78</p>","null","pattern_show_trial_num","","","","","","","","","","","","","","","","","","","","","","","","",""
"","","","","","image-keyboard-response","50","598975","0.0-2.0-5.0-1.7","5c1813d5d2790700010a718f","F1","batch6","","815.1999999992549","stim/yes_15_dia_b1u_b.png","f","pattern_response","true","f","pattern_44","815.1999999992549","true","7","","","","","","","","","","","","","","","","","","",""
"","","","","","html-keyboard-response","51","600285","0.0-2.0-5.0-0.8","5c1813d5d2790700010a718f","F1","batch6","","null","<p class=block-text>Trial 9 out of 78</p>","null","pattern_show_trial_num","","","","","","","","","","","","","","","","","","","","","","","","",""
"","","","","","image-keyboard-response","52","601880","0.0-2.0-5.0-1.8","5c1813d5d2790700010a718f","F1","batch6","","1594","stim/no_45_1_w.png","j","pattern_response","true","j","pattern_25","1594","true","8","","","","","","","","","","","","","","","","","","",""
"","","","","","html-keyboard-response","53","603185","0.0-2.0-5.0-0.9","5c1813d5d2790700010a718f","F1","batch6","","null","<p class=block-text>Trial 10 out of 78</p>","null","pattern_show_trial_num","","","","","","","","","","","","","","","","","","","","","","","","",""
"","","","","","image-keyboard-response","54","604299","0.0-2.0-5.0-1.9","5c1813d5d2790700010a718f","F1","batch6","","1112.300000000745","stim/yes_30_ver_b1_b.png","f","pattern_response","true","f","pattern_54","1112.300000000745","true","9","","","","","","","","","","","","","","","","","","",""
"","","","","","html-keyboard-response","55","605622","0.0-2.0-5.0-0.10","5c1813d5d2790700010a718f","F1","batch6","","null","<p class=block-text>Trial 11 out of 78</p>","null","pattern_show_trial_num","","","","","","","","","","","","","","","","","","","","","","","","",""
"","","","","","image-keyboard-response","56","606413","0.0-2.0-5.0-1.10","5c1813d5d2790700010a718f","F1","batch6","","790","stim/no_18_1_b.png","j","pattern_response","true","j","pattern_05","790","true","10","","","","","","","","","","","","","","","","","","",""
"","","","","","html-keyboard-response","57","607728","0.0-2.0-5.0-0.11","5c1813d5d2790700010a718f","F1","batch6","","null","<p class=block-text>Trial 12 out of 78</p>","null","pattern_show_trial_num","","","","","","","","","","","","","","","","","","","","","","","","",""
"","","","","","image-keyboard-response","58","609149","0.0-2.0-5.0-1.11","5c1813d5d2790700010a718f","F1","batch6","","1419.199999999255","stim/no_47_1_b.png","j","pattern_response","true","j","pattern_27","1419.199999999255","true","11","","","","","","","","","","","","","","","","","","",""
"","","","","","html-keyboard-response","59","610467","0.0-2.0-5.0-0.12","5c1813d5d2790700010a718f","F1","batch6","","null","<p class=block-text>Trial 13 out of 78</p>","null","pattern_show_trial_num","","","","","","","","","","","","","","","","","","","","","","","","",""
"","","","","","image-keyboard-response","60","611476","0.0-2.0-5.0-1.12","5c1813d5d2790700010a718f","F1","batch6","","1008.1999999992549","stim/no_25_1_b.png","j","pattern_response","true","j","pattern_09","1008.1999999992549","true","12","","","","","","","","","","","","","","","","","","",""
"","","","","","html-keyboard-response","61","612795","0.0-2.0-5.0-0.13","5c1813d5d2790700010a718f","F1","batch6","","null","<p class=block-text>Trial 14 out of 78</p>","null","pattern_show_trial_num","","","","","","","","","","","","","","","","","","","","","","","","",""
"","","","","","image-keyboard-response","62","613574","0.0-2.0-5.0-1.13","5c1813d5d2790700010a718f","F1","batch6","","777.4000000022352","stim/yes_23_ver_b1.png","j","pattern_response","false","f","pattern_48","777.4000000022352","false","12","","","","","","","","","","","","","","","","","","",""
"","","","","","html-keyboard-response","63","614891","0.0-2.0-5.0-0.14","5c1813d5d2790700010a718f","F1","batch6","","null","<p class=block-text>Trial 15 out of 78</p>","null","pattern_show_trial_num","","","","","","","","","","","","","","","","","","","","","","","","",""
"","","","","","image-keyboard-response","64","615943","0.0-2.0-5.0-1.14","5c1813d5d2790700010a718f","F1","batch6","","1050.800000000745","stim/yes_33_dia_w1_w.png","f","pattern_response","true","f","pattern_56","1050.800000000745","true","13","","","","","","","","","","","","","","","","","","",""
"","","","","","html-keyboard-response","65","617254","0.0-2.0-5.0-0.15","5c1813d5d2790700010a718f","F1","batch6","","null","<p class=block-text>Trial 16 out of 78</p>","null","pattern_show_trial_num","","","","","","","","","","","","","","","","","","","","","","","","",""
"","","","","","image-keyboard-response","66","619792","0.0-2.0-5.0-1.15","5c1813d5d2790700010a718f","F1","batch6","","2536.60000000149","stim/yes_44_ver_w1_w.png","j","pattern_response","false","f","pattern_66","2536.60000000149","false","13","","","","","","","","","","","","","","","","","","",""
"","","","","","html-keyboard-response","67","621111","0.0-2.0-5.0-0.16","5c1813d5d2790700010a718f","F1","batch6","","null","<p class=block-text>Trial 17 out of 78</p>","null","pattern_show_trial_num","","","","","","","","","","","","","","","","","","","","","","","","",""
"","","","","","image-keyboard-response","68","623972","0.0-2.0-5.0-1.16","5c1813d5d2790700010a718f","F1","batch6","","2860.10000000149","stim/yes_58_dia_w1_w.png","f","pattern_response","true","f","pattern_76","2860.10000000149","true","14","","","","","","","","","","","","","","","","","","",""
"","","","","","html-keyboard-response","69","625289","0.0-2.0-5.0-0.17","5c1813d5d2790700010a718f","F1","batch6","","null","<p class=block-text>Trial 18 out of 78</p>","null","pattern_show_trial_num","","","","","","","","","","","","","","","","","","","","","","","","",""
"","","","","","image-keyboard-response","70","626917","0.0-2.0-5.0-1.17","5c1813d5d2790700010a718f","F1","batch6","","1626.199999999255","stim/no_36_1_b.png","j","pattern_response","true","j","pattern_17","1626.199999999255","true","15","","","","","","","","","","","","","","","","","","",""
"","","","","","html-keyboard-response","71","628229","0.0-2.0-5.0-0.18","5c1813d5d2790700010a718f","F1","batch6","","null","<p class=block-text>Trial 19 out of 78</p>","null","pattern_show_trial_num","","","","","","","","","","","","","","","","","","","","","","","","",""
"","","","","","image-keyboard-response","72","629180","0.0-2.0-5.0-1.18","5c1813d5d2790700010a718f","F1","batch6","","949.3999999985099","stim/yes_26_dia_w2_w.png","f","pattern_response","true","f","pattern_50","949.3999999985099","true","16","","","","","","","","","","","","","","","","","","",""
"","","","","","html-keyboard-response","73","630505","0.0-2.0-5.0-0.19","5c1813d5d2790700010a718f","F1","batch6","","null","<p class=block-text>Trial 20 out of 78</p>","null","pattern_show_trial_num","","","","","","","","","","","","","","","","","","","","","","","","",""
"","","","","","image-keyboard-response","74","633177","0.0-2.0-5.0-1.19","5c1813d5d2790700010a718f","F1","batch6","","2670.800000000745","stim/no_51_1.png","j","pattern_response","true","j","pattern_31","2670.800000000745","true","17","","","","","","","","","","","","","","","","","","",""
"","","","","","html-keyboard-response","75","634494","0.0-2.0-5.0-0.20","5c1813d5d2790700010a718f","F1","batch6","","null","<p class=block-text>Trial 21 out of 78</p>","null","pattern_show_trial_num","","","","","","","","","","","","","","","","","","","","","","","","",""
"","","","","","image-keyboard-response","76","636973","0.0-2.0-5.0-1.20","5c1813d5d2790700010a718f","F1","batch6","","2477.699999999255","stim/no_53_1_b.png","j","pattern_response","true","j","pattern_33","2477.699999999255","true","18","","","","","","","","","","","","","","","","","","",""
"","","","","","html-keyboard-response","77","638286","0.0-2.0-5.0-0.21","5c1813d5d2790700010a718f","F1","batch6","","null","<p class=block-text>Trial 22 out of 78</p>","null","pattern_show_trial_num","","","","","","","","","","","","","","","","","","","","","","","","",""
"","","","","","image-keyboard-response","78","640069","0.0-2.0-5.0-1.21","5c1813d5d2790700010a718f","F1","batch6","","1781.8999999985099","stim/yes_37_hor_w1_w.png","j","pattern_response","false","f","pattern_60","1781.8999999985099","false","18","","","","","","","","","","","","","","","","","","",""
"","","","","","html-keyboard-response","79","641385","0.0-2.0-5.0-0.22","5c1813d5d2790700010a718f","F1","batch6","","null","<p class=block-text>Trial 23 out of 78</p>","null","pattern_show_trial_num","","","","","","","","","","","","","","","","","","","","","","","","",""
"","","","","","image-keyboard-response","80","643434","0.0-2.0-5.0-1.22","5c1813d5d2790700010a718f","F1","batch6","","2047.5","stim/no_30_1_b.png","j","pattern_response","true","j","pattern_13","2047.5","true","19","","","","","","","","","","","","","","","","","","",""
"","","","","","html-keyboard-response","81","644754","0.0-2.0-5.0-0.23","5c1813d5d2790700010a718f","F1","batch6","","null","<p class=block-text>Trial 24 out of 78</p>","null","pattern_show_trial_num","","","","","","","","","","","","","","","","","","","","","","","","",""
"","","","","","image-keyboard-response","82","647149","0.0-2.0-5.0-1.23","5c1813d5d2790700010a718f","F1","batch6","","2393.7000000029802","stim/no_49_2_b.png","j","pattern_response","true","j","pattern_29","2393.7000000029802","true","20","","","","","","","","","","","","","","","","","","",""
"","","","","","html-keyboard-response","83","648466","0.0-2.0-5.0-0.24","5c1813d5d2790700010a718f","F1","batch6","","null","<p class=block-text>Trial 25 out of 78</p>","null","pattern_show_trial_num","","","","","","","","","","","","","","","","","","","","","","","","",""
"","","","","","image-keyboard-response","84","651569","0.0-2.0-5.0-1.24","5c1813d5d2790700010a718f","F1","batch6","","3101.39999999851","stim/no_67_1.png","j","pattern_response","true","j","pattern_39","3101.39999999851","true","21","","","","","","","","","","","","","","","","","","",""
"","","","","","html-keyboard-response","85","652892","0.0-2.0-5.0-0.25","5c1813d5d2790700010a718f","F1","batch6","","null","<p class=block-text>Trial 26 out of 78</p>","null","pattern_show_trial_num","","","","","","","","","","","","","","","","","","","","","","","","",""
"","","","","","image-keyboard-response","86","653716","0.0-2.0-5.0-1.25","5c1813d5d2790700010a718f","F1","batch6","","822.5","stim/yes_29_hor_b1_b.png","f","pattern_response","true","f","pattern_52","822.5","true","22","","","","","","","","","","","","","","","","","","",""
"","","","","","html-keyboard-response","87","655034","0.0-2.0-5.0-0.26","5c1813d5d2790700010a718f","F1","batch6","","null","<p class=block-text>Trial 27 out of 78</p>","null","pattern_show_trial_num","","","","","","","","","","","","","","","","","","","","","","","","",""
"","","","","","image-keyboard-response","88","656122","0.0-2.0-5.0-1.26","5c1813d5d2790700010a718f","F1","batch6","","1087.5999999977648","stim/yes_36_ver_w1_w.png","f","pattern_response","true","f","pattern_58","1087.5999999977648","true","23","","","","","","","","","","","","","","","","","","",""
"","","","","","html-keyboard-response","89","657444","0.0-2.0-5.0-0.27","5c1813d5d2790700010a718f","F1","batch6","","null","<p class=block-text>Trial 28 out of 78</p>","null","pattern_show_trial_num","","","","","","","","","","","","","","","","","","","","","","","","",""
"","","","","","image-keyboard-response","90","658482","0.0-2.0-5.0-1.27","5c1813d5d2790700010a718f","F1","batch6","","1035.800000000745","stim/yes_17_ver_b1_b.png","f","pattern_response","true","f","pattern_46","1035.800000000745","true","24","","","","","","","","","","","","","","","","","","",""
"","","","","","html-keyboard-response","91","659794","0.0-2.0-5.0-0.28","5c1813d5d2790700010a718f","F1","batch6","","null","<p class=block-text>Trial 29 out of 78</p>","null","pattern_show_trial_num","","","","","","","","","","","","","","","","","","","","","","","","",""
"","","","","","image-keyboard-response","92","662498","0.0-2.0-5.0-1.28","5c1813d5d2790700010a718f","F1","batch6","","2703","stim/yes_42_dia_w1_w.png","f","pattern_response","true","f","pattern_64","2703","true","25","","","","","","","","","","","","","","","","","","",""
"","","","","","html-keyboard-response","93","663820","0.0-2.0-5.0-0.29","5c1813d5d2790700010a718f","F1","batch6","","null","<p class=block-text>Trial 30 out of 78</p>","null","pattern_show_trial_num","","","","","","","","","","","","","","","","","","","","","","","","",""
"","","","","","image-keyboard-response","94","667501","0.0-2.0-5.0-1.29","5c1813d5d2790700010a718f","F1","batch6","","3678.599999997765","stim/no_58_1_w.png","j","pattern_response","true","j","pattern_35","3678.599999997765","true","26","","","","","","","","","","","","","","","","","","",""
"","","","","","html-keyboard-response","95","668819","0.0-2.0-5.0-0.30","5c1813d5d2790700010a718f","F1","batch6","","null","<p class=block-text>Trial 31 out of 78</p>","null","pattern_show_trial_num","","","","","","","","","","","","","","","","","","","","","","","","",""
"","","","","","image-keyboard-response","96","673679","0.0-2.0-5.0-1.30","5c1813d5d2790700010a718f","F1","batch6","","4858.300000000745","stim/yes_70_ver_b1.png","j","pattern_response","false","f","pattern_80","4858.300000000745","false","26","","","","","","","","","","","","","","","","","","",""
"","","","","","html-keyboard-response","97","674995","0.0-2.0-5.0-0.31","5c1813d5d2790700010a718f","F1","batch6","","null","<p class=block-text>Trial 32 out of 78</p>","null","pattern_show_trial_num","","","","","","","","","","","","","","","","","","","","","","","","",""
"","","","","","image-keyboard-response","98","676114","0.0-2.0-5.0-1.31","5c1813d5d2790700010a718f","F1","batch6","","1118.4000000022352","stim/yes_46_ver_b1_b.png","f","pattern_response","true","f","pattern_68","1118.4000000022352","true","27","","","","","","","","","","","","","","","","","","",""
"","","","","","html-keyboard-response","99","677427","0.0-2.0-5.0-0.32","5c1813d5d2790700010a718f","F1","batch6","","null","<p class=block-text>Trial 33 out of 78</p>","null","pattern_show_trial_num","","","","","","","","","","","","","","","","","","","","","","","","",""
"","","","","","image-keyboard-response","100","678144","0.0-2.0-5.0-1.32","5c1813d5d2790700010a718f","F1","batch6","","715.2000000029802","stim/yes_12_hor_w1_w.png","f","pattern_response","true","f","pattern_42","715.2000000029802","true","28","","","","","","","","","","","","","","","","","","",""
"","","","","","html-keyboard-response","101","679465","0.0-2.0-5.0-0.33","5c1813d5d2790700010a718f","F1","batch6","","null","<p class=block-text>Trial 34 out of 78</p>","null","pattern_show_trial_num","","","","","","","","","","","","","","","","","","","","","","","","",""
"","","","","","image-keyboard-response","102","680647","0.0-2.0-5.0-1.33","5c1813d5d2790700010a718f","F1","batch6","","1180.8999999985099","stim/yes_49_hor_w1_b.png","f","pattern_response","true","f","pattern_70","1180.8999999985099","true","29","","","","","","","","","","","","","","","","","","",""
"","","","","","html-keyboard-response","103","681971","0.0-2.0-5.0-0.34","5c1813d5d2790700010a718f","F1","batch6","","null","<p class=block-text>Trial 35 out of 78</p>","null","pattern_show_trial_num","","","","","","","","","","","","","","","","","","","","","","","","",""
"","","","","","image-keyboard-response","104","684672","0.0-2.0-5.0-1.34","5c1813d5d2790700010a718f","F1","batch6","","2699.60000000149","stim/yes_51_dia_b1.png","f","pattern_response","true","f","pattern_72","2699.60000000149","true","30","","","","","","","","","","","","","","","","","","",""
"","","","","","html-keyboard-response","105","685995","0.0-2.0-5.0-0.35","5c1813d5d2790700010a718f","F1","batch6","","null","<p class=block-text>Trial 36 out of 78</p>","null","pattern_show_trial_num","","","","","","","","","","","","","","","","","","","","","","","","",""
"","","","","","image-keyboard-response","106","687189","0.0-2.0-5.0-1.35","5c1813d5d2790700010a718f","F1","batch6","","1192.5","stim/no_12_1.png","j","pattern_response","true","j","pattern_01","1192.5","true","31","","","","","","","","","","","","","","","","","","",""
"","","","","","html-keyboard-response","107","688501","0.0-2.0-5.0-0.36","5c1813d5d2790700010a718f","F1","batch6","","null","<p class=block-text>Trial 37 out of 78</p>","null","pattern_show_trial_num","","","","","","","","","","","","","","","","","","","","","","","","",""
"","","","","","image-keyboard-response","108","691904","0.0-2.0-5.0-1.36","5c1813d5d2790700010a718f","F1","batch6","","3401.300000000745","stim/yes_63_dia_b1.png","f","pattern_response","true","f","pattern_78","3401.300000000745","true","32","","","","","","","","","","","","","","","","","","",""
"","","","","","html-keyboard-response","109","693217","0.0-2.0-5.0-0.37","5c1813d5d2790700010a718f","F1","batch6","","null","<p class=block-text>Trial 38 out of 78</p>","null","pattern_show_trial_num","","","","","","","","","","","","","","","","","","","","","","","","",""
"","","","","","image-keyboard-response","110","694536","0.0-2.0-5.0-1.37","5c1813d5d2790700010a718f","F1","batch6","","1317.8999999985099","stim/no_15_1_w.png","j","pattern_response","true","j","pattern_03","1317.8999999985099","true","33","","","","","","","","","","","","","","","","","","",""
"","","","","","html-keyboard-response","111","695852","0.0-2.0-5.0-0.38","5c1813d5d2790700010a718f","F1","batch6","","null","<p class=block-text>Trial 39 out of 78</p>","null","pattern_show_trial_num","","","","","","","","","","","","","","","","","","","","","","","","",""
"","","","","","image-keyboard-response","112","699313","0.0-2.0-5.0-1.38","5c1813d5d2790700010a718f","F1","batch6","","3459.10000000149","stim/no_33_1_b.png","j","pattern_response","true","j","pattern_15","3459.10000000149","true","34","","","","","","","","","","","","","","","","","","",""
"","","","","","image-keyboard-response","113","703310","0.0-2.0-6.0","5c1813d5d2790700010a718f","F1","batch6","","3492.5","stim/empty_board.png","j","attention_check","true","j","","","","","500","[""f"",""j""]","","","","","","","","","","","","","","","","",""
"","","","","","html-keyboard-response","114","704122","0.0-2.0-7.0-0.0","5c1813d5d2790700010a718f","F1","batch6","","null","<p class=block-text>Trial 40 out of 78</p>","null","pattern_show_trial_num","","","","","","","","","","","","","","","","","","","","","","","","",""
"","","","","","image-keyboard-response","115","707536","0.0-2.0-7.0-1.0","5c1813d5d2790700010a718f","F1","batch6","","3412.800000000745","stim/no_62_1_w.png","j","pattern_response","true","j","pattern_36","3412.800000000745","true","35","","","","","","","","","","","","","","","","","","",""
"","","","","","html-keyboard-response","116","708843","0.0-2.0-7.0-0.1","5c1813d5d2790700010a718f","F1","batch6","","null","<p class=block-text>Trial 41 out of 78</p>","null","pattern_show_trial_num","","","","","","","","","","","","","","","","","","","","","","","","",""
"","","","","","image-keyboard-response","117","712661","0.0-2.0-7.0-1.1","5c1813d5d2790700010a718f","F1","batch6","","3817","stim/no_44_1.png","j","pattern_response","true","j","pattern_24","3817","true","36","","","","","","","","","","","","","","","","","","",""
"","","","","","html-keyboard-response","118","713987","0.0-2.0-7.0-0.2","5c1813d5d2790700010a718f","F1","batch6","","null","<p class=block-text>Trial 42 out of 78</p>","null","pattern_show_trial_num","","","","","","","","","","","","","","","","","","","","","","","","",""
"","","","","","image-keyboard-response","119","714900","0.0-2.0-7.0-1.2","5c1813d5d2790700010a718f","F1","batch6","","911.0999999977648","stim/no_32_1_w.png","j","pattern_response","true","j","pattern_14","911.0999999977648","true","37","","","","","","","","","","","","","","","","","","",""
"","","","","","html-keyboard-response","120","716208","0.0-2.0-7.0-0.3","5c1813d5d2790700010a718f","F1","batch6","","null","<p class=block-text>Trial 43 out of 78</p>","null","pattern_show_trial_num","","","","","","","","","","","","","","","","","","","","","","","","",""
"","","","","","image-keyboard-response","121","718743","0.0-2.0-7.0-1.3","5c1813d5d2790700010a718f","F1","batch6","","2533.400000002235","stim/yes_29_ver_w1.png","j","pattern_response","false","f","pattern_53","2533.400000002235","false","37","","","","","","","","","","","","","","","","","","",""
"","","","","","html-keyboard-response","122","720061","0.0-2.0-7.0-0.4","5c1813d5d2790700010a718f","F1","batch6","","null","<p class=block-text>Trial 44 out of 78</p>","null","pattern_show_trial_num","","","","","","","","","","","","","","","","","","","","","","","","",""
"","","","","","image-keyboard-response","123","721066","0.0-2.0-7.0-1.4","5c1813d5d2790700010a718f","F1","batch6","","1004.1999999992549","stim/no_20_1_w.png","j","pattern_response","true","j","pattern_06","1004.1999999992549","true","38","","","","","","","","","","","","","","","","","","",""
"","","","","","html-keyboard-response","124","722380","0.0-2.0-7.0-0.5","5c1813d5d2790700010a718f","F1","batch6","","null","<p class=block-text>Trial 45 out of 78</p>","null","pattern_show_trial_num","","","","","","","","","","","","","","","","","","","","","","","","",""
"","","","","","image-keyboard-response","125","725473","0.0-2.0-7.0-1.5","5c1813d5d2790700010a718f","F1","batch6","","3091","stim/no_52_1.png","j","pattern_response","true","j","pattern_32","3091","true","39","","","","","","","","","","","","","","","","","","",""
"","","","","","html-keyboard-response","126","726790","0.0-2.0-7.0-0.6","5c1813d5d2790700010a718f","F1","batch6","","null","<p class=block-text>Trial 46 out of 78</p>","null","pattern_show_trial_num","","","","","","","","","","","","","","","","","","","","","","","","",""
"","","","","","image-keyboard-response","127","728238","0.0-2.0-7.0-1.6","5c1813d5d2790700010a718f","F1","batch6","","1447.0999999977648","stim/yes_50_dia_w1.png","f","pattern_response","true","f","pattern_71","1447.0999999977648","true","40","","","","","","","","","","","","","","","","","","",""
"","","","","","html-keyboard-response","128","729543","0.0-2.0-7.0-0.7","5c1813d5d2790700010a718f","F1","batch6","","null","<p class=block-text>Trial 47 out of 78</p>","null","pattern_show_trial_num","","","","","","","","","","","","","","","","","","","","","","","","",""
"","","","","","image-keyboard-response","129","731069","0.0-2.0-7.0-1.7","5c1813d5d2790700010a718f","F1","batch6","","1525.199999999255","stim/yes_45_hor_b2_b.png","f","pattern_response","true","f","pattern_67","1525.199999999255","true","41","","","","","","","","","","","","","","","","","","",""
"","","","","","html-keyboard-response","130","732372","0.0-2.0-7.0-0.8","5c1813d5d2790700010a718f","F1","batch6","","null","<p class=block-text>Trial 48 out of 78</p>","null","pattern_show_trial_num","","","","","","","","","","","","","","","","","","","","","","","","",""
"","","","","","image-keyboard-response","131","735212","0.0-2.0-7.0-1.8","5c1813d5d2790700010a718f","F1","batch6","","2839.199999999255","stim/no_42_1_w.png","j","pattern_response","true","j","pattern_22","2839.199999999255","true","42","","","","","","","","","","","","","","","","","","",""
"","","","","","html-keyboard-response","132","736537","0.0-2.0-7.0-0.9","5c1813d5d2790700010a718f","F1","batch6","","null","<p class=block-text>Trial 49 out of 78</p>","null","pattern_show_trial_num","","","","","","","","","","","","","","","","","","","","","","","","",""
"","","","","","image-keyboard-response","133","737443","0.0-2.0-7.0-1.9","5c1813d5d2790700010a718f","F1","batch6","","904","stim/yes_17_dia_w1.png","f","pattern_response","true","f","pattern_45","904","true","43","","","","","","","","","","","","","","","","","","",""
"","","","","","html-keyboard-response","134","738766","0.0-2.0-7.0-0.10","5c1813d5d2790700010a718f","F1","batch6","","null","<p class=block-text>Trial 50 out of 78</p>","null","pattern_show_trial_num","","","","","","","","","","","","","","","","","","","","","","","","",""
"","","","","","image-keyboard-response","135","740654","0.0-2.0-7.0-1.10","5c1813d5d2790700010a718f","F1","batch6","","1887.199999999255","stim/yes_52_ver_w1.png","f","pattern_response","true","f","pattern_73","1887.199999999255","true","44","","","","","","","","","","","","","","","","","","",""
"","","","","","html-keyboard-response","136","741973","0.0-2.0-7.0-0.11","5c1813d5d2790700010a718f","F1","batch6","","null","<p class=block-text>Trial 51 out of 78</p>","null","pattern_show_trial_num","","","","","","","","","","","","","","","","","","","","","","","","",""
"","","","","","image-keyboard-response","137","743403","0.0-2.0-7.0-1.11","5c1813d5d2790700010a718f","F1","batch6","","1427.800000000745","stim/no_17_1_w.png","j","pattern_response","true","j","pattern_04","1427.800000000745","true","45","","","","","","","","","","","","","","","","","","",""
"","","","","","html-keyboard-response","138","744718","0.0-2.0-7.0-0.12","5c1813d5d2790700010a718f","F1","batch6","","null","<p class=block-text>Trial 52 out of 78</p>","null","pattern_show_trial_num","","","","","","","","","","","","","","","","","","","","","","","","",""
"","","","","","image-keyboard-response","139","745495","0.0-2.0-7.0-1.12","5c1813d5d2790700010a718f","F1","batch6","","776.3000000007451","stim/yes_22_ver_w1.png","f","pattern_response","true","f","pattern_47","776.3000000007451","true","46","","","","","","","","","","","","","","","","","","",""
"","","","","","html-keyboard-response","140","746819","0.0-2.0-7.0-0.13","5c1813d5d2790700010a718f","F1","batch6","","null","<p class=block-text>Trial 53 out of 78</p>","null","pattern_show_trial_num","","","","","","","","","","","","","","","","","","","","","","","","",""
"","","","","","image-keyboard-response","141","749468","0.0-2.0-7.0-1.13","5c1813d5d2790700010a718f","F1","batch6","","2647.5","stim/yes_67_hor_b1.png","f","pattern_response","true","f","pattern_79","2647.5","true","47","","","","","","","","","","","","","","","","","","",""
"","","","","","html-keyboard-response","142","750789","0.0-2.0-7.0-0.14","5c1813d5d2790700010a718f","F1","batch6","","null","<p class=block-text>Trial 54 out of 78</p>","null","pattern_show_trial_num","","","","","","","","","","","","","","","","","","","","","","","","",""
"","","","","","image-keyboard-response","143","752588","0.0-2.0-7.0-1.14","5c1813d5d2790700010a718f","F1","batch6","","1797.800000000745","stim/no_26_1_w.png","j","pattern_response","true","j","pattern_10","1797.800000000745","true","48","","","","","","","","","","","","","","","","","","",""
"","","","","","html-keyboard-response","144","753905","0.0-2.0-7.0-0.15","5c1813d5d2790700010a718f","F1","batch6","","null","<p class=block-text>Trial 55 out of 78</p>","null","pattern_show_trial_num","","","","","","","","","","","","","","","","","","","","","","","","",""
"","","","","","image-keyboard-response","145","754908","0.0-2.0-7.0-1.15","5c1813d5d2790700010a718f","F1","batch6","","1000.8000000007451","stim/yes_35_dia_b1.png","f","pattern_response","true","f","pattern_57","1000.8000000007451","true","49","","","","","","","","","","","","","","","","","","",""
"","","","","","html-keyboard-response","146","756223","0.0-2.0-7.0-0.16","5c1813d5d2790700010a718f","F1","batch6","","null","<p class=block-text>Trial 56 out of 78</p>","null","pattern_show_trial_num","","","","","","","","","","","","","","","","","","","","","","","","",""
"","","","","","image-keyboard-response","147","758173","0.0-2.0-7.0-1.16","5c1813d5d2790700010a718f","F1","batch6","","1948.5","stim/yes_31_hor_b1.png","f","pattern_response","true","f","pattern_55","1948.5","true","50","","","","","","","","","","","","","","","","","","",""
"","","","","","html-keyboard-response","148","759483","0.0-2.0-7.0-0.17","5c1813d5d2790700010a718f","F1","batch6","","null","<p class=block-text>Trial 57 out of 78</p>","null","pattern_show_trial_num","","","","","","","","","","","","","","","","","","","","","","","","",""
"","","","","","image-keyboard-response","149","760252","0.0-2.0-7.0-1.17","5c1813d5d2790700010a718f","F1","batch6","","767.6999999992549","stim/yes_14_hor_b1_w.png","f","pattern_response","true","f","pattern_43","767.6999999992549","true","51","","","","","","","","","","","","","","","","","","",""
"","","","","","html-keyboard-response","150","761558","0.0-2.0-7.0-0.18","5c1813d5d2790700010a718f","F1","batch6","","null","<p class=block-text>Trial 58 out of 78</p>","null","pattern_show_trial_num","","","","","","","","","","","","","","","","","","","","","","","","",""
"","","","","","image-keyboard-response","151","766794","0.0-2.0-7.0-1.18","5c1813d5d2790700010a718f","F1","batch6","","5234.60000000149","stim/yes_40_dia_b1_b.png","j","pattern_response","false","f","pattern_63","5234.60000000149","false","51","","","","","","","","","","","","","","","","","","",""
"","","","","","html-keyboard-response","152","768110","0.0-2.0-7.0-0.19","5c1813d5d2790700010a718f","F1","batch6","","null","<p class=block-text>Trial 59 out of 78</p>","null","pattern_show_trial_num","","","","","","","","","","","","","","","","","","","","","","","","",""
"","","","","","image-keyboard-response","153","771440","0.0-2.0-7.0-1.19","5c1813d5d2790700010a718f","F1","batch6","","3327.800000000745","stim/no_36_2_w.png","j","pattern_response","true","j","pattern_18","3327.800000000745","true","52","","","","","","","","","","","","","","","","","","",""
"","","","","","html-keyboard-response","154","772766","0.0-2.0-7.0-0.20","5c1813d5d2790700010a718f","F1","batch6","","null","<p class=block-text>Trial 60 out of 78</p>","null","pattern_show_trial_num","","","","","","","","","","","","","","","","","","","","","","","","",""
"","","","","","image-keyboard-response","155","774019","0.0-2.0-7.0-1.20","5c1813d5d2790700010a718f","F1","batch6","","1251.5","stim/no_23_1.png","j","pattern_response","true","j","pattern_08","1251.5","true","53","","","","","","","","","","","","","","","","","","",""
"","","","","","html-keyboard-response","156","775345","0.0-2.0-7.0-0.21","5c1813d5d2790700010a718f","F1","batch6","","null","<p class=block-text>Trial 61 out of 78</p>","null","pattern_show_trial_num","","","","","","","","","","","","","","","","","","","","","","","","",""
"","","","","","image-keyboard-response","157","780032","0.0-2.0-7.0-1.21","5c1813d5d2790700010a718f","F1","batch6","","4686","stim/no_70_2.png","j","pattern_response","true","j","pattern_40","4686","true","54","","","","","","","","","","","","","","","","","","",""
"","","","","","html-keyboard-response","158","781355","0.0-2.0-7.0-0.22","5c1813d5d2790700010a718f","F1","batch6","","null","<p class=block-text>Trial 62 out of 78</p>","null","pattern_show_trial_num","","","","","","","","","","","","","","","","","","","","","","","","",""
"","","","","","image-keyboard-response","159","782272","0.0-2.0-7.0-1.22","5c1813d5d2790700010a718f","F1","batch6","","915.3999999985099","stim/yes_25_hor_b1_b.png","f","pattern_response","true","f","pattern_49","915.3999999985099","true","55","","","","","","","","","","","","","","","","","","",""
"","","","","","html-keyboard-response","160","783579","0.0-2.0-7.0-0.23","5c1813d5d2790700010a718f","F1","batch6","","null","<p class=block-text>Trial 63 out of 78</p>","null","pattern_show_trial_num","","","","","","","","","","","","","","","","","","","","","","","","",""
"","","","","","image-keyboard-response","161","788759","0.0-2.0-7.0-1.23","5c1813d5d2790700010a718f","F1","batch6","","5178.5","stim/no_65_1_b.png","j","pattern_response","true","j","pattern_38","5178.5","true","56","","","","","","","","","","","","","","","","","","",""
"","","","","","html-keyboard-response","162","790077","0.0-2.0-7.0-0.24","5c1813d5d2790700010a718f","F1","batch6","","null","<p class=block-text>Trial 64 out of 78</p>","null","pattern_show_trial_num","","","","","","","","","","","","","","","","","","","","","","","","",""
"","","","","","image-keyboard-response","163","792131","0.0-2.0-7.0-1.24","5c1813d5d2790700010a718f","F1","batch6","","2053","stim/no_29_1_b.png","j","pattern_response","true","j","pattern_12","2053","true","57","","","","","","","","","","","","","","","","","","",""
"","","","","","html-keyboard-response","164","793458","0.0-2.0-7.0-0.25","5c1813d5d2790700010a718f","F1","batch6","","null","<p class=block-text>Trial 65 out of 78</p>","null","pattern_show_trial_num","","","","","","","","","","","","","","","","","","","","","","","","",""
"","","","","","image-keyboard-response","165","796381","0.0-2.0-7.0-1.25","5c1813d5d2790700010a718f","F1","batch6","","2922.10000000149","stim/no_38_1_b.png","j","pattern_response","true","j","pattern_20","2922.10000000149","true","58","","","","","","","","","","","","","","","","","","",""
"","","","","","html-keyboard-response","166","797702","0.0-2.0-7.0-0.26","5c1813d5d2790700010a718f","F1","batch6","","null","<p class=block-text>Trial 66 out of 78</p>","null","pattern_show_trial_num","","","","","","","","","","","","","","","","","","","","","","","","",""
"","","","","","image-keyboard-response","167","798730","0.0-2.0-7.0-1.26","5c1813d5d2790700010a718f","F1","batch6","","1026.800000000745","stim/yes_28_ver_b1.png","f","pattern_response","true","f","pattern_51","1026.800000000745","true","59","","","","","","","","","","","","","","","","","","",""
"","","","","","html-keyboard-response","168","800047","0.0-2.0-7.0-0.27","5c1813d5d2790700010a718f","F1","batch6","","null","<p class=block-text>Trial 67 out of 78</p>","null","pattern_show_trial_num","","","","","","","","","","","","","","","","","","","","","","","","",""
"","","","","","image-keyboard-response","169","802435","0.0-2.0-7.0-1.27","5c1813d5d2790700010a718f","F1","batch6","","2387.400000002235","stim/no_34_1_b.png","j","pattern_response","true","j","pattern_16","2387.400000002235","true","60","","","","","","","","","","","","","","","","","","",""
"","","","","","html-keyboard-response","170","803743","0.0-2.0-7.0-0.28","5c1813d5d2790700010a718f","F1","batch6","","null","<p class=block-text>Trial 68 out of 78</p>","null","pattern_show_trial_num","","","","","","","","","","","","","","","","","","","","","","","","",""
"","","","","","image-keyboard-response","171","808052","0.0-2.0-7.0-1.28","5c1813d5d2790700010a718f","F1","batch6","","4307.300000000745","stim/no_50_1.png","j","pattern_response","true","j","pattern_30","4307.300000000745","true","61","","","","","","","","","","","","","","","","","","",""
"","","","","","html-keyboard-response","172","809370","0.0-2.0-7.0-0.29","5c1813d5d2790700010a718f","F1","batch6","","null","<p class=block-text>Trial 69 out of 78</p>","null","pattern_show_trial_num","","","","","","","","","","","","","","","","","","","","","","","","",""
"","","","","","image-keyboard-response","173","811494","0.0-2.0-7.0-1.29","5c1813d5d2790700010a718f","F1","batch6","","2122.7000000029802","stim/yes_55_hor_w1_w.png","j","pattern_response","false","f","pattern_75","2122.7000000029802","false","61","","","","","","","","","","","","","","","","","","",""
"","","","","","html-keyboard-response","174","812803","0.0-2.0-7.0-0.30","5c1813d5d2790700010a718f","F1","batch6","","null","<p class=block-text>Trial 70 out of 78</p>","null","pattern_show_trial_num","","","","","","","","","","","","","","","","","","","","","","","","",""
"","","","","","image-keyboard-response","175","813880","0.0-2.0-7.0-1.30","5c1813d5d2790700010a718f","F1","batch6","","1076","stim/yes_43_ver_w1_w.png","f","pattern_response","true","f","pattern_65","1076","true","62","","","","","","","","","","","","","","","","","","",""
"","","","","","html-keyboard-response","176","815198","0.0-2.0-7.0-0.31","5c1813d5d2790700010a718f","F1","batch6","","null","<p class=block-text>Trial 71 out of 78</p>","null","pattern_show_trial_num","","","","","","","","","","","","","","","","","","","","","","","","",""
"","","","","","image-keyboard-response","177","818471","0.0-2.0-7.0-1.31","5c1813d5d2790700010a718f","F1","batch6","","3272.099999997765","stim/no_48_1_w.png","j","pattern_response","true","j","pattern_28","3272.099999997765","true","63","","","","","","","","","","","","","","","","","","",""
"","","","","","html-keyboard-response","178","819782","0.0-2.0-7.0-0.32","5c1813d5d2790700010a718f","F1","batch6","","null","<p class=block-text>Trial 72 out of 78</p>","null","pattern_show_trial_num","","","","","","","","","","","","","","","","","","","","","","","","",""
"","","","","","image-keyboard-response","179","825039","0.0-2.0-7.0-1.32","5c1813d5d2790700010a718f","F1","batch6","","5255.199999999255","stim/yes_60_ver_b1_b.png","j","pattern_response","false","f","pattern_77","5255.199999999255","false","63","","","","","","","","","","","","","","","","","","",""
"","","","","","html-keyboard-response","180","826348","0.0-2.0-7.0-0.33","5c1813d5d2790700010a718f","F1","batch6","","null","<p class=block-text>Trial 73 out of 78</p>","null","pattern_show_trial_num","","","","","","","","","","","","","","","","","","","","","","","","",""
"","","","","","image-keyboard-response","181","828466","0.0-2.0-7.0-1.33","5c1813d5d2790700010a718f","F1","batch6","","2116.400000002235","stim/yes_37_dia_w1.png","j","pattern_response","false","f","pattern_59","2116.400000002235","false","63","","","","","","","","","","","","","","","","","","",""
"","","","","","html-keyboard-response","182","829785","0.0-2.0-7.0-0.34","5c1813d5d2790700010a718f","F1","batch6","","null","<p class=block-text>Trial 74 out of 78</p>","null","pattern_show_trial_num","","","","","","","","","","","","","","","","","","","","","","","","",""
"","","","","","image-keyboard-response","183","830626","0.0-2.0-7.0-1.34","5c1813d5d2790700010a718f","F1","batch6","","840","stim/yes_38_hor_b1_b.png","f","pattern_response","true","f","pattern_61","840","true","64","","","","","","","","","","","","","","","","","","",""
"","","","","","html-keyboard-response","184","831942","0.0-2.0-7.0-0.35","5c1813d5d2790700010a718f","F1","batch6","","null","<p class=block-text>Trial 75 out of 78</p>","null","pattern_show_trial_num","","","","","","","","","","","","","","","","","","","","","","","","",""
"","","","","","image-keyboard-response","185","832988","0.0-2.0-7.0-1.35","5c1813d5d2790700010a718f","F1","batch6","","1044.7999999970198","stim/no_13_2_b.png","j","pattern_response","true","j","pattern_02","1044.7999999970198","true","65","","","","","","","","","","","","","","","","","","",""
"","","","","","html-keyboard-response","186","834303","0.0-2.0-7.0-0.36","5c1813d5d2790700010a718f","F1","batch6","","null","<p class=block-text>Trial 76 out of 78</p>","null","pattern_show_trial_num","","","","","","","","","","","","","","","","","","","","","","","","",""
"","","","","","image-keyboard-response","187","837858","0.0-2.0-7.0-1.36","5c1813d5d2790700010a718f","F1","batch6","","3553.800000000745","stim/no_46_1_b.png","j","pattern_response","true","j","pattern_26","3553.800000000745","true","66","","","","","","","","","","","","","","","","","","",""
"","","","","","html-keyboard-response","188","839171","0.0-2.0-7.0-0.37","5c1813d5d2790700010a718f","F1","batch6","","null","<p class=block-text>Trial 77 out of 78</p>","null","pattern_show_trial_num","","","","","","","","","","","","","","","","","","","","","","","","",""
"","","","","","image-keyboard-response","189","841065","0.0-2.0-7.0-1.37","5c1813d5d2790700010a718f","F1","batch6","","1891.5","stim/yes_48_dia_w1_w.png","f","pattern_response","true","f","pattern_69","1891.5","true","67","","","","","","","","","","","","","","","","","","",""
"","","","","","html-keyboard-response","190","842376","0.0-2.0-7.0-0.38","5c1813d5d2790700010a718f","F1","batch6","","null","<p class=block-text>Trial 78 out of 78</p>","null","pattern_show_trial_num","","","","","","","","","","","","","","","","","","","","","","","","",""
"","","","","","image-keyboard-response","191","845948","0.0-2.0-7.0-1.38","5c1813d5d2790700010a718f","F1","batch6","","3570.10000000149","stim/no_55_1_w.png","j","pattern_response","true","j","pattern_34","3570.10000000149","true","68","","","","","","","","","","","","","","","","","","",""
"","","","","","html-button-response","192","849790","0.0-2.0-8.0","5c1813d5d2790700010a718f","F1","batch6","","3327.89999999851","<p class = block-text>This concludes the 4-in-a-row detection game.Thank you for your responses!<br>
            You responded correctly on 87% of the trials.<br>
            When you are ready, press ""Continue"" button to continue </p>","0","","","","","","","","","","","","","","","","","","","","","","","","","",""
"true","","","","","fullscreen","193","852598","0.0-3.0-0.0","5c1813d5d2790700010a718f","F1","batch6","","","","","spm_fullscreen","","","","","","","","","","","","","","","","","","","","","","","","",""
"","","","","","html-button-response","194","856912","0.0-3.0-1.0","5c1813d5d2790700010a718f","F1","batch6","","4312.39999999851","<p class = block-text><b>Instructions</b> <br>This is a widely used intelligence test in research. <br>In this test, a figure with a missing piece will be presented.<br>Below the figure are alternative pieces to complete the figure, only one of which is correct.<br> Different figures might involve different principles for obtaining the missing piece<br>Your job is to select the most logical piece to complete the figure.</p>","0","","","","","","","","","","","","","","","","","","","","","","","","","",""
"","","","","","html-keyboard-response","195","857723","0.0-3.0-2.0-0.0","5c1813d5d2790700010a718f","F1","batch6","","null","<p class=block-text>Trial 1 out of 60</p>","null","spm_show_trial_num","","","","","","","","","","","","","","","","","","","","","","","","",""
"","","","","","image-button-response","196","866212","0.0-3.0-2.0-1.0","5c1813d5d2790700010a718f","F1","batch6","","8486.800000000745","img/question_1_1.jpeg","3","spm_respsonse","1","4","mat_01","","","","","","1","8486.800000000745","","","","","","","","","","","","","","",""
"","","","","","html-keyboard-response","197","867290","0.0-3.0-2.0-0.1","5c1813d5d2790700010a718f","F1","batch6","","null","<p class=block-text>Trial 2 out of 60</p>","null","spm_show_trial_num","","","","","","","","","","","","","","","","","","","","","","","","",""
"","","","","","image-button-response","198","869948","0.0-3.0-2.0-1.1","5c1813d5d2790700010a718f","F1","batch6","","2656","img/question_1_2.jpeg","4","spm_respsonse","1","5","mat_02","","","","","","1","2656","","","","","","","","","","","","","","",""
"","","","","","html-keyboard-response","199","871014","0.0-3.0-2.0-0.2","5c1813d5d2790700010a718f","F1","batch6","","null","<p class=block-text>Trial 3 out of 60</p>","null","spm_show_trial_num","","","","","","","","","","","","","","","","","","","","","","","","",""
"","","","","","image-button-response","200","875034","0.0-3.0-2.0-1.2","5c1813d5d2790700010a718f","F1","batch6","","4017.89999999851","img/question_1_3.jpeg","0","spm_respsonse","1","1","mat_03","","","","","","1","4017.89999999851","","","","","","","","","","","","","","",""
"","","","","","html-keyboard-response","201","876110","0.0-3.0-2.0-0.3","5c1813d5d2790700010a718f","F1","batch6","","null","<p class=block-text>Trial 4 out of 60</p>","null","spm_show_trial_num","","","","","","","","","","","","","","","","","","","","","","","","",""
"","","","","","image-button-response","202","879579","0.0-3.0-2.0-1.3","5c1813d5d2790700010a718f","F1","batch6","","3467.5","img/question_1_4.jpeg","1","spm_respsonse","1","2","mat_04","","","","","","1","3467.5","","","","","","","","","","","","","","",""
"","","","","","html-keyboard-response","203","880657","0.0-3.0-2.0-0.4","5c1813d5d2790700010a718f","F1","batch6","","null","<p class=block-text>Trial 5 out of 60</p>","null","spm_show_trial_num","","","","","","","","","","","","","","","","","","","","","","","","",""
"","","","","","image-button-response","204","883837","0.0-3.0-2.0-1.4","5c1813d5d2790700010a718f","F1","batch6","","3178.5","img/question_1_5.jpeg","5","spm_respsonse","1","6","mat_05","","","","","","1","3178.5","","","","","","","","","","","","","","",""
"","","","","","html-keyboard-response","205","884913","0.0-3.0-2.0-0.5","5c1813d5d2790700010a718f","F1","batch6","","null","<p class=block-text>Trial 6 out of 60</p>","null","spm_show_trial_num","","","","","","","","","","","","","","","","","","","","","","","","",""
"","","","","","image-button-response","206","889530","0.0-3.0-2.0-1.5","5c1813d5d2790700010a718f","F1","batch6","","4615.599999997765","img/question_1_6.jpeg","2","spm_respsonse","1","3","mat_06","","","","","","1","4615.599999997765","","","","","","","","","","","","","","",""
"","","","","","html-keyboard-response","207","890606","0.0-3.0-2.0-0.6","5c1813d5d2790700010a718f","F1","batch6","","null","<p class=block-text>Trial 7 out of 60</p>","null","spm_show_trial_num","","","","","","","","","","","","","","","","","","","","","","","","",""
"","","","","","image-button-response","208","897098","0.0-3.0-2.0-1.6","5c1813d5d2790700010a718f","F1","batch6","","6488.89999999851","img/question_1_7.jpeg","5","spm_respsonse","1","6","mat_07","","","","","","1","6488.89999999851","","","","","","","","","","","","","","",""
"","","","","","html-keyboard-response","209","898164","0.0-3.0-2.0-0.7","5c1813d5d2790700010a718f","F1","batch6","","null","<p class=block-text>Trial 8 out of 60</p>","null","spm_show_trial_num","","","","","","","","","","","","","","","","","","","","","","","","",""
"","","","","","image-button-response","210","904024","0.0-3.0-2.0-1.7","5c1813d5d2790700010a718f","F1","batch6","","5857.800000000745","img/question_1_8.jpeg","0","spm_respsonse","0","2","mat_08","","","","","","0","5857.800000000745","","","","","","","","","","","","","","",""
"","","","","","html-keyboard-response","211","905092","0.0-3.0-2.0-0.8","5c1813d5d2790700010a718f","F1","batch6","","null","<p class=block-text>Trial 9 out of 60</p>","null","spm_show_trial_num","","","","","","","","","","","","","","","","","","","","","","","","",""
"","","","","","image-button-response","212","910549","0.0-3.0-2.0-1.8","5c1813d5d2790700010a718f","F1","batch6","","5455.60000000149","img/question_1_9.jpeg","0","spm_respsonse","1","1","mat_09","","","","","","1","5455.60000000149","","","","","","","","","","","","","","",""
"","","","","","html-keyboard-response","213","911623","0.0-3.0-2.0-0.9","5c1813d5d2790700010a718f","F1","batch6","","null","<p class=block-text>Trial 10 out of 60</p>","null","spm_show_trial_num","","","","","","","","","","","","","","","","","","","","","","","","",""
"","","","","","image-button-response","214","916408","0.0-3.0-2.0-1.9","5c1813d5d2790700010a718f","F1","batch6","","4783.199999999255","img/question_1_10.jpeg","2","spm_respsonse","1","3","mat_10","","","","","","1","4783.199999999255","","","","","","","","","","","","","","",""
"","","","","","html-keyboard-response","215","917479","0.0-3.0-2.0-0.10","5c1813d5d2790700010a718f","F1","batch6","","null","<p class=block-text>Trial 11 out of 60</p>","null","spm_show_trial_num","","","","","","","","","","","","","","","","","","","","","","","","",""
"","","","","","image-button-response","216","927888","0.0-3.0-2.0-1.10","5c1813d5d2790700010a718f","F1","batch6","","10407.5","img/question_1_11.jpeg","3","spm_respsonse","1","4","mat_11","","","","","","1","10407.5","","","","","","","","","","","","","","",""
"","","","","","html-keyboard-response","217","928952","0.0-3.0-2.0-0.11","5c1813d5d2790700010a718f","F1","batch6","","null","<p class=block-text>Trial 12 out of 60</p>","null","spm_show_trial_num","","","","","","","","","","","","","","","","","","","","","","","","",""
"","","","","","image-button-response","218","941866","0.0-3.0-2.0-1.11","5c1813d5d2790700010a718f","F1","batch6","","12912.199999999255","img/question_1_12.jpeg","4","spm_respsonse","1","5","mat_12","","","","","","1","12912.199999999255","","","","","","","","","","","","","","",""
"","","","","","html-keyboard-response","219","942944","0.0-3.0-2.0-0.12","5c1813d5d2790700010a718f","F1","batch6","","null","<p class=block-text>Trial 13 out of 60</p>","null","spm_show_trial_num","","","","","","","","","","","","","","","","","","","","","","","","",""
"","","","","","image-button-response","220","945620","0.0-3.0-2.0-1.12","5c1813d5d2790700010a718f","F1","batch6","","2674","img/question_2_1.jpeg","1","spm_respsonse","1","2","mat_13","","","","","","1","2674","","","","","","","","","","","","","","",""
"","","","","","html-keyboard-response","221","946695","0.0-3.0-2.0-0.13","5c1813d5d2790700010a718f","F1","batch6","","null","<p class=block-text>Trial 14 out of 60</p>","null","spm_show_trial_num","","","","","","","","","","","","","","","","","","","","","","","","",""
"","","","","","image-button-response","222","950784","0.0-3.0-2.0-1.13","5c1813d5d2790700010a718f","F1","batch6","","4087.5","img/question_2_2.jpeg","5","spm_respsonse","1","6","mat_14","","","","","","1","4087.5","","","","","","","","","","","","","","",""
"","","","","","html-keyboard-response","223","951861","0.0-3.0-2.0-0.14","5c1813d5d2790700010a718f","F1","batch6","","null","<p class=block-text>Trial 15 out of 60</p>","null","spm_show_trial_num","","","","","","","","","","","","","","","","","","","","","","","","",""
"","","","","","image-button-response","224","956151","0.0-3.0-2.0-1.14","5c1813d5d2790700010a718f","F1","batch6","","4288.699999999255","img/question_2_3.jpeg","0","spm_respsonse","1","1","mat_15","","","","","","1","4288.699999999255","","","","","","","","","","","","","","",""
"","","","","","html-keyboard-response","225","957225","0.0-3.0-2.0-0.15","5c1813d5d2790700010a718f","F1","batch6","","null","<p class=block-text>Trial 16 out of 60</p>","null","spm_show_trial_num","","","","","","","","","","","","","","","","","","","","","","","","",""
"","","","","","image-button-response","226","961164","0.0-3.0-2.0-1.15","5c1813d5d2790700010a718f","F1","batch6","","3936.89999999851","img/question_2_4.jpeg","1","spm_respsonse","1","2","mat_16","","","","","","1","3936.89999999851","","","","","","","","","","","","","","",""
"","","","","","html-keyboard-response","227","962244","0.0-3.0-2.0-0.16","5c1813d5d2790700010a718f","F1","batch6","","null","<p class=block-text>Trial 17 out of 60</p>","null","spm_show_trial_num","","","","","","","","","","","","","","","","","","","","","","","","",""
"","","","","","image-button-response","228","969513","0.0-3.0-2.0-1.16","5c1813d5d2790700010a718f","F1","batch6","","7266.800000000745","img/question_2_5.jpeg","0","spm_respsonse","1","1","mat_17","","","","","","1","7266.800000000745","","","","","","","","","","","","","","",""
"","","","","","html-keyboard-response","229","970587","0.0-3.0-2.0-0.17","5c1813d5d2790700010a718f","F1","batch6","","null","<p class=block-text>Trial 18 out of 60</p>","null","spm_show_trial_num","","","","","","","","","","","","","","","","","","","","","","","","",""
"","","","","","image-button-response","230","976634","0.0-3.0-2.0-1.17","5c1813d5d2790700010a718f","F1","batch6","","6045.199999999255","img/question_2_6.jpeg","2","spm_respsonse","1","3","mat_18","","","","","","1","6045.199999999255","","","","","","","","","","","","","","",""
"","","","","","html-keyboard-response","231","977710","0.0-3.0-2.0-0.18","5c1813d5d2790700010a718f","F1","batch6","","null","<p class=block-text>Trial 19 out of 60</p>","null","spm_show_trial_num","","","","","","","","","","","","","","","","","","","","","","","","",""
"","","","","","image-button-response","232","987547","0.0-3.0-2.0-1.18","5c1813d5d2790700010a718f","F1","batch6","","9834.79999999702","img/question_2_7.jpeg","4","spm_respsonse","1","5","mat_19","","","","","","1","9834.79999999702","","","","","","","","","","","","","","",""
"","","","","","html-keyboard-response","233","988604","0.0-3.0-2.0-0.19","5c1813d5d2790700010a718f","F1","batch6","","null","<p class=block-text>Trial 20 out of 60</p>","null","spm_show_trial_num","","","","","","","","","","","","","","","","","","","","","","","","",""
"","","","","","image-button-response","234","993331","0.0-3.0-2.0-1.19","5c1813d5d2790700010a718f","F1","batch6","","4725.800000000745","img/question_2_8.jpeg","5","spm_respsonse","1","6","mat_20","","","","","","1","4725.800000000745","","","","","","","","","","","","","","",""
"","","","","","html-keyboard-response","235","994409","0.0-3.0-2.0-0.20","5c1813d5d2790700010a718f","F1","batch6","","null","<p class=block-text>Trial 21 out of 60</p>","null","spm_show_trial_num","","","","","","","","","","","","","","","","","","","","","","","","",""
"","","","","","image-button-response","236","998363","0.0-3.0-2.0-1.20","5c1813d5d2790700010a718f","F1","batch6","","3953","img/question_2_9.jpeg","0","spm_respsonse","0","4","mat_21","","","","","","0","3953","","","","","","","","","","","","","","",""
"","","","","","html-keyboard-response","237","999439","0.0-3.0-2.0-0.21","5c1813d5d2790700010a718f","F1","batch6","","null","<p class=block-text>Trial 22 out of 60</p>","null","spm_show_trial_num","","","","","","","","","","","","","","","","","","","","","","","","",""
"","","","","","image-button-response","238","1004234","0.0-3.0-2.0-1.21","5c1813d5d2790700010a718f","F1","batch6","","4793.199999999255","img/question_2_10.jpeg","2","spm_respsonse","1","3","mat_22","","","","","","1","4793.199999999255","","","","","","","","","","","","","","",""
"","","","","","html-keyboard-response","239","1005308","0.0-3.0-2.0-0.22","5c1813d5d2790700010a718f","F1","batch6","","null","<p class=block-text>Trial 23 out of 60</p>","null","spm_show_trial_num","","","","","","","","","","","","","","","","","","","","","","","","",""
"","","","","","image-button-response","240","1010759","0.0-3.0-2.0-1.22","5c1813d5d2790700010a718f","F1","batch6","","5448.5","img/question_2_11.jpeg","3","spm_respsonse","1","4","mat_23","","","","","","1","5448.5","","","","","","","","","","","","","","",""
"","","","","","html-keyboard-response","241","1011827","0.0-3.0-2.0-0.23","5c1813d5d2790700010a718f","F1","batch6","","null","<p class=block-text>Trial 24 out of 60</p>","null","spm_show_trial_num","","","","","","","","","","","","","","","","","","","","","","","","",""
"","","","","","image-button-response","242","1020762","0.0-3.0-2.0-1.23","5c1813d5d2790700010a718f","F1","batch6","","8933.5","img/question_2_12.jpeg","4","spm_respsonse","1","5","mat_24","","","","","","1","8933.5","","","","","","","","","","","","","","",""
"","","","","","html-button-response","243","1022993","0.0-3.0-3.0","5c1813d5d2790700010a718f","F1","batch6","","1967.1000000014901","<p class = block-text>Attention check: Please choose 1<br></p>","0","attention_check","true","","","","","","","","","","","","","","","","","","","","","","","",""
"","","","","","html-keyboard-response","244","1023806","0.0-3.0-4.0-0.0","5c1813d5d2790700010a718f","F1","batch6","","null","<p class=block-text>Trial 25 out of 60</p>","null","spm_show_trial_num","","","","","","","","","","","","","","","","","","","","","","","","",""
"","","","","","image-button-response","245","1028642","0.0-3.0-4.0-1.0","5c1813d5d2790700010a718f","F1","batch6","","4834.300000000745","img/question_3_1.jpeg","7","spm_respsonse","1","8","mat_25","","","","","","1","4834.300000000745","","","","","","","","","","","","","","",""
"","","","","","html-keyboard-response","246","1029717","0.0-3.0-4.0-0.1","5c1813d5d2790700010a718f","F1","batch6","","null","<p class=block-text>Trial 26 out of 60</p>","null","spm_show_trial_num","","","","","","","","","","","","","","","","","","","","","","","","",""
"","","","","","image-button-response","247","1039420","0.0-3.0-4.0-1.1","5c1813d5d2790700010a718f","F1","batch6","","9702.10000000149","img/question_3_2.jpeg","1","spm_respsonse","1","2","mat_26","","","","","","1","9702.10000000149","","","","","","","","","","","","","","",""
"","","","","","html-keyboard-response","248","1040484","0.0-3.0-4.0-0.2","5c1813d5d2790700010a718f","F1","batch6","","null","<p class=block-text>Trial 27 out of 60</p>","null","spm_show_trial_num","","","","","","","","","","","","","","","","","","","","","","","","",""
"","","","","","image-button-response","249","1049409","0.0-3.0-4.0-1.2","5c1813d5d2790700010a718f","F1","batch6","","8922.900000002235","img/question_3_3.jpeg","2","spm_respsonse","1","3","mat_27","","","","","","1","8922.900000002235","","","","","","","","","","","","","","",""
"","","","","","html-keyboard-response","250","1050485","0.0-3.0-4.0-0.3","5c1813d5d2790700010a718f","F1","batch6","","null","<p class=block-text>Trial 28 out of 60</p>","null","spm_show_trial_num","","","","","","","","","","","","","","","","","","","","","","","","",""
"","","","","","image-button-response","251","1059880","0.0-3.0-4.0-1.3","5c1813d5d2790700010a718f","F1","batch6","","9392.400000002235","img/question_3_4.jpeg","7","spm_respsonse","1","8","mat_28","","","","","","1","9392.400000002235","","","","","","","","","","","","","","",""
"","","","","","html-keyboard-response","252","1060957","0.0-3.0-4.0-0.4","5c1813d5d2790700010a718f","F1","batch6","","null","<p class=block-text>Trial 29 out of 60</p>","null","spm_show_trial_num","","","","","","","","","","","","","","","","","","","","","","","","",""
"","","","","","image-button-response","253","1073117","0.0-3.0-4.0-1.4","5c1813d5d2790700010a718f","F1","batch6","","12158.5","img/question_3_5.jpeg","6","spm_respsonse","1","7","mat_29","","","","","","1","12158.5","","","","","","","","","","","","","","",""
"","","","","","html-keyboard-response","254","1074170","0.0-3.0-4.0-0.5","5c1813d5d2790700010a718f","F1","batch6","","null","<p class=block-text>Trial 30 out of 60</p>","null","spm_show_trial_num","","","","","","","","","","","","","","","","","","","","","","","","",""
"","","","","","image-button-response","255","1080405","0.0-3.0-4.0-1.5","5c1813d5d2790700010a718f","F1","batch6","","6233.60000000149","img/question_3_6.jpeg","3","spm_respsonse","1","4","mat_30","","","","","","1","6233.60000000149","","","","","","","","","","","","","","",""
"","","","","","html-keyboard-response","256","1081480","0.0-3.0-4.0-0.6","5c1813d5d2790700010a718f","F1","batch6","","null","<p class=block-text>Trial 31 out of 60</p>","null","spm_show_trial_num","","","","","","","","","","","","","","","","","","","","","","","","",""
"","","","","","image-button-response","257","1087911","0.0-3.0-4.0-1.6","5c1813d5d2790700010a718f","F1","batch6","","6428.29999999702","img/question_3_7.jpeg","4","spm_respsonse","1","5","mat_31","","","","","","1","6428.29999999702","","","","","","","","","","","","","","",""
"","","","","","html-keyboard-response","258","1088977","0.0-3.0-4.0-0.7","5c1813d5d2790700010a718f","F1","batch6","","null","<p class=block-text>Trial 32 out of 60</p>","null","spm_show_trial_num","","","","","","","","","","","","","","","","","","","","","","","","",""
"","","","","","image-button-response","259","1097681","0.0-3.0-4.0-1.7","5c1813d5d2790700010a718f","F1","batch6","","8702.800000000745","img/question_3_8.jpeg","3","spm_respsonse","0","1","mat_32","","","","","","0","8702.800000000745","","","","","","","","","","","","","","",""
"","","","","","html-keyboard-response","260","1098755","0.0-3.0-4.0-0.8","5c1813d5d2790700010a718f","F1","batch6","","null","<p class=block-text>Trial 33 out of 60</p>","null","spm_show_trial_num","","","","","","","","","","","","","","","","","","","","","","","","",""
"","","","","","image-button-response","261","1103972","0.0-3.0-4.0-1.8","5c1813d5d2790700010a718f","F1","batch6","","5215","img/question_3_9.jpeg","0","spm_respsonse","0","7","mat_33","","","","","","0","5215","","","","","","","","","","","","","","",""
"","","","","","html-keyboard-response","262","1105032","0.0-3.0-4.0-0.9","5c1813d5d2790700010a718f","F1","batch6","","null","<p class=block-text>Trial 34 out of 60</p>","null","spm_show_trial_num","","","","","","","","","","","","","","","","","","","","","","","","",""
"","","","","","image-button-response","263","1115319","0.0-3.0-4.0-1.9","5c1813d5d2790700010a718f","F1","batch6","","10284.699999999255","img/question_3_10.jpeg","7","spm_respsonse","0","6","mat_34","","","","","","0","10284.699999999255","","","","","","","","","","","","","","",""
"","","","","","html-keyboard-response","264","1116397","0.0-3.0-4.0-0.10","5c1813d5d2790700010a718f","F1","batch6","","null","<p class=block-text>Trial 35 out of 60</p>","null","spm_show_trial_num","","","","","","","","","","","","","","","","","","","","","","","","",""
"","","","","","image-button-response","265","1134223","0.0-3.0-4.0-1.10","5c1813d5d2790700010a718f","F1","batch6","","17824.29999999702","img/question_3_11.jpeg","4","spm_respsonse","0","1","mat_35","","","","","","0","17824.29999999702","","","","","","","","","","","","","","",""
"","","","","","html-keyboard-response","266","1135282","0.0-3.0-4.0-0.11","5c1813d5d2790700010a718f","F1","batch6","","null","<p class=block-text>Trial 36 out of 60</p>","null","spm_show_trial_num","","","","","","","","","","","","","","","","","","","","","","","","",""
"","","","","","image-button-response","267","1142873","0.0-3.0-4.0-1.11","5c1813d5d2790700010a718f","F1","batch6","","7590.10000000149","img/question_3_12.jpeg","6","spm_respsonse","0","2","mat_36","","","","","","0","7590.10000000149","","","","","","","","","","","","","","",""
"","","","","","html-keyboard-response","268","1143941","0.0-3.0-4.0-0.12","5c1813d5d2790700010a718f","F1","batch6","","null","<p class=block-text>Trial 37 out of 60</p>","null","spm_show_trial_num","","","","","","","","","","","","","","","","","","","","","","","","",""
"","","","","","image-button-response","269","1147102","0.0-3.0-4.0-1.12","5c1813d5d2790700010a718f","F1","batch6","","3158.800000000745","img/question_4_1.jpeg","2","spm_respsonse","1","3","mat_37","","","","","","1","3158.800000000745","","","","","","","","","","","","","","",""
"","","","","","html-keyboard-response","270","1148179","0.0-3.0-4.0-0.13","5c1813d5d2790700010a718f","F1","batch6","","null","<p class=block-text>Trial 38 out of 60</p>","null","spm_show_trial_num","","","","","","","","","","","","","","","","","","","","","","","","",""
"","","","","","image-button-response","271","1151815","0.0-3.0-4.0-1.13","5c1813d5d2790700010a718f","F1","batch6","","3633.60000000149","img/question_4_2.jpeg","3","spm_respsonse","1","4","mat_38","","","","","","1","3633.60000000149","","","","","","","","","","","","","","",""
"","","","","","html-keyboard-response","272","1152893","0.0-3.0-4.0-0.14","5c1813d5d2790700010a718f","F1","batch6","","null","<p class=block-text>Trial 39 out of 60</p>","null","spm_show_trial_num","","","","","","","","","","","","","","","","","","","","","","","","",""
"","","","","","image-button-response","273","1158186","0.0-3.0-4.0-1.14","5c1813d5d2790700010a718f","F1","batch6","","5291.39999999851","img/question_4_3.jpeg","2","spm_respsonse","1","3","mat_39","","","","","","1","5291.39999999851","","","","","","","","","","","","","","",""
"","","","","","html-keyboard-response","274","1159247","0.0-3.0-4.0-0.15","5c1813d5d2790700010a718f","F1","batch6","","null","<p class=block-text>Trial 40 out of 60</p>","null","spm_show_trial_num","","","","","","","","","","","","","","","","","","","","","","","","",""
"","","","","","image-button-response","275","1165698","0.0-3.0-4.0-1.15","5c1813d5d2790700010a718f","F1","batch6","","6449.89999999851","img/question_4_4.jpeg","6","spm_respsonse","1","7","mat_40","","","","","","1","6449.89999999851","","","","","","","","","","","","","","",""
"","","","","","html-keyboard-response","276","1166755","0.0-3.0-4.0-0.16","5c1813d5d2790700010a718f","F1","batch6","","null","<p class=block-text>Trial 41 out of 60</p>","null","spm_show_trial_num","","","","","","","","","","","","","","","","","","","","","","","","",""
"","","","","","image-button-response","277","1174497","0.0-3.0-4.0-1.16","5c1813d5d2790700010a718f","F1","batch6","","7740","img/question_4_5.jpeg","7","spm_respsonse","1","8","mat_41","","","","","","1","7740","","","","","","","","","","","","","","",""
"","","","","","html-keyboard-response","278","1175577","0.0-3.0-4.0-0.17","5c1813d5d2790700010a718f","F1","batch6","","null","<p class=block-text>Trial 42 out of 60</p>","null","spm_show_trial_num","","","","","","","","","","","","","","","","","","","","","","","","",""
"","","","","","image-button-response","279","1183868","0.0-3.0-4.0-1.17","5c1813d5d2790700010a718f","F1","batch6","","8289.5","img/question_4_6.jpeg","5","spm_respsonse","1","6","mat_42","","","","","","1","8289.5","","","","","","","","","","","","","","",""
"","","","","","html-keyboard-response","280","1184943","0.0-3.0-4.0-0.18","5c1813d5d2790700010a718f","F1","batch6","","null","<p class=block-text>Trial 43 out of 60</p>","null","spm_show_trial_num","","","","","","","","","","","","","","","","","","","","","","","","",""
"","","","","","image-button-response","281","1203383","0.0-3.0-4.0-1.18","5c1813d5d2790700010a718f","F1","batch6","","18439.300000000745","img/question_4_7.jpeg","1","spm_respsonse","0","5","mat_43","","","","","","0","18439.300000000745","","","","","","","","","","","","","","",""
"","","","","","html-keyboard-response","282","1204459","0.0-3.0-4.0-0.19","5c1813d5d2790700010a718f","F1","batch6","","null","<p class=block-text>Trial 44 out of 60</p>","null","spm_show_trial_num","","","","","","","","","","","","","","","","","","","","","","","","",""
"","","","","","image-button-response","283","1213496","0.0-3.0-4.0-1.19","5c1813d5d2790700010a718f","F1","batch6","","9034.099999997765","img/question_4_8.jpeg","3","spm_respsonse","1","4","mat_44","","","","","","1","9034.099999997765","","","","","","","","","","","","","","",""
"","","","","","html-keyboard-response","284","1214573","0.0-3.0-4.0-0.20","5c1813d5d2790700010a718f","F1","batch6","","null","<p class=block-text>Trial 45 out of 60</p>","null","spm_show_trial_num","","","","","","","","","","","","","","","","","","","","","","","","",""
"","","","","","image-button-response","285","1230573","0.0-3.0-4.0-1.20","5c1813d5d2790700010a718f","F1","batch6","","15998.60000000149","img/question_4_9.jpeg","7","spm_respsonse","0","1","mat_45","","","","","","0","15998.60000000149","","","","","","","","","","","","","","",""
"","","","","","html-keyboard-response","286","1231640","0.0-3.0-4.0-0.21","5c1813d5d2790700010a718f","F1","batch6","","null","<p class=block-text>Trial 46 out of 60</p>","null","spm_show_trial_num","","","","","","","","","","","","","","","","","","","","","","","","",""
"","","","","","image-button-response","287","1246075","0.0-3.0-4.0-1.21","5c1813d5d2790700010a718f","F1","batch6","","14433","img/question_4_10.jpeg","1","spm_respsonse","1","2","mat_46","","","","","","1","14433","","","","","","","","","","","","","","",""
"","","","","","html-keyboard-response","288","1247156","0.0-3.0-4.0-0.22","5c1813d5d2790700010a718f","F1","batch6","","null","<p class=block-text>Trial 47 out of 60</p>","null","spm_show_trial_num","","","","","","","","","","","","","","","","","","","","","","","","",""
"","","","","","image-button-response","289","1265476","0.0-3.0-4.0-1.22","5c1813d5d2790700010a718f","F1","batch6","","18318","img/question_4_11.jpeg","1","spm_respsonse","0","5","mat_47","","","","","","0","18318","","","","","","","","","","","","","","",""
"","","","","","html-keyboard-response","290","1266554","0.0-3.0-4.0-0.23","5c1813d5d2790700010a718f","F1","batch6","","null","<p class=block-text>Trial 48 out of 60</p>","null","spm_show_trial_num","","","","","","","","","","","","","","","","","","","","","","","","",""
"","","","","","image-button-response","291","1292375","0.0-3.0-4.0-1.23","5c1813d5d2790700010a718f","F1","batch6","","25819.39999999851","img/question_4_12.jpeg","5","spm_respsonse","1","6","mat_48","","","","","","1","25819.39999999851","","","","","","","","","","","","","","",""
"","","","","","html-keyboard-response","292","1293452","0.0-3.0-4.0-0.24","5c1813d5d2790700010a718f","F1","batch6","","null","<p class=block-text>Trial 49 out of 60</p>","null","spm_show_trial_num","","","","","","","","","","","","","","","","","","","","","","","","",""
"","","","","","image-button-response","293","1297001","0.0-3.0-4.0-1.24","5c1813d5d2790700010a718f","F1","batch6","","3547.10000000149","img/question_5_1.jpeg","6","spm_respsonse","1","7","mat_49","","","","","","1","3547.10000000149","","","","","","","","","","","","","","",""
"","","","","","html-keyboard-response","294","1298069","0.0-3.0-4.0-0.25","5c1813d5d2790700010a718f","F1","batch6","","null","<p class=block-text>Trial 50 out of 60</p>","null","spm_show_trial_num","","","","","","","","","","","","","","","","","","","","","","","","",""
"","","","","","image-button-response","295","1306460","0.0-3.0-4.0-1.25","5c1813d5d2790700010a718f","F1","batch6","","8389.699999999255","img/question_5_2.jpeg","5","spm_respsonse","1","6","mat_50","","","","","","1","8389.699999999255","","","","","","","","","","","","","","",""
"","","","","","html-keyboard-response","296","1307537","0.0-3.0-4.0-0.26","5c1813d5d2790700010a718f","F1","batch6","","null","<p class=block-text>Trial 51 out of 60</p>","null","spm_show_trial_num","","","","","","","","","","","","","","","","","","","","","","","","",""
"","","","","","image-button-response","297","1317943","0.0-3.0-4.0-1.26","5c1813d5d2790700010a718f","F1","batch6","","10404.89999999851","img/question_5_3.jpeg","7","spm_respsonse","1","8","mat_51","","","","","","1","10404.89999999851","","","","","","","","","","","","","","",""
"","","","","","html-keyboard-response","298","1319010","0.0-3.0-4.0-0.27","5c1813d5d2790700010a718f","F1","batch6","","null","<p class=block-text>Trial 52 out of 60</p>","null","spm_show_trial_num","","","","","","","","","","","","","","","","","","","","","","","","",""
"","","","","","image-button-response","299","1326948","0.0-3.0-4.0-1.27","5c1813d5d2790700010a718f","F1","batch6","","7937","img/question_5_4.jpeg","1","spm_respsonse","1","2","mat_52","","","","","","1","7937","","","","","","","","","","","","","","",""
"","","","","","html-keyboard-response","300","1328019","0.0-3.0-4.0-0.28","5c1813d5d2790700010a718f","F1","batch6","","null","<p class=block-text>Trial 53 out of 60</p>","null","spm_show_trial_num","","","","","","","","","","","","","","","","","","","","","","","","",""
"","","","","","image-button-response","301","1333406","0.0-3.0-4.0-1.28","5c1813d5d2790700010a718f","F1","batch6","","5385.20000000298","img/question_5_5.jpeg","0","spm_respsonse","1","1","mat_53","","","","","","1","5385.20000000298","","","","","","","","","","","","","","",""
"","","","","","html-keyboard-response","302","1334465","0.0-3.0-4.0-0.29","5c1813d5d2790700010a718f","F1","batch6","","null","<p class=block-text>Trial 54 out of 60</p>","null","spm_show_trial_num","","","","","","","","","","","","","","","","","","","","","","","","",""
"","","","","","image-button-response","303","1350248","0.0-3.0-4.0-1.29","5c1813d5d2790700010a718f","F1","batch6","","15781.300000000745","img/question_5_6.jpeg","4","spm_respsonse","1","5","mat_54","","","","","","1","15781.300000000745","","","","","","","","","","","","","","",""
"","","","","","html-keyboard-response","304","1351312","0.0-3.0-4.0-0.30","5c1813d5d2790700010a718f","F1","batch6","","null","<p class=block-text>Trial 55 out of 60</p>","null","spm_show_trial_num","","","","","","","","","","","","","","","","","","","","","","","","",""
"","","","","","image-button-response","305","1366820","0.0-3.0-4.0-1.30","5c1813d5d2790700010a718f","F1","batch6","","15505.300000000745","img/question_5_7.jpeg","0","spm_respsonse","1","1","mat_55","","","","","","1","15505.300000000745","","","","","","","","","","","","","","",""
"","","","","","html-keyboard-response","306","1367898","0.0-3.0-4.0-0.31","5c1813d5d2790700010a718f","F1","batch6","","null","<p class=block-text>Trial 56 out of 60</p>","null","spm_show_trial_num","","","","","","","","","","","","","","","","","","","","","","","","",""
"","","","","","image-button-response","307","1379170","0.0-3.0-4.0-1.31","5c1813d5d2790700010a718f","F1","batch6","","11269.400000002235","img/question_5_8.jpeg","5","spm_respsonse","1","6","mat_56","","","","","","1","11269.400000002235","","","","","","","","","","","","","","",""
"","","","","","html-keyboard-response","308","1380246","0.0-3.0-4.0-0.32","5c1813d5d2790700010a718f","F1","batch6","","null","<p class=block-text>Trial 57 out of 60</p>","null","spm_show_trial_num","","","","","","","","","","","","","","","","","","","","","","","","",""
"","","","","","image-button-response","309","1398020","0.0-3.0-4.0-1.32","5c1813d5d2790700010a718f","F1","batch6","","17773","img/question_5_9.jpeg","2","spm_respsonse","1","3","mat_57","","","","","","1","17773","","","","","","","","","","","","","","",""
"","","","","","html-keyboard-response","310","1399077","0.0-3.0-4.0-0.33","5c1813d5d2790700010a718f","F1","batch6","","null","<p class=block-text>Trial 58 out of 60</p>","null","spm_show_trial_num","","","","","","","","","","","","","","","","","","","","","","","","",""
"","","","","","image-button-response","311","1415112","0.0-3.0-4.0-1.33","5c1813d5d2790700010a718f","F1","batch6","","16033.60000000149","img/question_5_10.jpeg","1","spm_respsonse","1","2","mat_58","","","","","","1","16033.60000000149","","","","","","","","","","","","","","",""
"","","","","","html-keyboard-response","312","1416177","0.0-3.0-4.0-0.34","5c1813d5d2790700010a718f","F1","batch6","","null","<p class=block-text>Trial 59 out of 60</p>","null","spm_show_trial_num","","","","","","","","","","","","","","","","","","","","","","","","",""
"","","","","","image-button-response","313","1420124","0.0-3.0-4.0-1.34","5c1813d5d2790700010a718f","F1","batch6","","3946.199999999255","img/question_5_11.jpeg","3","spm_respsonse","1","4","mat_59","","","","","","1","3946.199999999255","","","","","","","","","","","","","","",""
"","","","","","html-keyboard-response","314","1421198","0.0-3.0-4.0-0.35","5c1813d5d2790700010a718f","F1","batch6","","null","<p class=block-text>Trial 60 out of 60</p>","null","spm_show_trial_num","","","","","","","","","","","","","","","","","","","","","","","","",""
"","","","","","image-button-response","315","1430346","0.0-3.0-4.0-1.35","5c1813d5d2790700010a718f","F1","batch6","","9146.199999999255","img/question_5_12.jpeg","4","spm_respsonse","1","5","mat_60","","","","","","1","9146.199999999255","","","","","","","","","","","","","","",""
"","","","","","html-button-response","316","1433558","0.0-3.0-5.0","5c1813d5d2790700010a718f","F1","batch6","","2949","<p class= block-text>This concludes the Standard Progressive Matrix game. Thank you for your responses!<br> When you are ready, click the button continue</p>","0","spm_goodbye","","","","","","","","","","","","","","","","","","","","","","","","",""
"true","","","","","fullscreen","317","1664468","0.0-4.0-0.0","5c1813d5d2790700010a718f","F1","batch6","","","","","","","","","","","","","","","","","","","","","","","","","","","","","",""
"","","","","","instructions","318","1705893","0.0-4.0-1.0-0.0-0.0","5c1813d5d2790700010a718f","F1","batch6","[{""page_index"":0,""viewing_time"":15784.89999999851},{""page_index"":1,""viewing_time"":4650.10000000149},{""page_index"":2,""viewing_time"":2487.89999999851},{""page_index"":3,""viewing_time"":11582.400000002235},{""page_index"":4,""viewing_time"":1328.5999999977648},{""page_index"":5,""viewing_time"":3673},{""page_index"":6,""viewing_time"":1916.300000000745}]","41423.60000000149","","","tol-instructions","","","","","","","","","","","","","","","","","","","","","","","","",""
"","","","","","html-button-response","319","1706923","0.0-4.0-1.0-1.0-0.0","5c1813d5d2790700010a718f","F1","batch6","","1029.0999999977648","<p class=block-text> Let's answer a few questions <br>","0","tol_enter_quiz","","","","","","","","","","","","","","","","","","","","","","","","",""
"","","","","","html-button-response","320","1710280","0.0-4.0-1.0-1.0-1.0","5c1813d5d2790700010a718f","F1","batch6","","3356.599999997765","<p class = block-text>True or False: You can only move the ball on top of a peg. <br></p>","0","tol_quiz","true","","","","","","","","","","","","","","","","","","","","","","","",""
"","","","","","html-button-response","321","1711308","0.0-4.0-1.0-1.0-2.0","5c1813d5d2790700010a718f","F1","batch6","","1027","<p class = block-text>Correct! You can only move the ball on top of a peg.</p>","0","tol_quiz_feedback","","","","","","","","","","","","","","","","","","","","","","","","",""
"","","","","","html-button-response","322","1713832","0.0-4.0-1.0-1.0-3.0","5c1813d5d2790700010a718f","F1","batch6","","2523.400000002235","<p class = block-text>True or False: You should try to match your board with the target board with fewest moves possible. <br></p>","0","tol_quiz","true","","","","","","","","","","","","","","","","","","","","","","","",""
"","","","","","html-button-response","323","1714860","0.0-4.0-1.0-1.0-4.0","5c1813d5d2790700010a718f","F1","batch6","","1027.1000000014901","<p class = block-text>Correct! </p>","0","tol_quiz_feedback","","","","","","","","","","","","","","","","","","","","","","","","",""
"","","","","","html-button-response","324","1715928","0.0-4.0-2.0","5c1813d5d2790700010a718f","F1","batch6","","1066.699999999255","<p class=block-text> Now that you've understood the game, let's practice a few easier examples before we start!<br> <br>","0","","","","","","","","","","","","","","","","","","","","","","","","","",""
"","","","","","single-stim-button","325","1721017","0.0-4.0-3.0-0.0","5c1813d5d2790700010a718f","F1","batch6","","5088","","","tol_practice","","","","","","","","","","","tol_peg_2","5088","5088","0","[[1,2,0],[0,0],[0]]","1","[[1,2,0],[0,0],[3]]","practice","5088","","","","","",""
"","","","","","single-stim-button","326","1722449","0.0-4.0-3.0-1.0","5c1813d5d2790700010a718f","F1","batch6","","1430","","","tol_practice","","","","","","","","","","","tol_peg_3","1430","1430","0","[[1,2,0],[0,0],[3]]","1","[[1,2,0],[0,0],[3]]","practice","1430","","","","","",""
"","","","","","poldrack-single-stim","327","1723464","0.0-4.0-4.0","5c1813d5d2790700010a718f","F1","batch6","","-1","","","tol_feedback","true","","","","","","","","","","","1000","1000","500","","","","","","-1","none","true","","0",""
"","","","","","single-stim-button","328","1727266","0.0-4.0-5.0-0.0","5c1813d5d2790700010a718f","F1","batch6","","3801","","","tol_practice","","","","","","","","","","","tol_peg_1","3801","3801","0","[[1,0,0],[3,0],[0]]","2","[[0,0,0],[3,1],[2]]","practice","3801","","","","","",""
"","","","","","single-stim-button","329","1728203","0.0-4.0-5.0-1.0","5c1813d5d2790700010a718f","F1","batch6","","936","","","tol_practice","","","","","","","","","","","tol_peg_3","936","936","0","[[1,0,0],[3,0],[2]]","2","[[0,0,0],[3,1],[2]]","practice","936","","","","","",""
"","","","","","single-stim-button","330","1729082","0.0-4.0-5.1-0.1","5c1813d5d2790700010a718f","F1","batch6","","878","","","tol_practice","","","","","","","","","","","tol_peg_1","878","878","0","[[0,0,0],[3,0],[2]]","3","[[0,0,0],[3,1],[2]]","practice","878","","","","","",""
"","","","","","single-stim-button","331","1729768","0.0-4.0-5.1-1.1","5c1813d5d2790700010a718f","F1","batch6","","686","","","tol_practice","","","","","","","","","","","tol_peg_2","686","686","0","[[0,0,0],[3,1],[2]]","3","[[0,0,0],[3,1],[2]]","practice","686","","","","","",""
"","","","","","poldrack-single-stim","332","1730782","0.0-4.0-6.0","5c1813d5d2790700010a718f","F1","batch6","","-1","","","tol_feedback","true","","","","","","","","","","","1000","1000","500","","","","","","-1","none","true","","0",""
"","","","","","single-stim-button","333","1733724","0.0-4.0-7.0-0.0","5c1813d5d2790700010a718f","F1","batch6","","2941","","","tol_practice","","","","","","","","","","","tol_peg_2","2941","2941","0","[[1,2,0],[0,0],[0]]","4","[[1,0,0],[2,0],[3]]","practice","2941","","","","","",""
"","","","","","single-stim-button","334","1735420","0.0-4.0-7.0-1.0","5c1813d5d2790700010a718f","F1","batch6","","1695","","","tol_practice","","","","","","","","","","","tol_peg_3","1695","1695","0","[[1,2,0],[0,0],[3]]","4","[[1,0,0],[2,0],[3]]","practice","1695","","","","","",""
"","","","","","single-stim-button","335","1737759","0.0-4.0-7.1-0.1","5c1813d5d2790700010a718f","F1","batch6","","2338","","","tol_practice","","","","","","","","","","","tol_peg_1","2338","2338","0","[[1,0,0],[0,0],[3]]","5","[[1,0,0],[2,0],[3]]","practice","2338","","","","","",""
"","","","","","single-stim-button","336","1739660","0.0-4.0-7.1-1.1","5c1813d5d2790700010a718f","F1","batch6","","1900","","","tol_practice","","","","","","","","","","","tol_peg_2","1900","1900","0","[[1,0,0],[2,0],[3]]","5","[[1,0,0],[2,0],[3]]","practice","1900","","","","","",""
"","","","","","poldrack-single-stim","337","1740675","0.0-4.0-8.0","5c1813d5d2790700010a718f","F1","batch6","","-1","","","tol_feedback","true","","","","","","","","","","","1000","1000","500","","","","","","-1","none","true","","0",""
"","","","","","html-button-response","338","1742326","0.0-4.0-9.0","5c1813d5d2790700010a718f","F1","batch6","","1650.199999999255","<div class = centerbox><p class = center-block-text>Great job! You are done with practice trials<br>You are about to start official trials.<br> <br> Problem <strong>1</strong> out of 25 problems</p></div>","0","tol_instruction","","","","","","","","","","","","","","","","","","","","","","","","",""
"","","","","","single-stim-button","339","1747457","0.0-4.0-10.0-0.0","5c1813d5d2790700010a718f","F1","batch6","","4119","","","tol_tohand","","","","","","","","","","","tol_peg_2","4119","4119","0","[[1,2,0],[0,0],[0]]","1","[[1,3,0],[2,0],[0]]","0","0","","","","","","3"
"","","","","","single-stim-button","340","1748362","0.0-4.0-10.0-1.0","5c1813d5d2790700010a718f","F1","batch6","","904","","","tol_toboard","","","","","","","","","","","tol_peg_3","904","904","0","[[1,2,0],[0,0],[3]]","1","[[1,3,0],[2,0],[0]]","0","0","","","","","","3"
"","","","","","single-stim-button","341","1749286","0.0-4.0-10.1-0.1","5c1813d5d2790700010a718f","F1","batch6","","924","","","tol_tohand","","","","","","","","","","","tol_peg_1","924","924","0","[[1,0,0],[0,0],[3]]","2","[[1,3,0],[2,0],[0]]","0","0","","","","","","3"
"","","","","","single-stim-button","342","1750313","0.0-4.0-10.1-1.1","5c1813d5d2790700010a718f","F1","batch6","","1026","","","tol_toboard","","","","","","","","","","","tol_peg_2","1026","1026","0","[[1,0,0],[2,0],[3]]","2","[[1,3,0],[2,0],[0]]","0","0","","","","","","3"
"","","","","","single-stim-button","343","1751001","0.0-4.0-10.2-0.2","5c1813d5d2790700010a718f","F1","batch6","","688","","","tol_tohand","","","","","","","","","","","tol_peg_3","688","688","0","[[1,0,0],[2,0],[0]]","3","[[1,3,0],[2,0],[0]]","0","0","","","","","","3"
"","","","","","single-stim-button","344","1752201","0.0-4.0-10.2-1.2","5c1813d5d2790700010a718f","F1","batch6","","1199","","","tol_toboard","","","","","","","","","","","tol_peg_1","1199","1199","0","[[1,3,0],[2,0],[0]]","3","[[1,3,0],[2,0],[0]]","0","0","","","","","","3"
"","","","","","poldrack-single-stim","345","1753202","0.0-4.0-11.0","5c1813d5d2790700010a718f","F1","batch6","","-1","","","tol_feedback","true","","","","","","","","","","","1000","1000","500","","","","","","-1","none","true","4119","5731",""
