"success","timeout","failed_images","failed_audio","failed_video","trial_type","trial_index","time_elapsed","internal_node_id","subject_id","study_id","session_id","view_history","rt","task","stimulus","response","correct","mouse_click","stim_duration","block_duration","timing_post_trial","current_position","tol_num_moves_made","tol_target","tol_problem_id","tol_rt","key_press","possible_responses","tol_correct","preplanning","tol_rt_per_trial","tol_min_moves","answer","item","fiar_detect_rt","fiar_detect_correct","total_correct_fiar_detect","post_trial_gap","choices","spm_correct","spm_rt"
"true","false","[]","[]","[]","preload","0","22000","0.0-0.0","5c1a4d7d1aea120001fdd685","C3","batch3","","","","","","","","","","","","","","","","","","","","","","","","","","","","","",""
"true","","","","","fullscreen","1","32886","0.0-1.0-0.0","5c1a4d7d1aea120001fdd685","C3","batch3","","","","","","","","","","","","","","","","","","","","","","","","","","","","","",""
"true","","","","","fullscreen","2","36866","0.0-2.0-0.0","5c1a4d7d1aea120001fdd685","C3","batch3","","","","","","","","","","","","","","","","","","","","","","","","","","","","","",""
"","","","","","instructions","3","104430","0.0-2.0-1.0-0.0-0.0","5c1a4d7d1aea120001fdd685","C3","batch3","[{""page_index"":0,""viewing_time"":8430.900000095367},{""page_index"":1,""viewing_time"":7269.5},{""page_index"":2,""viewing_time"":7209.5},{""page_index"":3,""viewing_time"":13108.899999856949},{""page_index"":4,""viewing_time"":11901.299999952316},{""page_index"":5,""viewing_time"":15447.700000047684},{""page_index"":6,""viewing_time"":4193.799999952316}]","67563.20000004768","tol-instructions","","","","","","","","","","","","","","","","","","","","","","","","","","",""
"","","","","","html-button-response","4","107534","0.0-2.0-1.0-1.0-0.0","5c1a4d7d1aea120001fdd685","C3","batch3","","3100.899999856949","tol_enter_quiz","<p class=block-text> Let's answer a few questions <br>","0","","","","","","","","","","","","","","","","","","","","","","","","",""
"","","","","","html-button-response","5","113171","0.0-2.0-1.0-1.0-1.0","5c1a4d7d1aea120001fdd685","C3","batch3","","5633.600000143051","tol_quiz","<p class = block-text>True or False: You can only move the ball on top of a peg. <br></p>","0","true","","","","","","","","","","","","","","","","","","","","","","","",""
"","","","","","html-button-response","6","115019","0.0-2.0-1.0-1.0-2.0","5c1a4d7d1aea120001fdd685","C3","batch3","","1841.5","tol_quiz_feedback","<p class = block-text>Correct! You can only move the ball on top of a peg.</p>","0","","","","","","","","","","","","","","","","","","","","","","","","",""
"","","","","","html-button-response","7","118000","0.0-2.0-1.0-1.0-3.0","5c1a4d7d1aea120001fdd685","C3","batch3","","2978.2999999523163","tol_quiz","<p class = block-text>True or False: You should try to match your board with the target board with fewest moves possible. <br></p>","0","true","","","","","","","","","","","","","","","","","","","","","","","",""
"","","","","","html-button-response","8","119224","0.0-2.0-1.0-1.0-4.0","5c1a4d7d1aea120001fdd685","C3","batch3","","1221.6999998092651","tol_quiz_feedback","<p class = block-text>Correct! </p>","0","","","","","","","","","","","","","","","","","","","","","","","","",""
"","","","","","html-button-response","9","122139","0.0-2.0-2.0","5c1a4d7d1aea120001fdd685","C3","batch3","","2909.0999999046326","","<p class=block-text> Now that you've understood the game, let's practice a few easier examples before we start!<br> <br>","0","","","","","","","","","","","","","","","","","","","","","","","","",""
"","","","","","single-stim-button","10","125695","0.0-2.0-3.0-0.0","5c1a4d7d1aea120001fdd685","C3","batch3","","3546","tol_practice","","","","tol_peg_2","3546","3546","0","[[1,2,0],[0,0],[0]]","1","[[1,2,0],[0,0],[3]]","practice","3546","","","","","","","","","","","","","","",""
"","","","","","single-stim-button","11","127302","0.0-2.0-3.0-1.0","5c1a4d7d1aea120001fdd685","C3","batch3","","1604","tol_practice","","","","tol_peg_3","1604","1604","0","[[1,2,0],[0,0],[3]]","1","[[1,2,0],[0,0],[3]]","practice","1604","","","","","","","","","","","","","","",""
"","","","","","poldrack-single-stim","12","128311","0.0-2.0-4.0","5c1a4d7d1aea120001fdd685","C3","batch3","","-1","tol_feedback","","","true","","1000","1000","500","","","","","","-1","none","true","","0","","","","","","","","","",""
"","","","","","single-stim-button","13","134431","0.0-2.0-5.0-0.0","5c1a4d7d1aea120001fdd685","C3","batch3","","6118","tol_practice","","","","tol_peg_1","6118","6118","0","[[1,0,0],[3,0],[0]]","2","[[0,0,0],[3,1],[2]]","practice","6118","","","","","","","","","","","","","","",""
"","","","","","single-stim-button","14","135963","0.0-2.0-5.0-1.0","5c1a4d7d1aea120001fdd685","C3","batch3","","1530","tol_practice","","","","tol_peg_3","1530","1530","0","[[1,0,0],[3,0],[2]]","2","[[0,0,0],[3,1],[2]]","practice","1530","","","","","","","","","","","","","","",""
"","","","","","single-stim-button","15","137076","0.0-2.0-5.1-0.1","5c1a4d7d1aea120001fdd685","C3","batch3","","1110","tol_practice","","","","tol_peg_1","1110","1110","0","[[0,0,0],[3,0],[2]]","3","[[0,0,0],[3,1],[2]]","practice","1110","","","","","","","","","","","","","","",""
"","","","","","single-stim-button","16","138012","0.0-2.0-5.1-1.1","5c1a4d7d1aea120001fdd685","C3","batch3","","933","tol_practice","","","","tol_peg_2","933","933","0","[[0,0,0],[3,1],[2]]","3","[[0,0,0],[3,1],[2]]","practice","933","","","","","","","","","","","","","","",""
"","","","","","poldrack-single-stim","17","139023","0.0-2.0-6.0","5c1a4d7d1aea120001fdd685","C3","batch3","","-1","tol_feedback","","","true","","1000","1000","500","","","","","","-1","none","true","","0","","","","","","","","","",""
"","","","","","single-stim-button","18","142140","0.0-2.0-7.0-0.0","5c1a4d7d1aea120001fdd685","C3","batch3","","3116","tol_practice","","","","tol_peg_2","3116","3116","0","[[1,2,0],[0,0],[0]]","4","[[1,0,0],[2,0],[3]]","practice","3116","","","","","","","","","","","","","","",""
"","","","","","single-stim-button","19","144042","0.0-2.0-7.0-1.0","5c1a4d7d1aea120001fdd685","C3","batch3","","1900","tol_practice","","","","tol_peg_3","1900","1900","0","[[1,2,0],[0,0],[3]]","4","[[1,0,0],[2,0],[3]]","practice","1900","","","","","","","","","","","","","","",""
"","","","","","single-stim-button","20","145390","0.0-2.0-7.1-0.1","5c1a4d7d1aea120001fdd685","C3","batch3","","1348","tol_practice","","","","tol_peg_1","1348","1348","0","[[1,0,0],[0,0],[3]]","5","[[1,0,0],[2,0],[3]]","practice","1348","","","","","","","","","","","","","","",""
"","","","","","single-stim-button","21","146840","0.0-2.0-7.1-1.1","5c1a4d7d1aea120001fdd685","C3","batch3","","1448","tol_practice","","","","tol_peg_2","1448","1448","0","[[1,0,0],[2,0],[3]]","5","[[1,0,0],[2,0],[3]]","practice","1448","","","","","","","","","","","","","","",""
"","","","","","poldrack-single-stim","22","147845","0.0-2.0-8.0","5c1a4d7d1aea120001fdd685","C3","batch3","","-1","tol_feedback","","","true","","1000","1000","500","","","","","","-1","none","true","","0","","","","","","","","","",""
"","","","","","html-button-response","23","151713","0.0-2.0-9.0","5c1a4d7d1aea120001fdd685","C3","batch3","","3863","tol_instruction","<div class = centerbox><p class = center-block-text>Great job! You are done with practice trials<br>You are about to start official trials.<br> <br> Problem <strong>1</strong> out of 25 problems</p></div>","0","","","","","","","","","","","","","","","","","","","","","","","","",""
"","","","","","single-stim-button","24","156270","0.0-2.0-10.0-0.0","5c1a4d7d1aea120001fdd685","C3","batch3","","3552","tol_tohand","","","","tol_peg_1","3552","3552","0","[[1,0,0],[3,0],[0]]","1","[[1,3,0],[2,0],[0]]","0","0","","","","","","3","","","","","","","","",""
"","","","","","single-stim-button","25","158620","0.0-2.0-10.0-1.0","5c1a4d7d1aea120001fdd685","C3","batch3","","2349","tol_toboard","","","","tol_peg_3","2349","2349","0","[[1,0,0],[3,0],[2]]","1","[[1,3,0],[2,0],[0]]","0","0","","","","","","3","","","","","","","","",""
"","","","","","single-stim-button","26","159443","0.0-2.0-10.1-0.1","5c1a4d7d1aea120001fdd685","C3","batch3","","821","tol_tohand","","","","tol_peg_2","821","821","0","[[1,0,0],[0,0],[2]]","2","[[1,3,0],[2,0],[0]]","0","0","","","","","","3","","","","","","","","",""
"","","","","","single-stim-button","27","161006","0.0-2.0-10.1-1.1","5c1a4d7d1aea120001fdd685","C3","batch3","","1563","tol_toboard","","","","tol_peg_1","1563","1563","0","[[1,3,0],[0,0],[2]]","2","[[1,3,0],[2,0],[0]]","0","0","","","","","","3","","","","","","","","",""
"","","","","","single-stim-button","28","162028","0.0-2.0-10.2-0.2","5c1a4d7d1aea120001fdd685","C3","batch3","","1020","tol_tohand","","","","tol_peg_3","1020","1020","0","[[1,3,0],[0,0],[0]]","3","[[1,3,0],[2,0],[0]]","0","0","","","","","","3","","","","","","","","",""
"","","","","","single-stim-button","29","163219","0.0-2.0-10.2-1.2","5c1a4d7d1aea120001fdd685","C3","batch3","","1191","tol_toboard","","","","tol_peg_2","1191","1191","0","[[1,3,0],[2,0],[0]]","3","[[1,3,0],[2,0],[0]]","0","0","","","","","","3","","","","","","","","",""
"","","","","","poldrack-single-stim","30","164229","0.0-2.0-11.0","5c1a4d7d1aea120001fdd685","C3","batch3","","-1","tol_feedback","","","true","","1000","1000","500","","","","","","-1","none","true","3552","5393","","","","","","","","","",""
"","","","","","html-button-response","31","165808","0.0-2.0-12.0","5c1a4d7d1aea120001fdd685","C3","batch3","","1576.7000000476837","tol_trial_num","<div class = centerbox><p class = center-block-text>problem <strong>2</strong> out of 25 problems</p></div>","0","","","","","","","","","","","","","","","","","","","","","","","","",""
"","","","","","single-stim-button","32","169812","0.0-2.0-13.0-0.0","5c1a4d7d1aea120001fdd685","C3","batch3","","4002","tol_tohand","","","","tol_peg_1","4002","4002","0","[[1,0,0],[3,0],[0]]","1","[[2,1,3],[0,0],[0]]","1","0","","","","","","5","","","","","","","","",""
"","","","","","single-stim-button","33","173266","0.0-2.0-13.0-1.0","5c1a4d7d1aea120001fdd685","C3","batch3","","3452","tol_toboard","","","","tol_peg_3","3452","3452","0","[[1,0,0],[3,0],[2]]","1","[[2,1,3],[0,0],[0]]","1","0","","","","","","5","","","","","","","","",""
"","","","","","single-stim-button","34","174155","0.0-2.0-13.1-0.1","5c1a4d7d1aea120001fdd685","C3","batch3","","887","tol_tohand","","","","tol_peg_1","887","887","0","[[0,0,0],[3,0],[2]]","2","[[2,1,3],[0,0],[0]]","1","0","","","","","","5","","","","","","","","",""
"","","","","","single-stim-button","35","174865","0.0-2.0-13.1-1.1","5c1a4d7d1aea120001fdd685","C3","batch3","","709","tol_toboard","","","","tol_peg_2","709","709","0","[[0,0,0],[3,1],[2]]","2","[[2,1,3],[0,0],[0]]","1","0","","","","","","5","","","","","","","","",""
"","","","","","single-stim-button","36","175786","0.0-2.0-13.2-0.2","5c1a4d7d1aea120001fdd685","C3","batch3","","919","tol_tohand","","","","tol_peg_3","919","919","0","[[0,0,0],[3,1],[0]]","3","[[2,1,3],[0,0],[0]]","1","0","","","","","","5","","","","","","","","",""
"","","","","","single-stim-button","37","176696","0.0-2.0-13.2-1.2","5c1a4d7d1aea120001fdd685","C3","batch3","","909","tol_toboard","","","","tol_peg_1","909","909","0","[[2,0,0],[3,1],[0]]","3","[[2,1,3],[0,0],[0]]","1","0","","","","","","5","","","","","","","","",""
"","","","","","single-stim-button","38","177542","0.0-2.0-13.3-0.3","5c1a4d7d1aea120001fdd685","C3","batch3","","845","tol_tohand","","","","tol_peg_2","845","845","0","[[2,0,0],[3,0],[0]]","4","[[2,1,3],[0,0],[0]]","1","0","","","","","","5","","","","","","","","",""
"","","","","","single-stim-button","39","178620","0.0-2.0-13.3-1.3","5c1a4d7d1aea120001fdd685","C3","batch3","","1076","tol_toboard","","","","tol_peg_1","1076","1076","0","[[2,1,0],[3,0],[0]]","4","[[2,1,3],[0,0],[0]]","1","0","","","","","","5","","","","","","","","",""
"","","","","","single-stim-button","40","179520","0.0-2.0-13.4-0.4","5c1a4d7d1aea120001fdd685","C3","batch3","","898","tol_tohand","","","","tol_peg_2","898","898","0","[[2,1,0],[0,0],[0]]","5","[[2,1,3],[0,0],[0]]","1","0","","","","","","5","","","","","","","","",""
"","","","","","single-stim-button","41","180826","0.0-2.0-13.4-1.4","5c1a4d7d1aea120001fdd685","C3","batch3","","1305","tol_toboard","","","","tol_peg_1","1305","1305","0","[[2,1,3],[0,0],[0]]","5","[[2,1,3],[0,0],[0]]","1","0","","","","","","5","","","","","","","","",""
"","","","","","poldrack-single-stim","42","181836","0.0-2.0-14.0","5c1a4d7d1aea120001fdd685","C3","batch3","","-1","tol_feedback","","","true","","1000","1000","500","","","","","","-1","none","true","4002","7551","","","","","","","","","",""
"","","","","","html-button-response","43","183368","0.0-2.0-15.0","5c1a4d7d1aea120001fdd685","C3","batch3","","1531.2000000476837","tol_trial_num","<div class = centerbox><p class = center-block-text>problem <strong>3</strong> out of 25 problems</p></div>","0","","","","","","","","","","","","","","","","","","","","","","","","",""
"","","","","","single-stim-button","44","186228","0.0-2.0-16.0-0.0","5c1a4d7d1aea120001fdd685","C3","batch3","","2858","tol_tohand","","","","tol_peg_1","2858","2858","0","[[2,0,0],[0,0],[1]]","1","[[1,2,0],[3,0],[0]]","2","0","","","","","","4","","","","","","","","",""
"","","","","","single-stim-button","45","187329","0.0-2.0-16.0-1.0","5c1a4d7d1aea120001fdd685","C3","batch3","","1099","tol_toboard","","","","tol_peg_2","1099","1099","0","[[2,0,0],[3,0],[1]]","1","[[1,2,0],[3,0],[0]]","2","0","","","","","","4","","","","","","","","",""
"","","","","","single-stim-button","46","188164","0.0-2.0-16.1-0.1","5c1a4d7d1aea120001fdd685","C3","batch3","","833","tol_tohand","","","","tol_peg_1","833","833","0","[[0,0,0],[3,0],[1]]","2","[[1,2,0],[3,0],[0]]","2","0","","","","","","4","","","","","","","","",""
"","","","","","single-stim-button","47","188828","0.0-2.0-16.1-1.1","5c1a4d7d1aea120001fdd685","C3","batch3","","663","tol_toboard","","","","tol_peg_2","663","663","0","[[0,0,0],[3,2],[1]]","2","[[1,2,0],[3,0],[0]]","2","0","","","","","","4","","","","","","","","",""
"","","","","","single-stim-button","48","189454","0.0-2.0-16.2-0.2","5c1a4d7d1aea120001fdd685","C3","batch3","","625","tol_tohand","","","","tol_peg_3","625","625","0","[[0,0,0],[3,2],[0]]","3","[[1,2,0],[3,0],[0]]","2","0","","","","","","4","","","","","","","","",""
"","","","","","single-stim-button","49","190680","0.0-2.0-16.2-1.2","5c1a4d7d1aea120001fdd685","C3","batch3","","1226","tol_toboard","","","","tol_peg_1","1226","1226","0","[[1,0,0],[3,2],[0]]","3","[[1,2,0],[3,0],[0]]","2","0","","","","","","4","","","","","","","","",""
"","","","","","single-stim-button","50","191525","0.0-2.0-16.3-0.3","5c1a4d7d1aea120001fdd685","C3","batch3","","844","tol_tohand","","","","tol_peg_2","844","844","0","[[1,0,0],[3,0],[0]]","4","[[1,2,0],[3,0],[0]]","2","0","","","","","","4","","","","","","","","",""
"","","","","","single-stim-button","51","192526","0.0-2.0-16.3-1.3","5c1a4d7d1aea120001fdd685","C3","batch3","","999","tol_toboard","","","","tol_peg_1","999","999","0","[[1,2,0],[3,0],[0]]","4","[[1,2,0],[3,0],[0]]","2","0","","","","","","4","","","","","","","","",""
"","","","","","poldrack-single-stim","52","193535","0.0-2.0-17.0","5c1a4d7d1aea120001fdd685","C3","batch3","","-1","tol_feedback","","","true","","1000","1000","500","","","","","","-1","none","true","2858","5160","","","","","","","","","",""
"","","","","","html-button-response","53","194933","0.0-2.0-18.0","5c1a4d7d1aea120001fdd685","C3","batch3","","1396.0999999046326","tol_trial_num","<div class = centerbox><p class = center-block-text>problem <strong>4</strong> out of 25 problems</p></div>","0","","","","","","","","","","","","","","","","","","","","","","","","",""
"","","","","","single-stim-button","54","198165","0.0-2.0-19.0-0.0","5c1a4d7d1aea120001fdd685","C3","batch3","","3230","tol_tohand","","","","tol_peg_2","3230","3230","0","[[3,0,0],[2,0],[0]]","1","[[3,0,0],[1,0],[2]]","3","0","","","","","","3","","","","","","","","",""
"","","","","","single-stim-button","55","199781","0.0-2.0-19.0-1.0","5c1a4d7d1aea120001fdd685","C3","batch3","","1614","tol_toboard","","","","tol_peg_3","1614","1614","0","[[3,0,0],[2,0],[1]]","1","[[3,0,0],[1,0],[2]]","3","0","","","","","","3","","","","","","","","",""
"","","","","","single-stim-button","56","202225","0.0-2.0-19.1-0.1","5c1a4d7d1aea120001fdd685","C3","batch3","","2444","tol_tohand","","","","tol_peg_2","2444","2444","0","[[3,0,0],[0,0],[1]]","2","[[3,0,0],[1,0],[2]]","3","0","","","","","","3","","","","","","","","",""
"","","","","","single-stim-button","57","203148","0.0-2.0-19.1-1.1","5c1a4d7d1aea120001fdd685","C3","batch3","","922","tol_toboard","","","","tol_peg_1","922","922","0","[[3,2,0],[0,0],[1]]","2","[[3,0,0],[1,0],[2]]","3","0","","","","","","3","","","","","","","","",""
"","","","","","single-stim-button","58","203935","0.0-2.0-19.2-0.2","5c1a4d7d1aea120001fdd685","C3","batch3","","786","tol_tohand","","","","tol_peg_3","786","786","0","[[3,2,0],[0,0],[0]]","3","[[3,0,0],[1,0],[2]]","3","0","","","","","","3","","","","","","","","",""
"","","","","","single-stim-button","59","204824","0.0-2.0-19.2-1.2","5c1a4d7d1aea120001fdd685","C3","batch3","","887","tol_toboard","","","","tol_peg_2","887","887","0","[[3,2,0],[1,0],[0]]","3","[[3,0,0],[1,0],[2]]","3","0","","","","","","3","","","","","","","","",""
"","","","","","single-stim-button","60","205541","0.0-2.0-19.3-0.3","5c1a4d7d1aea120001fdd685","C3","batch3","","716","tol_tohand","","","","tol_peg_1","716","716","0","[[3,0,0],[1,0],[0]]","4","[[3,0,0],[1,0],[2]]","3","0","","","","","","3","","","","","","","","",""
"","","","","","single-stim-button","61","206328","0.0-2.0-19.3-1.3","5c1a4d7d1aea120001fdd685","C3","batch3","","786","tol_toboard","","","","tol_peg_3","786","786","0","[[3,0,0],[1,0],[2]]","4","[[3,0,0],[1,0],[2]]","3","0","","","","","","3","","","","","","","","",""
"","","","","","poldrack-single-stim","62","207340","0.0-2.0-20.0","5c1a4d7d1aea120001fdd685","C3","batch3","","-1","tol_feedback","","","true","","1000","1000","500","","","","","","-1","none","true","3230","7176","","","","","","","","","",""
"","","","","","html-button-response","63","208537","0.0-2.0-21.0","5c1a4d7d1aea120001fdd685","C3","batch3","","1195.0999999046326","tol_trial_num","<div class = centerbox><p class = center-block-text>problem <strong>5</strong> out of 25 problems</p></div>","0","","","","","","","","","","","","","","","","","","","","","","","","",""
"","","","","","single-stim-button","64","218538","0.0-2.0-22.0-0.0","5c1a4d7d1aea120001fdd685","C3","batch3","","9999","tol_tohand","","","","tol_peg_3","9999","9999","0","[[1,0,0],[2,0],[0]]","1","[[0,0,0],[1,2],[3]]","4","0","","","","","","7","","","","","","","","",""
"","","","","","single-stim-button","65","221911","0.0-2.0-22.0-1.0","5c1a4d7d1aea120001fdd685","C3","batch3","","3371","tol_toboard","","","","tol_peg_1","3371","3371","0","[[1,3,0],[2,0],[0]]","1","[[0,0,0],[1,2],[3]]","4","0","","","","","","7","","","","","","","","",""
"","","","","","single-stim-button","66","222507","0.0-2.0-22.1-0.1","5c1a4d7d1aea120001fdd685","C3","batch3","","596","tol_tohand","","","","tol_peg_2","596","596","0","[[1,3,0],[0,0],[0]]","2","[[0,0,0],[1,2],[3]]","4","0","","","","","","7","","","","","","","","",""
"","","","","","single-stim-button","67","223499","0.0-2.0-22.1-1.1","5c1a4d7d1aea120001fdd685","C3","batch3","","991","tol_toboard","","","","tol_peg_3","991","991","0","[[1,3,0],[0,0],[2]]","2","[[0,0,0],[1,2],[3]]","4","0","","","","","","7","","","","","","","","",""
"","","","","","single-stim-button","68","225611","0.0-2.0-22.2-0.2","5c1a4d7d1aea120001fdd685","C3","batch3","","2111","tol_tohand","","","","tol_peg_1","2111","2111","0","[[1,0,0],[0,0],[2]]","3","[[0,0,0],[1,2],[3]]","4","0","","","","","","7","","","","","","","","",""
"","","","","","single-stim-button","69","227916","0.0-2.0-22.2-1.2","5c1a4d7d1aea120001fdd685","C3","batch3","","2304","tol_toboard","","","","tol_peg_2","2304","2304","0","[[1,0,0],[3,0],[2]]","3","[[0,0,0],[1,2],[3]]","4","0","","","","","","7","","","","","","","","",""
"","","","","","single-stim-button","70","235815","0.0-2.0-22.3-0.3","5c1a4d7d1aea120001fdd685","C3","batch3","","7897","tol_tohand","","","","tol_peg_1","7897","7897","0","[[0,0,0],[3,0],[2]]","4","[[0,0,0],[1,2],[3]]","4","0","","","","","","7","","","","","","","","",""
"","","","","","single-stim-button","71","236839","0.0-2.0-22.3-1.3","5c1a4d7d1aea120001fdd685","C3","batch3","","1020","tol_toboard","","","","tol_peg_2","1020","1020","0","[[0,0,0],[3,1],[2]]","4","[[0,0,0],[1,2],[3]]","4","0","","","","","","7","","","","","","","","",""
"","","","","","single-stim-button","72","237524","0.0-2.0-22.4-0.4","5c1a4d7d1aea120001fdd685","C3","batch3","","684","tol_tohand","","","","tol_peg_3","684","684","0","[[0,0,0],[3,1],[0]]","5","[[0,0,0],[1,2],[3]]","4","0","","","","","","7","","","","","","","","",""
"","","","","","single-stim-button","73","238560","0.0-2.0-22.4-1.4","5c1a4d7d1aea120001fdd685","C3","batch3","","1034","tol_toboard","","","","tol_peg_1","1034","1034","0","[[2,0,0],[3,1],[0]]","5","[[0,0,0],[1,2],[3]]","4","0","","","","","","7","","","","","","","","",""
"","","","","","single-stim-button","74","239910","0.0-2.0-22.5-0.5","5c1a4d7d1aea120001fdd685","C3","batch3","","1348","tol_tohand","","","","tol_peg_2","1348","1348","0","[[2,0,0],[3,0],[0]]","6","[[0,0,0],[1,2],[3]]","4","0","","","","","","7","","","","","","","","",""
"","","","","","single-stim-button","75","240731","0.0-2.0-22.5-1.5","5c1a4d7d1aea120001fdd685","C3","batch3","","819","tol_toboard","","","","tol_peg_1","819","819","0","[[2,1,0],[3,0],[0]]","6","[[0,0,0],[1,2],[3]]","4","0","","","","","","7","","","","","","","","",""
"","","","","","single-stim-button","76","241286","0.0-2.0-22.6-0.6","5c1a4d7d1aea120001fdd685","C3","batch3","","555","tol_tohand","","","","tol_peg_2","555","555","0","[[2,1,0],[0,0],[0]]","7","[[0,0,0],[1,2],[3]]","4","0","","","","","","7","","","","","","","","",""
"","","","","","single-stim-button","77","243341","0.0-2.0-22.6-1.6","5c1a4d7d1aea120001fdd685","C3","batch3","","2054","tol_toboard","","","","tol_peg_3","2054","2054","0","[[2,1,0],[0,0],[3]]","7","[[0,0,0],[1,2],[3]]","4","0","","","","","","7","","","","","","","","",""
"","","","","","single-stim-button","78","244256","0.0-2.0-22.7-0.7","5c1a4d7d1aea120001fdd685","C3","batch3","","913","tol_tohand","","","","tol_peg_1","913","913","0","[[2,0,0],[0,0],[3]]","8","[[0,0,0],[1,2],[3]]","4","0","","","","","","7","","","","","","","","",""
"","","","","","single-stim-button","79","245019","0.0-2.0-22.7-1.7","5c1a4d7d1aea120001fdd685","C3","batch3","","763","tol_toboard","","","","tol_peg_2","763","763","0","[[2,0,0],[1,0],[3]]","8","[[0,0,0],[1,2],[3]]","4","0","","","","","","7","","","","","","","","",""
"","","","","","single-stim-button","80","245705","0.0-2.0-22.8-0.8","5c1a4d7d1aea120001fdd685","C3","batch3","","685","tol_tohand","","","","tol_peg_1","685","685","0","[[0,0,0],[1,0],[3]]","9","[[0,0,0],[1,2],[3]]","4","0","","","","","","7","","","","","","","","",""
"","","","","","single-stim-button","81","246591","0.0-2.0-22.8-1.8","5c1a4d7d1aea120001fdd685","C3","batch3","","883","tol_toboard","","","","tol_peg_2","883","883","0","[[0,0,0],[1,2],[3]]","9","[[0,0,0],[1,2],[3]]","4","0","","","","","","7","","","","","","","","",""
"","","","","","poldrack-single-stim","82","247595","0.0-2.0-23.0","5c1a4d7d1aea120001fdd685","C3","batch3","","-1","tol_feedback","","","true","","1000","1000","500","","","","","","-1","none","true","9999","24788","","","","","","","","","",""
"","","","","","html-button-response","83","249055","0.0-2.0-24.0","5c1a4d7d1aea120001fdd685","C3","batch3","","1458.1000001430511","tol_trial_num","<div class = centerbox><p class = center-block-text>problem <strong>6</strong> out of 25 problems</p></div>","0","","","","","","","","","","","","","","","","","","","","","","","","",""
"","","","","","single-stim-button","84","259925","0.0-2.0-25.0-0.0","5c1a4d7d1aea120001fdd685","C3","batch3","","10870","tol_tohand","","","","tol_peg_2","10870","10870","0","[[0,0,0],[1,0],[3]]","1","[[1,0,0],[2,3],[0]]","5","0","","","","","","6","","","","","","","","",""
"","","","","","single-stim-button","85","261489","0.0-2.0-25.0-1.0","5c1a4d7d1aea120001fdd685","C3","batch3","","1561","tol_toboard","","","","tol_peg_1","1561","1561","0","[[2,0,0],[1,0],[3]]","1","[[1,0,0],[2,3],[0]]","5","0","","","","","","6","","","","","","","","",""
"","","","","","single-stim-button","86","262289","0.0-2.0-25.1-0.1","5c1a4d7d1aea120001fdd685","C3","batch3","","798","tol_tohand","","","","tol_peg_3","798","798","0","[[2,0,0],[1,0],[0]]","2","[[1,0,0],[2,3],[0]]","5","0","","","","","","6","","","","","","","","",""
"","","","","","single-stim-button","87","263467","0.0-2.0-25.1-1.1","5c1a4d7d1aea120001fdd685","C3","batch3","","1176","tol_toboard","","","","tol_peg_1","1176","1176","0","[[2,3,0],[1,0],[0]]","2","[[1,0,0],[2,3],[0]]","5","0","","","","","","6","","","","","","","","",""
"","","","","","single-stim-button","88","264120","0.0-2.0-25.2-0.2","5c1a4d7d1aea120001fdd685","C3","batch3","","651","tol_tohand","","","","tol_peg_2","651","651","0","[[2,3,0],[0,0],[0]]","3","[[1,0,0],[2,3],[0]]","5","0","","","","","","6","","","","","","","","",""
"","","","","","single-stim-button","89","265391","0.0-2.0-25.2-1.2","5c1a4d7d1aea120001fdd685","C3","batch3","","1270","tol_toboard","","","","tol_peg_3","1270","1270","0","[[2,3,0],[0,0],[1]]","3","[[1,0,0],[2,3],[0]]","5","0","","","","","","6","","","","","","","","",""
"","","","","","single-stim-button","90","266462","0.0-2.0-25.3-0.3","5c1a4d7d1aea120001fdd685","C3","batch3","","1071","tol_tohand","","","","tol_peg_1","1071","1071","0","[[2,0,0],[0,0],[1]]","4","[[1,0,0],[2,3],[0]]","5","0","","","","","","6","","","","","","","","",""
"","","","","","single-stim-button","91","267404","0.0-2.0-25.3-1.3","5c1a4d7d1aea120001fdd685","C3","batch3","","940","tol_toboard","","","","tol_peg_2","940","940","0","[[2,0,0],[3,0],[1]]","4","[[1,0,0],[2,3],[0]]","5","0","","","","","","6","","","","","","","","",""
"","","","","","single-stim-button","92","268090","0.0-2.0-25.4-0.4","5c1a4d7d1aea120001fdd685","C3","batch3","","685","tol_tohand","","","","tol_peg_1","685","685","0","[[0,0,0],[3,0],[1]]","5","[[1,0,0],[2,3],[0]]","5","0","","","","","","6","","","","","","","","",""
"","","","","","single-stim-button","93","269225","0.0-2.0-25.4-1.4","5c1a4d7d1aea120001fdd685","C3","batch3","","1134","tol_toboard","","","","tol_peg_2","1134","1134","0","[[0,0,0],[3,2],[1]]","5","[[1,0,0],[2,3],[0]]","5","0","","","","","","6","","","","","","","","",""
"","","","","","single-stim-button","94","269868","0.0-2.0-25.5-0.5","5c1a4d7d1aea120001fdd685","C3","batch3","","642","tol_tohand","","","","tol_peg_3","642","642","0","[[0,0,0],[3,2],[0]]","6","[[1,0,0],[2,3],[0]]","5","0","","","","","","6","","","","","","","","",""
"","","","","","single-stim-button","95","271615","0.0-2.0-25.5-1.5","5c1a4d7d1aea120001fdd685","C3","batch3","","1746","tol_toboard","","","","tol_peg_1","1746","1746","0","[[1,0,0],[3,2],[0]]","6","[[1,0,0],[2,3],[0]]","5","0","","","","","","6","","","","","","","","",""
"","","","","","single-stim-button","96","275361","0.0-2.0-25.6-0.6","5c1a4d7d1aea120001fdd685","C3","batch3","","3745","tol_tohand","","","","tol_peg_2","3745","3745","0","[[1,0,0],[3,0],[0]]","7","[[1,0,0],[2,3],[0]]","5","0","","","","","","6","","","","","","","","",""
"","","","","","single-stim-button","97","276582","0.0-2.0-25.6-1.6","5c1a4d7d1aea120001fdd685","C3","batch3","","1221","tol_toboard","","","","tol_peg_3","1221","1221","0","[[1,0,0],[3,0],[2]]","7","[[1,0,0],[2,3],[0]]","5","0","","","","","","6","","","","","","","","",""
"","","","","","single-stim-button","98","277294","0.0-2.0-25.7-0.7","5c1a4d7d1aea120001fdd685","C3","batch3","","710","tol_tohand","","","","tol_peg_2","710","710","0","[[1,0,0],[0,0],[2]]","8","[[1,0,0],[2,3],[0]]","5","0","","","","","","6","","","","","","","","",""
"","","","","","single-stim-button","99","278060","0.0-2.0-25.7-1.7","5c1a4d7d1aea120001fdd685","C3","batch3","","766","tol_toboard","","","","tol_peg_1","766","766","0","[[1,3,0],[0,0],[2]]","8","[[1,0,0],[2,3],[0]]","5","0","","","","","","6","","","","","","","","",""
"","","","","","single-stim-button","100","278635","0.0-2.0-25.8-0.8","5c1a4d7d1aea120001fdd685","C3","batch3","","573","tol_tohand","","","","tol_peg_3","573","573","0","[[1,3,0],[0,0],[0]]","9","[[1,0,0],[2,3],[0]]","5","0","","","","","","6","","","","","","","","",""
"","","","","","single-stim-button","101","279827","0.0-2.0-25.8-1.8","5c1a4d7d1aea120001fdd685","C3","batch3","","1191","tol_toboard","","","","tol_peg_2","1191","1191","0","[[1,3,0],[2,0],[0]]","9","[[1,0,0],[2,3],[0]]","5","0","","","","","","6","","","","","","","","",""
"","","","","","single-stim-button","102","280648","0.0-2.0-25.9-0.9","5c1a4d7d1aea120001fdd685","C3","batch3","","819","tol_tohand","","","","tol_peg_1","819","819","0","[[1,0,0],[2,0],[0]]","10","[[1,0,0],[2,3],[0]]","5","0","","","","","","6","","","","","","","","",""
"","","","","","single-stim-button","103","281647","0.0-2.0-25.9-1.9","5c1a4d7d1aea120001fdd685","C3","batch3","","999","tol_toboard","","","","tol_peg_2","999","999","0","[[1,0,0],[2,3],[0]]","10","[[1,0,0],[2,3],[0]]","5","0","","","","","","6","","","","","","","","",""
"","","","","","poldrack-single-stim","104","282650","0.0-2.0-26.0","5c1a4d7d1aea120001fdd685","C3","batch3","","-1","tol_feedback","","","true","","1000","1000","500","","","","","","-1","none","true","10870","20564","","","","","","","","","",""
"","","","","","html-button-response","105","283976","0.0-2.0-27.0","5c1a4d7d1aea120001fdd685","C3","batch3","","1323.8000001907349","tol_trial_num","<div class = centerbox><p class = center-block-text>problem <strong>7</strong> out of 25 problems</p></div>","0","","","","","","","","","","","","","","","","","","","","","","","","",""
"","","","","","single-stim-button","106","293721","0.0-2.0-28.0-0.0","5c1a4d7d1aea120001fdd685","C3","batch3","","9744","tol_tohand","","","","tol_peg_3","9744","9744","0","[[2,1,0],[0,0],[0]]","1","[[1,2,0],[3,0],[0]]","6","0","","","","","","5","","","","","","","","",""
"","","","","","single-stim-button","107","294855","0.0-2.0-28.0-1.0","5c1a4d7d1aea120001fdd685","C3","batch3","","1131","tol_toboard","","","","tol_peg_2","1131","1131","0","[[2,1,0],[3,0],[0]]","1","[[1,2,0],[3,0],[0]]","6","0","","","","","","5","","","","","","","","",""
"","","","","","single-stim-button","108","295865","0.0-2.0-28.1-0.1","5c1a4d7d1aea120001fdd685","C3","batch3","","1009","tol_tohand","","","","tol_peg_1","1009","1009","0","[[2,0,0],[3,0],[0]]","2","[[1,2,0],[3,0],[0]]","6","0","","","","","","5","","","","","","","","",""
"","","","","","single-stim-button","109","298184","0.0-2.0-28.1-1.1","5c1a4d7d1aea120001fdd685","C3","batch3","","2318","tol_toboard","","","","tol_peg_2","2318","2318","0","[[2,0,0],[3,1],[0]]","2","[[1,2,0],[3,0],[0]]","6","0","","","","","","5","","","","","","","","",""
"","","","","","single-stim-button","110","298861","0.0-2.0-28.2-0.2","5c1a4d7d1aea120001fdd685","C3","batch3","","675","tol_tohand","","","","tol_peg_1","675","675","0","[[0,0,0],[3,1],[0]]","3","[[1,2,0],[3,0],[0]]","6","0","","","","","","5","","","","","","","","",""
"","","","","","single-stim-button","111","300083","0.0-2.0-28.2-1.2","5c1a4d7d1aea120001fdd685","C3","batch3","","1221","tol_toboard","","","","tol_peg_3","1221","1221","0","[[0,0,0],[3,1],[2]]","3","[[1,2,0],[3,0],[0]]","6","0","","","","","","5","","","","","","","","",""
"","","","","","single-stim-button","112","300920","0.0-2.0-28.3-0.3","5c1a4d7d1aea120001fdd685","C3","batch3","","835","tol_tohand","","","","tol_peg_2","835","835","0","[[0,0,0],[3,0],[2]]","4","[[1,2,0],[3,0],[0]]","6","0","","","","","","5","","","","","","","","",""
"","","","","","single-stim-button","113","301684","0.0-2.0-28.3-1.3","5c1a4d7d1aea120001fdd685","C3","batch3","","764","tol_toboard","","","","tol_peg_1","764","764","0","[[1,0,0],[3,0],[2]]","4","[[1,2,0],[3,0],[0]]","6","0","","","","","","5","","","","","","","","",""
"","","","","","single-stim-button","114","302631","0.0-2.0-28.4-0.4","5c1a4d7d1aea120001fdd685","C3","batch3","","945","tol_tohand","","","","tol_peg_3","945","945","0","[[1,0,0],[3,0],[0]]","5","[[1,2,0],[3,0],[0]]","6","0","","","","","","5","","","","","","","","",""
"","","","","","single-stim-button","115","304102","0.0-2.0-28.4-1.4","5c1a4d7d1aea120001fdd685","C3","batch3","","1469","tol_toboard","","","","tol_peg_1","1469","1469","0","[[1,2,0],[3,0],[0]]","5","[[1,2,0],[3,0],[0]]","6","0","","","","","","5","","","","","","","","",""
"","","","","","poldrack-single-stim","116","305107","0.0-2.0-29.0","5c1a4d7d1aea120001fdd685","C3","batch3","","-1","tol_feedback","","","true","","1000","1000","500","","","","","","-1","none","true","9744","13208","","","","","","","","","",""
"","","","","","html-button-response","117","306442","0.0-2.0-30.0","5c1a4d7d1aea120001fdd685","C3","batch3","","1332.7999999523163","tol_trial_num","<div class = centerbox><p class = center-block-text>problem <strong>8</strong> out of 25 problems</p></div>","0","","","","","","","","","","","","","","","","","","","","","","","","",""
"","","","","","single-stim-button","118","309560","0.0-2.0-31.0-0.0","5c1a4d7d1aea120001fdd685","C3","batch3","","3116","tol_tohand","","","","tol_peg_3","3116","3116","0","[[0,0,0],[2,3],[0]]","1","[[1,2,0],[3,0],[0]]","7","0","","","","","","4","","","","","","","","",""
"","","","","","single-stim-button","119","310740","0.0-2.0-31.0-1.0","5c1a4d7d1aea120001fdd685","C3","batch3","","1179","tol_toboard","","","","tol_peg_1","1179","1179","0","[[1,0,0],[2,3],[0]]","1","[[1,2,0],[3,0],[0]]","7","0","","","","","","4","","","","","","","","",""
"","","","","","single-stim-button","120","311473","0.0-2.0-31.1-0.1","5c1a4d7d1aea120001fdd685","C3","batch3","","730","tol_tohand","","","","tol_peg_2","730","730","0","[[1,0,0],[2,0],[0]]","2","[[1,2,0],[3,0],[0]]","7","0","","","","","","4","","","","","","","","",""
"","","","","","single-stim-button","121","312305","0.0-2.0-31.1-1.1","5c1a4d7d1aea120001fdd685","C3","batch3","","830","tol_toboard","","","","tol_peg_3","830","830","0","[[1,0,0],[2,0],[3]]","2","[[1,2,0],[3,0],[0]]","7","0","","","","","","4","","","","","","","","",""
"","","","","","single-stim-button","122","313124","0.0-2.0-31.2-0.2","5c1a4d7d1aea120001fdd685","C3","batch3","","818","tol_tohand","","","","tol_peg_2","818","818","0","[[1,0,0],[0,0],[3]]","3","[[1,2,0],[3,0],[0]]","7","0","","","","","","4","","","","","","","","",""
"","","","","","single-stim-button","123","314069","0.0-2.0-31.2-1.2","5c1a4d7d1aea120001fdd685","C3","batch3","","944","tol_toboard","","","","tol_peg_1","944","944","0","[[1,2,0],[0,0],[3]]","3","[[1,2,0],[3,0],[0]]","7","0","","","","","","4","","","","","","","","",""
"","","","","","single-stim-button","124","315014","0.0-2.0-31.3-0.3","5c1a4d7d1aea120001fdd685","C3","batch3","","943","tol_tohand","","","","tol_peg_3","943","943","0","[[1,2,0],[0,0],[0]]","4","[[1,2,0],[3,0],[0]]","7","0","","","","","","4","","","","","","","","",""
"","","","","","single-stim-button","125","315869","0.0-2.0-31.3-1.3","5c1a4d7d1aea120001fdd685","C3","batch3","","854","tol_toboard","","","","tol_peg_2","854","854","0","[[1,2,0],[3,0],[0]]","4","[[1,2,0],[3,0],[0]]","7","0","","","","","","4","","","","","","","","",""
"","","","","","poldrack-single-stim","126","316874","0.0-2.0-32.0","5c1a4d7d1aea120001fdd685","C3","batch3","","-1","tol_feedback","","","true","","1000","1000","500","","","","","","-1","none","true","3116","5607","","","","","","","","","",""
"","","","","","html-button-response","127","318356","0.0-2.0-33.0","5c1a4d7d1aea120001fdd685","C3","batch3","","1479.7999999523163","tol_trial_num","<div class = centerbox><p class = center-block-text>problem <strong>9</strong> out of 25 problems</p></div>","0","","","","","","","","","","","","","","","","","","","","","","","","",""
"","","","","","single-stim-button","128","331406","0.0-2.0-34.0-0.0","5c1a4d7d1aea120001fdd685","C3","batch3","","13049","tol_tohand","","","","tol_peg_1","13049","13049","0","[[3,0,0],[0,0],[1]]","1","[[2,1,0],[3,0],[0]]","8","0","","","","","","6","","","","","","","","",""
"","","","","","single-stim-button","129","332507","0.0-2.0-34.0-1.0","5c1a4d7d1aea120001fdd685","C3","batch3","","1099","tol_toboard","","","","tol_peg_2","1099","1099","0","[[3,0,0],[2,0],[1]]","1","[[2,1,0],[3,0],[0]]","8","0","","","","","","6","","","","","","","","",""
"","","","","","single-stim-button","130","334533","0.0-2.0-34.1-0.1","5c1a4d7d1aea120001fdd685","C3","batch3","","2024","tol_tohand","","","","tol_peg_1","2024","2024","0","[[0,0,0],[2,0],[1]]","2","[[2,1,0],[3,0],[0]]","8","0","","","","","","6","","","","","","","","",""
"","","","","","single-stim-button","131","338371","0.0-2.0-34.1-1.1","5c1a4d7d1aea120001fdd685","C3","batch3","","3837","tol_toboard","","","","tol_peg_2","3837","3837","0","[[0,0,0],[2,3],[1]]","2","[[2,1,0],[3,0],[0]]","8","0","","","","","","6","","","","","","","","",""
"","","","","","single-stim-button","132","340126","0.0-2.0-34.2-0.2","5c1a4d7d1aea120001fdd685","C3","batch3","","1752","tol_tohand","","","","tol_peg_3","1752","1752","0","[[0,0,0],[2,3],[0]]","3","[[2,1,0],[3,0],[0]]","8","0","","","","","","6","","","","","","","","",""
"","","","","","single-stim-button","133","341371","0.0-2.0-34.2-1.2","5c1a4d7d1aea120001fdd685","C3","batch3","","1243","tol_toboard","","","","tol_peg_1","1243","1243","0","[[1,0,0],[2,3],[0]]","3","[[2,1,0],[3,0],[0]]","8","0","","","","","","6","","","","","","","","",""
"","","","","","single-stim-button","134","342613","0.0-2.0-34.3-0.3","5c1a4d7d1aea120001fdd685","C3","batch3","","1241","tol_tohand","","","","tol_peg_2","1241","1241","0","[[1,0,0],[2,0],[0]]","4","[[2,1,0],[3,0],[0]]","8","0","","","","","","6","","","","","","","","",""
"","","","","","single-stim-button","135","347450","0.0-2.0-34.3-1.3","5c1a4d7d1aea120001fdd685","C3","batch3","","4836","tol_toboard","","","","tol_peg_1","4836","4836","0","[[1,3,0],[2,0],[0]]","4","[[2,1,0],[3,0],[0]]","8","0","","","","","","6","","","","","","","","",""
"","","","","","single-stim-button","136","348056","0.0-2.0-34.4-0.4","5c1a4d7d1aea120001fdd685","C3","batch3","","604","tol_tohand","","","","tol_peg_2","604","604","0","[[1,3,0],[0,0],[0]]","5","[[2,1,0],[3,0],[0]]","8","0","","","","","","6","","","","","","","","",""
"","","","","","single-stim-button","137","348946","0.0-2.0-34.4-1.4","5c1a4d7d1aea120001fdd685","C3","batch3","","889","tol_toboard","","","","tol_peg_3","889","889","0","[[1,3,0],[0,0],[2]]","5","[[2,1,0],[3,0],[0]]","8","0","","","","","","6","","","","","","","","",""
"","","","","","single-stim-button","138","350026","0.0-2.0-34.5-0.5","5c1a4d7d1aea120001fdd685","C3","batch3","","1078","tol_tohand","","","","tol_peg_1","1078","1078","0","[[1,0,0],[0,0],[2]]","6","[[2,1,0],[3,0],[0]]","8","0","","","","","","6","","","","","","","","",""
"","","","","","single-stim-button","139","351039","0.0-2.0-34.5-1.5","5c1a4d7d1aea120001fdd685","C3","batch3","","1012","tol_toboard","","","","tol_peg_2","1012","1012","0","[[1,0,0],[3,0],[2]]","6","[[2,1,0],[3,0],[0]]","8","0","","","","","","6","","","","","","","","",""
"","","","","","single-stim-button","140","351984","0.0-2.0-34.6-0.6","5c1a4d7d1aea120001fdd685","C3","batch3","","943","tol_tohand","","","","tol_peg_1","943","943","0","[[0,0,0],[3,0],[2]]","7","[[2,1,0],[3,0],[0]]","8","0","","","","","","6","","","","","","","","",""
"","","","","","single-stim-button","141","352903","0.0-2.0-34.6-1.6","5c1a4d7d1aea120001fdd685","C3","batch3","","918","tol_toboard","","","","tol_peg_2","918","918","0","[[0,0,0],[3,1],[2]]","7","[[2,1,0],[3,0],[0]]","8","0","","","","","","6","","","","","","","","",""
"","","","","","single-stim-button","142","353547","0.0-2.0-34.7-0.7","5c1a4d7d1aea120001fdd685","C3","batch3","","642","tol_tohand","","","","tol_peg_3","642","642","0","[[0,0,0],[3,1],[0]]","8","[[2,1,0],[3,0],[0]]","8","0","","","","","","6","","","","","","","","",""
"","","","","","single-stim-button","143","354739","0.0-2.0-34.7-1.7","5c1a4d7d1aea120001fdd685","C3","batch3","","1190","tol_toboard","","","","tol_peg_1","1190","1190","0","[[2,0,0],[3,1],[0]]","8","[[2,1,0],[3,0],[0]]","8","0","","","","","","6","","","","","","","","",""
"","","","","","single-stim-button","144","355652","0.0-2.0-34.8-0.8","5c1a4d7d1aea120001fdd685","C3","batch3","","911","tol_tohand","","","","tol_peg_2","911","911","0","[[2,0,0],[3,0],[0]]","9","[[2,1,0],[3,0],[0]]","8","0","","","","","","6","","","","","","","","",""
"","","","","","single-stim-button","145","356593","0.0-2.0-34.8-1.8","5c1a4d7d1aea120001fdd685","C3","batch3","","941","tol_toboard","","","","tol_peg_1","941","941","0","[[2,1,0],[3,0],[0]]","9","[[2,1,0],[3,0],[0]]","8","0","","","","","","6","","","","","","","","",""
"","","","","","poldrack-single-stim","146","357596","0.0-2.0-35.0","5c1a4d7d1aea120001fdd685","C3","batch3","","-1","tol_feedback","","","true","","1000","1000","500","","","","","","-1","none","true","13049","22244","","","","","","","","","",""
"","","","","","html-button-response","147","359001","0.0-2.0-36.0","5c1a4d7d1aea120001fdd685","C3","batch3","","1403.9000000953674","tol_trial_num","<div class = centerbox><p class = center-block-text>problem <strong>10</strong> out of 25 problems</p></div>","0","","","","","","","","","","","","","","","","","","","","","","","","",""
"","","","","","single-stim-button","148","376305","0.0-2.0-37.0-0.0","5c1a4d7d1aea120001fdd685","C3","batch3","","17302","tol_tohand","","","","tol_peg_3","17302","17302","0","[[3,0,0],[1,0],[0]]","1","[[3,0,0],[2,1],[0]]","9","0","","","","","","3","","","","","","","","",""
"","","","","","single-stim-button","149","378060","0.0-2.0-37.0-1.0","5c1a4d7d1aea120001fdd685","C3","batch3","","1753","tol_toboard","","","","tol_peg_1","1753","1753","0","[[3,2,0],[1,0],[0]]","1","[[3,0,0],[2,1],[0]]","9","0","","","","","","3","","","","","","","","",""
"","","","","","single-stim-button","150","378642","0.0-2.0-37.1-0.1","5c1a4d7d1aea120001fdd685","C3","batch3","","581","tol_tohand","","","","tol_peg_2","581","581","0","[[3,2,0],[0,0],[0]]","2","[[3,0,0],[2,1],[0]]","9","0","","","","","","3","","","","","","","","",""
"","","","","","single-stim-button","151","379173","0.0-2.0-37.1-1.1","5c1a4d7d1aea120001fdd685","C3","batch3","","529","tol_toboard","","","","tol_peg_3","529","529","0","[[3,2,0],[0,0],[1]]","2","[[3,0,0],[2,1],[0]]","9","0","","","","","","3","","","","","","","","",""
"","","","","","single-stim-button","152","379995","0.0-2.0-37.2-0.2","5c1a4d7d1aea120001fdd685","C3","batch3","","821","tol_tohand","","","","tol_peg_1","821","821","0","[[3,0,0],[0,0],[1]]","3","[[3,0,0],[2,1],[0]]","9","0","","","","","","3","","","","","","","","",""
"","","","","","single-stim-button","153","381107","0.0-2.0-37.2-1.2","5c1a4d7d1aea120001fdd685","C3","batch3","","1111","tol_toboard","","","","tol_peg_2","1111","1111","0","[[3,0,0],[2,0],[1]]","3","[[3,0,0],[2,1],[0]]","9","0","","","","","","3","","","","","","","","",""
"","","","","","single-stim-button","154","381917","0.0-2.0-37.3-0.3","5c1a4d7d1aea120001fdd685","C3","batch3","","808","tol_tohand","","","","tol_peg_3","808","808","0","[[3,0,0],[2,0],[0]]","4","[[3,0,0],[2,1],[0]]","9","0","","","","","","3","","","","","","","","",""
"","","","","","single-stim-button","155","382657","0.0-2.0-37.3-1.3","5c1a4d7d1aea120001fdd685","C3","batch3","","739","tol_toboard","","","","tol_peg_2","739","739","0","[[3,0,0],[2,1],[0]]","4","[[3,0,0],[2,1],[0]]","9","0","","","","","","3","","","","","","","","",""
"","","","","","poldrack-single-stim","156","383665","0.0-2.0-38.0","5c1a4d7d1aea120001fdd685","C3","batch3","","-1","tol_feedback","","","true","","1000","1000","500","","","","","","-1","none","true","17302","19512","","","","","","","","","",""
"","","","","","html-button-response","157","385021","0.0-2.0-39.0","5c1a4d7d1aea120001fdd685","C3","batch3","","1354.3999998569489","tol_trial_num","<div class = centerbox><p class = center-block-text>problem <strong>11</strong> out of 25 problems</p></div>","0","","","","","","","","","","","","","","","","","","","","","","","","",""
"","","","","","single-stim-button","158","394474","0.0-2.0-40.0-0.0","5c1a4d7d1aea120001fdd685","C3","batch3","","9451","tol_tohand","","","","tol_peg_1","9451","9451","0","[[1,0,0],[3,0],[0]]","1","[[2,0,0],[1,3],[0]]","10","0","","","","","","6","","","","","","","","",""
"","","","","","single-stim-button","159","396015","0.0-2.0-40.0-1.0","5c1a4d7d1aea120001fdd685","C3","batch3","","1538","tol_toboard","","","","tol_peg_3","1538","1538","0","[[1,0,0],[3,0],[2]]","1","[[2,0,0],[1,3],[0]]","10","0","","","","","","6","","","","","","","","",""
"","","","","","single-stim-button","160","397118","0.0-2.0-40.1-0.1","5c1a4d7d1aea120001fdd685","C3","batch3","","1101","tol_tohand","","","","tol_peg_1","1101","1101","0","[[0,0,0],[3,0],[2]]","2","[[2,0,0],[1,3],[0]]","10","0","","","","","","6","","","","","","","","",""
"","","","","","single-stim-button","161","397996","0.0-2.0-40.1-1.1","5c1a4d7d1aea120001fdd685","C3","batch3","","877","tol_toboard","","","","tol_peg_2","877","877","0","[[0,0,0],[3,1],[2]]","2","[[2,0,0],[1,3],[0]]","10","0","","","","","","6","","","","","","","","",""
"","","","","","single-stim-button","162","398917","0.0-2.0-40.2-0.2","5c1a4d7d1aea120001fdd685","C3","batch3","","921","tol_tohand","","","","tol_peg_3","921","921","0","[[0,0,0],[3,1],[0]]","3","[[2,0,0],[1,3],[0]]","10","0","","","","","","6","","","","","","","","",""
"","","","","","single-stim-button","163","400196","0.0-2.0-40.2-1.2","5c1a4d7d1aea120001fdd685","C3","batch3","","1278","tol_toboard","","","","tol_peg_1","1278","1278","0","[[2,0,0],[3,1],[0]]","3","[[2,0,0],[1,3],[0]]","10","0","","","","","","6","","","","","","","","",""
"","","","","","single-stim-button","164","401570","0.0-2.0-40.3-0.3","5c1a4d7d1aea120001fdd685","C3","batch3","","1373","tol_tohand","","","","tol_peg_2","1373","1373","0","[[2,0,0],[3,0],[0]]","4","[[2,0,0],[1,3],[0]]","10","0","","","","","","6","","","","","","","","",""
"","","","","","single-stim-button","165","403033","0.0-2.0-40.3-1.3","5c1a4d7d1aea120001fdd685","C3","batch3","","1461","tol_toboard","","","","tol_peg_3","1461","1461","0","[[2,0,0],[3,0],[1]]","4","[[2,0,0],[1,3],[0]]","10","0","","","","","","6","","","","","","","","",""
"","","","","","single-stim-button","166","403685","0.0-2.0-40.4-0.4","5c1a4d7d1aea120001fdd685","C3","batch3","","651","tol_tohand","","","","tol_peg_2","651","651","0","[[2,0,0],[0,0],[1]]","5","[[2,0,0],[1,3],[0]]","10","0","","","","","","6","","","","","","","","",""
"","","","","","single-stim-button","167","404810","0.0-2.0-40.4-1.4","5c1a4d7d1aea120001fdd685","C3","batch3","","1124","tol_toboard","","","","tol_peg_1","1124","1124","0","[[2,3,0],[0,0],[1]]","5","[[2,0,0],[1,3],[0]]","10","0","","","","","","6","","","","","","","","",""
"","","","","","single-stim-button","168","405766","0.0-2.0-40.5-0.5","5c1a4d7d1aea120001fdd685","C3","batch3","","955","tol_tohand","","","","tol_peg_3","955","955","0","[[2,3,0],[0,0],[0]]","6","[[2,0,0],[1,3],[0]]","10","0","","","","","","6","","","","","","","","",""
"","","","","","single-stim-button","169","406879","0.0-2.0-40.5-1.5","5c1a4d7d1aea120001fdd685","C3","batch3","","1111","tol_toboard","","","","tol_peg_2","1111","1111","0","[[2,3,0],[1,0],[0]]","6","[[2,0,0],[1,3],[0]]","10","0","","","","","","6","","","","","","","","",""
"","","","","","single-stim-button","170","407771","0.0-2.0-40.6-0.6","5c1a4d7d1aea120001fdd685","C3","batch3","","891","tol_tohand","","","","tol_peg_1","891","891","0","[[2,0,0],[1,0],[0]]","7","[[2,0,0],[1,3],[0]]","10","0","","","","","","6","","","","","","","","",""
"","","","","","single-stim-button","171","408400","0.0-2.0-40.6-1.6","5c1a4d7d1aea120001fdd685","C3","batch3","","628","tol_toboard","","","","tol_peg_2","628","628","0","[[2,0,0],[1,3],[0]]","7","[[2,0,0],[1,3],[0]]","10","0","","","","","","6","","","","","","","","",""
"","","","","","poldrack-single-stim","172","409407","0.0-2.0-41.0","5c1a4d7d1aea120001fdd685","C3","batch3","","-1","tol_feedback","","","true","","1000","1000","500","","","","","","-1","none","true","9451","15343","","","","","","","","","",""
"","","","","","html-button-response","173","410706","0.0-2.0-42.0","5c1a4d7d1aea120001fdd685","C3","batch3","","1298","tol_trial_num","<div class = centerbox><p class = center-block-text>problem <strong>12</strong> out of 25 problems</p></div>","0","","","","","","","","","","","","","","","","","","","","","","","","",""
"","","","","","single-stim-button","174","415274","0.0-2.0-43.0-0.0","5c1a4d7d1aea120001fdd685","C3","batch3","","4567","tol_tohand","","","","tol_peg_1","4567","4567","0","[[1,0,0],[3,0],[0]]","1","[[2,3,0],[0,0],[1]]","11","0","","","","","","4","","","","","","","","",""
"","","","","","single-stim-button","175","416500","0.0-2.0-43.0-1.0","5c1a4d7d1aea120001fdd685","C3","batch3","","1225","tol_toboard","","","","tol_peg_2","1225","1225","0","[[1,0,0],[3,2],[0]]","1","[[2,3,0],[0,0],[1]]","11","0","","","","","","4","","","","","","","","",""
"","","","","","single-stim-button","176","417244","0.0-2.0-43.1-0.1","5c1a4d7d1aea120001fdd685","C3","batch3","","742","tol_tohand","","","","tol_peg_1","742","742","0","[[0,0,0],[3,2],[0]]","2","[[2,3,0],[0,0],[1]]","11","0","","","","","","4","","","","","","","","",""
"","","","","","single-stim-button","177","418298","0.0-2.0-43.1-1.1","5c1a4d7d1aea120001fdd685","C3","batch3","","1053","tol_toboard","","","","tol_peg_3","1053","1053","0","[[0,0,0],[3,2],[1]]","2","[[2,3,0],[0,0],[1]]","11","0","","","","","","4","","","","","","","","",""
"","","","","","single-stim-button","178","419097","0.0-2.0-43.2-0.2","5c1a4d7d1aea120001fdd685","C3","batch3","","798","tol_tohand","","","","tol_peg_2","798","798","0","[[0,0,0],[3,0],[1]]","3","[[2,3,0],[0,0],[1]]","11","0","","","","","","4","","","","","","","","",""
"","","","","","single-stim-button","179","420100","0.0-2.0-43.2-1.2","5c1a4d7d1aea120001fdd685","C3","batch3","","1001","tol_toboard","","","","tol_peg_1","1001","1001","0","[[2,0,0],[3,0],[1]]","3","[[2,3,0],[0,0],[1]]","11","0","","","","","","4","","","","","","","","",""
"","","","","","single-stim-button","180","420820","0.0-2.0-43.3-0.3","5c1a4d7d1aea120001fdd685","C3","batch3","","718","tol_tohand","","","","tol_peg_2","718","718","0","[[2,0,0],[0,0],[1]]","4","[[2,3,0],[0,0],[1]]","11","0","","","","","","4","","","","","","","","",""
"","","","","","single-stim-button","181","422126","0.0-2.0-43.3-1.3","5c1a4d7d1aea120001fdd685","C3","batch3","","1304","tol_toboard","","","","tol_peg_1","1304","1304","0","[[2,3,0],[0,0],[1]]","4","[[2,3,0],[0,0],[1]]","11","0","","","","","","4","","","","","","","","",""
"","","","","","poldrack-single-stim","182","423135","0.0-2.0-44.0","5c1a4d7d1aea120001fdd685","C3","batch3","","-1","tol_feedback","","","true","","1000","1000","500","","","","","","-1","none","true","4567","6825","","","","","","","","","",""
"","","","","","html-button-response","183","424643","0.0-2.0-45.0","5c1a4d7d1aea120001fdd685","C3","batch3","","1506.5","tol_trial_num","<div class = centerbox><p class = center-block-text>problem <strong>13</strong> out of 25 problems</p></div>","0","","","","","","","","","","","","","","","","","","","","","","","","",""
"","","","","","single-stim-button","184","431160","0.0-2.0-46.0-0.0","5c1a4d7d1aea120001fdd685","C3","batch3","","6515","tol_tohand","","","","tol_peg_1","6515","6515","0","[[1,0,0],[3,0],[0]]","1","[[0,0,0],[2,3],[1]]","12","0","","","","","","4","","","","","","","","",""
"","","","","","single-stim-button","185","431980","0.0-2.0-46.0-1.0","5c1a4d7d1aea120001fdd685","C3","batch3","","819","tol_toboard","","","","tol_peg_2","819","819","0","[[1,0,0],[3,2],[0]]","1","[[0,0,0],[2,3],[1]]","12","0","","","","","","4","","","","","","","","",""
"","","","","","single-stim-button","186","432709","0.0-2.0-46.1-0.1","5c1a4d7d1aea120001fdd685","C3","batch3","","728","tol_tohand","","","","tol_peg_1","728","728","0","[[0,0,0],[3,2],[0]]","2","[[0,0,0],[2,3],[1]]","12","0","","","","","","4","","","","","","","","",""
"","","","","","single-stim-button","187","433610","0.0-2.0-46.1-1.1","5c1a4d7d1aea120001fdd685","C3","batch3","","900","tol_toboard","","","","tol_peg_3","900","900","0","[[0,0,0],[3,2],[1]]","2","[[0,0,0],[2,3],[1]]","12","0","","","","","","4","","","","","","","","",""
"","","","","","single-stim-button","188","434487","0.0-2.0-46.2-0.2","5c1a4d7d1aea120001fdd685","C3","batch3","","876","tol_tohand","","","","tol_peg_2","876","876","0","[[0,0,0],[3,0],[1]]","3","[[0,0,0],[2,3],[1]]","12","0","","","","","","4","","","","","","","","",""
"","","","","","single-stim-button","189","447877","0.0-2.0-46.2-1.2","5c1a4d7d1aea120001fdd685","C3","batch3","","13389","tol_toboard","","","","tol_peg_1","13389","13389","0","[[2,0,0],[3,0],[1]]","3","[[0,0,0],[2,3],[1]]","12","0","","","","","","4","","","","","","","","",""
"","","","","","single-stim-button","190","449191","0.0-2.0-46.3-0.3","5c1a4d7d1aea120001fdd685","C3","batch3","","1312","tol_tohand","","","","tol_peg_3","1312","1312","0","[[2,0,0],[3,0],[0]]","4","[[0,0,0],[2,3],[1]]","12","0","","","","","","4","","","","","","","","",""
"","","","","","single-stim-button","191","454211","0.0-2.0-46.3-1.3","5c1a4d7d1aea120001fdd685","C3","batch3","","5018","tol_toboard","","","","tol_peg_2","5018","5018","0","[[2,0,0],[3,1],[0]]","4","[[0,0,0],[2,3],[1]]","12","0","","","","","","4","","","","","","","","",""
"","","","","","single-stim-button","192","454904","0.0-2.0-46.4-0.4","5c1a4d7d1aea120001fdd685","C3","batch3","","692","tol_tohand","","","","tol_peg_1","692","692","0","[[0,0,0],[3,1],[0]]","5","[[0,0,0],[2,3],[1]]","12","0","","","","","","4","","","","","","","","",""
"","","","","","single-stim-button","193","456189","0.0-2.0-46.4-1.4","5c1a4d7d1aea120001fdd685","C3","batch3","","1284","tol_toboard","","","","tol_peg_3","1284","1284","0","[[0,0,0],[3,1],[2]]","5","[[0,0,0],[2,3],[1]]","12","0","","","","","","4","","","","","","","","",""
"","","","","","single-stim-button","194","459230","0.0-2.0-46.5-0.5","5c1a4d7d1aea120001fdd685","C3","batch3","","3039","tol_tohand","","","","tol_peg_2","3039","3039","0","[[0,0,0],[3,0],[2]]","6","[[0,0,0],[2,3],[1]]","12","0","","","","","","4","","","","","","","","",""
"","","","","","single-stim-button","195","460195","0.0-2.0-46.5-1.5","5c1a4d7d1aea120001fdd685","C3","batch3","","965","tol_toboard","","","","tol_peg_1","965","965","0","[[1,0,0],[3,0],[2]]","6","[[0,0,0],[2,3],[1]]","12","0","","","","","","4","","","","","","","","",""
"","","","","","single-stim-button","196","460849","0.0-2.0-46.6-0.6","5c1a4d7d1aea120001fdd685","C3","batch3","","652","tol_tohand","","","","tol_peg_2","652","652","0","[[1,0,0],[0,0],[2]]","7","[[0,0,0],[2,3],[1]]","12","0","","","","","","4","","","","","","","","",""
"","","","","","single-stim-button","197","462331","0.0-2.0-46.6-1.6","5c1a4d7d1aea120001fdd685","C3","batch3","","1480","tol_toboard","","","","tol_peg_1","1480","1480","0","[[1,3,0],[0,0],[2]]","7","[[0,0,0],[2,3],[1]]","12","0","","","","","","4","","","","","","","","",""
"","","","","","single-stim-button","198","463244","0.0-2.0-46.7-0.7","5c1a4d7d1aea120001fdd685","C3","batch3","","913","tol_tohand","","","","tol_peg_3","913","913","0","[[1,3,0],[0,0],[0]]","8","[[0,0,0],[2,3],[1]]","12","0","","","","","","4","","","","","","","","",""
"","","","","","single-stim-button","199","464131","0.0-2.0-46.7-1.7","5c1a4d7d1aea120001fdd685","C3","batch3","","886","tol_toboard","","","","tol_peg_2","886","886","0","[[1,3,0],[2,0],[0]]","8","[[0,0,0],[2,3],[1]]","12","0","","","","","","4","","","","","","","","",""
"","","","","","single-stim-button","200","464939","0.0-2.0-46.8-0.8","5c1a4d7d1aea120001fdd685","C3","batch3","","807","tol_tohand","","","","tol_peg_1","807","807","0","[[1,0,0],[2,0],[0]]","9","[[0,0,0],[2,3],[1]]","12","0","","","","","","4","","","","","","","","",""
"","","","","","single-stim-button","201","465877","0.0-2.0-46.8-1.8","5c1a4d7d1aea120001fdd685","C3","batch3","","937","tol_toboard","","","","tol_peg_2","937","937","0","[[1,0,0],[2,3],[0]]","9","[[0,0,0],[2,3],[1]]","12","0","","","","","","4","","","","","","","","",""
"","","","","","single-stim-button","202","466778","0.0-2.0-46.9-0.9","5c1a4d7d1aea120001fdd685","C3","batch3","","899","tol_tohand","","","","tol_peg_1","899","899","0","[[0,0,0],[2,3],[0]]","10","[[0,0,0],[2,3],[1]]","12","0","","","","","","4","","","","","","","","",""
"","","","","","single-stim-button","203","468069","0.0-2.0-46.9-1.9","5c1a4d7d1aea120001fdd685","C3","batch3","","1290","tol_toboard","","","","tol_peg_3","1290","1290","0","[[0,0,0],[2,3],[1]]","10","[[0,0,0],[2,3],[1]]","12","0","","","","","","4","","","","","","","","",""
"","","","","","poldrack-single-stim","204","469081","0.0-2.0-47.0","5c1a4d7d1aea120001fdd685","C3","batch3","","-1","tol_feedback","","","true","","1000","1000","500","","","","","","-1","none","true","6515","16433","","","","","","","","","",""
"","","","","","html-button-response","205","473957","0.0-2.0-48.0","5c1a4d7d1aea120001fdd685","C3","batch3","","4873.799999952316","attention_check","<p class = block-text>How many balls are in your board<br></p>","1","true","","","","","","","","","","","","","","","","","","","","","","","",""
"","","","","","html-button-response","206","476035","0.0-2.0-49.0","5c1a4d7d1aea120001fdd685","C3","batch3","","2076.2000000476837","tol_trial_num","<div class = centerbox><p class = center-block-text>problem <strong>14</strong> out of 25 problems</p></div>","0","","","","","","","","","","","","","","","","","","","","","","","","",""
"","","","","","single-stim-button","207","480952","0.0-2.0-50.0-0.0","5c1a4d7d1aea120001fdd685","C3","batch3","","4914","tol_tohand","","","","tol_peg_1","4914","4914","0","[[2,0,0],[3,0],[0]]","1","[[1,2,0],[3,0],[0]]","13","0","","","","","","4","","","","","","","","",""
"","","","","","single-stim-button","208","482189","0.0-2.0-50.0-1.0","5c1a4d7d1aea120001fdd685","C3","batch3","","1236","tol_toboard","","","","tol_peg_3","1236","1236","0","[[2,0,0],[3,0],[1]]","1","[[1,2,0],[3,0],[0]]","13","0","","","","","","4","","","","","","","","",""
"","","","","","single-stim-button","209","483258","0.0-2.0-50.1-0.1","5c1a4d7d1aea120001fdd685","C3","batch3","","1068","tol_tohand","","","","tol_peg_1","1068","1068","0","[[0,0,0],[3,0],[1]]","2","[[1,2,0],[3,0],[0]]","13","0","","","","","","4","","","","","","","","",""
"","","","","","single-stim-button","210","485372","0.0-2.0-50.1-1.1","5c1a4d7d1aea120001fdd685","C3","batch3","","2111","tol_toboard","","","","tol_peg_2","2111","2111","0","[[0,0,0],[3,2],[1]]","2","[[1,2,0],[3,0],[0]]","13","0","","","","","","4","","","","","","","","",""
"","","","","","single-stim-button","211","486261","0.0-2.0-50.2-0.2","5c1a4d7d1aea120001fdd685","C3","batch3","","887","tol_tohand","","","","tol_peg_3","887","887","0","[[0,0,0],[3,2],[0]]","3","[[1,2,0],[3,0],[0]]","13","0","","","","","","4","","","","","","","","",""
"","","","","","single-stim-button","212","487575","0.0-2.0-50.2-1.2","5c1a4d7d1aea120001fdd685","C3","batch3","","1314","tol_toboard","","","","tol_peg_1","1314","1314","0","[[1,0,0],[3,2],[0]]","3","[[1,2,0],[3,0],[0]]","13","0","","","","","","4","","","","","","","","",""
"","","","","","single-stim-button","213","488397","0.0-2.0-50.3-0.3","5c1a4d7d1aea120001fdd685","C3","batch3","","821","tol_tohand","","","","tol_peg_2","821","821","0","[[1,0,0],[3,0],[0]]","4","[[1,2,0],[3,0],[0]]","13","0","","","","","","4","","","","","","","","",""
"","","","","","single-stim-button","214","489353","0.0-2.0-50.3-1.3","5c1a4d7d1aea120001fdd685","C3","batch3","","953","tol_toboard","","","","tol_peg_1","953","953","0","[[1,2,0],[3,0],[0]]","4","[[1,2,0],[3,0],[0]]","13","0","","","","","","4","","","","","","","","",""
"","","","","","poldrack-single-stim","215","490360","0.0-2.0-51.0","5c1a4d7d1aea120001fdd685","C3","batch3","","-1","tol_feedback","","","true","","1000","1000","500","","","","","","-1","none","true","4914","7690","","","","","","","","","",""
"","","","","","html-button-response","216","492212","0.0-2.0-52.0","5c1a4d7d1aea120001fdd685","C3","batch3","","1850.5","tol_trial_num","<div class = centerbox><p class = center-block-text>problem <strong>15</strong> out of 25 problems</p></div>","0","","","","","","","","","","","","","","","","","","","","","","","","",""
"","","","","","single-stim-button","217","496429","0.0-2.0-53.0-0.0","5c1a4d7d1aea120001fdd685","C3","batch3","","4215","tol_tohand","","","","tol_peg_1","4215","4215","0","[[1,0,0],[3,0],[0]]","1","[[2,0,0],[3,0],[1]]","14","0","","","","","","3","","","","","","","","",""
"","","","","","single-stim-button","218","497138","0.0-2.0-53.0-1.0","5c1a4d7d1aea120001fdd685","C3","batch3","","708","tol_toboard","","","","tol_peg_2","708","708","0","[[1,0,0],[3,2],[0]]","1","[[2,0,0],[3,0],[1]]","14","0","","","","","","3","","","","","","","","",""
"","","","","","single-stim-button","219","497917","0.0-2.0-53.1-0.1","5c1a4d7d1aea120001fdd685","C3","batch3","","777","tol_tohand","","","","tol_peg_1","777","777","0","[[0,0,0],[3,2],[0]]","2","[[2,0,0],[3,0],[1]]","14","0","","","","","","3","","","","","","","","",""
"","","","","","single-stim-button","220","499196","0.0-2.0-53.1-1.1","5c1a4d7d1aea120001fdd685","C3","batch3","","1277","tol_toboard","","","","tol_peg_3","1277","1277","0","[[0,0,0],[3,2],[1]]","2","[[2,0,0],[3,0],[1]]","14","0","","","","","","3","","","","","","","","",""
"","","","","","single-stim-button","221","500177","0.0-2.0-53.2-0.2","5c1a4d7d1aea120001fdd685","C3","batch3","","979","tol_tohand","","","","tol_peg_2","979","979","0","[[0,0,0],[3,0],[1]]","3","[[2,0,0],[3,0],[1]]","14","0","","","","","","3","","","","","","","","",""
"","","","","","single-stim-button","222","501153","0.0-2.0-53.2-1.2","5c1a4d7d1aea120001fdd685","C3","batch3","","975","tol_toboard","","","","tol_peg_1","975","975","0","[[2,0,0],[3,0],[1]]","3","[[2,0,0],[3,0],[1]]","14","0","","","","","","3","","","","","","","","",""
"","","","","","poldrack-single-stim","223","502160","0.0-2.0-54.0","5c1a4d7d1aea120001fdd685","C3","batch3","","-1","tol_feedback","","","true","","1000","1000","500","","","","","","-1","none","true","4215","5971","","","","","","","","","",""
"","","","","","html-button-response","224","503471","0.0-2.0-55.0","5c1a4d7d1aea120001fdd685","C3","batch3","","1309.5999999046326","tol_trial_num","<div class = centerbox><p class = center-block-text>problem <strong>16</strong> out of 25 problems</p></div>","0","","","","","","","","","","","","","","","","","","","","","","","","",""
"","","","","","single-stim-button","225","509805","0.0-2.0-56.0-0.0","5c1a4d7d1aea120001fdd685","C3","batch3","","6331","tol_tohand","","","","tol_peg_2","6331","6331","0","[[0,0,0],[2,0],[1]]","1","[[2,3,0],[1,0],[0]]","15","0","","","","","","7","","","","","","","","",""
"","","","","","single-stim-button","226","510773","0.0-2.0-56.0-1.0","5c1a4d7d1aea120001fdd685","C3","batch3","","966","tol_toboard","","","","tol_peg_1","966","966","0","[[3,0,0],[2,0],[1]]","1","[[2,3,0],[1,0],[0]]","15","0","","","","","","7","","","","","","","","",""
"","","","","","single-stim-button","227","511753","0.0-2.0-56.1-0.1","5c1a4d7d1aea120001fdd685","C3","batch3","","979","tol_tohand","","","","tol_peg_2","979","979","0","[[3,0,0],[0,0],[1]]","2","[[2,3,0],[1,0],[0]]","15","0","","","","","","7","","","","","","","","",""
"","","","","","single-stim-button","228","512617","0.0-2.0-56.1-1.1","5c1a4d7d1aea120001fdd685","C3","batch3","","863","tol_toboard","","","","tol_peg_1","863","863","0","[[3,2,0],[0,0],[1]]","2","[[2,3,0],[1,0],[0]]","15","0","","","","","","7","","","","","","","","",""
"","","","","","single-stim-button","229","516310","0.0-2.0-56.2-0.2","5c1a4d7d1aea120001fdd685","C3","batch3","","3692","tol_tohand","","","","tol_peg_3","3692","3692","0","[[3,2,0],[0,0],[0]]","3","[[2,3,0],[1,0],[0]]","15","0","","","","","","7","","","","","","","","",""
"","","","","","single-stim-button","230","517476","0.0-2.0-56.2-1.2","5c1a4d7d1aea120001fdd685","C3","batch3","","1165","tol_toboard","","","","tol_peg_2","1165","1165","0","[[3,2,0],[1,0],[0]]","3","[[2,3,0],[1,0],[0]]","15","0","","","","","","7","","","","","","","","",""
"","","","","","single-stim-button","231","518379","0.0-2.0-56.3-0.3","5c1a4d7d1aea120001fdd685","C3","batch3","","902","tol_tohand","","","","tol_peg_1","902","902","0","[[3,0,0],[1,0],[0]]","4","[[2,3,0],[1,0],[0]]","15","0","","","","","","7","","","","","","","","",""
"","","","","","single-stim-button","232","521280","0.0-2.0-56.3-1.3","5c1a4d7d1aea120001fdd685","C3","batch3","","2900","tol_toboard","","","","tol_peg_2","2900","2900","0","[[3,0,0],[1,2],[0]]","4","[[2,3,0],[1,0],[0]]","15","0","","","","","","7","","","","","","","","",""
"","","","","","single-stim-button","233","522033","0.0-2.0-56.4-0.4","5c1a4d7d1aea120001fdd685","C3","batch3","","752","tol_tohand","","","","tol_peg_1","752","752","0","[[0,0,0],[1,2],[0]]","5","[[2,3,0],[1,0],[0]]","15","0","","","","","","7","","","","","","","","",""
"","","","","","single-stim-button","234","523562","0.0-2.0-56.4-1.4","5c1a4d7d1aea120001fdd685","C3","batch3","","1528","tol_toboard","","","","tol_peg_3","1528","1528","0","[[0,0,0],[1,2],[3]]","5","[[2,3,0],[1,0],[0]]","15","0","","","","","","7","","","","","","","","",""
"","","","","","single-stim-button","235","524139","0.0-2.0-56.5-0.5","5c1a4d7d1aea120001fdd685","C3","batch3","","574","tol_tohand","","","","tol_peg_2","574","574","0","[[0,0,0],[1,0],[3]]","6","[[2,3,0],[1,0],[0]]","15","0","","","","","","7","","","","","","","","",""
"","","","","","single-stim-button","236","525096","0.0-2.0-56.5-1.5","5c1a4d7d1aea120001fdd685","C3","batch3","","955","tol_toboard","","","","tol_peg_1","955","955","0","[[2,0,0],[1,0],[3]]","6","[[2,3,0],[1,0],[0]]","15","0","","","","","","7","","","","","","","","",""
"","","","","","single-stim-button","237","525802","0.0-2.0-56.6-0.6","5c1a4d7d1aea120001fdd685","C3","batch3","","705","tol_tohand","","","","tol_peg_3","705","705","0","[[2,0,0],[1,0],[0]]","7","[[2,3,0],[1,0],[0]]","15","0","","","","","","7","","","","","","","","",""
"","","","","","single-stim-button","238","526692","0.0-2.0-56.6-1.6","5c1a4d7d1aea120001fdd685","C3","batch3","","888","tol_toboard","","","","tol_peg_1","888","888","0","[[2,3,0],[1,0],[0]]","7","[[2,3,0],[1,0],[0]]","15","0","","","","","","7","","","","","","","","",""
"","","","","","poldrack-single-stim","239","527702","0.0-2.0-57.0","5c1a4d7d1aea120001fdd685","C3","batch3","","-1","tol_feedback","","","true","","1000","1000","500","","","","","","-1","none","true","6331","13935","","","","","","","","","",""
"","","","","","html-button-response","240","529212","0.0-2.0-58.0","5c1a4d7d1aea120001fdd685","C3","batch3","","1507.5","tol_trial_num","<div class = centerbox><p class = center-block-text>problem <strong>17</strong> out of 25 problems</p></div>","0","","","","","","","","","","","","","","","","","","","","","","","","",""
"","","","","","single-stim-button","241","534410","0.0-2.0-59.0-0.0","5c1a4d7d1aea120001fdd685","C3","batch3","","5196","tol_tohand","","","","tol_peg_1","5196","5196","0","[[1,0,0],[3,0],[0]]","1","[[3,1,0],[2,0],[0]]","16","0","","","","","","5","","","","","","","","",""
"","","","","","single-stim-button","242","535532","0.0-2.0-59.0-1.0","5c1a4d7d1aea120001fdd685","C3","batch3","","1122","tol_toboard","","","","tol_peg_3","1122","1122","0","[[1,0,0],[3,0],[2]]","1","[[3,1,0],[2,0],[0]]","16","0","","","","","","5","","","","","","","","",""
"","","","","","single-stim-button","243","536364","0.0-2.0-59.1-0.1","5c1a4d7d1aea120001fdd685","C3","batch3","","831","tol_tohand","","","","tol_peg_1","831","831","0","[[0,0,0],[3,0],[2]]","2","[[3,1,0],[2,0],[0]]","16","0","","","","","","5","","","","","","","","",""
"","","","","","single-stim-button","244","540327","0.0-2.0-59.1-1.1","5c1a4d7d1aea120001fdd685","C3","batch3","","3962","tol_toboard","","","","tol_peg_2","3962","3962","0","[[0,0,0],[3,1],[2]]","2","[[3,1,0],[2,0],[0]]","16","0","","","","","","5","","","","","","","","",""
"","","","","","single-stim-button","245","544525","0.0-2.0-59.2-0.2","5c1a4d7d1aea120001fdd685","C3","batch3","","4195","tol_tohand","","","","tol_peg_3","4195","4195","0","[[0,0,0],[3,1],[0]]","3","[[3,1,0],[2,0],[0]]","16","0","","","","","","5","","","","","","","","",""
"","","","","","single-stim-button","246","557470","0.0-2.0-59.2-1.2","5c1a4d7d1aea120001fdd685","C3","batch3","","12944","tol_toboard","","","","tol_peg_1","12944","12944","0","[[2,0,0],[3,1],[0]]","3","[[3,1,0],[2,0],[0]]","16","0","","","","","","5","","","","","","","","",""
"","","","","","single-stim-button","247","558574","0.0-2.0-59.3-0.3","5c1a4d7d1aea120001fdd685","C3","batch3","","1101","tol_tohand","","","","tol_peg_2","1101","1101","0","[[2,0,0],[3,0],[0]]","4","[[3,1,0],[2,0],[0]]","16","0","","","","","","5","","","","","","","","",""
"","","","","","single-stim-button","248","559532","0.0-2.0-59.3-1.3","5c1a4d7d1aea120001fdd685","C3","batch3","","956","tol_toboard","","","","tol_peg_3","956","956","0","[[2,0,0],[3,0],[1]]","4","[[3,1,0],[2,0],[0]]","16","0","","","","","","5","","","","","","","","",""
"","","","","","single-stim-button","249","573434","0.0-2.0-59.4-0.4","5c1a4d7d1aea120001fdd685","C3","batch3","","13901","tol_tohand","","","","tol_peg_2","13901","13901","0","[[2,0,0],[0,0],[1]]","5","[[3,1,0],[2,0],[0]]","16","0","","","","","","5","","","","","","","","",""
"","","","","","single-stim-button","250","575372","0.0-2.0-59.4-1.4","5c1a4d7d1aea120001fdd685","C3","batch3","","1936","tol_toboard","","","","tol_peg_1","1936","1936","0","[[2,3,0],[0,0],[1]]","5","[[3,1,0],[2,0],[0]]","16","0","","","","","","5","","","","","","","","",""
"","","","","","single-stim-button","251","576359","0.0-2.0-59.5-0.5","5c1a4d7d1aea120001fdd685","C3","batch3","","985","tol_tohand","","","","tol_peg_3","985","985","0","[[2,3,0],[0,0],[0]]","6","[[3,1,0],[2,0],[0]]","16","0","","","","","","5","","","","","","","","",""
"","","","","","single-stim-button","252","577263","0.0-2.0-59.5-1.5","5c1a4d7d1aea120001fdd685","C3","batch3","","903","tol_toboard","","","","tol_peg_2","903","903","0","[[2,3,0],[1,0],[0]]","6","[[3,1,0],[2,0],[0]]","16","0","","","","","","5","","","","","","","","",""
"","","","","","single-stim-button","253","579070","0.0-2.0-59.6-0.6","5c1a4d7d1aea120001fdd685","C3","batch3","","1805","tol_tohand","","","","tol_peg_1","1805","1805","0","[[2,0,0],[1,0],[0]]","7","[[3,1,0],[2,0],[0]]","16","0","","","","","","5","","","","","","","","",""
"","","","","","single-stim-button","254","580329","0.0-2.0-59.6-1.6","5c1a4d7d1aea120001fdd685","C3","batch3","","1258","tol_toboard","","","","tol_peg_3","1258","1258","0","[[2,0,0],[1,0],[3]]","7","[[3,1,0],[2,0],[0]]","16","0","","","","","","5","","","","","","","","",""
"","","","","","single-stim-button","255","581321","0.0-2.0-59.7-0.7","5c1a4d7d1aea120001fdd685","C3","batch3","","990","tol_tohand","","","","tol_peg_1","990","990","0","[[0,0,0],[1,0],[3]]","8","[[3,1,0],[2,0],[0]]","16","0","","","","","","5","","","","","","","","",""
"","","","","","single-stim-button","256","582458","0.0-2.0-59.7-1.7","5c1a4d7d1aea120001fdd685","C3","batch3","","1137","tol_toboard","","","","tol_peg_2","1137","1137","0","[[0,0,0],[1,2],[3]]","8","[[3,1,0],[2,0],[0]]","16","0","","","","","","5","","","","","","","","",""
"","","","","","single-stim-button","257","583177","0.0-2.0-59.8-0.8","5c1a4d7d1aea120001fdd685","C3","batch3","","716","tol_tohand","","","","tol_peg_3","716","716","0","[[0,0,0],[1,2],[0]]","9","[[3,1,0],[2,0],[0]]","16","0","","","","","","5","","","","","","","","",""
"","","","","","single-stim-button","258","584133","0.0-2.0-59.8-1.8","5c1a4d7d1aea120001fdd685","C3","batch3","","955","tol_toboard","","","","tol_peg_1","955","955","0","[[3,0,0],[1,2],[0]]","9","[[3,1,0],[2,0],[0]]","16","0","","","","","","5","","","","","","","","",""
"","","","","","single-stim-button","259","584807","0.0-2.0-59.9-0.9","5c1a4d7d1aea120001fdd685","C3","batch3","","671","tol_tohand","","","","tol_peg_2","671","671","0","[[3,0,0],[1,0],[0]]","10","[[3,1,0],[2,0],[0]]","16","0","","","","","","5","","","","","","","","",""
"","","","","","single-stim-button","260","586766","0.0-2.0-59.9-1.9","5c1a4d7d1aea120001fdd685","C3","batch3","","1958","tol_toboard","","","","tol_peg_3","1958","1958","0","[[3,0,0],[1,0],[2]]","10","[[3,1,0],[2,0],[0]]","16","0","","","","","","5","","","","","","","","",""
"","","","","","single-stim-button","261","587420","0.0-2.0-59.10-0.10","5c1a4d7d1aea120001fdd685","C3","batch3","","653","tol_tohand","","","","tol_peg_2","653","653","0","[[3,0,0],[0,0],[2]]","11","[[3,1,0],[2,0],[0]]","16","0","","","","","","5","","","","","","","","",""
"","","","","","single-stim-button","262","588149","0.0-2.0-59.10-1.10","5c1a4d7d1aea120001fdd685","C3","batch3","","728","tol_toboard","","","","tol_peg_1","728","728","0","[[3,1,0],[0,0],[2]]","11","[[3,1,0],[2,0],[0]]","16","0","","","","","","5","","","","","","","","",""
"","","","","","single-stim-button","263","588948","0.0-2.0-59.11-0.11","5c1a4d7d1aea120001fdd685","C3","batch3","","797","tol_tohand","","","","tol_peg_3","797","797","0","[[3,1,0],[0,0],[0]]","12","[[3,1,0],[2,0],[0]]","16","0","","","","","","5","","","","","","","","",""
"","","","","","single-stim-button","264","589994","0.0-2.0-59.11-1.11","5c1a4d7d1aea120001fdd685","C3","batch3","","1044","tol_toboard","","","","tol_peg_2","1044","1044","0","[[3,1,0],[2,0],[0]]","12","[[3,1,0],[2,0],[0]]","16","0","","","","","","5","","","","","","","","",""
"","","","","","poldrack-single-stim","265","591005","0.0-2.0-60.0","5c1a4d7d1aea120001fdd685","C3","batch3","","-1","tol_feedback","","","true","","1000","1000","500","","","","","","-1","none","true","5196","31841","","","","","","","","","",""
"","","","","","html-button-response","266","592359","0.0-2.0-61.0","5c1a4d7d1aea120001fdd685","C3","batch3","","1353.2999999523163","tol_trial_num","<div class = centerbox><p class = center-block-text>problem <strong>18</strong> out of 25 problems</p></div>","0","","","","","","","","","","","","","","","","","","","","","","","","",""
"","","","","","single-stim-button","267","599635","0.0-2.0-62.0-0.0","5c1a4d7d1aea120001fdd685","C3","batch3","","7275","tol_tohand","","","","tol_peg_1","7275","7275","0","[[1,0,0],[3,0],[0]]","1","[[3,0,0],[2,0],[1]]","17","0","","","","","","5","","","","","","","","",""
"","","","","","single-stim-button","268","602371","0.0-2.0-62.0-1.0","5c1a4d7d1aea120001fdd685","C3","batch3","","2733","tol_toboard","","","","tol_peg_2","2733","2733","0","[[1,0,0],[3,2],[0]]","1","[[3,0,0],[2,0],[1]]","17","0","","","","","","5","","","","","","","","",""
"","","","","","single-stim-button","269","605948","0.0-2.0-62.1-0.1","5c1a4d7d1aea120001fdd685","C3","batch3","","3576","tol_tohand","","","","tol_peg_2","3576","3576","0","[[1,0,0],[3,0],[0]]","2","[[3,0,0],[2,0],[1]]","17","0","","","","","","5","","","","","","","","",""
"","","","","","single-stim-button","270","606847","0.0-2.0-62.1-1.1","5c1a4d7d1aea120001fdd685","C3","batch3","","897","tol_toboard","","","","tol_peg_1","897","897","0","[[1,2,0],[3,0],[0]]","2","[[3,0,0],[2,0],[1]]","17","0","","","","","","5","","","","","","","","",""
"","","","","","single-stim-button","271","609130","0.0-2.0-62.2-0.2","5c1a4d7d1aea120001fdd685","C3","batch3","","2282","tol_tohand","","","","tol_peg_2","2282","2282","0","[[1,2,0],[0,0],[0]]","3","[[3,0,0],[2,0],[1]]","17","0","","","","","","5","","","","","","","","",""
"","","","","","single-stim-button","272","610561","0.0-2.0-62.2-1.2","5c1a4d7d1aea120001fdd685","C3","batch3","","1429","tol_toboard","","","","tol_peg_3","1429","1429","0","[[1,2,0],[0,0],[3]]","3","[[3,0,0],[2,0],[1]]","17","0","","","","","","5","","","","","","","","",""
"","","","","","single-stim-button","273","611416","0.0-2.0-62.3-0.3","5c1a4d7d1aea120001fdd685","C3","batch3","","854","tol_tohand","","","","tol_peg_1","854","854","0","[[1,0,0],[0,0],[3]]","4","[[3,0,0],[2,0],[1]]","17","0","","","","","","5","","","","","","","","",""
"","","","","","single-stim-button","274","612390","0.0-2.0-62.3-1.3","5c1a4d7d1aea120001fdd685","C3","batch3","","973","tol_toboard","","","","tol_peg_2","973","973","0","[[1,0,0],[2,0],[3]]","4","[[3,0,0],[2,0],[1]]","17","0","","","","","","5","","","","","","","","",""
"","","","","","single-stim-button","275","613396","0.0-2.0-62.4-0.4","5c1a4d7d1aea120001fdd685","C3","batch3","","1004","tol_tohand","","","","tol_peg_1","1004","1004","0","[[0,0,0],[2,0],[3]]","5","[[3,0,0],[2,0],[1]]","17","0","","","","","","5","","","","","","","","",""
"","","","","","single-stim-button","276","614566","0.0-2.0-62.4-1.4","5c1a4d7d1aea120001fdd685","C3","batch3","","1167","tol_toboard","","","","tol_peg_2","1167","1167","0","[[0,0,0],[2,1],[3]]","5","[[3,0,0],[2,0],[1]]","17","0","","","","","","5","","","","","","","","",""
"","","","","","single-stim-button","277","615328","0.0-2.0-62.5-0.5","5c1a4d7d1aea120001fdd685","C3","batch3","","761","tol_tohand","","","","tol_peg_3","761","761","0","[[0,0,0],[2,1],[0]]","6","[[3,0,0],[2,0],[1]]","17","0","","","","","","5","","","","","","","","",""
"","","","","","single-stim-button","278","616637","0.0-2.0-62.5-1.5","5c1a4d7d1aea120001fdd685","C3","batch3","","1307","tol_toboard","","","","tol_peg_1","1307","1307","0","[[3,0,0],[2,1],[0]]","6","[[3,0,0],[2,0],[1]]","17","0","","","","","","5","","","","","","","","",""
"","","","","","single-stim-button","279","617489","0.0-2.0-62.6-0.6","5c1a4d7d1aea120001fdd685","C3","batch3","","850","tol_tohand","","","","tol_peg_2","850","850","0","[[3,0,0],[2,0],[0]]","7","[[3,0,0],[2,0],[1]]","17","0","","","","","","5","","","","","","","","",""
"","","","","","single-stim-button","280","618413","0.0-2.0-62.6-1.6","5c1a4d7d1aea120001fdd685","C3","batch3","","923","tol_toboard","","","","tol_peg_3","923","923","0","[[3,0,0],[2,0],[1]]","7","[[3,0,0],[2,0],[1]]","17","0","","","","","","5","","","","","","","","",""
"","","","","","poldrack-single-stim","281","619420","0.0-2.0-63.0","5c1a4d7d1aea120001fdd685","C3","batch3","","-1","tol_feedback","","","true","","1000","1000","500","","","","","","-1","none","true","7275","16602","","","","","","","","","",""
"","","","","","html-button-response","282","620855","0.0-2.0-64.0","5c1a4d7d1aea120001fdd685","C3","batch3","","1432.6000001430511","tol_trial_num","<div class = centerbox><p class = center-block-text>problem <strong>19</strong> out of 25 problems</p></div>","0","","","","","","","","","","","","","","","","","","","","","","","","",""
"","","","","","single-stim-button","283","637854","0.0-2.0-65.0-0.0","5c1a4d7d1aea120001fdd685","C3","batch3","","16996","tol_tohand","","","","tol_peg_2","16996","16996","0","[[1,2,0],[0,0],[0]]","1","[[0,0,0],[1,2],[3]]","18","0","","","","","","7","","","","","","","","",""
"","","","","","single-stim-button","284","638989","0.0-2.0-65.0-1.0","5c1a4d7d1aea120001fdd685","C3","batch3","","1133","tol_toboard","","","","tol_peg_3","1133","1133","0","[[1,2,0],[0,0],[3]]","1","[[0,0,0],[1,2],[3]]","18","0","","","","","","7","","","","","","","","",""
"","","","","","single-stim-button","285","640992","0.0-2.0-65.1-0.1","5c1a4d7d1aea120001fdd685","C3","batch3","","2002","tol_tohand","","","","tol_peg_1","2002","2002","0","[[1,0,0],[0,0],[3]]","2","[[0,0,0],[1,2],[3]]","18","0","","","","","","7","","","","","","","","",""
"","","","","","single-stim-button","286","642194","0.0-2.0-65.1-1.1","5c1a4d7d1aea120001fdd685","C3","batch3","","1201","tol_toboard","","","","tol_peg_2","1201","1201","0","[[1,0,0],[2,0],[3]]","2","[[0,0,0],[1,2],[3]]","18","0","","","","","","7","","","","","","","","",""
"","","","","","single-stim-button","287","654818","0.0-2.0-65.2-0.2","5c1a4d7d1aea120001fdd685","C3","batch3","","12623","tol_tohand","","","","tol_peg_3","12623","12623","0","[[1,0,0],[2,0],[0]]","3","[[0,0,0],[1,2],[3]]","18","0","","","","","","7","","","","","","","","",""
"","","","","","single-stim-button","288","657215","0.0-2.0-65.2-1.2","5c1a4d7d1aea120001fdd685","C3","batch3","","2394","tol_toboard","","","","tol_peg_2","2394","2394","0","[[1,0,0],[2,3],[0]]","3","[[0,0,0],[1,2],[3]]","18","0","","","","","","7","","","","","","","","",""
"","","","","","single-stim-button","289","657900","0.0-2.0-65.3-0.3","5c1a4d7d1aea120001fdd685","C3","batch3","","684","tol_tohand","","","","tol_peg_1","684","684","0","[[0,0,0],[2,3],[0]]","4","[[0,0,0],[1,2],[3]]","18","0","","","","","","7","","","","","","","","",""
"","","","","","single-stim-button","290","659293","0.0-2.0-65.3-1.3","5c1a4d7d1aea120001fdd685","C3","batch3","","1391","tol_toboard","","","","tol_peg_3","1391","1391","0","[[0,0,0],[2,3],[1]]","4","[[0,0,0],[1,2],[3]]","18","0","","","","","","7","","","","","","","","",""
"","","","","","single-stim-button","291","660734","0.0-2.0-65.4-0.4","5c1a4d7d1aea120001fdd685","C3","batch3","","1439","tol_tohand","","","","tol_peg_2","1439","1439","0","[[0,0,0],[2,0],[1]]","5","[[0,0,0],[1,2],[3]]","18","0","","","","","","7","","","","","","","","",""
"","","","","","single-stim-button","292","662016","0.0-2.0-65.4-1.4","5c1a4d7d1aea120001fdd685","C3","batch3","","1281","tol_toboard","","","","tol_peg_1","1281","1281","0","[[3,0,0],[2,0],[1]]","5","[[0,0,0],[1,2],[3]]","18","0","","","","","","7","","","","","","","","",""
"","","","","","single-stim-button","293","662533","0.0-2.0-65.5-0.5","5c1a4d7d1aea120001fdd685","C3","batch3","","516","tol_tohand","","","","tol_peg_2","516","516","0","[[3,0,0],[0,0],[1]]","6","[[0,0,0],[1,2],[3]]","18","0","","","","","","7","","","","","","","","",""
"","","","","","single-stim-button","294","663512","0.0-2.0-65.5-1.5","5c1a4d7d1aea120001fdd685","C3","batch3","","977","tol_toboard","","","","tol_peg_1","977","977","0","[[3,2,0],[0,0],[1]]","6","[[0,0,0],[1,2],[3]]","18","0","","","","","","7","","","","","","","","",""
"","","","","","single-stim-button","295","664247","0.0-2.0-65.6-0.6","5c1a4d7d1aea120001fdd685","C3","batch3","","734","tol_tohand","","","","tol_peg_3","734","734","0","[[3,2,0],[0,0],[0]]","7","[[0,0,0],[1,2],[3]]","18","0","","","","","","7","","","","","","","","",""
"","","","","","single-stim-button","296","664975","0.0-2.0-65.6-1.6","5c1a4d7d1aea120001fdd685","C3","batch3","","727","tol_toboard","","","","tol_peg_2","727","727","0","[[3,2,0],[1,0],[0]]","7","[[0,0,0],[1,2],[3]]","18","0","","","","","","7","","","","","","","","",""
"","","","","","single-stim-button","297","665742","0.0-2.0-65.7-0.7","5c1a4d7d1aea120001fdd685","C3","batch3","","765","tol_tohand","","","","tol_peg_1","765","765","0","[[3,0,0],[1,0],[0]]","8","[[0,0,0],[1,2],[3]]","18","0","","","","","","7","","","","","","","","",""
"","","","","","single-stim-button","298","666630","0.0-2.0-65.7-1.7","5c1a4d7d1aea120001fdd685","C3","batch3","","887","tol_toboard","","","","tol_peg_2","887","887","0","[[3,0,0],[1,2],[0]]","8","[[0,0,0],[1,2],[3]]","18","0","","","","","","7","","","","","","","","",""
"","","","","","single-stim-button","299","667325","0.0-2.0-65.8-0.8","5c1a4d7d1aea120001fdd685","C3","batch3","","693","tol_tohand","","","","tol_peg_1","693","693","0","[[0,0,0],[1,2],[0]]","9","[[0,0,0],[1,2],[3]]","18","0","","","","","","7","","","","","","","","",""
"","","","","","single-stim-button","300","668001","0.0-2.0-65.8-1.8","5c1a4d7d1aea120001fdd685","C3","batch3","","674","tol_toboard","","","","tol_peg_3","674","674","0","[[0,0,0],[1,2],[3]]","9","[[0,0,0],[1,2],[3]]","18","0","","","","","","7","","","","","","","","",""
"","","","","","poldrack-single-stim","301","669012","0.0-2.0-66.0","5c1a4d7d1aea120001fdd685","C3","batch3","","-1","tol_feedback","","","true","","1000","1000","500","","","","","","-1","none","true","16996","36452","","","","","","","","","",""
"","","","","","html-button-response","302","670151","0.0-2.0-67.0","5c1a4d7d1aea120001fdd685","C3","batch3","","1136.5","tol_trial_num","<div class = centerbox><p class = center-block-text>problem <strong>20</strong> out of 25 problems</p></div>","0","","","","","","","","","","","","","","","","","","","","","","","","",""
"","","","","","single-stim-button","303","680321","0.0-2.0-68.0-0.0","5c1a4d7d1aea120001fdd685","C3","batch3","","10167","tol_tohand","","","","tol_peg_1","10167","10167","0","[[1,0,0],[3,0],[0]]","1","[[2,1,0],[0,0],[3]]","19","0","","","","","","5","","","","","","","","",""
"","","","","","single-stim-button","304","681390","0.0-2.0-68.0-1.0","5c1a4d7d1aea120001fdd685","C3","batch3","","1068","tol_toboard","","","","tol_peg_2","1068","1068","0","[[1,0,0],[3,2],[0]]","1","[[2,1,0],[0,0],[3]]","19","0","","","","","","5","","","","","","","","",""
"","","","","","single-stim-button","305","682143","0.0-2.0-68.1-0.1","5c1a4d7d1aea120001fdd685","C3","batch3","","752","tol_tohand","","","","tol_peg_1","752","752","0","[[0,0,0],[3,2],[0]]","2","[[2,1,0],[0,0],[3]]","19","0","","","","","","5","","","","","","","","",""
"","","","","","single-stim-button","306","683370","0.0-2.0-68.1-1.1","5c1a4d7d1aea120001fdd685","C3","batch3","","1226","tol_toboard","","","","tol_peg_3","1226","1226","0","[[0,0,0],[3,2],[1]]","2","[[2,1,0],[0,0],[3]]","19","0","","","","","","5","","","","","","","","",""
"","","","","","single-stim-button","307","686080","0.0-2.0-68.2-0.2","5c1a4d7d1aea120001fdd685","C3","batch3","","2708","tol_tohand","","","","tol_peg_2","2708","2708","0","[[0,0,0],[3,0],[1]]","3","[[2,1,0],[0,0],[3]]","19","0","","","","","","5","","","","","","","","",""
"","","","","","single-stim-button","308","687037","0.0-2.0-68.2-1.2","5c1a4d7d1aea120001fdd685","C3","batch3","","956","tol_toboard","","","","tol_peg_1","956","956","0","[[2,0,0],[3,0],[1]]","3","[[2,1,0],[0,0],[3]]","19","0","","","","","","5","","","","","","","","",""
"","","","","","single-stim-button","309","688521","0.0-2.0-68.3-0.3","5c1a4d7d1aea120001fdd685","C3","batch3","","1483","tol_tohand","","","","tol_peg_3","1483","1483","0","[[2,0,0],[3,0],[0]]","4","[[2,1,0],[0,0],[3]]","19","0","","","","","","5","","","","","","","","",""
"","","","","","single-stim-button","310","689555","0.0-2.0-68.3-1.3","5c1a4d7d1aea120001fdd685","C3","batch3","","1032","tol_toboard","","","","tol_peg_1","1032","1032","0","[[2,1,0],[3,0],[0]]","4","[[2,1,0],[0,0],[3]]","19","0","","","","","","5","","","","","","","","",""
"","","","","","single-stim-button","311","690647","0.0-2.0-68.4-0.4","5c1a4d7d1aea120001fdd685","C3","batch3","","1090","tol_tohand","","","","tol_peg_2","1090","1090","0","[[2,1,0],[0,0],[0]]","5","[[2,1,0],[0,0],[3]]","19","0","","","","","","5","","","","","","","","",""
"","","","","","single-stim-button","312","691694","0.0-2.0-68.4-1.4","5c1a4d7d1aea120001fdd685","C3","batch3","","1046","tol_toboard","","","","tol_peg_3","1046","1046","0","[[2,1,0],[0,0],[3]]","5","[[2,1,0],[0,0],[3]]","19","0","","","","","","5","","","","","","","","",""
"","","","","","poldrack-single-stim","313","692698","0.0-2.0-69.0","5c1a4d7d1aea120001fdd685","C3","batch3","","-1","tol_feedback","","","true","","1000","1000","500","","","","","","-1","none","true","10167","16200","","","","","","","","","",""
"","","","","","html-button-response","314","693945","0.0-2.0-70.0","5c1a4d7d1aea120001fdd685","C3","batch3","","1245.2999999523163","tol_trial_num","<div class = centerbox><p class = center-block-text>problem <strong>21</strong> out of 25 problems</p></div>","0","","","","","","","","","","","","","","","","","","","","","","","","",""
"","","","","","single-stim-button","315","701119","0.0-2.0-71.0-0.0","5c1a4d7d1aea120001fdd685","C3","batch3","","7171","tol_tohand","","","","tol_peg_1","7171","7171","0","[[1,0,0],[3,0],[0]]","1","[[3,2,0],[0,0],[1]]","20","0","","","","","","6","","","","","","","","",""
"","","","","","single-stim-button","316","706083","0.0-2.0-71.0-1.0","5c1a4d7d1aea120001fdd685","C3","batch3","","4963","tol_toboard","","","","tol_peg_3","4963","4963","0","[[1,0,0],[3,0],[2]]","1","[[3,2,0],[0,0],[1]]","20","0","","","","","","6","","","","","","","","",""
"","","","","","single-stim-button","317","707930","0.0-2.0-71.1-0.1","5c1a4d7d1aea120001fdd685","C3","batch3","","1845","tol_tohand","","","","tol_peg_1","1845","1845","0","[[0,0,0],[3,0],[2]]","2","[[3,2,0],[0,0],[1]]","20","0","","","","","","6","","","","","","","","",""
"","","","","","single-stim-button","318","708885","0.0-2.0-71.1-1.1","5c1a4d7d1aea120001fdd685","C3","batch3","","954","tol_toboard","","","","tol_peg_2","954","954","0","[[0,0,0],[3,1],[2]]","2","[[3,2,0],[0,0],[1]]","20","0","","","","","","6","","","","","","","","",""
"","","","","","single-stim-button","319","709919","0.0-2.0-71.2-0.2","5c1a4d7d1aea120001fdd685","C3","batch3","","1032","tol_tohand","","","","tol_peg_3","1032","1032","0","[[0,0,0],[3,1],[0]]","3","[[3,2,0],[0,0],[1]]","20","0","","","","","","6","","","","","","","","",""
"","","","","","single-stim-button","320","710888","0.0-2.0-71.2-1.2","5c1a4d7d1aea120001fdd685","C3","batch3","","967","tol_toboard","","","","tol_peg_1","967","967","0","[[2,0,0],[3,1],[0]]","3","[[3,2,0],[0,0],[1]]","20","0","","","","","","6","","","","","","","","",""
"","","","","","single-stim-button","321","711585","0.0-2.0-71.3-0.3","5c1a4d7d1aea120001fdd685","C3","batch3","","696","tol_tohand","","","","tol_peg_2","696","696","0","[[2,0,0],[3,0],[0]]","4","[[3,2,0],[0,0],[1]]","20","0","","","","","","6","","","","","","","","",""
"","","","","","single-stim-button","322","712934","0.0-2.0-71.3-1.3","5c1a4d7d1aea120001fdd685","C3","batch3","","1348","tol_toboard","","","","tol_peg_3","1348","1348","0","[[2,0,0],[3,0],[1]]","4","[[3,2,0],[0,0],[1]]","20","0","","","","","","6","","","","","","","","",""
"","","","","","single-stim-button","323","719220","0.0-2.0-71.4-0.4","5c1a4d7d1aea120001fdd685","C3","batch3","","6284","tol_tohand","","","","tol_peg_3","6284","6284","0","[[2,0,0],[3,0],[0]]","5","[[3,2,0],[0,0],[1]]","20","0","","","","","","6","","","","","","","","",""
"","","","","","single-stim-button","324","720357","0.0-2.0-71.4-1.4","5c1a4d7d1aea120001fdd685","C3","batch3","","1136","tol_toboard","","","","tol_peg_1","1136","1136","0","[[2,1,0],[3,0],[0]]","5","[[3,2,0],[0,0],[1]]","20","0","","","","","","6","","","","","","","","",""
"","","","","","single-stim-button","325","721157","0.0-2.0-71.5-0.5","5c1a4d7d1aea120001fdd685","C3","batch3","","798","tol_tohand","","","","tol_peg_2","798","798","0","[[2,1,0],[0,0],[0]]","6","[[3,2,0],[0,0],[1]]","20","0","","","","","","6","","","","","","","","",""
"","","","","","single-stim-button","326","722236","0.0-2.0-71.5-1.5","5c1a4d7d1aea120001fdd685","C3","batch3","","1077","tol_toboard","","","","tol_peg_3","1077","1077","0","[[2,1,0],[0,0],[3]]","6","[[3,2,0],[0,0],[1]]","20","0","","","","","","6","","","","","","","","",""
"","","","","","single-stim-button","327","723260","0.0-2.0-71.6-0.6","5c1a4d7d1aea120001fdd685","C3","batch3","","1023","tol_tohand","","","","tol_peg_1","1023","1023","0","[[2,0,0],[0,0],[3]]","7","[[3,2,0],[0,0],[1]]","20","0","","","","","","6","","","","","","","","",""
"","","","","","single-stim-button","328","723948","0.0-2.0-71.6-1.6","5c1a4d7d1aea120001fdd685","C3","batch3","","687","tol_toboard","","","","tol_peg_2","687","687","0","[[2,0,0],[1,0],[3]]","7","[[3,2,0],[0,0],[1]]","20","0","","","","","","6","","","","","","","","",""
"","","","","","single-stim-button","329","724691","0.0-2.0-71.7-0.7","5c1a4d7d1aea120001fdd685","C3","batch3","","741","tol_tohand","","","","tol_peg_1","741","741","0","[[0,0,0],[1,0],[3]]","8","[[3,2,0],[0,0],[1]]","20","0","","","","","","6","","","","","","","","",""
"","","","","","single-stim-button","330","725500","0.0-2.0-71.7-1.7","5c1a4d7d1aea120001fdd685","C3","batch3","","807","tol_toboard","","","","tol_peg_2","807","807","0","[[0,0,0],[1,2],[3]]","8","[[3,2,0],[0,0],[1]]","20","0","","","","","","6","","","","","","","","",""
"","","","","","single-stim-button","331","726072","0.0-2.0-71.8-0.8","5c1a4d7d1aea120001fdd685","C3","batch3","","570","tol_tohand","","","","tol_peg_3","570","570","0","[[0,0,0],[1,2],[0]]","9","[[3,2,0],[0,0],[1]]","20","0","","","","","","6","","","","","","","","",""
"","","","","","single-stim-button","332","727107","0.0-2.0-71.8-1.8","5c1a4d7d1aea120001fdd685","C3","batch3","","1035","tol_toboard","","","","tol_peg_1","1035","1035","0","[[3,0,0],[1,2],[0]]","9","[[3,2,0],[0,0],[1]]","20","0","","","","","","6","","","","","","","","",""
"","","","","","single-stim-button","333","727797","0.0-2.0-71.9-0.9","5c1a4d7d1aea120001fdd685","C3","batch3","","688","tol_tohand","","","","tol_peg_2","688","688","0","[[3,0,0],[1,0],[0]]","10","[[3,2,0],[0,0],[1]]","20","0","","","","","","6","","","","","","","","",""
"","","","","","single-stim-button","334","728663","0.0-2.0-71.9-1.9","5c1a4d7d1aea120001fdd685","C3","batch3","","865","tol_toboard","","","","tol_peg_1","865","865","0","[[3,2,0],[1,0],[0]]","10","[[3,2,0],[0,0],[1]]","20","0","","","","","","6","","","","","","","","",""
"","","","","","single-stim-button","335","729348","0.0-2.0-71.10-0.10","5c1a4d7d1aea120001fdd685","C3","batch3","","685","tol_tohand","","","","tol_peg_2","685","685","0","[[3,2,0],[0,0],[0]]","11","[[3,2,0],[0,0],[1]]","20","0","","","","","","6","","","","","","","","",""
"","","","","","single-stim-button","336","730414","0.0-2.0-71.10-1.10","5c1a4d7d1aea120001fdd685","C3","batch3","","1064","tol_toboard","","","","tol_peg_3","1064","1064","0","[[3,2,0],[0,0],[1]]","11","[[3,2,0],[0,0],[1]]","20","0","","","","","","6","","","","","","","","",""
"","","","","","poldrack-single-stim","337","731418","0.0-2.0-72.0","5c1a4d7d1aea120001fdd685","C3","batch3","","-1","tol_feedback","","","true","","1000","1000","500","","","","","","-1","none","true","7171","21533","","","","","","","","","",""
"","","","","","html-button-response","338","733172","0.0-2.0-73.0","5c1a4d7d1aea120001fdd685","C3","batch3","","1752.0999999046326","tol_trial_num","<div class = centerbox><p class = center-block-text>problem <strong>22</strong> out of 25 problems</p></div>","0","","","","","","","","","","","","","","","","","","","","","","","","",""
"","","","","","single-stim-button","339","739867","0.0-2.0-74.0-0.0","5c1a4d7d1aea120001fdd685","C3","batch3","","6694","tol_tohand","","","","tol_peg_2","6694","6694","0","[[1,0,0],[2,0],[0]]","1","[[0,0,0],[1,2],[3]]","21","0","","","","","","6","","","","","","","","",""
"","","","","","single-stim-button","340","740889","0.0-2.0-74.0-1.0","5c1a4d7d1aea120001fdd685","C3","batch3","","1020","tol_toboard","","","","tol_peg_1","1020","1020","0","[[1,3,0],[2,0],[0]]","1","[[0,0,0],[1,2],[3]]","21","0","","","","","","6","","","","","","","","",""
"","","","","","single-stim-button","341","741554","0.0-2.0-74.1-0.1","5c1a4d7d1aea120001fdd685","C3","batch3","","664","tol_tohand","","","","tol_peg_2","664","664","0","[[1,3,0],[0,0],[0]]","2","[[0,0,0],[1,2],[3]]","21","0","","","","","","6","","","","","","","","",""
"","","","","","single-stim-button","342","742419","0.0-2.0-74.1-1.1","5c1a4d7d1aea120001fdd685","C3","batch3","","863","tol_toboard","","","","tol_peg_3","863","863","0","[[1,3,0],[0,0],[2]]","2","[[0,0,0],[1,2],[3]]","21","0","","","","","","6","","","","","","","","",""
"","","","","","single-stim-button","343","748990","0.0-2.0-74.2-0.2","5c1a4d7d1aea120001fdd685","C3","batch3","","6570","tol_tohand","","","","tol_peg_1","6570","6570","0","[[1,0,0],[0,0],[2]]","3","[[0,0,0],[1,2],[3]]","21","0","","","","","","6","","","","","","","","",""
"","","","","","single-stim-button","344","749696","0.0-2.0-74.2-1.2","5c1a4d7d1aea120001fdd685","C3","batch3","","705","tol_toboard","","","","tol_peg_2","705","705","0","[[1,0,0],[3,0],[2]]","3","[[0,0,0],[1,2],[3]]","21","0","","","","","","6","","","","","","","","",""
"","","","","","single-stim-button","345","750339","0.0-2.0-74.3-0.3","5c1a4d7d1aea120001fdd685","C3","batch3","","641","tol_tohand","","","","tol_peg_3","641","641","0","[[1,0,0],[3,0],[0]]","4","[[0,0,0],[1,2],[3]]","21","0","","","","","","6","","","","","","","","",""
"","","","","","single-stim-button","346","751272","0.0-2.0-74.3-1.3","5c1a4d7d1aea120001fdd685","C3","batch3","","932","tol_toboard","","","","tol_peg_1","932","932","0","[[1,2,0],[3,0],[0]]","4","[[0,0,0],[1,2],[3]]","21","0","","","","","","6","","","","","","","","",""
"","","","","","single-stim-button","347","751803","0.0-2.0-74.4-0.4","5c1a4d7d1aea120001fdd685","C3","batch3","","530","tol_tohand","","","","tol_peg_2","530","530","0","[[1,2,0],[0,0],[0]]","5","[[0,0,0],[1,2],[3]]","21","0","","","","","","6","","","","","","","","",""
"","","","","","single-stim-button","348","752969","0.0-2.0-74.4-1.4","5c1a4d7d1aea120001fdd685","C3","batch3","","1165","tol_toboard","","","","tol_peg_3","1165","1165","0","[[1,2,0],[0,0],[3]]","5","[[0,0,0],[1,2],[3]]","21","0","","","","","","6","","","","","","","","",""
"","","","","","single-stim-button","349","756382","0.0-2.0-74.5-0.5","5c1a4d7d1aea120001fdd685","C3","batch3","","3411","tol_tohand","","","","tol_peg_3","3411","3411","0","[[1,2,0],[0,0],[0]]","6","[[0,0,0],[1,2],[3]]","21","0","","","","","","6","","","","","","","","",""
"","","","","","single-stim-button","350","760182","0.0-2.0-74.5-1.5","5c1a4d7d1aea120001fdd685","C3","batch3","","3799","tol_toboard","","","","tol_peg_2","3799","3799","0","[[1,2,0],[3,0],[0]]","6","[[0,0,0],[1,2],[3]]","21","0","","","","","","6","","","","","","","","",""
"","","","","","single-stim-button","351","761037","0.0-2.0-74.6-0.6","5c1a4d7d1aea120001fdd685","C3","batch3","","854","tol_tohand","","","","tol_peg_1","854","854","0","[[1,0,0],[3,0],[0]]","7","[[0,0,0],[1,2],[3]]","21","0","","","","","","6","","","","","","","","",""
"","","","","","single-stim-button","352","761902","0.0-2.0-74.6-1.6","5c1a4d7d1aea120001fdd685","C3","batch3","","864","tol_toboard","","","","tol_peg_3","864","864","0","[[1,0,0],[3,0],[2]]","7","[[0,0,0],[1,2],[3]]","21","0","","","","","","6","","","","","","","","",""
"","","","","","single-stim-button","353","765266","0.0-2.0-74.7-0.7","5c1a4d7d1aea120001fdd685","C3","batch3","","3363","tol_tohand","","","","tol_peg_1","3363","3363","0","[[0,0,0],[3,0],[2]]","8","[[0,0,0],[1,2],[3]]","21","0","","","","","","6","","","","","","","","",""
"","","","","","single-stim-button","354","766302","0.0-2.0-74.7-1.7","5c1a4d7d1aea120001fdd685","C3","batch3","","1035","tol_toboard","","","","tol_peg_2","1035","1035","0","[[0,0,0],[3,1],[2]]","8","[[0,0,0],[1,2],[3]]","21","0","","","","","","6","","","","","","","","",""
"","","","","","single-stim-button","355","766810","0.0-2.0-74.8-0.8","5c1a4d7d1aea120001fdd685","C3","batch3","","506","tol_tohand","","","","tol_peg_2","506","506","0","[[0,0,0],[3,0],[2]]","9","[[0,0,0],[1,2],[3]]","21","0","","","","","","6","","","","","","","","",""
