"success","timeout","failed_images","failed_audio","failed_video","trial_type","trial_index","time_elapsed","internal_node_id","subject_id","study_id","session_id","view_history","rt","task","stimulus","response","correct","mouse_click","stim_duration","block_duration","timing_post_trial","current_position","tol_num_moves_made","tol_target","tol_problem_id","tol_rt","key_press","possible_responses","tol_correct","preplanning","tol_rt_per_trial","tol_min_moves","item","answer","spm_correct","spm_rt","fiar_detect_rt","fiar_detect_correct","total_correct_fiar_detect","post_trial_gap","choices"
"true","false","[]","[]","[]","preload","0","18056","0.0-0.0","5c2a9b55867f660001af0515","F1","batch6","","","","","","","","","","","","","","","","","","","","","","","","","","","","","",""
"true","","","","","fullscreen","1","26886","0.0-1.0-0.0","5c2a9b55867f660001af0515","F1","batch6","","","","","","","","","","","","","","","","","","","","","","","","","","","","","",""
"true","","","","","fullscreen","2","32255","0.0-2.0-0.0","5c2a9b55867f660001af0515","F1","batch6","","","","","","","","","","","","","","","","","","","","","","","","","","","","","",""
"","","","","","instructions","3","78836","0.0-2.0-1.0-0.0-0.0","5c2a9b55867f660001af0515","F1","batch6","[{""page_index"":0,""viewing_time"":5591.600000023842},{""page_index"":1,""viewing_time"":2481.7999999523163},{""page_index"":2,""viewing_time"":8428.200000047684},{""page_index"":3,""viewing_time"":11737.799999952316},{""page_index"":4,""viewing_time"":12270.200000047684},{""page_index"":5,""viewing_time"":2871.899999976158},{""page_index"":6,""viewing_time"":3197.899999976158}]","46579.60000002384","tol-instructions","","","","","","","","","","","","","","","","","","","","","","","","","","",""
"","","","","","html-button-response","4","79702","0.0-2.0-1.0-1.0-0.0","5c2a9b55867f660001af0515","F1","batch6","","864.6999999880791","tol_enter_quiz","<p class=block-text> Let's answer a few questions <br>","0","","","","","","","","","","","","","","","","","","","","","","","","",""
"","","","","","html-button-response","5","81782","0.0-2.0-1.0-1.0-1.0","5c2a9b55867f660001af0515","F1","batch6","","2078.300000011921","tol_quiz","<p class = block-text>True or False: You can only move the ball on top of a peg. <br></p>","0","true","","","","","","","","","","","","","","","","","","","","","","","",""
"","","","","","html-button-response","6","82910","0.0-2.0-1.0-1.0-2.0","5c2a9b55867f660001af0515","F1","batch6","","1126.800000011921","tol_quiz_feedback","<p class = block-text>Correct! You can only move the ball on top of a peg.</p>","0","","","","","","","","","","","","","","","","","","","","","","","","",""
"","","","","","html-button-response","7","85036","0.0-2.0-1.0-1.0-3.0","5c2a9b55867f660001af0515","F1","batch6","","2125.399999976158","tol_quiz","<p class = block-text>True or False: You should try to match your board with the target board with fewest moves possible. <br></p>","0","true","","","","","","","","","","","","","","","","","","","","","","","",""
"","","","","","html-button-response","8","85746","0.0-2.0-1.0-1.0-4.0","5c2a9b55867f660001af0515","F1","batch6","","708.5999999642372","tol_quiz_feedback","<p class = block-text>Correct! </p>","0","","","","","","","","","","","","","","","","","","","","","","","","",""
"","","","","","html-button-response","9","86930","0.0-2.0-2.0","5c2a9b55867f660001af0515","F1","batch6","","1182.800000011921","","<p class=block-text> Now that you've understood the game, let's practice a few easier examples before we start!<br> <br>","0","","","","","","","","","","","","","","","","","","","","","","","","",""
"","","","","","single-stim-button","10","89009","0.0-2.0-3.0-0.0","5c2a9b55867f660001af0515","F1","batch6","","2077","tol_practice","","","","tol_peg_1","2077","2077","0","[[1,0,0],[3,0],[0]]","1","[[1,2,0],[0,0],[3]]","practice","2077","","","","","","","","","","","","","","",""
"","","","","","single-stim-button","11","92658","0.0-2.0-3.0-1.0","5c2a9b55867f660001af0515","F1","batch6","","3648","tol_practice","","","","tol_peg_1","3648","3648","0","[[1,2,0],[3,0],[0]]","1","[[1,2,0],[0,0],[3]]","practice","3648","","","","","","","","","","","","","","",""
"","","","","","single-stim-button","12","95333","0.0-2.0-3.1-0.1","5c2a9b55867f660001af0515","F1","batch6","","2673","tol_practice","","","","tol_peg_2","2673","2673","0","[[1,2,0],[0,0],[0]]","2","[[1,2,0],[0,0],[3]]","practice","2673","","","","","","","","","","","","","","",""
"","","","","","single-stim-button","13","96328","0.0-2.0-3.1-1.1","5c2a9b55867f660001af0515","F1","batch6","","995","tol_practice","","","","tol_peg_3","995","995","0","[[1,2,0],[0,0],[3]]","2","[[1,2,0],[0,0],[3]]","practice","995","","","","","","","","","","","","","","",""
"","","","","","poldrack-single-stim","14","97330","0.0-2.0-4.0","5c2a9b55867f660001af0515","F1","batch6","","-1","tol_feedback","","","true","","1000","1000","500","","","","","","-1","none","true","","0","","","","","","","","","",""
"","","","","","single-stim-button","15","100843","0.0-2.0-5.0-0.0","5c2a9b55867f660001af0515","F1","batch6","","3512","tol_practice","","","","tol_peg_1","3512","3512","0","[[1,0,0],[3,0],[0]]","3","[[0,0,0],[3,1],[2]]","practice","3512","","","","","","","","","","","","","","",""
"","","","","","single-stim-button","16","102612","0.0-2.0-5.0-1.0","5c2a9b55867f660001af0515","F1","batch6","","1769","tol_practice","","","","tol_peg_3","1769","1769","0","[[1,0,0],[3,0],[2]]","3","[[0,0,0],[3,1],[2]]","practice","1769","","","","","","","","","","","","","","",""
"","","","","","single-stim-button","17","103498","0.0-2.0-5.1-0.1","5c2a9b55867f660001af0515","F1","batch6","","885","tol_practice","","","","tol_peg_1","885","885","0","[[0,0,0],[3,0],[2]]","4","[[0,0,0],[3,1],[2]]","practice","885","","","","","","","","","","","","","","",""
"","","","","","single-stim-button","18","104404","0.0-2.0-5.1-1.1","5c2a9b55867f660001af0515","F1","batch6","","905","tol_practice","","","","tol_peg_2","905","905","0","[[0,0,0],[3,1],[2]]","4","[[0,0,0],[3,1],[2]]","practice","905","","","","","","","","","","","","","","",""
"","","","","","poldrack-single-stim","19","105406","0.0-2.0-6.0","5c2a9b55867f660001af0515","F1","batch6","","-1","tol_feedback","","","true","","1000","1000","500","","","","","","-1","none","true","","0","","","","","","","","","",""
"","","","","","single-stim-button","20","109668","0.0-2.0-7.0-0.0","5c2a9b55867f660001af0515","F1","batch6","","4262","tol_practice","","","","tol_peg_2","4262","4262","0","[[1,2,0],[0,0],[0]]","5","[[1,0,0],[2,0],[3]]","practice","4262","","","","","","","","","","","","","","",""
"","","","","","single-stim-button","21","110526","0.0-2.0-7.0-1.0","5c2a9b55867f660001af0515","F1","batch6","","857","tol_practice","","","","tol_peg_3","857","857","0","[[1,2,0],[0,0],[3]]","5","[[1,0,0],[2,0],[3]]","practice","857","","","","","","","","","","","","","","",""
"","","","","","single-stim-button","22","111470","0.0-2.0-7.1-0.1","5c2a9b55867f660001af0515","F1","batch6","","943","tol_practice","","","","tol_peg_1","943","943","0","[[1,0,0],[0,0],[3]]","6","[[1,0,0],[2,0],[3]]","practice","943","","","","","","","","","","","","","","",""
"","","","","","single-stim-button","23","112186","0.0-2.0-7.1-1.1","5c2a9b55867f660001af0515","F1","batch6","","716","tol_practice","","","","tol_peg_2","716","716","0","[[1,0,0],[2,0],[3]]","6","[[1,0,0],[2,0],[3]]","practice","716","","","","","","","","","","","","","","",""
"","","","","","poldrack-single-stim","24","113188","0.0-2.0-8.0","5c2a9b55867f660001af0515","F1","batch6","","-1","tol_feedback","","","true","","1000","1000","500","","","","","","-1","none","true","","0","","","","","","","","","",""
"","","","","","html-button-response","25","115017","0.0-2.0-9.0","5c2a9b55867f660001af0515","F1","batch6","","1828.199999988079","tol_instruction","<div class = centerbox><p class = center-block-text>Great job! You are done with practice trials<br>You are about to start official trials.<br> <br> Problem <strong>1</strong> out of 25 problems</p></div>","0","","","","","","","","","","","","","","","","","","","","","","","","",""
"","","","","","single-stim-button","26","119212","0.0-2.0-10.0-0.0","5c2a9b55867f660001af0515","F1","batch6","","3193","tol_tohand","","","","tol_peg_1","3193","3193","0","[[1,0,0],[3,0],[0]]","1","[[1,3,0],[2,0],[0]]","0","0","","","","","","3","","","","","","","","",""
"","","","","","single-stim-button","27","121122","0.0-2.0-10.0-1.0","5c2a9b55867f660001af0515","F1","batch6","","1908","tol_toboard","","","","tol_peg_2","1908","1908","0","[[1,0,0],[3,2],[0]]","1","[[1,3,0],[2,0],[0]]","0","0","","","","","","3","","","","","","","","",""
"","","","","","single-stim-button","28","121124","0.0-2.0-10.1-0.1","5c2a9b55867f660001af0515","F1","batch6","","2","tol_tohand","","","","tol_peg_2","2","2","0","[[1,0,0],[3,0],[0]]","2","[[1,3,0],[2,0],[0]]","0","0","","","","","","3","","","","","","","","",""
"","","","","","single-stim-button","29","122184","0.0-2.0-10.1-1.1","5c2a9b55867f660001af0515","F1","batch6","","1059","tol_toboard","","","","tol_peg_1","1059","1059","0","[[1,2,0],[3,0],[0]]","2","[[1,3,0],[2,0],[0]]","0","0","","","","","","3","","","","","","","","",""
"","","","","","single-stim-button","30","124852","0.0-2.0-10.2-0.2","5c2a9b55867f660001af0515","F1","batch6","","2667","tol_tohand","","","","tol_peg_2","2667","2667","0","[[1,2,0],[0,0],[0]]","3","[[1,3,0],[2,0],[0]]","0","0","","","","","","3","","","","","","","","",""
"","","","","","single-stim-button","31","125500","0.0-2.0-10.2-1.2","5c2a9b55867f660001af0515","F1","batch6","","647","tol_toboard","","","","tol_peg_1","647","647","0","[[1,2,3],[0,0],[0]]","3","[[1,3,0],[2,0],[0]]","0","0","","","","","","3","","","","","","","","",""
"","","","","","single-stim-button","32","126656","0.0-2.0-10.3-0.3","5c2a9b55867f660001af0515","F1","batch6","","1155","tol_tohand","","","","tol_peg_1","1155","1155","0","[[1,2,0],[0,0],[0]]","4","[[1,3,0],[2,0],[0]]","0","0","","","","","","3","","","","","","","","",""
"","","","","","single-stim-button","33","129242","0.0-2.0-10.3-1.3","5c2a9b55867f660001af0515","F1","batch6","","2585","tol_toboard","","","","tol_peg_1","2585","2585","0","[[1,2,3],[0,0],[0]]","4","[[1,3,0],[2,0],[0]]","0","0","","","","","","3","","","","","","","","",""
"","","","","","single-stim-button","34","129830","0.0-2.0-10.4-0.4","5c2a9b55867f660001af0515","F1","batch6","","587","tol_tohand","","","","tol_peg_1","587","587","0","[[1,2,0],[0,0],[0]]","5","[[1,3,0],[2,0],[0]]","0","0","","","","","","3","","","","","","","","",""
"","","","","","single-stim-button","35","131210","0.0-2.0-10.4-1.4","5c2a9b55867f660001af0515","F1","batch6","","1379","tol_toboard","","","","tol_peg_3","1379","1379","0","[[1,2,0],[0,0],[3]]","5","[[1,3,0],[2,0],[0]]","0","0","","","","","","3","","","","","","","","",""
"","","","","","single-stim-button","36","132090","0.0-2.0-10.5-0.5","5c2a9b55867f660001af0515","F1","batch6","","880","tol_tohand","","","","tol_peg_1","880","880","0","[[1,0,0],[0,0],[3]]","6","[[1,3,0],[2,0],[0]]","0","0","","","","","","3","","","","","","","","",""
"","","","","","single-stim-button","37","133032","0.0-2.0-10.5-1.5","5c2a9b55867f660001af0515","F1","batch6","","942","tol_toboard","","","","tol_peg_2","942","942","0","[[1,0,0],[2,0],[3]]","6","[[1,3,0],[2,0],[0]]","0","0","","","","","","3","","","","","","","","",""
"","","","","","single-stim-button","38","133682","0.0-2.0-10.6-0.6","5c2a9b55867f660001af0515","F1","batch6","","650","tol_tohand","","","","tol_peg_3","650","650","0","[[1,0,0],[2,0],[0]]","7","[[1,3,0],[2,0],[0]]","0","0","","","","","","3","","","","","","","","",""
"","","","","","single-stim-button","39","134474","0.0-2.0-10.6-1.6","5c2a9b55867f660001af0515","F1","batch6","","791","tol_toboard","","","","tol_peg_1","791","791","0","[[1,3,0],[2,0],[0]]","7","[[1,3,0],[2,0],[0]]","0","0","","","","","","3","","","","","","","","",""
"","","","","","poldrack-single-stim","40","135477","0.0-2.0-11.0","5c2a9b55867f660001af0515","F1","batch6","","-1","tol_feedback","","","true","","1000","1000","500","","","","","","-1","none","true","3193","9134","","","","","","","","","",""
"","","","","","html-button-response","41","136382","0.0-2.0-12.0","5c2a9b55867f660001af0515","F1","batch6","","903.6000000238419","tol_trial_num","<div class = centerbox><p class = center-block-text>problem <strong>2</strong> out of 25 problems</p></div>","0","","","","","","","","","","","","","","","","","","","","","","","","",""
"","","","","","single-stim-button","42","141382","0.0-2.0-13.0-0.0","5c2a9b55867f660001af0515","F1","batch6","","4999","tol_tohand","","","","tol_peg_1","4999","4999","0","[[1,0,0],[3,0],[0]]","1","[[2,1,3],[0,0],[0]]","1","0","","","","","","5","","","","","","","","",""
"","","","","","single-stim-button","43","144014","0.0-2.0-13.0-1.0","5c2a9b55867f660001af0515","F1","batch6","","2631","tol_toboard","","","","tol_peg_2","2631","2631","0","[[1,0,0],[3,2],[0]]","1","[[2,1,3],[0,0],[0]]","1","0","","","","","","5","","","","","","","","",""
"","","","","","single-stim-button","44","145790","0.0-2.0-13.1-0.1","5c2a9b55867f660001af0515","F1","batch6","","1776","tol_tohand","","","","tol_peg_1","1776","1776","0","[[0,0,0],[3,2],[0]]","2","[[2,1,3],[0,0],[0]]","1","0","","","","","","5","","","","","","","","",""
"","","","","","single-stim-button","45","146673","0.0-2.0-13.1-1.1","5c2a9b55867f660001af0515","F1","batch6","","882","tol_toboard","","","","tol_peg_3","882","882","0","[[0,0,0],[3,2],[1]]","2","[[2,1,3],[0,0],[0]]","1","0","","","","","","5","","","","","","","","",""
"","","","","","single-stim-button","46","149344","0.0-2.0-13.2-0.2","5c2a9b55867f660001af0515","F1","batch6","","2671","tol_tohand","","","","tol_peg_2","2671","2671","0","[[0,0,0],[3,0],[1]]","3","[[2,1,3],[0,0],[0]]","1","0","","","","","","5","","","","","","","","",""
"","","","","","single-stim-button","47","150076","0.0-2.0-13.2-1.2","5c2a9b55867f660001af0515","F1","batch6","","732","tol_toboard","","","","tol_peg_1","732","732","0","[[2,0,0],[3,0],[1]]","3","[[2,1,3],[0,0],[0]]","1","0","","","","","","5","","","","","","","","",""
"","","","","","single-stim-button","48","151390","0.0-2.0-13.3-0.3","5c2a9b55867f660001af0515","F1","batch6","","1313","tol_tohand","","","","tol_peg_3","1313","1313","0","[[2,0,0],[3,0],[0]]","4","[[2,1,3],[0,0],[0]]","1","0","","","","","","5","","","","","","","","",""
"","","","","","single-stim-button","49","152352","0.0-2.0-13.3-1.3","5c2a9b55867f660001af0515","F1","batch6","","962","tol_toboard","","","","tol_peg_1","962","962","0","[[2,1,0],[3,0],[0]]","4","[[2,1,3],[0,0],[0]]","1","0","","","","","","5","","","","","","","","",""
"","","","","","single-stim-button","50","152988","0.0-2.0-13.4-0.4","5c2a9b55867f660001af0515","F1","batch6","","636","tol_tohand","","","","tol_peg_2","636","636","0","[[2,1,0],[0,0],[0]]","5","[[2,1,3],[0,0],[0]]","1","0","","","","","","5","","","","","","","","",""
"","","","","","single-stim-button","51","153910","0.0-2.0-13.4-1.4","5c2a9b55867f660001af0515","F1","batch6","","922","tol_toboard","","","","tol_peg_1","922","922","0","[[2,1,3],[0,0],[0]]","5","[[2,1,3],[0,0],[0]]","1","0","","","","","","5","","","","","","","","",""
"","","","","","poldrack-single-stim","52","154914","0.0-2.0-14.0","5c2a9b55867f660001af0515","F1","batch6","","-1","tol_feedback","","","true","","1000","1000","500","","","","","","-1","none","true","4999","11395","","","","","","","","","",""
"","","","","","html-button-response","53","155818","0.0-2.0-15.0","5c2a9b55867f660001af0515","F1","batch6","","902.7999999523163","tol_trial_num","<div class = centerbox><p class = center-block-text>problem <strong>3</strong> out of 25 problems</p></div>","0","","","","","","","","","","","","","","","","","","","","","","","","",""
"","","","","","single-stim-button","54","160976","0.0-2.0-16.0-0.0","5c2a9b55867f660001af0515","F1","batch6","","5158","tol_tohand","","","","tol_peg_1","5158","5158","0","[[2,0,0],[0,0],[1]]","1","[[1,2,0],[3,0],[0]]","2","0","","","","","","4","","","","","","","","",""
"","","","","","single-stim-button","55","161468","0.0-2.0-16.0-1.0","5c2a9b55867f660001af0515","F1","batch6","","491","tol_toboard","","","","tol_peg_2","491","491","0","[[2,0,0],[3,0],[1]]","1","[[1,2,0],[3,0],[0]]","2","0","","","","","","4","","","","","","","","",""
"","","","","","single-stim-button","56","163688","0.0-2.0-16.1-0.1","5c2a9b55867f660001af0515","F1","batch6","","2220","tol_tohand","","","","tol_peg_1","2220","2220","0","[[0,0,0],[3,0],[1]]","2","[[1,2,0],[3,0],[0]]","2","0","","","","","","4","","","","","","","","",""
"","","","","","single-stim-button","57","164772","0.0-2.0-16.1-1.1","5c2a9b55867f660001af0515","F1","batch6","","1084","tol_toboard","","","","tol_peg_2","1084","1084","0","[[0,0,0],[3,2],[1]]","2","[[1,2,0],[3,0],[0]]","2","0","","","","","","4","","","","","","","","",""
"","","","","","single-stim-button","58","165396","0.0-2.0-16.2-0.2","5c2a9b55867f660001af0515","F1","batch6","","624","tol_tohand","","","","tol_peg_3","624","624","0","[[0,0,0],[3,2],[0]]","3","[[1,2,0],[3,0],[0]]","2","0","","","","","","4","","","","","","","","",""
"","","","","","single-stim-button","59","165960","0.0-2.0-16.2-1.2","5c2a9b55867f660001af0515","F1","batch6","","564","tol_toboard","","","","tol_peg_1","564","564","0","[[1,0,0],[3,2],[0]]","3","[[1,2,0],[3,0],[0]]","2","0","","","","","","4","","","","","","","","",""
"","","","","","single-stim-button","60","166414","0.0-2.0-16.3-0.3","5c2a9b55867f660001af0515","F1","batch6","","454","tol_tohand","","","","tol_peg_2","454","454","0","[[1,0,0],[3,0],[0]]","4","[[1,2,0],[3,0],[0]]","2","0","","","","","","4","","","","","","","","",""
"","","","","","single-stim-button","61","166934","0.0-2.0-16.3-1.3","5c2a9b55867f660001af0515","F1","batch6","","520","tol_toboard","","","","tol_peg_1","520","520","0","[[1,2,0],[3,0],[0]]","4","[[1,2,0],[3,0],[0]]","2","0","","","","","","4","","","","","","","","",""
"","","","","","poldrack-single-stim","62","167937","0.0-2.0-17.0","5c2a9b55867f660001af0515","F1","batch6","","-1","tol_feedback","","","true","","1000","1000","500","","","","","","-1","none","true","5158","8456","","","","","","","","","",""
"","","","","","html-button-response","63","168804","0.0-2.0-18.0","5c2a9b55867f660001af0515","F1","batch6","","865.1999999880791","tol_trial_num","<div class = centerbox><p class = center-block-text>problem <strong>4</strong> out of 25 problems</p></div>","0","","","","","","","","","","","","","","","","","","","","","","","","",""
"","","","","","single-stim-button","64","173583","0.0-2.0-19.0-0.0","5c2a9b55867f660001af0515","F1","batch6","","4778","tol_tohand","","","","tol_peg_2","4778","4778","0","[[3,0,0],[2,0],[0]]","1","[[3,0,0],[1,0],[2]]","3","0","","","","","","3","","","","","","","","",""
"","","","","","single-stim-button","65","175539","0.0-2.0-19.0-1.0","5c2a9b55867f660001af0515","F1","batch6","","1956","tol_toboard","","","","tol_peg_1","1956","1956","0","[[3,1,0],[2,0],[0]]","1","[[3,0,0],[1,0],[2]]","3","0","","","","","","3","","","","","","","","",""
"","","","","","single-stim-button","66","176253","0.0-2.0-19.1-0.1","5c2a9b55867f660001af0515","F1","batch6","","713","tol_tohand","","","","tol_peg_2","713","713","0","[[3,1,0],[0,0],[0]]","2","[[3,0,0],[1,0],[2]]","3","0","","","","","","3","","","","","","","","",""
"","","","","","single-stim-button","67","176821","0.0-2.0-19.1-1.1","5c2a9b55867f660001af0515","F1","batch6","","567","tol_toboard","","","","tol_peg_3","567","567","0","[[3,1,0],[0,0],[2]]","2","[[3,0,0],[1,0],[2]]","3","0","","","","","","3","","","","","","","","",""
"","","","","","single-stim-button","68","177513","0.0-2.0-19.2-0.2","5c2a9b55867f660001af0515","F1","batch6","","692","tol_tohand","","","","tol_peg_1","692","692","0","[[3,0,0],[0,0],[2]]","3","[[3,0,0],[1,0],[2]]","3","0","","","","","","3","","","","","","","","",""
"","","","","","single-stim-button","69","177941","0.0-2.0-19.2-1.2","5c2a9b55867f660001af0515","F1","batch6","","427","tol_toboard","","","","tol_peg_2","427","427","0","[[3,0,0],[1,0],[2]]","3","[[3,0,0],[1,0],[2]]","3","0","","","","","","3","","","","","","","","",""
"","","","","","poldrack-single-stim","70","178943","0.0-2.0-20.0","5c2a9b55867f660001af0515","F1","batch6","","-1","tol_feedback","","","true","","1000","1000","500","","","","","","-1","none","true","4778","6183","","","","","","","","","",""
"","","","","","html-button-response","71","179736","0.0-2.0-21.0","5c2a9b55867f660001af0515","F1","batch6","","792.5999999642372","tol_trial_num","<div class = centerbox><p class = center-block-text>problem <strong>5</strong> out of 25 problems</p></div>","0","","","","","","","","","","","","","","","","","","","","","","","","",""
"","","","","","single-stim-button","72","184797","0.0-2.0-22.0-0.0","5c2a9b55867f660001af0515","F1","batch6","","5060","tol_tohand","","","","tol_peg_2","5060","5060","0","[[1,0,0],[0,0],[3]]","1","[[0,0,0],[1,2],[3]]","4","0","","","","","","7","","","","","","","","",""
"","","","","","single-stim-button","73","185269","0.0-2.0-22.0-1.0","5c2a9b55867f660001af0515","F1","batch6","","470","tol_toboard","","","","tol_peg_1","470","470","0","[[1,2,0],[0,0],[3]]","1","[[0,0,0],[1,2],[3]]","4","0","","","","","","7","","","","","","","","",""
"","","","","","single-stim-button","74","186457","0.0-2.0-22.1-0.1","5c2a9b55867f660001af0515","F1","batch6","","1187","tol_tohand","","","","tol_peg_1","1187","1187","0","[[1,0,0],[0,0],[3]]","2","[[0,0,0],[1,2],[3]]","4","0","","","","","","7","","","","","","","","",""
"","","","","","single-stim-button","75","187531","0.0-2.0-22.1-1.1","5c2a9b55867f660001af0515","F1","batch6","","1073","tol_toboard","","","","tol_peg_1","1073","1073","0","[[1,2,0],[0,0],[3]]","2","[[0,0,0],[1,2],[3]]","4","0","","","","","","7","","","","","","","","",""
"","","","","","single-stim-button","76","188103","0.0-2.0-22.2-0.2","5c2a9b55867f660001af0515","F1","batch6","","571","tol_tohand","","","","tol_peg_1","571","571","0","[[1,0,0],[0,0],[3]]","3","[[0,0,0],[1,2],[3]]","4","0","","","","","","7","","","","","","","","",""
"","","","","","single-stim-button","77","188757","0.0-2.0-22.2-1.2","5c2a9b55867f660001af0515","F1","batch6","","653","tol_toboard","","","","tol_peg_2","653","653","0","[[1,0,0],[2,0],[3]]","3","[[0,0,0],[1,2],[3]]","4","0","","","","","","7","","","","","","","","",""
"","","","","","single-stim-button","78","189277","0.0-2.0-22.3-0.3","5c2a9b55867f660001af0515","F1","batch6","","519","tol_tohand","","","","tol_peg_1","519","519","0","[[0,0,0],[2,0],[3]]","4","[[0,0,0],[1,2],[3]]","4","0","","","","","","7","","","","","","","","",""
"","","","","","single-stim-button","79","189823","0.0-2.0-22.3-1.3","5c2a9b55867f660001af0515","F1","batch6","","545","tol_toboard","","","","tol_peg_2","545","545","0","[[0,0,0],[2,1],[3]]","4","[[0,0,0],[1,2],[3]]","4","0","","","","","","7","","","","","","","","",""
"","","","","","single-stim-button","80","190385","0.0-2.0-22.4-0.4","5c2a9b55867f660001af0515","F1","batch6","","561","tol_tohand","","","","tol_peg_2","561","561","0","[[0,0,0],[2,0],[3]]","5","[[0,0,0],[1,2],[3]]","4","0","","","","","","7","","","","","","","","",""
"","","","","","single-stim-button","81","192821","0.0-2.0-22.4-1.4","5c2a9b55867f660001af0515","F1","batch6","","2435","tol_toboard","","","","tol_peg_1","2435","2435","0","[[1,0,0],[2,0],[3]]","5","[[0,0,0],[1,2],[3]]","4","0","","","","","","7","","","","","","","","",""
"","","","","","single-stim-button","82","194101","0.0-2.0-22.5-0.5","5c2a9b55867f660001af0515","F1","batch6","","1279","tol_tohand","","","","tol_peg_2","1279","1279","0","[[1,0,0],[0,0],[3]]","6","[[0,0,0],[1,2],[3]]","4","0","","","","","","7","","","","","","","","",""
"","","","","","single-stim-button","83","194835","0.0-2.0-22.5-1.5","5c2a9b55867f660001af0515","F1","batch6","","733","tol_toboard","","","","tol_peg_1","733","733","0","[[1,2,0],[0,0],[3]]","6","[[0,0,0],[1,2],[3]]","4","0","","","","","","7","","","","","","","","",""
"","","","","","single-stim-button","84","195789","0.0-2.0-22.6-0.6","5c2a9b55867f660001af0515","F1","batch6","","953","tol_tohand","","","","tol_peg_1","953","953","0","[[1,0,0],[0,0],[3]]","7","[[0,0,0],[1,2],[3]]","4","0","","","","","","7","","","","","","","","",""
"","","","","","single-stim-button","85","196631","0.0-2.0-22.6-1.6","5c2a9b55867f660001af0515","F1","batch6","","841","tol_toboard","","","","tol_peg_1","841","841","0","[[1,2,0],[0,0],[3]]","7","[[0,0,0],[1,2],[3]]","4","0","","","","","","7","","","","","","","","",""
"","","","","","single-stim-button","86","197373","0.0-2.0-22.7-0.7","5c2a9b55867f660001af0515","F1","batch6","","741","tol_tohand","","","","tol_peg_1","741","741","0","[[1,0,0],[0,0],[3]]","8","[[0,0,0],[1,2],[3]]","4","0","","","","","","7","","","","","","","","",""
"","","","","","single-stim-button","87","197905","0.0-2.0-22.7-1.7","5c2a9b55867f660001af0515","F1","batch6","","531","tol_toboard","","","","tol_peg_1","531","531","0","[[1,2,0],[0,0],[3]]","8","[[0,0,0],[1,2],[3]]","4","0","","","","","","7","","","","","","","","",""
"","","","","","single-stim-button","88","199059","0.0-2.0-22.8-0.8","5c2a9b55867f660001af0515","F1","batch6","","1153","tol_tohand","","","","tol_peg_3","1153","1153","0","[[1,2,0],[0,0],[0]]","9","[[0,0,0],[1,2],[3]]","4","0","","","","","","7","","","","","","","","",""
"","","","","","single-stim-button","89","199833","0.0-2.0-22.8-1.8","5c2a9b55867f660001af0515","F1","batch6","","773","tol_toboard","","","","tol_peg_3","773","773","0","[[1,2,0],[0,0],[3]]","9","[[0,0,0],[1,2],[3]]","4","0","","","","","","7","","","","","","","","",""
"","","","","","single-stim-button","90","200662","0.0-2.0-22.9-0.9","5c2a9b55867f660001af0515","F1","batch6","","829","tol_tohand","","","","tol_peg_1","829","829","0","[[1,0,0],[0,0],[3]]","10","[[0,0,0],[1,2],[3]]","4","0","","","","","","7","","","","","","","","",""
"","","","","","single-stim-button","91","201755","0.0-2.0-22.9-1.9","5c2a9b55867f660001af0515","F1","batch6","","1091","tol_toboard","","","","tol_peg_2","1091","1091","0","[[1,0,0],[2,0],[3]]","10","[[0,0,0],[1,2],[3]]","4","0","","","","","","7","","","","","","","","",""
"","","","","","single-stim-button","92","203267","0.0-2.0-22.10-0.10","5c2a9b55867f660001af0515","F1","batch6","","1511","tol_tohand","","","","tol_peg_1","1511","1511","0","[[0,0,0],[2,0],[3]]","11","[[0,0,0],[1,2],[3]]","4","0","","","","","","7","","","","","","","","",""
"","","","","","single-stim-button","93","203706","0.0-2.0-22.10-1.10","5c2a9b55867f660001af0515","F1","batch6","","439","tol_toboard","","","","tol_peg_2","439","439","0","[[0,0,0],[2,1],[3]]","11","[[0,0,0],[1,2],[3]]","4","0","","","","","","7","","","","","","","","",""
"","","","","","single-stim-button","94","204237","0.0-2.0-22.11-0.11","5c2a9b55867f660001af0515","F1","batch6","","529","tol_tohand","","","","tol_peg_2","529","529","0","[[0,0,0],[2,0],[3]]","12","[[0,0,0],[1,2],[3]]","4","0","","","","","","7","","","","","","","","",""
"","","","","","single-stim-button","95","205015","0.0-2.0-22.11-1.11","5c2a9b55867f660001af0515","F1","batch6","","777","tol_toboard","","","","tol_peg_2","777","777","0","[[0,0,0],[2,1],[3]]","12","[[0,0,0],[1,2],[3]]","4","0","","","","","","7","","","","","","","","",""
"","","","","","single-stim-button","96","206199","0.0-2.0-22.12-0.12","5c2a9b55867f660001af0515","F1","batch6","","1183","tol_tohand","","","","tol_peg_3","1183","1183","0","[[0,0,0],[2,1],[0]]","13","[[0,0,0],[1,2],[3]]","4","0","","","","","","7","","","","","","","","",""
"","","","","","single-stim-button","97","206803","0.0-2.0-22.12-1.12","5c2a9b55867f660001af0515","F1","batch6","","603","tol_toboard","","","","tol_peg_1","603","603","0","[[3,0,0],[2,1],[0]]","13","[[0,0,0],[1,2],[3]]","4","0","","","","","","7","","","","","","","","",""
"","","","","","single-stim-button","98","207355","0.0-2.0-22.13-0.13","5c2a9b55867f660001af0515","F1","batch6","","551","tol_tohand","","","","tol_peg_2","551","551","0","[[3,0,0],[2,0],[0]]","14","[[0,0,0],[1,2],[3]]","4","0","","","","","","7","","","","","","","","",""
"","","","","","single-stim-button","99","208281","0.0-2.0-22.13-1.13","5c2a9b55867f660001af0515","F1","batch6","","925","tol_toboard","","","","tol_peg_3","925","925","0","[[3,0,0],[2,0],[1]]","14","[[0,0,0],[1,2],[3]]","4","0","","","","","","7","","","","","","","","",""
"","","","","","single-stim-button","100","210041","0.0-2.0-22.14-0.14","5c2a9b55867f660001af0515","F1","batch6","","1759","tol_tohand","","","","tol_peg_2","1759","1759","0","[[3,0,0],[0,0],[1]]","15","[[0,0,0],[1,2],[3]]","4","0","","","","","","7","","","","","","","","",""
"","","","","","single-stim-button","101","211065","0.0-2.0-22.14-1.14","5c2a9b55867f660001af0515","F1","batch6","","1024","tol_toboard","","","","tol_peg_1","1024","1024","0","[[3,2,0],[0,0],[1]]","15","[[0,0,0],[1,2],[3]]","4","0","","","","","","7","","","","","","","","",""
"","","","","","single-stim-button","102","211831","0.0-2.0-22.15-0.15","5c2a9b55867f660001af0515","F1","batch6","","764","tol_tohand","","","","tol_peg_3","764","764","0","[[3,2,0],[0,0],[0]]","16","[[0,0,0],[1,2],[3]]","4","0","","","","","","7","","","","","","","","",""
"","","","","","single-stim-button","103","212273","0.0-2.0-22.15-1.15","5c2a9b55867f660001af0515","F1","batch6","","441","tol_toboard","","","","tol_peg_2","441","441","0","[[3,2,0],[1,0],[0]]","16","[[0,0,0],[1,2],[3]]","4","0","","","","","","7","","","","","","","","",""
"","","","","","single-stim-button","104","213039","0.0-2.0-22.16-0.16","5c2a9b55867f660001af0515","F1","batch6","","765","tol_tohand","","","","tol_peg_2","765","765","0","[[3,2,0],[0,0],[0]]","17","[[0,0,0],[1,2],[3]]","4","0","","","","","","7","","","","","","","","",""
"","","","","","single-stim-button","105","215617","0.0-2.0-22.16-1.16","5c2a9b55867f660001af0515","F1","batch6","","2577","tol_toboard","","","","tol_peg_2","2577","2577","0","[[3,2,0],[1,0],[0]]","17","[[0,0,0],[1,2],[3]]","4","0","","","","","","7","","","","","","","","",""
"","","","","","single-stim-button","106","216268","0.0-2.0-22.17-0.17","5c2a9b55867f660001af0515","F1","batch6","","651","tol_tohand","","","","tol_peg_1","651","651","0","[[3,0,0],[1,0],[0]]","18","[[0,0,0],[1,2],[3]]","4","0","","","","","","7","","","","","","","","",""
"","","","","","single-stim-button","107","216740","0.0-2.0-22.17-1.17","5c2a9b55867f660001af0515","F1","batch6","","471","tol_toboard","","","","tol_peg_2","471","471","0","[[3,0,0],[1,2],[0]]","18","[[0,0,0],[1,2],[3]]","4","0","","","","","","7","","","","","","","","",""
"","","","","","single-stim-button","108","218299","0.0-2.0-22.18-0.18","5c2a9b55867f660001af0515","F1","batch6","","1557","tol_tohand","","","","tol_peg_1","1557","1557","0","[[0,0,0],[1,2],[0]]","19","[[0,0,0],[1,2],[3]]","4","0","","","","","","7","","","","","","","","",""
"","","","","","single-stim-button","109","218727","0.0-2.0-22.18-1.18","5c2a9b55867f660001af0515","F1","batch6","","427","tol_toboard","","","","tol_peg_3","427","427","0","[[0,0,0],[1,2],[3]]","19","[[0,0,0],[1,2],[3]]","4","0","","","","","","7","","","","","","","","",""
"","","","","","poldrack-single-stim","110","219729","0.0-2.0-23.0","5c2a9b55867f660001af0515","F1","batch6","","-1","tol_feedback","","","true","","1000","1000","500","","","","","","-1","none","true","5060","22123","","","","","","","","","",""
"","","","","","html-button-response","111","220530","0.0-2.0-24.0","5c2a9b55867f660001af0515","F1","batch6","","799.8000000119209","tol_trial_num","<div class = centerbox><p class = center-block-text>problem <strong>6</strong> out of 25 problems</p></div>","0","","","","","","","","","","","","","","","","","","","","","","","","",""
"","","","","","single-stim-button","112","224177","0.0-2.0-25.0-0.0","5c2a9b55867f660001af0515","F1","batch6","","3644","tol_tohand","","","","tol_peg_2","3644","3644","0","[[0,0,0],[1,0],[3]]","1","[[1,0,0],[2,3],[0]]","5","0","","","","","","6","","","","","","","","",""
"","","","","","single-stim-button","113","226774","0.0-2.0-25.0-1.0","5c2a9b55867f660001af0515","F1","batch6","","2597","tol_toboard","","","","tol_peg_1","2597","2597","0","[[2,0,0],[1,0],[3]]","1","[[1,0,0],[2,3],[0]]","5","0","","","","","","6","","","","","","","","",""
"","","","","","single-stim-button","114","228116","0.0-2.0-25.1-0.1","5c2a9b55867f660001af0515","F1","batch6","","1341","tol_tohand","","","","tol_peg_2","1341","1341","0","[[2,0,0],[0,0],[3]]","2","[[1,0,0],[2,3],[0]]","5","0","","","","","","6","","","","","","","","",""
"","","","","","single-stim-button","115","228908","0.0-2.0-25.1-1.1","5c2a9b55867f660001af0515","F1","batch6","","792","tol_toboard","","","","tol_peg_1","792","792","0","[[2,1,0],[0,0],[3]]","2","[[1,0,0],[2,3],[0]]","5","0","","","","","","6","","","","","","","","",""
"","","","","","single-stim-button","116","231077","0.0-2.0-25.2-0.2","5c2a9b55867f660001af0515","F1","batch6","","2167","tol_tohand","","","","tol_peg_1","2167","2167","0","[[2,0,0],[0,0],[3]]","3","[[1,0,0],[2,3],[0]]","5","0","","","","","","6","","","","","","","","",""
"","","","","","single-stim-button","117","232067","0.0-2.0-25.2-1.2","5c2a9b55867f660001af0515","F1","batch6","","989","tol_toboard","","","","tol_peg_2","989","989","0","[[2,0,0],[1,0],[3]]","3","[[1,0,0],[2,3],[0]]","5","0","","","","","","6","","","","","","","","",""
"","","","","","single-stim-button","118","232691","0.0-2.0-25.3-0.3","5c2a9b55867f660001af0515","F1","batch6","","624","tol_tohand","","","","tol_peg_2","624","624","0","[[2,0,0],[0,0],[3]]","4","[[1,0,0],[2,3],[0]]","5","0","","","","","","6","","","","","","","","",""
"","","","","","single-stim-button","119","233826","0.0-2.0-25.3-1.3","5c2a9b55867f660001af0515","F1","batch6","","1133","tol_toboard","","","","tol_peg_1","1133","1133","0","[[2,1,0],[0,0],[3]]","4","[[1,0,0],[2,3],[0]]","5","0","","","","","","6","","","","","","","","",""
"","","","","","single-stim-button","120","234512","0.0-2.0-25.4-0.4","5c2a9b55867f660001af0515","F1","batch6","","686","tol_tohand","","","","tol_peg_1","686","686","0","[[2,0,0],[0,0],[3]]","5","[[1,0,0],[2,3],[0]]","5","0","","","","","","6","","","","","","","","",""
"","","","","","single-stim-button","121","235347","0.0-2.0-25.4-1.4","5c2a9b55867f660001af0515","F1","batch6","","834","tol_toboard","","","","tol_peg_2","834","834","0","[[2,0,0],[1,0],[3]]","5","[[1,0,0],[2,3],[0]]","5","0","","","","","","6","","","","","","","","",""
"","","","","","single-stim-button","122","235982","0.0-2.0-25.5-0.5","5c2a9b55867f660001af0515","F1","batch6","","635","tol_tohand","","","","tol_peg_1","635","635","0","[[0,0,0],[1,0],[3]]","6","[[1,0,0],[2,3],[0]]","5","0","","","","","","6","","","","","","","","",""
"","","","","","single-stim-button","123","236454","0.0-2.0-25.5-1.5","5c2a9b55867f660001af0515","F1","batch6","","471","tol_toboard","","","","tol_peg_2","471","471","0","[[0,0,0],[1,2],[3]]","6","[[1,0,0],[2,3],[0]]","5","0","","","","","","6","","","","","","","","",""
"","","","","","single-stim-button","124","236986","0.0-2.0-25.6-0.6","5c2a9b55867f660001af0515","F1","batch6","","531","tol_tohand","","","","tol_peg_2","531","531","0","[[0,0,0],[1,0],[3]]","7","[[1,0,0],[2,3],[0]]","5","0","","","","","","6","","","","","","","","",""
"","","","","","single-stim-button","125","237965","0.0-2.0-25.6-1.6","5c2a9b55867f660001af0515","F1","batch6","","977","tol_toboard","","","","tol_peg_2","977","977","0","[[0,0,0],[1,2],[3]]","7","[[1,0,0],[2,3],[0]]","5","0","","","","","","6","","","","","","","","",""
"","","","","","single-stim-button","126","238823","0.0-2.0-25.7-0.7","5c2a9b55867f660001af0515","F1","batch6","","857","tol_tohand","","","","tol_peg_3","857","857","0","[[0,0,0],[1,2],[0]]","8","[[1,0,0],[2,3],[0]]","5","0","","","","","","6","","","","","","","","",""
"","","","","","single-stim-button","127","239414","0.0-2.0-25.7-1.7","5c2a9b55867f660001af0515","F1","batch6","","591","tol_toboard","","","","tol_peg_1","591","591","0","[[3,0,0],[1,2],[0]]","8","[[1,0,0],[2,3],[0]]","5","0","","","","","","6","","","","","","","","",""
"","","","","","single-stim-button","128","240018","0.0-2.0-25.8-0.8","5c2a9b55867f660001af0515","F1","batch6","","603","tol_tohand","","","","tol_peg_2","603","603","0","[[3,0,0],[1,0],[0]]","9","[[1,0,0],[2,3],[0]]","5","0","","","","","","6","","","","","","","","",""
"","","","","","single-stim-button","129","240916","0.0-2.0-25.8-1.8","5c2a9b55867f660001af0515","F1","batch6","","897","tol_toboard","","","","tol_peg_3","897","897","0","[[3,0,0],[1,0],[2]]","9","[[1,0,0],[2,3],[0]]","5","0","","","","","","6","","","","","","","","",""
"","","","","","single-stim-button","130","242767","0.0-2.0-25.9-0.9","5c2a9b55867f660001af0515","F1","batch6","","1849","tol_tohand","","","","tol_peg_2","1849","1849","0","[[3,0,0],[0,0],[2]]","10","[[1,0,0],[2,3],[0]]","5","0","","","","","","6","","","","","","","","",""
"","","","","","single-stim-button","131","243257","0.0-2.0-25.9-1.9","5c2a9b55867f660001af0515","F1","batch6","","489","tol_toboard","","","","tol_peg_1","489","489","0","[[3,1,0],[0,0],[2]]","10","[[1,0,0],[2,3],[0]]","5","0","","","","","","6","","","","","","","","",""
"","","","","","single-stim-button","132","244196","0.0-2.0-25.10-0.10","5c2a9b55867f660001af0515","F1","batch6","","939","tol_tohand","","","","tol_peg_1","939","939","0","[[3,0,0],[0,0],[2]]","11","[[1,0,0],[2,3],[0]]","5","0","","","","","","6","","","","","","","","",""
"","","","","","single-stim-button","133","244784","0.0-2.0-25.10-1.10","5c2a9b55867f660001af0515","F1","batch6","","587","tol_toboard","","","","tol_peg_2","587","587","0","[[3,0,0],[1,0],[2]]","11","[[1,0,0],[2,3],[0]]","5","0","","","","","","6","","","","","","","","",""
"","","","","","single-stim-button","134","245440","0.0-2.0-25.11-0.11","5c2a9b55867f660001af0515","F1","batch6","","655","tol_tohand","","","","tol_peg_1","655","655","0","[[0,0,0],[1,0],[2]]","12","[[1,0,0],[2,3],[0]]","5","0","","","","","","6","","","","","","","","",""
"","","","","","single-stim-button","135","245973","0.0-2.0-25.11-1.11","5c2a9b55867f660001af0515","F1","batch6","","532","tol_toboard","","","","tol_peg_2","532","532","0","[[0,0,0],[1,3],[2]]","12","[[1,0,0],[2,3],[0]]","5","0","","","","","","6","","","","","","","","",""
"","","","","","single-stim-button","136","246468","0.0-2.0-25.12-0.12","5c2a9b55867f660001af0515","F1","batch6","","495","tol_tohand","","","","tol_peg_2","495","495","0","[[0,0,0],[1,0],[2]]","13","[[1,0,0],[2,3],[0]]","5","0","","","","","","6","","","","","","","","",""
"","","","","","single-stim-button","137","247442","0.0-2.0-25.12-1.12","5c2a9b55867f660001af0515","F1","batch6","","973","tol_toboard","","","","tol_peg_2","973","973","0","[[0,0,0],[1,3],[2]]","13","[[1,0,0],[2,3],[0]]","5","0","","","","","","6","","","","","","","","",""
"","","","","","single-stim-button","138","248030","0.0-2.0-25.13-0.13","5c2a9b55867f660001af0515","F1","batch6","","587","tol_tohand","","","","tol_peg_3","587","587","0","[[0,0,0],[1,3],[0]]","14","[[1,0,0],[2,3],[0]]","5","0","","","","","","6","","","","","","","","",""
"","","","","","single-stim-button","139","248728","0.0-2.0-25.13-1.13","5c2a9b55867f660001af0515","F1","batch6","","697","tol_toboard","","","","tol_peg_1","697","697","0","[[2,0,0],[1,3],[0]]","14","[[1,0,0],[2,3],[0]]","5","0","","","","","","6","","","","","","","","",""
"","","","","","single-stim-button","140","249206","0.0-2.0-25.14-0.14","5c2a9b55867f660001af0515","F1","batch6","","478","tol_tohand","","","","tol_peg_2","478","478","0","[[2,0,0],[1,0],[0]]","15","[[1,0,0],[2,3],[0]]","5","0","","","","","","6","","","","","","","","",""
"","","","","","single-stim-button","141","250402","0.0-2.0-25.14-1.14","5c2a9b55867f660001af0515","F1","batch6","","1195","tol_toboard","","","","tol_peg_3","1195","1195","0","[[2,0,0],[1,0],[3]]","15","[[1,0,0],[2,3],[0]]","5","0","","","","","","6","","","","","","","","",""
"","","","","","single-stim-button","142","251542","0.0-2.0-25.15-0.15","5c2a9b55867f660001af0515","F1","batch6","","1139","tol_tohand","","","","tol_peg_2","1139","1139","0","[[2,0,0],[0,0],[3]]","16","[[1,0,0],[2,3],[0]]","5","0","","","","","","6","","","","","","","","",""
"","","","","","single-stim-button","143","252156","0.0-2.0-25.15-1.15","5c2a9b55867f660001af0515","F1","batch6","","613","tol_toboard","","","","tol_peg_1","613","613","0","[[2,1,0],[0,0],[3]]","16","[[1,0,0],[2,3],[0]]","5","0","","","","","","6","","","","","","","","",""
"","","","","","single-stim-button","144","252654","0.0-2.0-25.16-0.16","5c2a9b55867f660001af0515","F1","batch6","","497","tol_tohand","","","","tol_peg_1","497","497","0","[[2,0,0],[0,0],[3]]","17","[[1,0,0],[2,3],[0]]","5","0","","","","","","6","","","","","","","","",""
"","","","","","single-stim-button","145","253634","0.0-2.0-25.16-1.16","5c2a9b55867f660001af0515","F1","batch6","","980","tol_toboard","","","","tol_peg_2","980","980","0","[[2,0,0],[1,0],[3]]","17","[[1,0,0],[2,3],[0]]","5","0","","","","","","6","","","","","","","","",""
"","","","","","single-stim-button","146","254279","0.0-2.0-25.17-0.17","5c2a9b55867f660001af0515","F1","batch6","","643","tol_tohand","","","","tol_peg_1","643","643","0","[[0,0,0],[1,0],[3]]","18","[[1,0,0],[2,3],[0]]","5","0","","","","","","6","","","","","","","","",""
"","","","","","single-stim-button","147","254847","0.0-2.0-25.17-1.17","5c2a9b55867f660001af0515","F1","batch6","","567","tol_toboard","","","","tol_peg_2","567","567","0","[[0,0,0],[1,2],[3]]","18","[[1,0,0],[2,3],[0]]","5","0","","","","","","6","","","","","","","","",""
"","","","","","single-stim-button","148","255256","0.0-2.0-25.18-0.18","5c2a9b55867f660001af0515","F1","batch6","","409","tol_tohand","","","","tol_peg_2","409","409","0","[[0,0,0],[1,0],[3]]","19","[[1,0,0],[2,3],[0]]","5","0","","","","","","6","","","","","","","","",""
"","","","","","single-stim-button","149","255983","0.0-2.0-25.18-1.18","5c2a9b55867f660001af0515","F1","batch6","","726","tol_toboard","","","","tol_peg_2","726","726","0","[[0,0,0],[1,2],[3]]","19","[[1,0,0],[2,3],[0]]","5","0","","","","","","6","","","","","","","","",""
"","","","","","single-stim-button","150","256562","0.0-2.0-25.19-0.19","5c2a9b55867f660001af0515","F1","batch6","","578","tol_tohand","","","","tol_peg_3","578","578","0","[[0,0,0],[1,2],[0]]","20","[[1,0,0],[2,3],[0]]","5","0","","","","","","6","","","","","","","","",""
"","","","","","single-stim-button","151","257572","0.0-2.0-25.19-1.19","5c2a9b55867f660001af0515","F1","batch6","","1009","tol_toboard","","","","tol_peg_1","1009","1009","0","[[3,0,0],[1,2],[0]]","20","[[1,0,0],[2,3],[0]]","5","0","","","","","","6","","","","","","","","",""
"","","","","","single-stim-button","152","259386","0.0-2.0-25.20-0.20","5c2a9b55867f660001af0515","F1","batch6","","1813","tol_tohand","","","","tol_peg_2","1813","1813","0","[[3,0,0],[1,0],[0]]","21","[[1,0,0],[2,3],[0]]","5","0","","","","","","6","","","","","","","","",""
"","","","","","single-stim-button","153","260546","0.0-2.0-25.20-1.20","5c2a9b55867f660001af0515","F1","batch6","","1159","tol_toboard","","","","tol_peg_3","1159","1159","0","[[3,0,0],[1,0],[2]]","21","[[1,0,0],[2,3],[0]]","5","0","","","","","","6","","","","","","","","",""
"","","","","","single-stim-button","154","261846","0.0-2.0-25.21-0.21","5c2a9b55867f660001af0515","F1","batch6","","1299","tol_tohand","","","","tol_peg_2","1299","1299","0","[[3,0,0],[0,0],[2]]","22","[[1,0,0],[2,3],[0]]","5","0","","","","","","6","","","","","","","","",""
"","","","","","single-stim-button","155","262506","0.0-2.0-25.21-1.21","5c2a9b55867f660001af0515","F1","batch6","","659","tol_toboard","","","","tol_peg_1","659","659","0","[[3,1,0],[0,0],[2]]","22","[[1,0,0],[2,3],[0]]","5","0","","","","","","6","","","","","","","","",""
"","","","","","single-stim-button","156","263478","0.0-2.0-25.22-0.22","5c2a9b55867f660001af0515","F1","batch6","","971","tol_tohand","","","","tol_peg_1","971","971","0","[[3,0,0],[0,0],[2]]","23","[[1,0,0],[2,3],[0]]","5","0","","","","","","6","","","","","","","","",""
"","","","","","single-stim-button","157","264208","0.0-2.0-25.22-1.22","5c2a9b55867f660001af0515","F1","batch6","","729","tol_toboard","","","","tol_peg_2","729","729","0","[[3,0,0],[1,0],[2]]","23","[[1,0,0],[2,3],[0]]","5","0","","","","","","6","","","","","","","","",""
"","","","","","single-stim-button","158","264706","0.0-2.0-25.23-0.23","5c2a9b55867f660001af0515","F1","batch6","","497","tol_tohand","","","","tol_peg_1","497","497","0","[[0,0,0],[1,0],[2]]","24","[[1,0,0],[2,3],[0]]","5","0","","","","","","6","","","","","","","","",""
"","","","","","single-stim-button","159","265610","0.0-2.0-25.23-1.23","5c2a9b55867f660001af0515","F1","batch6","","904","tol_toboard","","","","tol_peg_2","904","904","0","[[0,0,0],[1,3],[2]]","24","[[1,0,0],[2,3],[0]]","5","0","","","","","","6","","","","","","","","",""
"","","","","","single-stim-button","160","266176","0.0-2.0-25.24-0.24","5c2a9b55867f660001af0515","F1","batch6","","565","tol_tohand","","","","tol_peg_2","565","565","0","[[0,0,0],[1,0],[2]]","25","[[1,0,0],[2,3],[0]]","5","0","","","","","","6","","","","","","","","",""
"","","","","","single-stim-button","161","266728","0.0-2.0-25.24-1.24","5c2a9b55867f660001af0515","F1","batch6","","551","tol_toboard","","","","tol_peg_2","551","551","0","[[0,0,0],[1,3],[2]]","25","[[1,0,0],[2,3],[0]]","5","0","","","","","","6","","","","","","","","",""
"","","","","","single-stim-button","162","268030","0.0-2.0-25.25-0.25","5c2a9b55867f660001af0515","F1","batch6","","1301","tol_tohand","","","","tol_peg_2","1301","1301","0","[[0,0,0],[1,0],[2]]","26","[[1,0,0],[2,3],[0]]","5","0","","","","","","6","","","","","","","","",""
"","","","","","single-stim-button","163","271264","0.0-2.0-25.25-1.25","5c2a9b55867f660001af0515","F1","batch6","","3233","tol_toboard","","","","tol_peg_2","3233","3233","0","[[0,0,0],[1,3],[2]]","26","[[1,0,0],[2,3],[0]]","5","0","","","","","","6","","","","","","","","",""
"","","","","","single-stim-button","164","271986","0.0-2.0-25.26-0.26","5c2a9b55867f660001af0515","F1","batch6","","721","tol_tohand","","","","tol_peg_3","721","721","0","[[0,0,0],[1,3],[0]]","27","[[1,0,0],[2,3],[0]]","5","0","","","","","","6","","","","","","","","",""
"","","","","","single-stim-button","165","272744","0.0-2.0-25.26-1.26","5c2a9b55867f660001af0515","F1","batch6","","757","tol_toboard","","","","tol_peg_1","757","757","0","[[2,0,0],[1,3],[0]]","27","[[1,0,0],[2,3],[0]]","5","0","","","","","","6","","","","","","","","",""
"","","","","","single-stim-button","166","274085","0.0-2.0-25.27-0.27","5c2a9b55867f660001af0515","F1","batch6","","1340","tol_tohand","","","","tol_peg_2","1340","1340","0","[[2,0,0],[1,0],[0]]","28","[[1,0,0],[2,3],[0]]","5","0","","","","","","6","","","","","","","","",""
"","","","","","single-stim-button","167","275104","0.0-2.0-25.27-1.27","5c2a9b55867f660001af0515","F1","batch6","","1019","tol_toboard","","","","tol_peg_3","1019","1019","0","[[2,0,0],[1,0],[3]]","28","[[1,0,0],[2,3],[0]]","5","0","","","","","","6","","","","","","","","",""
"","","","","","single-stim-button","168","276281","0.0-2.0-25.28-0.28","5c2a9b55867f660001af0515","F1","batch6","","1175","tol_tohand","","","","tol_peg_2","1175","1175","0","[[2,0,0],[0,0],[3]]","29","[[1,0,0],[2,3],[0]]","5","0","","","","","","6","","","","","","","","",""
"","","","","","single-stim-button","169","277584","0.0-2.0-25.28-1.28","5c2a9b55867f660001af0515","F1","batch6","","1302","tol_toboard","","","","tol_peg_2","1302","1302","0","[[2,0,0],[1,0],[3]]","29","[[1,0,0],[2,3],[0]]","5","0","","","","","","6","","","","","","","","",""
"","","","","","single-stim-button","170","278370","0.0-2.0-25.29-0.29","5c2a9b55867f660001af0515","F1","batch6","","786","tol_tohand","","","","tol_peg_1","786","786","0","[[0,0,0],[1,0],[3]]","30","[[1,0,0],[2,3],[0]]","5","0","","","","","","6","","","","","","","","",""
"","","","","","single-stim-button","171","278886","0.0-2.0-25.29-1.29","5c2a9b55867f660001af0515","F1","batch6","","516","tol_toboard","","","","tol_peg_2","516","516","0","[[0,0,0],[1,2],[3]]","30","[[1,0,0],[2,3],[0]]","5","0","","","","","","6","","","","","","","","",""
"","","","","","single-stim-button","172","279288","0.0-2.0-25.30-0.30","5c2a9b55867f660001af0515","F1","batch6","","401","tol_tohand","","","","tol_peg_2","401","401","0","[[0,0,0],[1,0],[3]]","31","[[1,0,0],[2,3],[0]]","5","0","","","","","","6","","","","","","","","",""
"","","","","","single-stim-button","173","280188","0.0-2.0-25.30-1.30","5c2a9b55867f660001af0515","F1","batch6","","899","tol_toboard","","","","tol_peg_1","899","899","0","[[2,0,0],[1,0],[3]]","31","[[1,0,0],[2,3],[0]]","5","0","","","","","","6","","","","","","","","",""
"","","","","","single-stim-button","174","280614","0.0-2.0-25.31-0.31","5c2a9b55867f660001af0515","F1","batch6","","425","tol_tohand","","","","tol_peg_2","425","425","0","[[2,0,0],[0,0],[3]]","32","[[1,0,0],[2,3],[0]]","5","0","","","","","","6","","","","","","","","",""
"","","","","","single-stim-button","175","281024","0.0-2.0-25.31-1.31","5c2a9b55867f660001af0515","F1","batch6","","409","tol_toboard","","","","tol_peg_1","409","409","0","[[2,1,0],[0,0],[3]]","32","[[1,0,0],[2,3],[0]]","5","0","","","","","","6","","","","","","","","",""
"","","","","","single-stim-button","176","281556","0.0-2.0-25.32-0.32","5c2a9b55867f660001af0515","F1","batch6","","531","tol_tohand","","","","tol_peg_1","531","531","0","[[2,0,0],[0,0],[3]]","33","[[1,0,0],[2,3],[0]]","5","0","","","","","","6","","","","","","","","",""
"","","","","","single-stim-button","177","283918","0.0-2.0-25.32-1.32","5c2a9b55867f660001af0515","F1","batch6","","2362","tol_toboard","","","","tol_peg_1","2362","2362","0","[[2,1,0],[0,0],[3]]","33","[[1,0,0],[2,3],[0]]","5","0","","","","","","6","","","","","","","","",""
"","","","","","single-stim-button","178","284676","0.0-2.0-25.33-0.33","5c2a9b55867f660001af0515","F1","batch6","","758","tol_tohand","","","","tol_peg_1","758","758","0","[[2,0,0],[0,0],[3]]","34","[[1,0,0],[2,3],[0]]","5","0","","","","","","6","","","","","","","","",""
"","","","","","single-stim-button","179","289234","0.0-2.0-25.33-1.33","5c2a9b55867f660001af0515","F1","batch6","","4558","tol_toboard","","","","tol_peg_1","4558","4558","0","[[2,1,0],[0,0],[3]]","34","[[1,0,0],[2,3],[0]]","5","0","","","","","","6","","","","","","","","",""
"","","","","","single-stim-button","180","290314","0.0-2.0-25.34-0.34","5c2a9b55867f660001af0515","F1","batch6","","1079","tol_tohand","","","","tol_peg_3","1079","1079","0","[[2,1,0],[0,0],[0]]","35","[[1,0,0],[2,3],[0]]","5","0","","","","","","6","","","","","","","","",""
"","","","","","single-stim-button","181","290792","0.0-2.0-25.34-1.34","5c2a9b55867f660001af0515","F1","batch6","","478","tol_toboard","","","","tol_peg_2","478","478","0","[[2,1,0],[3,0],[0]]","35","[[1,0,0],[2,3],[0]]","5","0","","","","","","6","","","","","","","","",""
"","","","","","single-stim-button","182","291340","0.0-2.0-25.35-0.35","5c2a9b55867f660001af0515","F1","batch6","","547","tol_tohand","","","","tol_peg_1","547","547","0","[[2,0,0],[3,0],[0]]","36","[[1,0,0],[2,3],[0]]","5","0","","","","","","6","","","","","","","","",""
"","","","","","single-stim-button","183","291992","0.0-2.0-25.35-1.35","5c2a9b55867f660001af0515","F1","batch6","","652","tol_toboard","","","","tol_peg_2","652","652","0","[[2,0,0],[3,1],[0]]","36","[[1,0,0],[2,3],[0]]","5","0","","","","","","6","","","","","","","","",""
"","","","","","single-stim-button","184","292799","0.0-2.0-25.36-0.36","5c2a9b55867f660001af0515","F1","batch6","","807","tol_tohand","","","","tol_peg_1","807","807","0","[[0,0,0],[3,1],[0]]","37","[[1,0,0],[2,3],[0]]","5","0","","","","","","6","","","","","","","","",""
"","","","","","single-stim-button","185","293312","0.0-2.0-25.36-1.36","5c2a9b55867f660001af0515","F1","batch6","","513","tol_toboard","","","","tol_peg_3","513","513","0","[[0,0,0],[3,1],[2]]","37","[[1,0,0],[2,3],[0]]","5","0","","","","","","6","","","","","","","","",""
"","","","","","single-stim-button","186","295168","0.0-2.0-25.37-0.37","5c2a9b55867f660001af0515","F1","batch6","","1855","tol_tohand","","","","tol_peg_2","1855","1855","0","[[0,0,0],[3,0],[2]]","38","[[1,0,0],[2,3],[0]]","5","0","","","","","","6","","","","","","","","",""
"","","","","","single-stim-button","187","295812","0.0-2.0-25.37-1.37","5c2a9b55867f660001af0515","F1","batch6","","644","tol_toboard","","","","tol_peg_1","644","644","0","[[1,0,0],[3,0],[2]]","38","[[1,0,0],[2,3],[0]]","5","0","","","","","","6","","","","","","","","",""
"","","","","","single-stim-button","188","297460","0.0-2.0-25.38-0.38","5c2a9b55867f660001af0515","F1","batch6","","1648","tol_tohand","","","","tol_peg_3","1648","1648","0","[[1,0,0],[3,0],[0]]","39","[[1,0,0],[2,3],[0]]","5","0","","","","","","6","","","","","","","","",""
"","","","","","single-stim-button","189","298060","0.0-2.0-25.38-1.38","5c2a9b55867f660001af0515","F1","batch6","","599","tol_toboard","","","","tol_peg_2","599","599","0","[[1,0,0],[3,2],[0]]","39","[[1,0,0],[2,3],[0]]","5","0","","","","","","6","","","","","","","","",""
"","","","","","single-stim-button","190","298625","0.0-2.0-25.39-0.39","5c2a9b55867f660001af0515","F1","batch6","","564","tol_tohand","","","","tol_peg_2","564","564","0","[[1,0,0],[3,0],[0]]","40","[[1,0,0],[2,3],[0]]","5","0","","","","","","6","","","","","","","","",""
"","","","","","single-stim-button","191","299486","0.0-2.0-25.39-1.39","5c2a9b55867f660001af0515","F1","batch6","","861","tol_toboard","","","","tol_peg_3","861","861","0","[[1,0,0],[3,0],[2]]","40","[[1,0,0],[2,3],[0]]","5","0","","","","","","6","","","","","","","","",""
"","","","","","single-stim-button","192","299952","0.0-2.0-25.40-0.40","5c2a9b55867f660001af0515","F1","batch6","","465","tol_tohand","","","","tol_peg_2","465","465","0","[[1,0,0],[0,0],[2]]","41","[[1,0,0],[2,3],[0]]","5","0","","","","","","6","","","","","","","","",""
"","","","","","single-stim-button","193","300589","0.0-2.0-25.40-1.40","5c2a9b55867f660001af0515","F1","batch6","","636","tol_toboard","","","","tol_peg_1","636","636","0","[[1,3,0],[0,0],[2]]","41","[[1,0,0],[2,3],[0]]","5","0","","","","","","6","","","","","","","","",""
"","","","","","single-stim-button","194","301162","0.0-2.0-25.41-0.41","5c2a9b55867f660001af0515","F1","batch6","","573","tol_tohand","","","","tol_peg_3","573","573","0","[[1,3,0],[0,0],[0]]","42","[[1,0,0],[2,3],[0]]","5","0","","","","","","6","","","","","","","","",""
"","","","","","single-stim-button","195","301724","0.0-2.0-25.41-1.41","5c2a9b55867f660001af0515","F1","batch6","","562","tol_toboard","","","","tol_peg_2","562","562","0","[[1,3,0],[2,0],[0]]","42","[[1,0,0],[2,3],[0]]","5","0","","","","","","6","","","","","","","","",""
"","","","","","single-stim-button","196","302338","0.0-2.0-25.42-0.42","5c2a9b55867f660001af0515","F1","batch6","","614","tol_tohand","","","","tol_peg_1","614","614","0","[[1,0,0],[2,0],[0]]","43","[[1,0,0],[2,3],[0]]","5","0","","","","","","6","","","","","","","","",""
"","","","","","single-stim-button","197","302748","0.0-2.0-25.42-1.42","5c2a9b55867f660001af0515","F1","batch6","","410","tol_toboard","","","","tol_peg_2","410","410","0","[[1,0,0],[2,3],[0]]","43","[[1,0,0],[2,3],[0]]","5","0","","","","","","6","","","","","","","","",""
"","","","","","poldrack-single-stim","198","303751","0.0-2.0-26.0","5c2a9b55867f660001af0515","F1","batch6","","-1","tol_feedback","","","true","","1000","1000","500","","","","","","-1","none","true","3644","40092","","","","","","","","","",""
"","","","","","html-button-response","199","304512","0.0-2.0-27.0","5c2a9b55867f660001af0515","F1","batch6","","759.5","tol_trial_num","<div class = centerbox><p class = center-block-text>problem <strong>7</strong> out of 25 problems</p></div>","0","","","","","","","","","","","","","","","","","","","","","","","","",""
"","","","","","single-stim-button","200","307438","0.0-2.0-28.0-0.0","5c2a9b55867f660001af0515","F1","batch6","","2926","tol_tohand","","","","tol_peg_3","2926","2926","0","[[2,1,0],[0,0],[0]]","1","[[1,2,0],[3,0],[0]]","6","0","","","","","","5","","","","","","","","",""
"","","","","","single-stim-button","201","307960","0.0-2.0-28.0-1.0","5c2a9b55867f660001af0515","F1","batch6","","521","tol_toboard","","","","tol_peg_2","521","521","0","[[2,1,0],[3,0],[0]]","1","[[1,2,0],[3,0],[0]]","6","0","","","","","","5","","","","","","","","",""
"","","","","","single-stim-button","202","310356","0.0-2.0-28.1-0.1","5c2a9b55867f660001af0515","F1","batch6","","2396","tol_tohand","","","","tol_peg_1","2396","2396","0","[[2,0,0],[3,0],[0]]","2","[[1,2,0],[3,0],[0]]","6","0","","","","","","5","","","","","","","","",""
"","","","","","single-stim-button","203","312190","0.0-2.0-28.1-1.1","5c2a9b55867f660001af0515","F1","batch6","","1834","tol_toboard","","","","tol_peg_2","1834","1834","0","[[2,0,0],[3,1],[0]]","2","[[1,2,0],[3,0],[0]]","6","0","","","","","","5","","","","","","","","",""
"","","","","","single-stim-button","204","312842","0.0-2.0-28.2-0.2","5c2a9b55867f660001af0515","F1","batch6","","652","tol_tohand","","","","tol_peg_1","652","652","0","[[0,0,0],[3,1],[0]]","3","[[1,2,0],[3,0],[0]]","6","0","","","","","","5","","","","","","","","",""
"","","","","","single-stim-button","205","313346","0.0-2.0-28.2-1.2","5c2a9b55867f660001af0515","F1","batch6","","504","tol_toboard","","","","tol_peg_3","504","504","0","[[0,0,0],[3,1],[2]]","3","[[1,2,0],[3,0],[0]]","6","0","","","","","","5","","","","","","","","",""
"","","","","","single-stim-button","206","313922","0.0-2.0-28.3-0.3","5c2a9b55867f660001af0515","F1","batch6","","575","tol_tohand","","","","tol_peg_2","575","575","0","[[0,0,0],[3,0],[2]]","4","[[1,2,0],[3,0],[0]]","6","0","","","","","","5","","","","","","","","",""
"","","","","","single-stim-button","207","314431","0.0-2.0-28.3-1.3","5c2a9b55867f660001af0515","F1","batch6","","509","tol_toboard","","","","tol_peg_1","509","509","0","[[1,0,0],[3,0],[2]]","4","[[1,2,0],[3,0],[0]]","6","0","","","","","","5","","","","","","","","",""
"","","","","","single-stim-button","208","315222","0.0-2.0-28.4-0.4","5c2a9b55867f660001af0515","F1","batch6","","790","tol_tohand","","","","tol_peg_3","790","790","0","[[1,0,0],[3,0],[0]]","5","[[1,2,0],[3,0],[0]]","6","0","","","","","","5","","","","","","","","",""
"","","","","","single-stim-button","209","316198","0.0-2.0-28.4-1.4","5c2a9b55867f660001af0515","F1","batch6","","976","tol_toboard","","","","tol_peg_1","976","976","0","[[1,2,0],[3,0],[0]]","5","[[1,2,0],[3,0],[0]]","6","0","","","","","","5","","","","","","","","",""
"","","","","","poldrack-single-stim","210","317200","0.0-2.0-29.0","5c2a9b55867f660001af0515","F1","batch6","","-1","tol_feedback","","","true","","1000","1000","500","","","","","","-1","none","true","2926","7339","","","","","","","","","",""
"","","","","","html-button-response","211","317926","0.0-2.0-30.0","5c2a9b55867f660001af0515","F1","batch6","","724.1999999880791","tol_trial_num","<div class = centerbox><p class = center-block-text>problem <strong>8</strong> out of 25 problems</p></div>","0","","","","","","","","","","","","","","","","","","","","","","","","",""
"","","","","","single-stim-button","212","324500","0.0-2.0-31.0-0.0","5c2a9b55867f660001af0515","F1","batch6","","6574","tol_tohand","","","","tol_peg_3","6574","6574","0","[[0,0,0],[2,3],[0]]","1","[[1,2,0],[3,0],[0]]","7","0","","","","","","4","","","","","","","","",""
"","","","","","single-stim-button","213","325226","0.0-2.0-31.0-1.0","5c2a9b55867f660001af0515","F1","batch6","","724","tol_toboard","","","","tol_peg_1","724","724","0","[[1,0,0],[2,3],[0]]","1","[[1,2,0],[3,0],[0]]","7","0","","","","","","4","","","","","","","","",""
"","","","","","single-stim-button","214","326384","0.0-2.0-31.1-0.1","5c2a9b55867f660001af0515","F1","batch6","","1158","tol_tohand","","","","tol_peg_2","1158","1158","0","[[1,0,0],[2,0],[0]]","2","[[1,2,0],[3,0],[0]]","7","0","","","","","","4","","","","","","","","",""
"","","","","","single-stim-button","215","326966","0.0-2.0-31.1-1.1","5c2a9b55867f660001af0515","F1","batch6","","582","tol_toboard","","","","tol_peg_3","582","582","0","[[1,0,0],[2,0],[3]]","2","[[1,2,0],[3,0],[0]]","7","0","","","","","","4","","","","","","","","",""
"","","","","","single-stim-button","216","327594","0.0-2.0-31.2-0.2","5c2a9b55867f660001af0515","F1","batch6","","627","tol_tohand","","","","tol_peg_2","627","627","0","[[1,0,0],[0,0],[3]]","3","[[1,2,0],[3,0],[0]]","7","0","","","","","","4","","","","","","","","",""
"","","","","","single-stim-button","217","328080","0.0-2.0-31.2-1.2","5c2a9b55867f660001af0515","F1","batch6","","484","tol_toboard","","","","tol_peg_1","484","484","0","[[1,2,0],[0,0],[3]]","3","[[1,2,0],[3,0],[0]]","7","0","","","","","","4","","","","","","","","",""
"","","","","","single-stim-button","218","328624","0.0-2.0-31.3-0.3","5c2a9b55867f660001af0515","F1","batch6","","543","tol_tohand","","","","tol_peg_3","543","543","0","[[1,2,0],[0,0],[0]]","4","[[1,2,0],[3,0],[0]]","7","0","","","","","","4","","","","","","","","",""
"","","","","","single-stim-button","219","329044","0.0-2.0-31.3-1.3","5c2a9b55867f660001af0515","F1","batch6","","419","tol_toboard","","","","tol_peg_2","419","419","0","[[1,2,0],[3,0],[0]]","4","[[1,2,0],[3,0],[0]]","7","0","","","","","","4","","","","","","","","",""
"","","","","","poldrack-single-stim","220","330046","0.0-2.0-32.0","5c2a9b55867f660001af0515","F1","batch6","","-1","tol_feedback","","","true","","1000","1000","500","","","","","","-1","none","true","6574","8902","","","","","","","","","",""
"","","","","","html-button-response","221","330832","0.0-2.0-33.0","5c2a9b55867f660001af0515","F1","batch6","","784.0999999642372","tol_trial_num","<div class = centerbox><p class = center-block-text>problem <strong>9</strong> out of 25 problems</p></div>","0","","","","","","","","","","","","","","","","","","","","","","","","",""
"","","","","","single-stim-button","222","336536","0.0-2.0-34.0-0.0","5c2a9b55867f660001af0515","F1","batch6","","5704","tol_tohand","","","","tol_peg_1","5704","5704","0","[[3,0,0],[0,0],[1]]","1","[[2,1,0],[3,0],[0]]","8","0","","","","","","6","","","","","","","","",""
"","","","","","single-stim-button","223","337808","0.0-2.0-34.0-1.0","5c2a9b55867f660001af0515","F1","batch6","","1272","tol_toboard","","","","tol_peg_2","1272","1272","0","[[3,0,0],[2,0],[1]]","1","[[2,1,0],[3,0],[0]]","8","0","","","","","","6","","","","","","","","",""
"","","","","","single-stim-button","224","338550","0.0-2.0-34.1-0.1","5c2a9b55867f660001af0515","F1","batch6","","741","tol_tohand","","","","tol_peg_1","741","741","0","[[0,0,0],[2,0],[1]]","2","[[2,1,0],[3,0],[0]]","8","0","","","","","","6","","","","","","","","",""
"","","","","","single-stim-button","225","339000","0.0-2.0-34.1-1.1","5c2a9b55867f660001af0515","F1","batch6","","449","tol_toboard","","","","tol_peg_2","449","449","0","[[0,0,0],[2,3],[1]]","2","[[2,1,0],[3,0],[0]]","8","0","","","","","","6","","","","","","","","",""
"","","","","","single-stim-button","226","339894","0.0-2.0-34.2-0.2","5c2a9b55867f660001af0515","F1","batch6","","893","tol_tohand","","","","tol_peg_3","893","893","0","[[0,0,0],[2,3],[0]]","3","[[2,1,0],[3,0],[0]]","8","0","","","","","","6","","","","","","","","",""
"","","","","","single-stim-button","227","341328","0.0-2.0-34.2-1.2","5c2a9b55867f660001af0515","F1","batch6","","1433","tol_toboard","","","","tol_peg_3","1433","1433","0","[[0,0,0],[2,3],[1]]","3","[[2,1,0],[3,0],[0]]","8","0","","","","","","6","","","","","","","","",""
"","","","","","single-stim-button","228","341792","0.0-2.0-34.3-0.3","5c2a9b55867f660001af0515","F1","batch6","","463","tol_tohand","","","","tol_peg_2","463","463","0","[[0,0,0],[2,0],[1]]","4","[[2,1,0],[3,0],[0]]","8","0","","","","","","6","","","","","","","","",""
"","","","","","single-stim-button","229","342344","0.0-2.0-34.3-1.3","5c2a9b55867f660001af0515","F1","batch6","","551","tol_toboard","","","","tol_peg_1","551","551","0","[[3,0,0],[2,0],[1]]","4","[[2,1,0],[3,0],[0]]","8","0","","","","","","6","","","","","","","","",""
"","","","","","single-stim-button","230","342896","0.0-2.0-34.4-0.4","5c2a9b55867f660001af0515","F1","batch6","","551","tol_tohand","","","","tol_peg_2","551","551","0","[[3,0,0],[0,0],[1]]","5","[[2,1,0],[3,0],[0]]","8","0","","","","","","6","","","","","","","","",""
"","","","","","single-stim-button","231","343414","0.0-2.0-34.4-1.4","5c2a9b55867f660001af0515","F1","batch6","","517","tol_toboard","","","","tol_peg_1","517","517","0","[[3,2,0],[0,0],[1]]","5","[[2,1,0],[3,0],[0]]","8","0","","","","","","6","","","","","","","","",""
"","","","","","single-stim-button","232","343978","0.0-2.0-34.5-0.5","5c2a9b55867f660001af0515","F1","batch6","","563","tol_tohand","","","","tol_peg_1","563","563","0","[[3,0,0],[0,0],[1]]","6","[[2,1,0],[3,0],[0]]","8","0","","","","","","6","","","","","","","","",""
"","","","","","single-stim-button","233","345002","0.0-2.0-34.5-1.5","5c2a9b55867f660001af0515","F1","batch6","","1023","tol_toboard","","","","tol_peg_2","1023","1023","0","[[3,0,0],[2,0],[1]]","6","[[2,1,0],[3,0],[0]]","8","0","","","","","","6","","","","","","","","",""
"","","","","","single-stim-button","234","345494","0.0-2.0-34.6-0.6","5c2a9b55867f660001af0515","F1","batch6","","491","tol_tohand","","","","tol_peg_3","491","491","0","[[3,0,0],[2,0],[0]]","7","[[2,1,0],[3,0],[0]]","8","0","","","","","","6","","","","","","","","",""
"","","","","","single-stim-button","235","346162","0.0-2.0-34.6-1.6","5c2a9b55867f660001af0515","F1","batch6","","668","tol_toboard","","","","tol_peg_1","668","668","0","[[3,1,0],[2,0],[0]]","7","[[2,1,0],[3,0],[0]]","8","0","","","","","","6","","","","","","","","",""
"","","","","","single-stim-button","236","347980","0.0-2.0-34.7-0.7","5c2a9b55867f660001af0515","F1","batch6","","1817","tol_tohand","","","","tol_peg_2","1817","1817","0","[[3,1,0],[0,0],[0]]","8","[[2,1,0],[3,0],[0]]","8","0","","","","","","6","","","","","","","","",""
"","","","","","single-stim-button","237","348462","0.0-2.0-34.7-1.7","5c2a9b55867f660001af0515","F1","batch6","","481","tol_toboard","","","","tol_peg_3","481","481","0","[[3,1,0],[0,0],[2]]","8","[[2,1,0],[3,0],[0]]","8","0","","","","","","6","","","","","","","","",""
"","","","","","single-stim-button","238","350318","0.0-2.0-34.8-0.8","5c2a9b55867f660001af0515","F1","batch6","","1855","tol_tohand","","","","tol_peg_1","1855","1855","0","[[3,0,0],[0,0],[2]]","9","[[2,1,0],[3,0],[0]]","8","0","","","","","","6","","","","","","","","",""
"","","","","","single-stim-button","239","351205","0.0-2.0-34.8-1.8","5c2a9b55867f660001af0515","F1","batch6","","887","tol_toboard","","","","tol_peg_2","887","887","0","[[3,0,0],[1,0],[2]]","9","[[2,1,0],[3,0],[0]]","8","0","","","","","","6","","","","","","","","",""
"","","","","","single-stim-button","240","352321","0.0-2.0-34.9-0.9","5c2a9b55867f660001af0515","F1","batch6","","1115","tol_tohand","","","","tol_peg_1","1115","1115","0","[[0,0,0],[1,0],[2]]","10","[[2,1,0],[3,0],[0]]","8","0","","","","","","6","","","","","","","","",""
"","","","","","single-stim-button","241","352756","0.0-2.0-34.9-1.9","5c2a9b55867f660001af0515","F1","batch6","","434","tol_toboard","","","","tol_peg_2","434","434","0","[[0,0,0],[1,3],[2]]","10","[[2,1,0],[3,0],[0]]","8","0","","","","","","6","","","","","","","","",""
"","","","","","single-stim-button","242","353383","0.0-2.0-34.10-0.10","5c2a9b55867f660001af0515","F1","batch6","","626","tol_tohand","","","","tol_peg_2","626","626","0","[[0,0,0],[1,0],[2]]","11","[[2,1,0],[3,0],[0]]","8","0","","","","","","6","","","","","","","","",""
"","","","","","single-stim-button","243","354297","0.0-2.0-34.10-1.10","5c2a9b55867f660001af0515","F1","batch6","","913","tol_toboard","","","","tol_peg_1","913","913","0","[[3,0,0],[1,0],[2]]","11","[[2,1,0],[3,0],[0]]","8","0","","","","","","6","","","","","","","","",""
"","","","","","single-stim-button","244","355740","0.0-2.0-34.11-0.11","5c2a9b55867f660001af0515","F1","batch6","","1442","tol_tohand","","","","tol_peg_2","1442","1442","0","[[3,0,0],[0,0],[2]]","12","[[2,1,0],[3,0],[0]]","8","0","","","","","","6","","","","","","","","",""
"","","","","","single-stim-button","245","356303","0.0-2.0-34.11-1.11","5c2a9b55867f660001af0515","F1","batch6","","563","tol_toboard","","","","tol_peg_1","563","563","0","[[3,1,0],[0,0],[2]]","12","[[2,1,0],[3,0],[0]]","8","0","","","","","","6","","","","","","","","",""
"","","","","","single-stim-button","246","356905","0.0-2.0-34.12-0.12","5c2a9b55867f660001af0515","F1","batch6","","601","tol_tohand","","","","tol_peg_1","601","601","0","[[3,0,0],[0,0],[2]]","13","[[2,1,0],[3,0],[0]]","8","0","","","","","","6","","","","","","","","",""
"","","","","","single-stim-button","247","357690","0.0-2.0-34.12-1.12","5c2a9b55867f660001af0515","F1","batch6","","783","tol_toboard","","","","tol_peg_2","783","783","0","[[3,0,0],[1,0],[2]]","13","[[2,1,0],[3,0],[0]]","8","0","","","","","","6","","","","","","","","",""
"","","","","","single-stim-button","248","358209","0.0-2.0-34.13-0.13","5c2a9b55867f660001af0515","F1","batch6","","519","tol_tohand","","","","tol_peg_1","519","519","0","[[0,0,0],[1,0],[2]]","14","[[2,1,0],[3,0],[0]]","8","0","","","","","","6","","","","","","","","",""
"","","","","","single-stim-button","249","358661","0.0-2.0-34.13-1.13","5c2a9b55867f660001af0515","F1","batch6","","452","tol_toboard","","","","tol_peg_2","452","452","0","[[0,0,0],[1,3],[2]]","14","[[2,1,0],[3,0],[0]]","8","0","","","","","","6","","","","","","","","",""
"","","","","","single-stim-button","250","359845","0.0-2.0-34.14-0.14","5c2a9b55867f660001af0515","F1","batch6","","1184","tol_tohand","","","","tol_peg_3","1184","1184","0","[[0,0,0],[1,3],[0]]","15","[[2,1,0],[3,0],[0]]","8","0","","","","","","6","","","","","","","","",""
"","","","","","single-stim-button","251","360369","0.0-2.0-34.14-1.14","5c2a9b55867f660001af0515","F1","batch6","","523","tol_toboard","","","","tol_peg_1","523","523","0","[[2,0,0],[1,3],[0]]","15","[[2,1,0],[3,0],[0]]","8","0","","","","","","6","","","","","","","","",""
"","","","","","single-stim-button","252","361291","0.0-2.0-34.15-0.15","5c2a9b55867f660001af0515","F1","batch6","","922","tol_tohand","","","","tol_peg_2","922","922","0","[[2,0,0],[1,0],[0]]","16","[[2,1,0],[3,0],[0]]","8","0","","","","","","6","","","","","","","","",""
"","","","","","single-stim-button","253","361757","0.0-2.0-34.15-1.15","5c2a9b55867f660001af0515","F1","batch6","","466","tol_toboard","","","","tol_peg_3","466","466","0","[[2,0,0],[1,0],[3]]","16","[[2,1,0],[3,0],[0]]","8","0","","","","","","6","","","","","","","","",""
"","","","","","single-stim-button","254","362329","0.0-2.0-34.16-0.16","5c2a9b55867f660001af0515","F1","batch6","","572","tol_tohand","","","","tol_peg_2","572","572","0","[[2,0,0],[0,0],[3]]","17","[[2,1,0],[3,0],[0]]","8","0","","","","","","6","","","","","","","","",""
"","","","","","single-stim-button","255","362771","0.0-2.0-34.16-1.16","5c2a9b55867f660001af0515","F1","batch6","","442","tol_toboard","","","","tol_peg_1","442","442","0","[[2,1,0],[0,0],[3]]","17","[[2,1,0],[3,0],[0]]","8","0","","","","","","6","","","","","","","","",""
"","","","","","single-stim-button","256","363381","0.0-2.0-34.17-0.17","5c2a9b55867f660001af0515","F1","batch6","","609","tol_tohand","","","","tol_peg_3","609","609","0","[[2,1,0],[0,0],[0]]","18","[[2,1,0],[3,0],[0]]","8","0","","","","","","6","","","","","","","","",""
"","","","","","single-stim-button","257","364549","0.0-2.0-34.17-1.17","5c2a9b55867f660001af0515","F1","batch6","","1168","tol_toboard","","","","tol_peg_2","1168","1168","0","[[2,1,0],[3,0],[0]]","18","[[2,1,0],[3,0],[0]]","8","0","","","","","","6","","","","","","","","",""
"","","","","","poldrack-single-stim","258","365553","0.0-2.0-35.0","5c2a9b55867f660001af0515","F1","batch6","","-1","tol_feedback","","","true","","1000","1000","500","","","","","","-1","none","true","5704","20668","","","","","","","","","",""
"","","","","","html-button-response","259","366430","0.0-2.0-36.0","5c2a9b55867f660001af0515","F1","batch6","","874.3999999761581","tol_trial_num","<div class = centerbox><p class = center-block-text>problem <strong>10</strong> out of 25 problems</p></div>","0","","","","","","","","","","","","","","","","","","","","","","","","",""
"","","","","","single-stim-button","260","370401","0.0-2.0-37.0-0.0","5c2a9b55867f660001af0515","F1","batch6","","3971","tol_tohand","","","","tol_peg_2","3971","3971","0","[[3,0,0],[0,0],[2]]","1","[[3,0,0],[2,1],[0]]","9","0","","","","","","3","","","","","","","","",""
"","","","","","single-stim-button","261","370853","0.0-2.0-37.0-1.0","5c2a9b55867f660001af0515","F1","batch6","","451","tol_toboard","","","","tol_peg_1","451","451","0","[[3,1,0],[0,0],[2]]","1","[[3,0,0],[2,1],[0]]","9","0","","","","","","3","","","","","","","","",""
"","","","","","single-stim-button","262","371385","0.0-2.0-37.1-0.1","5c2a9b55867f660001af0515","F1","batch6","","531","tol_tohand","","","","tol_peg_3","531","531","0","[[3,1,0],[0,0],[0]]","2","[[3,0,0],[2,1],[0]]","9","0","","","","","","3","","","","","","","","",""
"","","","","","single-stim-button","263","371723","0.0-2.0-37.1-1.1","5c2a9b55867f660001af0515","F1","batch6","","338","tol_toboard","","","","tol_peg_2","338","338","0","[[3,1,0],[2,0],[0]]","2","[[3,0,0],[2,1],[0]]","9","0","","","","","","3","","","","","","","","",""
"","","","","","single-stim-button","264","372211","0.0-2.0-37.2-0.2","5c2a9b55867f660001af0515","F1","batch6","","488","tol_tohand","","","","tol_peg_1","488","488","0","[[3,0,0],[2,0],[0]]","3","[[3,0,0],[2,1],[0]]","9","0","","","","","","3","","","","","","","","",""
"","","","","","single-stim-button","265","372589","0.0-2.0-37.2-1.2","5c2a9b55867f660001af0515","F1","batch6","","378","tol_toboard","","","","tol_peg_2","378","378","0","[[3,0,0],[2,1],[0]]","3","[[3,0,0],[2,1],[0]]","9","0","","","","","","3","","","","","","","","",""
"","","","","","poldrack-single-stim","266","373592","0.0-2.0-38.0","5c2a9b55867f660001af0515","F1","batch6","","-1","tol_feedback","","","true","","1000","1000","500","","","","","","-1","none","true","3971","4990","","","","","","","","","",""
"","","","","","html-button-response","267","374457","0.0-2.0-39.0","5c2a9b55867f660001af0515","F1","batch6","","863.3000000119209","tol_trial_num","<div class = centerbox><p class = center-block-text>problem <strong>11</strong> out of 25 problems</p></div>","0","","","","","","","","","","","","","","","","","","","","","","","","",""
"","","","","","single-stim-button","268","377255","0.0-2.0-40.0-0.0","5c2a9b55867f660001af0515","F1","batch6","","2798","tol_tohand","","","","tol_peg_2","2798","2798","0","[[1,2,0],[0,0],[0]]","1","[[2,0,0],[1,3],[0]]","10","0","","","","","","6","","","","","","","","",""
"","","","","","single-stim-button","269","378349","0.0-2.0-40.0-1.0","5c2a9b55867f660001af0515","F1","batch6","","1094","tol_toboard","","","","tol_peg_3","1094","1094","0","[[1,2,0],[0,0],[3]]","1","[[2,0,0],[1,3],[0]]","10","0","","","","","","6","","","","","","","","",""
"","","","","","single-stim-button","270","378993","0.0-2.0-40.1-0.1","5c2a9b55867f660001af0515","F1","batch6","","643","tol_tohand","","","","tol_peg_1","643","643","0","[[1,0,0],[0,0],[3]]","2","[[2,0,0],[1,3],[0]]","10","0","","","","","","6","","","","","","","","",""
"","","","","","single-stim-button","271","380507","0.0-2.0-40.1-1.1","5c2a9b55867f660001af0515","F1","batch6","","1514","tol_toboard","","","","tol_peg_2","1514","1514","0","[[1,0,0],[2,0],[3]]","2","[[2,0,0],[1,3],[0]]","10","0","","","","","","6","","","","","","","","",""
"","","","","","single-stim-button","272","381073","0.0-2.0-40.2-0.2","5c2a9b55867f660001af0515","F1","batch6","","566","tol_tohand","","","","tol_peg_1","566","566","0","[[0,0,0],[2,0],[3]]","3","[[2,0,0],[1,3],[0]]","10","0","","","","","","6","","","","","","","","",""
"","","","","","single-stim-button","273","381519","0.0-2.0-40.2-1.2","5c2a9b55867f660001af0515","F1","batch6","","446","tol_toboard","","","","tol_peg_2","446","446","0","[[0,0,0],[2,1],[3]]","3","[[2,0,0],[1,3],[0]]","10","0","","","","","","6","","","","","","","","",""
"","","","","","single-stim-button","274","382127","0.0-2.0-40.3-0.3","5c2a9b55867f660001af0515","F1","batch6","","608","tol_tohand","","","","tol_peg_2","608","608","0","[[0,0,0],[2,0],[3]]","4","[[2,0,0],[1,3],[0]]","10","0","","","","","","6","","","","","","","","",""
"","","","","","single-stim-button","275","382732","0.0-2.0-40.3-1.3","5c2a9b55867f660001af0515","F1","batch6","","605","tol_toboard","","","","tol_peg_1","605","605","0","[[1,0,0],[2,0],[3]]","4","[[2,0,0],[1,3],[0]]","10","0","","","","","","6","","","","","","","","",""
"","","","","","single-stim-button","276","384327","0.0-2.0-40.4-0.4","5c2a9b55867f660001af0515","F1","batch6","","1595","tol_tohand","","","","tol_peg_3","1595","1595","0","[[1,0,0],[2,0],[0]]","5","[[2,0,0],[1,3],[0]]","10","0","","","","","","6","","","","","","","","",""
"","","","","","single-stim-button","277","384805","0.0-2.0-40.4-1.4","5c2a9b55867f660001af0515","F1","batch6","","478","tol_toboard","","","","tol_peg_2","478","478","0","[[1,0,0],[2,3],[0]]","5","[[2,0,0],[1,3],[0]]","10","0","","","","","","6","","","","","","","","",""
"","","","","","single-stim-button","278","385273","0.0-2.0-40.5-0.5","5c2a9b55867f660001af0515","F1","batch6","","468","tol_tohand","","","","tol_peg_2","468","468","0","[[1,0,0],[2,0],[0]]","6","[[2,0,0],[1,3],[0]]","10","0","","","","","","6","","","","","","","","",""
"","","","","","single-stim-button","279","386293","0.0-2.0-40.5-1.5","5c2a9b55867f660001af0515","F1","batch6","","1020","tol_toboard","","","","tol_peg_2","1020","1020","0","[[1,0,0],[2,3],[0]]","6","[[2,0,0],[1,3],[0]]","10","0","","","","","","6","","","","","","","","",""
"","","","","","single-stim-button","280","387147","0.0-2.0-40.6-0.6","5c2a9b55867f660001af0515","F1","batch6","","854","tol_tohand","","","","tol_peg_2","854","854","0","[[1,0,0],[2,0],[0]]","7","[[2,0,0],[1,3],[0]]","10","0","","","","","","6","","","","","","","","",""
"","","","","","single-stim-button","281","387629","0.0-2.0-40.6-1.6","5c2a9b55867f660001af0515","F1","batch6","","481","tol_toboard","","","","tol_peg_1","481","481","0","[[1,3,0],[2,0],[0]]","7","[[2,0,0],[1,3],[0]]","10","0","","","","","","6","","","","","","","","",""
"","","","","","single-stim-button","282","388201","0.0-2.0-40.7-0.7","5c2a9b55867f660001af0515","F1","batch6","","572","tol_tohand","","","","tol_peg_2","572","572","0","[[1,3,0],[0,0],[0]]","8","[[2,0,0],[1,3],[0]]","10","0","","","","","","6","","","","","","","","",""
"","","","","","single-stim-button","283","389345","0.0-2.0-40.7-1.7","5c2a9b55867f660001af0515","F1","batch6","","1144","tol_toboard","","","","tol_peg_3","1144","1144","0","[[1,3,0],[0,0],[2]]","8","[[2,0,0],[1,3],[0]]","10","0","","","","","","6","","","","","","","","",""
"","","","","","single-stim-button","284","390385","0.0-2.0-40.8-0.8","5c2a9b55867f660001af0515","F1","batch6","","1040","tol_tohand","","","","tol_peg_1","1040","1040","0","[[1,0,0],[0,0],[2]]","9","[[2,0,0],[1,3],[0]]","10","0","","","","","","6","","","","","","","","",""
"","","","","","single-stim-button","285","392975","0.0-2.0-40.8-1.8","5c2a9b55867f660001af0515","F1","batch6","","2590","tol_toboard","","","","tol_peg_1","2590","2590","0","[[1,3,0],[0,0],[2]]","9","[[2,0,0],[1,3],[0]]","10","0","","","","","","6","","","","","","","","",""
"","","","","","single-stim-button","286","393707","0.0-2.0-40.9-0.9","5c2a9b55867f660001af0515","F1","batch6","","732","tol_tohand","","","","tol_peg_1","732","732","0","[[1,0,0],[0,0],[2]]","10","[[2,0,0],[1,3],[0]]","10","0","","","","","","6","","","","","","","","",""
"","","","","","single-stim-button","287","394381","0.0-2.0-40.9-1.9","5c2a9b55867f660001af0515","F1","batch6","","674","tol_toboard","","","","tol_peg_2","674","674","0","[[1,0,0],[3,0],[2]]","10","[[2,0,0],[1,3],[0]]","10","0","","","","","","6","","","","","","","","",""
"","","","","","single-stim-button","288","394851","0.0-2.0-40.10-0.10","5c2a9b55867f660001af0515","F1","batch6","","470","tol_tohand","","","","tol_peg_1","470","470","0","[[0,0,0],[3,0],[2]]","11","[[2,0,0],[1,3],[0]]","10","0","","","","","","6","","","","","","","","",""
"","","","","","single-stim-button","289","395271","0.0-2.0-40.10-1.10","5c2a9b55867f660001af0515","F1","batch6","","420","tol_toboard","","","","tol_peg_2","420","420","0","[[0,0,0],[3,1],[2]]","11","[[2,0,0],[1,3],[0]]","10","0","","","","","","6","","","","","","","","",""
"","","","","","single-stim-button","290","395641","0.0-2.0-40.11-0.11","5c2a9b55867f660001af0515","F1","batch6","","370","tol_tohand","","","","tol_peg_2","370","370","0","[[0,0,0],[3,0],[2]]","12","[[2,0,0],[1,3],[0]]","10","0","","","","","","6","","","","","","","","",""
"","","","","","single-stim-button","291","397651","0.0-2.0-40.11-1.11","5c2a9b55867f660001af0515","F1","batch6","","2010","tol_toboard","","","","tol_peg_1","2010","2010","0","[[1,0,0],[3,0],[2]]","12","[[2,0,0],[1,3],[0]]","10","0","","","","","","6","","","","","","","","",""
"","","","","","single-stim-button","292","398911","0.0-2.0-40.12-0.12","5c2a9b55867f660001af0515","F1","batch6","","1259","tol_tohand","","","","tol_peg_3","1259","1259","0","[[1,0,0],[3,0],[0]]","13","[[2,0,0],[1,3],[0]]","10","0","","","","","","6","","","","","","","","",""
"","","","","","single-stim-button","293","399649","0.0-2.0-40.12-1.12","5c2a9b55867f660001af0515","F1","batch6","","738","tol_toboard","","","","tol_peg_1","738","738","0","[[1,2,0],[3,0],[0]]","13","[[2,0,0],[1,3],[0]]","10","0","","","","","","6","","","","","","","","",""
"","","","","","single-stim-button","294","400109","0.0-2.0-40.13-0.13","5c2a9b55867f660001af0515","F1","batch6","","460","tol_tohand","","","","tol_peg_1","460","460","0","[[1,0,0],[3,0],[0]]","14","[[2,0,0],[1,3],[0]]","10","0","","","","","","6","","","","","","","","",""
"","","","","","single-stim-button","295","401485","0.0-2.0-40.13-1.13","5c2a9b55867f660001af0515","F1","batch6","","1375","tol_toboard","","","","tol_peg_1","1375","1375","0","[[1,2,0],[3,0],[0]]","14","[[2,0,0],[1,3],[0]]","10","0","","","","","","6","","","","","","","","",""
"","","","","","single-stim-button","296","403355","0.0-2.0-40.14-0.14","5c2a9b55867f660001af0515","F1","batch6","","1870","tol_tohand","","","","tol_peg_2","1870","1870","0","[[1,2,0],[0,0],[0]]","15","[[2,0,0],[1,3],[0]]","10","0","","","","","","6","","","","","","","","",""
"","","","","","single-stim-button","297","403875","0.0-2.0-40.14-1.14","5c2a9b55867f660001af0515","F1","batch6","","520","tol_toboard","","","","tol_peg_3","520","520","0","[[1,2,0],[0,0],[3]]","15","[[2,0,0],[1,3],[0]]","10","0","","","","","","6","","","","","","","","",""
"","","","","","single-stim-button","298","408107","0.0-2.0-40.15-0.15","5c2a9b55867f660001af0515","F1","batch6","","4231","tol_tohand","","","","tol_peg_1","4231","4231","0","[[1,0,0],[0,0],[3]]","16","[[2,0,0],[1,3],[0]]","10","0","","","","","","6","","","","","","","","",""
"","","","","","single-stim-button","299","409187","0.0-2.0-40.15-1.15","5c2a9b55867f660001af0515","F1","batch6","","1079","tol_toboard","","","","tol_peg_1","1079","1079","0","[[1,2,0],[0,0],[3]]","16","[[2,0,0],[1,3],[0]]","10","0","","","","","","6","","","","","","","","",""
"","","","","","single-stim-button","300","410887","0.0-2.0-40.16-0.16","5c2a9b55867f660001af0515","F1","batch6","","1700","tol_tohand","","","","tol_peg_1","1700","1700","0","[[1,0,0],[0,0],[3]]","17","[[2,0,0],[1,3],[0]]","10","0","","","","","","6","","","","","","","","",""
"","","","","","single-stim-button","301","411395","0.0-2.0-40.16-1.16","5c2a9b55867f660001af0515","F1","batch6","","508","tol_toboard","","","","tol_peg_2","508","508","0","[[1,0,0],[2,0],[3]]","17","[[2,0,0],[1,3],[0]]","10","0","","","","","","6","","","","","","","","",""
"","","","","","single-stim-button","302","412039","0.0-2.0-40.17-0.17","5c2a9b55867f660001af0515","F1","batch6","","643","tol_tohand","","","","tol_peg_1","643","643","0","[[0,0,0],[2,0],[3]]","18","[[2,0,0],[1,3],[0]]","10","0","","","","","","6","","","","","","","","",""
"","","","","","single-stim-button","303","412548","0.0-2.0-40.17-1.17","5c2a9b55867f660001af0515","F1","batch6","","508","tol_toboard","","","","tol_peg_2","508","508","0","[[0,0,0],[2,1],[3]]","18","[[2,0,0],[1,3],[0]]","10","0","","","","","","6","","","","","","","","",""
"","","","","","single-stim-button","304","413009","0.0-2.0-40.18-0.18","5c2a9b55867f660001af0515","F1","batch6","","460","tol_tohand","","","","tol_peg_2","460","460","0","[[0,0,0],[2,0],[3]]","19","[[2,0,0],[1,3],[0]]","10","0","","","","","","6","","","","","","","","",""
"","","","","","single-stim-button","305","413735","0.0-2.0-40.18-1.18","5c2a9b55867f660001af0515","F1","batch6","","725","tol_toboard","","","","tol_peg_2","725","725","0","[[0,0,0],[2,1],[3]]","19","[[2,0,0],[1,3],[0]]","10","0","","","","","","6","","","","","","","","",""
"","","","","","single-stim-button","306","415282","0.0-2.0-40.19-0.19","5c2a9b55867f660001af0515","F1","batch6","","1545","tol_tohand","","","","tol_peg_3","1545","1545","0","[[0,0,0],[2,1],[0]]","20","[[2,0,0],[1,3],[0]]","10","0","","","","","","6","","","","","","","","",""
"","","","","","single-stim-button","307","415929","0.0-2.0-40.19-1.19","5c2a9b55867f660001af0515","F1","batch6","","647","tol_toboard","","","","tol_peg_1","647","647","0","[[3,0,0],[2,1],[0]]","20","[[2,0,0],[1,3],[0]]","10","0","","","","","","6","","","","","","","","",""
"","","","","","single-stim-button","308","416389","0.0-2.0-40.20-0.20","5c2a9b55867f660001af0515","F1","batch6","","459","tol_tohand","","","","tol_peg_2","459","459","0","[[3,0,0],[2,0],[0]]","21","[[2,0,0],[1,3],[0]]","10","0","","","","","","6","","","","","","","","",""
"","","","","","single-stim-button","309","417025","0.0-2.0-40.20-1.20","5c2a9b55867f660001af0515","F1","batch6","","635","tol_toboard","","","","tol_peg_3","635","635","0","[[3,0,0],[2,0],[1]]","21","[[2,0,0],[1,3],[0]]","10","0","","","","","","6","","","","","","","","",""
"","","","","","single-stim-button","310","418141","0.0-2.0-40.21-0.21","5c2a9b55867f660001af0515","F1","batch6","","1115","tol_tohand","","","","tol_peg_2","1115","1115","0","[[3,0,0],[0,0],[1]]","22","[[2,0,0],[1,3],[0]]","10","0","","","","","","6","","","","","","","","",""
"","","","","","single-stim-button","311","420176","0.0-2.0-40.21-1.21","5c2a9b55867f660001af0515","F1","batch6","","2033","tol_toboard","","","","tol_peg_1","2033","2033","0","[[3,2,0],[0,0],[1]]","22","[[2,0,0],[1,3],[0]]","10","0","","","","","","6","","","","","","","","",""
"","","","","","single-stim-button","312","420627","0.0-2.0-40.22-0.22","5c2a9b55867f660001af0515","F1","batch6","","451","tol_tohand","","","","tol_peg_1","451","451","0","[[3,0,0],[0,0],[1]]","23","[[2,0,0],[1,3],[0]]","10","0","","","","","","6","","","","","","","","",""
"","","","","","single-stim-button","313","421787","0.0-2.0-40.22-1.22","5c2a9b55867f660001af0515","F1","batch6","","1159","tol_toboard","","","","tol_peg_2","1159","1159","0","[[3,0,0],[2,0],[1]]","23","[[2,0,0],[1,3],[0]]","10","0","","","","","","6","","","","","","","","",""
"","","","","","single-stim-button","314","422359","0.0-2.0-40.23-0.23","5c2a9b55867f660001af0515","F1","batch6","","571","tol_tohand","","","","tol_peg_1","571","571","0","[[0,0,0],[2,0],[1]]","24","[[2,0,0],[1,3],[0]]","10","0","","","","","","6","","","","","","","","",""
"","","","","","single-stim-button","315","422766","0.0-2.0-40.23-1.23","5c2a9b55867f660001af0515","F1","batch6","","405","tol_toboard","","","","tol_peg_2","405","405","0","[[0,0,0],[2,3],[1]]","24","[[2,0,0],[1,3],[0]]","10","0","","","","","","6","","","","","","","","",""
"","","","","","single-stim-button","316","423181","0.0-2.0-40.24-0.24","5c2a9b55867f660001af0515","F1","batch6","","415","tol_tohand","","","","tol_peg_2","415","415","0","[[0,0,0],[2,0],[1]]","25","[[2,0,0],[1,3],[0]]","10","0","","","","","","6","","","","","","","","",""
"","","","","","single-stim-button","317","425057","0.0-2.0-40.24-1.24","5c2a9b55867f660001af0515","F1","batch6","","1875","tol_toboard","","","","tol_peg_1","1875","1875","0","[[3,0,0],[2,0],[1]]","25","[[2,0,0],[1,3],[0]]","10","0","","","","","","6","","","","","","","","",""
"","","","","","single-stim-button","318","425685","0.0-2.0-40.25-0.25","5c2a9b55867f660001af0515","F1","batch6","","627","tol_tohand","","","","tol_peg_2","627","627","0","[[3,0,0],[0,0],[1]]","26","[[2,0,0],[1,3],[0]]","10","0","","","","","","6","","","","","","","","",""
"","","","","","single-stim-button","319","426309","0.0-2.0-40.25-1.25","5c2a9b55867f660001af0515","F1","batch6","","624","tol_toboard","","","","tol_peg_1","624","624","0","[[3,2,0],[0,0],[1]]","26","[[2,0,0],[1,3],[0]]","10","0","","","","","","6","","","","","","","","",""
"","","","","","single-stim-button","320","427044","0.0-2.0-40.26-0.26","5c2a9b55867f660001af0515","F1","batch6","","733","tol_tohand","","","","tol_peg_1","733","733","0","[[3,0,0],[0,0],[1]]","27","[[2,0,0],[1,3],[0]]","10","0","","","","","","6","","","","","","","","",""
"","","","","","single-stim-button","321","427707","0.0-2.0-40.26-1.26","5c2a9b55867f660001af0515","F1","batch6","","663","tol_toboard","","","","tol_peg_2","663","663","0","[[3,0,0],[2,0],[1]]","27","[[2,0,0],[1,3],[0]]","10","0","","","","","","6","","","","","","","","",""
"","","","","","single-stim-button","322","428843","0.0-2.0-40.27-0.27","5c2a9b55867f660001af0515","F1","batch6","","1135","tol_tohand","","","","tol_peg_1","1135","1135","0","[[0,0,0],[2,0],[1]]","28","[[2,0,0],[1,3],[0]]","10","0","","","","","","6","","","","","","","","",""
"","","","","","single-stim-button","323","430056","0.0-2.0-40.27-1.27","5c2a9b55867f660001af0515","F1","batch6","","1211","tol_toboard","","","","tol_peg_2","1211","1211","0","[[0,0,0],[2,3],[1]]","28","[[2,0,0],[1,3],[0]]","10","0","","","","","","6","","","","","","","","",""
"","","","","","single-stim-button","324","431301","0.0-2.0-40.28-0.28","5c2a9b55867f660001af0515","F1","batch6","","1245","tol_tohand","","","","tol_peg_2","1245","1245","0","[[0,0,0],[2,0],[1]]","29","[[2,0,0],[1,3],[0]]","10","0","","","","","","6","","","","","","","","",""
"","","","","","single-stim-button","325","431677","0.0-2.0-40.28-1.28","5c2a9b55867f660001af0515","F1","batch6","","375","tol_toboard","","","","tol_peg_2","375","375","0","[[0,0,0],[2,3],[1]]","29","[[2,0,0],[1,3],[0]]","10","0","","","","","","6","","","","","","","","",""
"","","","","","single-stim-button","326","432449","0.0-2.0-40.29-0.29","5c2a9b55867f660001af0515","F1","batch6","","771","tol_tohand","","","","tol_peg_2","771","771","0","[[0,0,0],[2,0],[1]]","30","[[2,0,0],[1,3],[0]]","10","0","","","","","","6","","","","","","","","",""
"","","","","","single-stim-button","327","432887","0.0-2.0-40.29-1.29","5c2a9b55867f660001af0515","F1","batch6","","437","tol_toboard","","","","tol_peg_1","437","437","0","[[3,0,0],[2,0],[1]]","30","[[2,0,0],[1,3],[0]]","10","0","","","","","","6","","","","","","","","",""
"","","","","","single-stim-button","328","433299","0.0-2.0-40.30-0.30","5c2a9b55867f660001af0515","F1","batch6","","412","tol_tohand","","","","tol_peg_2","412","412","0","[[3,0,0],[0,0],[1]]","31","[[2,0,0],[1,3],[0]]","10","0","","","","","","6","","","","","","","","",""
"","","","","","single-stim-button","329","433789","0.0-2.0-40.30-1.30","5c2a9b55867f660001af0515","F1","batch6","","489","tol_toboard","","","","tol_peg_1","489","489","0","[[3,2,0],[0,0],[1]]","31","[[2,0,0],[1,3],[0]]","10","0","","","","","","6","","","","","","","","",""
"","","","","","single-stim-button","330","434933","0.0-2.0-40.31-0.31","5c2a9b55867f660001af0515","F1","batch6","","1143","tol_tohand","","","","tol_peg_3","1143","1143","0","[[3,2,0],[0,0],[0]]","32","[[2,0,0],[1,3],[0]]","10","0","","","","","","6","","","","","","","","",""
"","","","","","single-stim-button","331","435305","0.0-2.0-40.31-1.31","5c2a9b55867f660001af0515","F1","batch6","","371","tol_toboard","","","","tol_peg_2","371","371","0","[[3,2,0],[1,0],[0]]","32","[[2,0,0],[1,3],[0]]","10","0","","","","","","6","","","","","","","","",""
"","","","","","single-stim-button","332","436618","0.0-2.0-40.32-0.32","5c2a9b55867f660001af0515","F1","batch6","","1311","tol_tohand","","","","tol_peg_1","1311","1311","0","[[3,0,0],[1,0],[0]]","33","[[2,0,0],[1,3],[0]]","10","0","","","","","","6","","","","","","","","",""
"","","","","","single-stim-button","333","437447","0.0-2.0-40.32-1.32","5c2a9b55867f660001af0515","F1","batch6","","829","tol_toboard","","","","tol_peg_2","829","829","0","[[3,0,0],[1,2],[0]]","33","[[2,0,0],[1,3],[0]]","10","0","","","","","","6","","","","","","","","",""
"","","","","","single-stim-button","334","438337","0.0-2.0-40.33-0.33","5c2a9b55867f660001af0515","F1","batch6","","889","tol_tohand","","","","tol_peg_1","889","889","0","[[0,0,0],[1,2],[0]]","34","[[2,0,0],[1,3],[0]]","10","0","","","","","","6","","","","","","","","",""
"","","","","","single-stim-button","335","438870","0.0-2.0-40.33-1.33","5c2a9b55867f660001af0515","F1","batch6","","531","tol_toboard","","","","tol_peg_3","531","531","0","[[0,0,0],[1,2],[3]]","34","[[2,0,0],[1,3],[0]]","10","0","","","","","","6","","","","","","","","",""
"","","","","","single-stim-button","336","440097","0.0-2.0-40.34-0.34","5c2a9b55867f660001af0515","F1","batch6","","1227","tol_tohand","","","","tol_peg_2","1227","1227","0","[[0,0,0],[1,0],[3]]","35","[[2,0,0],[1,3],[0]]","10","0","","","","","","6","","","","","","","","",""
"","","","","","single-stim-button","337","440653","0.0-2.0-40.34-1.34","5c2a9b55867f660001af0515","F1","batch6","","555","tol_toboard","","","","tol_peg_1","555","555","0","[[2,0,0],[1,0],[3]]","35","[[2,0,0],[1,3],[0]]","10","0","","","","","","6","","","","","","","","",""
"","","","","","single-stim-button","338","441249","0.0-2.0-40.35-0.35","5c2a9b55867f660001af0515","F1","batch6","","596","tol_tohand","","","","tol_peg_3","596","596","0","[[2,0,0],[1,0],[0]]","36","[[2,0,0],[1,3],[0]]","10","0","","","","","","6","","","","","","","","",""
"","","","","","single-stim-button","339","441645","0.0-2.0-40.35-1.35","5c2a9b55867f660001af0515","F1","batch6","","396","tol_toboard","","","","tol_peg_2","396","396","0","[[2,0,0],[1,3],[0]]","36","[[2,0,0],[1,3],[0]]","10","0","","","","","","6","","","","","","","","",""
"","","","","","poldrack-single-stim","340","442648","0.0-2.0-41.0","5c2a9b55867f660001af0515","F1","batch6","","-1","tol_feedback","","","true","","1000","1000","500","","","","","","-1","none","true","2798","35984","","","","","","","","","",""
"","","","","","html-button-response","341","443615","0.0-2.0-42.0","5c2a9b55867f660001af0515","F1","batch6","","965.6999999880791","tol_trial_num","<div class = centerbox><p class = center-block-text>problem <strong>12</strong> out of 25 problems</p></div>","0","","","","","","","","","","","","","","","","","","","","","","","","",""
"","","","","","single-stim-button","342","448665","0.0-2.0-43.0-0.0","5c2a9b55867f660001af0515","F1","batch6","","5050","tol_tohand","","","","tol_peg_1","5050","5050","0","[[1,0,0],[3,0],[0]]","1","[[2,3,0],[0,0],[1]]","11","0","","","","","","4","","","","","","","","",""
"","","","","","single-stim-button","343","449523","0.0-2.0-43.0-1.0","5c2a9b55867f660001af0515","F1","batch6","","857","tol_toboard","","","","tol_peg_3","857","857","0","[[1,0,0],[3,0],[2]]","1","[[2,3,0],[0,0],[1]]","11","0","","","","","","4","","","","","","","","",""
"","","","","","single-stim-button","344","451566","0.0-2.0-43.1-0.1","5c2a9b55867f660001af0515","F1","batch6","","2041","tol_tohand","","","","tol_peg_1","2041","2041","0","[[0,0,0],[3,0],[2]]","2","[[2,3,0],[0,0],[1]]","11","0","","","","","","4","","","","","","","","",""
"","","","","","single-stim-button","345","452061","0.0-2.0-43.1-1.1","5c2a9b55867f660001af0515","F1","batch6","","495","tol_toboard","","","","tol_peg_2","495","495","0","[[0,0,0],[3,1],[2]]","2","[[2,3,0],[0,0],[1]]","11","0","","","","","","4","","","","","","","","",""
"","","","","","single-stim-button","346","452777","0.0-2.0-43.2-0.2","5c2a9b55867f660001af0515","F1","batch6","","715","tol_tohand","","","","tol_peg_3","715","715","0","[[0,0,0],[3,1],[0]]","3","[[2,3,0],[0,0],[1]]","11","0","","","","","","4","","","","","","","","",""
"","","","","","single-stim-button","347","454103","0.0-2.0-43.2-1.2","5c2a9b55867f660001af0515","F1","batch6","","1325","tol_toboard","","","","tol_peg_1","1325","1325","0","[[2,0,0],[3,1],[0]]","3","[[2,3,0],[0,0],[1]]","11","0","","","","","","4","","","","","","","","",""
"","","","","","single-stim-button","348","454787","0.0-2.0-43.3-0.3","5c2a9b55867f660001af0515","F1","batch6","","683","tol_tohand","","","","tol_peg_2","683","683","0","[[2,0,0],[3,0],[0]]","4","[[2,3,0],[0,0],[1]]","11","0","","","","","","4","","","","","","","","",""
"","","","","","single-stim-button","349","455255","0.0-2.0-43.3-1.3","5c2a9b55867f660001af0515","F1","batch6","","467","tol_toboard","","","","tol_peg_3","467","467","0","[[2,0,0],[3,0],[1]]","4","[[2,3,0],[0,0],[1]]","11","0","","","","","","4","","","","","","","","",""
"","","","","","single-stim-button","350","456319","0.0-2.0-43.4-0.4","5c2a9b55867f660001af0515","F1","batch6","","1064","tol_tohand","","","","tol_peg_2","1064","1064","0","[[2,0,0],[0,0],[1]]","5","[[2,3,0],[0,0],[1]]","11","0","","","","","","4","","","","","","","","",""
"","","","","","single-stim-button","351","456821","0.0-2.0-43.4-1.4","5c2a9b55867f660001af0515","F1","batch6","","501","tol_toboard","","","","tol_peg_1","501","501","0","[[2,3,0],[0,0],[1]]","5","[[2,3,0],[0,0],[1]]","11","0","","","","","","4","","","","","","","","",""
"","","","","","poldrack-single-stim","352","457823","0.0-2.0-44.0","5c2a9b55867f660001af0515","F1","batch6","","-1","tol_feedback","","","true","","1000","1000","500","","","","","","-1","none","true","5050","9553","","","","","","","","","",""
"","","","","","html-button-response","353","458681","0.0-2.0-45.0","5c2a9b55867f660001af0515","F1","batch6","","856.1999999880791","tol_trial_num","<div class = centerbox><p class = center-block-text>problem <strong>13</strong> out of 25 problems</p></div>","0","","","","","","","","","","","","","","","","","","","","","","","","",""
"","","","","","single-stim-button","354","461471","0.0-2.0-46.0-0.0","5c2a9b55867f660001af0515","F1","batch6","","2790","tol_tohand","","","","tol_peg_2","2790","2790","0","[[1,2,0],[0,0],[0]]","1","[[0,0,0],[2,3],[1]]","12","0","","","","","","4","","","","","","","","",""
"","","","","","single-stim-button","355","462005","0.0-2.0-46.0-1.0","5c2a9b55867f660001af0515","F1","batch6","","533","tol_toboard","","","","tol_peg_3","533","533","0","[[1,2,0],[0,0],[3]]","1","[[0,0,0],[2,3],[1]]","12","0","","","","","","4","","","","","","","","",""
"","","","","","single-stim-button","356","463761","0.0-2.0-46.1-0.1","5c2a9b55867f660001af0515","F1","batch6","","1755","tol_tohand","","","","tol_peg_1","1755","1755","0","[[1,0,0],[0,0],[3]]","2","[[0,0,0],[2,3],[1]]","12","0","","","","","","4","","","","","","","","",""
